#K IRAF       = NOAO/IRAFV2.16.1        version    %-23s     
#K USER       = juan                    name       %-23s     
#K HOST       = juan-UX303LA            computer   %-23s     
#K DATE       = 2016-03-27              yyyy-mm-dd %-23s     
#K TIME       = 21:46:53                hh:mm:ss   %-23s     
#K PACKAGE    = daophot                 name       %-23s     
#K TASK       = psf                     name       %-23s     
#K IMAGE      = V                       imagename  %-23s     
#K PHOTFILE   = V.mag.1                 filename   %-23s     
#K PSTFILE    = V.pst.1                 filename   %-23s     
#K PSFIMAGE   = V.psf.1                 imagename  %-23s     
#K GRPSFILE   = V.psg.1                 filename   %-23s     
#K OPSTFILE   = V.pst.2                 filename   %-23s     
#K SCALE      = 1.                      units/pix  %-23.7g   
#K OTIME      = INDEF                   timeunit   %-23s     
#K IFILTER    = INDEF                   filter     %-23s     
#K XAIRMASS   = INDEF                   number     %-23.7g   
#K PSFRAD     = 13.                     scaleunit  %-23.7g   
#K FITRAD     = 4.                      scaleunit  %-23.7g   
#
#N ID    GROUP XCENTER   YCENTER   MAG         MSKY                            \
#U ##    ##    pixels    pixels    magnitudes  counts                          \
#F %-9d  %-6d  %-10.3f   %-10.3f   %-12.3f     %-15.7g                          
#
5077     1     1790.769  1879.245  14.352      1065.576                         
5078     1     1800.840  1876.391  15.968      1062.58                          
5081     1     1789.020  1881.492  14.371      1058.229                         
2505     2     680.841   816.414   14.517      3607.646                         
2456     2     662.512   804.576   18.313      3613.805                         
2467     2     698.200   804.915   18.177      3760.515                         
2499     2     667.697   813.195   16.585      3501.245                         
2536     2     688.391   819.429   15.184      3503.67                          
2562     2     677.321   823.944   14.654      3476.682                         
2606     2     669.418   834.523   16.587      3250.479                         
2621     2     681.278   837.176   16.809      3471.418                         
521      3     1424.826  290.276   14.537      2107.851                         
503      3     1427.717  275.420   16.728      2080.006                         
536      3     1422.551  292.152   14.546      2127.67                          
2482     4     884.403   811.539   14.550      5016.139                         
2412     4     872.913   795.405   15.928      4653.131                         
2430     4     886.919   799.514   16.627      5018.47                          
2474     4     868.499   806.451   16.362      4648.511                         
2515     4     883.413   814.282   14.567      5002.209                         
2522     4     900.580   817.530   17.221      5074.222                         
2588     4     900.535   817.617   17.219      5075.706                         
115      5     1984.072  87.422    14.609      1125.358                         
116      5     1999.065  86.332    16.302      1128.773                         
121      5     1981.642  88.028    14.610      1126.869                         
2164     6     758.086   749.182   14.619      4425.304                         
2134     6     759.392   746.843   14.640      4413.617                         
2141     6     739.691   741.324   18.586      4120.984                         
2183     6     741.294   747.510   18.167      4166.572                         
2200     6     757.139   750.404   14.659      4431.034                         
2240     6     766.076   758.690   16.882      4139.767                         
2163     6     733.253   745.353   18.111      3923.03                          
2908     7     860.000   900.762   14.645      4664.217                         
2826     7     868.605   882.620   18.814      4907.169                         
2832     7     859.884   896.846   14.721      4736.524                         
2880     7     859.678   898.909   14.648      4686.723                         
2883     7     877.519   897.524   16.072      5006.564                         
2904     7     847.812   902.218   16.193      4443.259                         
2938     7     878.477   910.513   16.860      4798.831                         
2975     7     872.766   915.939   17.452      4792.268                         
3150     8     1358.067  967.021   14.647      3287.363                         
3147     8     1346.984  957.956   16.307      3403.09                          
3176     8     1358.187  969.992   14.647      3308.304                         
3201     8     1355.472  971.257   14.698      3327.35                          
3208     8     1339.911  971.502   18.235      3670.08                          
3268     8     1366.302  984.523   16.897      3392.244                         
4987     9     619.762   1771.037  14.653      1255.276                         
4983     9     620.201   1767.999  14.682      1246.865                         
3894     10    453.959   1161.838  14.657      1926.375                         
3875     10    454.030   1162.209  14.664      1921.967                         
4918     11    782.265   1709.298  14.670      1415.871                         
4915     11    795.515   1705.109  17.179      1424.504                         
4925     11    780.425   1712.134  14.698      1412.345                         
5050     12    1330.454  1851.154  14.674      1268.529                         
5053     12    1329.979  1853.734  14.741      1273.348                         
268      13    1653.019  171.319   14.679      1396.416                         
256      13    1653.721  169.818   14.681      1391.386                         
264      13    1641.048  170.524   16.630      1455.226                         
5108     14    1081.131  1910.112  14.682      1215.839                         
5105     14    1082.480  1909.323  14.699      1220.231                         
5085     15    1639.985  1894.061  14.686      1198.318                         
5092     15    1636.712  1895.431  14.690      1205.901                         
5098     15    1656.737  1902.073  17.831      1137.245                         
4962     16    1451.121  1748.082  14.703      1357.042                         
4942     16    1448.602  1729.398  14.818      1386.874                         
4948     16    1449.397  1729.133  14.813      1388.926                         
4970     16    1451.000  1748.653  14.709      1358.048                         
4971     16    1469.866  1751.910  15.549      1396.865                         
4972     16    1436.370  1754.568  16.803      1354.627                         
5135     17    545.779   1943.252  14.722      1093.328                         
5143     17    542.723   1944.725  14.734      1091.024                         
4478     18    930.807   1391.293  14.725      2335.124                         
4437     18    933.797   1371.642  15.843      2465.912                         
4465     18    914.146   1386.476  17.760      2306.734                         
4468     18    932.247   1388.334  14.768      2344.668                         
2070     19    1782.551  730.000   14.741      1728.669                         
2035     19    1769.391  718.211   17.460      1727.917                         
2103     19    1782.639  730.887   14.745      1729.065                         
2169     19    1777.105  745.283   17.722      1756.173                         
1290     20    1022.635  537.972   14.745      4345.361                         
1231     20    1020.451  519.543   18.668      4244.566                         
1237     20    1034.669  522.130   17.995      4223.442                         
1241     20    1011.327  523.420   18.029      4335.113                         
1289     20    1023.117  538.064   14.748      4334.557                         
1307     20    1020.518  537.577   14.755      4359.889                         
1333     20    1031.188  549.090   16.842      4246.43                          
1338     20    1015.047  549.205   16.453      4365.5                           
1952     21    1629.889  704.971   14.748      2039.796                         
1986     21    1629.732  705.014   14.751      2038.071                         
766      22    1481.014  393.284   14.752      2106.723                         
730      22    1474.758  373.590   17.952      2073.68                          
777      22    1499.061  392.569   16.734      2098.489                         
790      22    1481.014  393.284   14.752      2106.723                         
812      22    1492.701  404.358   16.141      2074.972                         
4373     23    904.399   1344.000  14.752      2571.479                         
4364     23    904.854   1343.277  14.760      2572.166                         
4390     23    903.467   1344.358  14.756      2574.341                         
4411     23    906.802   1363.211  17.323      2528.233                         
1301     24    1847.226  535.397   14.769      1419.028                         
1287     24    1847.226  535.397   14.769      1419.028                         
335      25    83.060    206.476   14.779      1243.264                         
326      25    83.211    206.458   14.780      1242.615                         
349      25    81.757    207.546   14.783      1246.983                         
252      26    428.837   163.988   14.801      1625.544                         
261      26    446.910   171.065   17.741      1625.712                         
1148     27    1034.777  486.913   14.801      4011.52                          
1037     27    1035.877  468.311   17.299      3709.086                         
1051     27    1018.931  471.656   18.035      3725.813                         
1091     27    1048.478  480.633   17.801      3895.591                         
1101     27    1035.700  486.623   14.808      4016.754                         
1123     27    1035.569  486.954   14.804      4020.56                          
3227     28    417.771   977.064   14.807      1821.326                         
3203     28    417.771   977.064   14.807      1821.326                         
3238     28    435.371   979.568   17.780      1891.715                         
3818     29    1373.785  1137.832  14.808      2803.313                         
3756     29    1366.469  1120.703  17.524      2821.273                         
3798     29    1374.918  1137.104  14.809      2806.299                         
3857     29    1367.317  1152.189  16.891      2854.793                         
3877     29    1367.317  1152.189  16.891      2854.793                         
3878     29    1373.776  1159.242  16.890      2855.556                         
2949     30    1420.677  914.949   14.824      3233.163                         
2886     30    1430.814  897.468   16.203      3152.439                         
2957     30    1406.510  912.519   17.379      3305.192                         
159      31    447.192   114.836   14.830      1594.564                         
168      31    446.432   116.023   14.843      1603.462                         
4790     32    639.101   1591.121  14.838      1436.564                         
4762     32    650.990   1573.674  17.301      1478.492                         
4783     32    640.982   1589.286  14.853      1430.518                         
4749     32    648.256   1566.238  17.543      1498.686                         
1578     33    960.320   618.207   14.842      4679.896                         
1537     33    960.742   606.784   15.859      4592.441                         
1558     33    960.742   606.784   15.859      4592.441                         
1586     33    943.824   614.457   20.073      4676.742                         
1595     33    958.489   618.920   14.856      4707.549                         
1608     33    958.534   619.325   14.858      4718.274                         
1625     33    969.865   624.565   16.660      4660.773                         
1641     33    958.324   618.258   14.854      4683.227                         
1690     33    953.993   638.209   18.651      4755.94                          
1253     34    1120.059  528.362   14.847      3868.237                         
1208     34    1113.221  511.499   17.508      3602.472                         
1247     34    1130.163  525.421   15.434      3822.055                         
1278     34    1100.333  529.540   18.622      4128.896                         
295      35    1342.436  190.567   14.847      1995.439                         
303      35    1340.470  191.151   14.855      1996.253                         
304      35    1360.960  192.872   17.189      1978.188                         
318      35    1357.899  199.487   17.073      1974.845                         
