###################################################################
## OUTPUT of StarlightChains_v04.for    [Cid@UFSC - 01/Apr/2007] ##
###################################################################

## Some input info
NGC1851_a_1.cxt                          [arq_obs]
Base.BC03.S                              [arq_base]
NGC1851_a_1.msk                          [arq_masks]
StCv04.C11.config                        [arq_config]
  150                                    [N_base]
    0                                    [N_YAV_components = # of components with extra extinction!]
    0                                    [i_FitPowerLaw (1/0 = Yes/No)]
-9.99                                    [alpha_PowerLaw]
CCM                                      [red_law_option]
 1.458241                                [q_norm = A(l_norm)/A(V)]

## (Re)Sampling Parameters
 3359.00                                 [l_ini (A)]
 6428.00                                 [l_fin (A)]
    1.00                                 [dl    (A)]     (OBS: dl_cushion =    50.00 A)

## Normalization info
 4020.00                                 [l_norm (A) - for base]
 4010.00                                 [llow_norm (A) - window for f_obs]
 4060.00                                 [lupp_norm (A) - window for f_obs]
8.317932E-14                             [fobs_norm (in input units)]

## S/N
 4730.00                                 [llow_SN (A) - window for S/N]
 4780.00                                 [lupp_SN (A) - window for S/N]
  72.129                                 [S/N in S/N window]
  63.854                                 [S/N in norm. window]
 355.079                                 [S/N_err in S/N window]
 314.342                                 [S/N_err in norm. window]
  1.0000                                 [fscale_chi2]

## etc...
  2147483647                             [idum_orig]
  3064                                   [NOl_eff]
   686                                   [Nl_eff]
  2378    NSIGMA                         [Ntot_cliped & clip_method]
  1656270                                [Nglobal_steps]
   7                                     [N_chains]
  19                                     [NEX0s_base = N_base in EX0s-fits]
 0   0   1      243   2.0   6.677E+02    [Clip-Bug, RC-Crash & Burn-In warning-flags, n_censored_weights, wei_nsig_threshold & wei_limit]
    74     74.190     74.186      0.004  [idt_all, wdt_TotTime, wdt_UsrTime & wdt_SysTime (sec)]

## Synthesis Results - Best model ##

 2.79954E+00                             [chi2/Nl_eff]
     0.61935                             [adev (%)]

   101.68870                             [sum-of-x (%)]
 9.56271E-14                             [Flux_tot (units of input spectrum!)]
 1.34238E-09                             [Mini_tot (???)]
 6.99957E-10                             [Mcor_tot (???)]

  -3.49                                  [v0_min  (km/s)]
  68.22                                  [vd_min  (km/s)]
 0.0914                                  [AV_min  (mag)]
 0.0000                                  [YAV_min (mag)]

# j     x_j(%)      Mini_j(%)     Mcor_j(%)     age_j(yr)     Z_j      (L/M)_j    YAV?  Mstars   component_j        a/Fe...       SSP_chi2r SSP_adev(%)   SSP_AV   SSP_x(%)
  1      0.0000     0.0000E+00    0.0000E+00    1.000000E+06  0.00010  8.160E-03    0   1.0000   age020_m22            0.0000     2.9244E+03    15.8282   3.7657    77.7825
  2      6.6433     9.7791E-03    1.8754E-02    3.160000E+06  0.00010  4.759E-02    0   1.0000   age045_m22            0.0000     5.2555E+02     7.1036   1.7147    98.1250
  3      0.0000     0.0000E+00    0.0000E+00    5.010000E+06  0.00010  1.932E-02    0   0.9582   age055_m22            0.0000     2.6389E+03    15.3977   2.0481    84.4692
  4      0.0000     0.0000E+00    0.0000E+00    6.610000E+06  0.00010  9.973E-03    0   0.9297   age061_m22            0.0000     2.9222E+03    16.0483   3.7250    80.6659
  5      0.0000     0.0000E+00    0.0000E+00    8.710000E+06  0.00010  7.690E-03    0   0.9030   age067_m22            0.0000     2.7802E+03    15.6841   3.7177    81.0661
  6      0.0000     0.0000E+00    0.0000E+00    1.000000E+07  0.00010  6.375E-03    0   0.8902   age070_m22            0.0000     2.6634E+03    15.3616   3.7332    81.2106
  7      0.0000     0.0000E+00    0.0000E+00    1.445000E+07  0.00010  4.874E-03    0   0.8589   age078_m22            0.0000     2.0527E+03    13.6797   3.5455    84.0347
  8      0.0000     0.0000E+00    0.0000E+00    2.512000E+07  0.00010  4.103E-03    0   0.8174   age090_m22            0.0000     1.1140E+03    10.3065   3.1255    90.3789
  9      0.0000     0.0000E+00    0.0000E+00    4.000000E+07  0.00010  3.654E-03    0   0.7830   age104_m22            0.0000     7.6414E+02     7.8275   2.8137    95.2269
 10      0.0000     0.0000E+00    0.0000E+00    5.500000E+07  0.00010  3.093E-03    0   0.7597   age110_m22            0.0000     7.0411E+02     7.1032   2.7110    96.7126
 11      0.0000     0.0000E+00    0.0000E+00    1.015200E+08  0.00010  2.431E-03    0   0.7138   age116_m22            0.0000     7.7746E+02     6.9936   2.3569    99.6420
 12      0.0000     0.0000E+00    0.0000E+00    1.609000E+08  0.00010  1.319E-03    0   0.6775   age120_m22            0.0000     7.2741E+02     6.5624   1.8906   101.4138
 13      0.0000     0.0000E+00    0.0000E+00    2.861200E+08  0.00010  1.075E-03    0   0.6412   age125_m22            0.0000     1.5210E+03     8.4372   1.9637   104.5201
 14      0.0000     0.0000E+00    0.0000E+00    5.088000E+08  0.00010  7.183E-04    0   0.6083   age130_m22            0.0000     1.8293E+03     9.1343   1.7353   106.0222
 15      0.0000     0.0000E+00    0.0000E+00    9.047900E+08  0.00010  4.524E-04    0   0.5785   age135_m22            0.0000     1.8511E+03     9.1546   1.5315   107.2471
 16      0.0000     0.0000E+00    0.0000E+00    1.278050E+09  0.00010  3.018E-04    0   0.5588   age138_m22            0.0000     8.7492E+02     6.4699   0.9796   106.0091
 17      0.0000     0.0000E+00    0.0000E+00    1.434000E+09  0.00010  2.691E-04    0   0.5532   age139_m22            0.0000     7.0976E+02     5.8642   0.8195   105.5297
 18      0.0000     0.0000E+00    0.0000E+00    2.500000E+09  0.00010  1.582E-04    0   0.5296   age150_m22            0.0000     6.4212E+02     5.7831   0.7026   106.4241
 19      0.0000     0.0000E+00    0.0000E+00    4.250000E+09  0.00010  1.007E-04    0   0.5110   age158_m22            0.0000     3.5707E+02     4.5120   0.5431   105.0448
 20      0.0000     0.0000E+00    0.0000E+00    6.250000E+09  0.00010  6.869E-05    0   0.4985   age166_m22            0.0000     1.9440E+02     3.5767   0.4824   102.4953
 21      0.4942     5.8953E-01    5.5751E-01    7.500000E+09  0.00010  5.873E-05    0   0.4931   age171_m22            0.0000     2.0545E+02     3.7402   0.4712   101.9814
 22      0.0821     1.2835E-01    1.1948E-01    1.000000E+10  0.00010  4.481E-05    0   0.4854   age181_m22            0.0000     1.9525E+02     3.6331   0.4328   101.6025
 23      0.0000     0.0000E+00    0.0000E+00    1.300000E+10  0.00010  3.489E-05    0   0.4791   age193_m22            0.0000     1.6900E+02     3.3969   0.3747   101.0572
 24      0.0000     0.0000E+00    0.0000E+00    1.500000E+10  0.00010  3.035E-05    0   0.4766   age201_m22            0.0000     1.5775E+02     3.3087   0.3342   100.8853
 25      0.0000     0.0000E+00    0.0000E+00    1.800000E+10  0.00010  2.510E-05    0   0.4735   age213_m22            0.0000     1.3847E+02     3.1935   0.2640   100.2947
 26      0.0000     0.0000E+00    0.0000E+00    1.000000E+06  0.00040  8.458E-03    0   1.0000   age020_m32            0.0000     2.8832E+03    15.7798   3.7812    78.4581
 27      0.0000     0.0000E+00    0.0000E+00    3.160000E+06  0.00040  3.973E-02    0   1.0000   age045_m32            0.0000     1.1998E+03    10.7119   3.0207    90.5934
 28      0.0000     0.0000E+00    0.0000E+00    5.010000E+06  0.00040  1.935E-02    0   0.9532   age055_m32            0.0000     2.3321E+03    14.6987   3.2586    84.6323
 29      0.0000     0.0000E+00    0.0000E+00    6.610000E+06  0.00040  1.204E-02    0   0.9243   age061_m32            0.0000     2.4987E+03    14.9878   3.5802    82.6259
 30      0.0000     0.0000E+00    0.0000E+00    8.710000E+06  0.00040  9.433E-03    0   0.9001   age067_m32            0.0000     2.2723E+03    14.3591   3.5506    83.5131
 31      0.0000     0.0000E+00    0.0000E+00    1.000000E+07  0.00040  8.053E-03    0   0.8877   age070_m32            0.0000     2.1854E+03    14.1111   3.5144    83.9456
 32      0.0000     0.0000E+00    0.0000E+00    1.445000E+07  0.00040  7.027E-03    0   0.8578   age078_m32            0.0000     1.4976E+03    12.0226   2.9749    89.2304
 33      0.0000     0.0000E+00    0.0000E+00    2.512000E+07  0.00040  4.707E-03    0   0.8166   age090_m32            0.0000     1.0307E+03     9.9126   2.6712    93.0989
 34      0.0000     0.0000E+00    0.0000E+00    4.000000E+07  0.00040  3.714E-03    0   0.7827   age104_m32            0.0000     7.6093E+02     7.9649   2.4611    96.5237
 35      0.0000     0.0000E+00    0.0000E+00    5.500000E+07  0.00040  2.982E-03    0   0.7593   age110_m32            0.0000     7.1973E+02     7.3650   2.3985    97.6573
 36      0.0000     0.0000E+00    0.0000E+00    1.015200E+08  0.00040  2.188E-03    0   0.7143   age116_m32            0.0000     9.2040E+02     7.0426   2.1331   101.7031
 37      0.0000     0.0000E+00    0.0000E+00    1.609000E+08  0.00040  1.690E-03    0   0.6856   age120_m32            0.0000     1.2678E+03     7.9009   1.9312   104.2093
 38      0.0000     0.0000E+00    0.0000E+00    2.861200E+08  0.00040  1.152E-03    0   0.6509   age125_m32            0.0000     1.5759E+03     8.5498   1.7161   105.6882
 39      0.0000     0.0000E+00    0.0000E+00    5.088000E+08  0.00040  7.331E-04    0   0.6182   age130_m32            0.0000     1.6947E+03     8.7697   1.5507   106.3104
 40      0.0000     0.0000E+00    0.0000E+00    9.047900E+08  0.00040  3.960E-04    0   0.5890   age135_m32            0.0000     8.9058E+02     6.4428   1.0738   105.1584
 41      0.0000     0.0000E+00    0.0000E+00    1.278050E+09  0.00040  2.854E-04    0   0.5687   age138_m32            0.0000     7.1207E+02     5.9877   0.7695   107.3697
 42      0.0000     0.0000E+00    0.0000E+00    1.434000E+09  0.00040  2.531E-04    0   0.5632   age139_m32            0.0000     6.9803E+02     5.9548   0.7071   107.3945
 43      1.1176     5.2616E-01    5.4349E-01    2.500000E+09  0.00040  1.488E-04    0   0.5386   age150_m32            0.0000     4.5650E+02     4.9049   0.4440   105.9274
 44     19.9181     1.5364E+01    1.5319E+01    4.250000E+09  0.00040  9.082E-05    0   0.5199   age158_m32            0.0000     1.3662E+02     2.9870   0.3356   102.8735
 45      3.3583     3.6980E+00    3.5999E+00    6.250000E+09  0.00040  6.362E-05    0   0.5076   age166_m32            0.0000     1.2240E+02     3.1672   0.2922    99.5582
 46      6.3741     8.4426E+00    8.1393E+00    7.500000E+09  0.00040  5.289E-05    0   0.5027   age171_m32            0.0000     1.2579E+02     3.2121   0.2556    98.2729
 47     13.8615     2.4447E+01    2.3199E+01    1.000000E+10  0.00040  3.972E-05    0   0.4948   age181_m32            0.0000     1.2010E+02     3.0760   0.1924    96.8745
 48      0.1590     3.3924E-01    3.1685E-01    1.300000E+10  0.00040  3.283E-05    0   0.4870   age193_m32            0.0000     6.9990E+01     2.3366   0.1487    99.5345
 49      0.4051     9.7032E-01    9.0327E-01    1.500000E+10  0.00040  2.925E-05    0   0.4854   age201_m32            0.0000     7.3972E+01     2.2348   0.1312   101.0782
 50      0.5530     1.5691E+00    1.4502E+00    1.800000E+10  0.00040  2.469E-05    0   0.4819   age213_m32            0.0000     7.7236E+01     2.2277   0.0909   101.5620
 51      0.0000     0.0000E+00    0.0000E+00    1.000000E+06  0.00400  1.114E-02    0   1.0000   age020_m42            0.0000     2.7594E+03    15.4071   3.7091    78.8594
 52      0.0000     0.0000E+00    0.0000E+00    3.160000E+06  0.00400  4.073E-02    0   0.9999   age045_m42            0.0000     7.9855E+02     8.7149   2.7155    93.5308
 53      0.0000     0.0000E+00    0.0000E+00    5.010000E+06  0.00400  2.534E-02    0   0.9488   age055_m42            0.0000     1.5972E+03    12.2266   3.1303    86.9141
 54      0.0000     0.0000E+00    0.0000E+00    6.610000E+06  0.00400  2.583E-02    0   0.9220   age061_m42            0.0000     7.0767E+02     8.0887   2.5182    94.3912
 55      0.0000     0.0000E+00    0.0000E+00    8.710000E+06  0.00400  1.706E-02    0   0.8983   age067_m42            0.0000     1.0793E+03    10.3491   2.3423    92.3672
 56      0.0000     0.0000E+00    0.0000E+00    1.000000E+07  0.00400  1.271E-02    0   0.8862   age070_m42            0.0000     1.4771E+03    12.1470   2.3304    90.7446
 57      0.0000     0.0000E+00    0.0000E+00    1.445000E+07  0.00400  7.666E-03    0   0.8571   age078_m42            0.0000     1.8265E+03    13.1511   2.7434    87.3102
 58      0.0000     0.0000E+00    0.0000E+00    2.512000E+07  0.00400  5.070E-03    0   0.8174   age090_m42            0.0000     1.2859E+03    11.3121   2.2003    92.1946
 59      0.0000     0.0000E+00    0.0000E+00    4.000000E+07  0.00400  3.505E-03    0   0.7851   age104_m42            0.0000     8.3041E+02     8.9802   1.8759    95.0583
 60      0.0000     0.0000E+00    0.0000E+00    5.500000E+07  0.00400  3.059E-03    0   0.7629   age110_m42            0.0000     5.2351E+02     5.9673   1.9276    99.6277
 61      0.0000     0.0000E+00    0.0000E+00    1.015200E+08  0.00400  2.268E-03    0   0.7207   age116_m42            0.0000     1.0523E+03     6.9520   1.8389   104.7208
 62      0.0000     0.0000E+00    0.0000E+00    1.609000E+08  0.00400  1.720E-03    0   0.6930   age120_m42            0.0000     1.1144E+03     7.0515   1.7006   106.4305
 63      0.0000     0.0000E+00    0.0000E+00    2.861200E+08  0.00400  1.079E-03    0   0.6613   age125_m42            0.0000     1.1133E+03     7.1260   1.3533   106.4980
 64      0.0000     0.0000E+00    0.0000E+00    5.088000E+08  0.00400  6.261E-04    0   0.6313   age130_m42            0.0000     1.3369E+03     7.6618   1.1560   109.3564
 65      0.0000     0.0000E+00    0.0000E+00    9.047900E+08  0.00400  3.535E-04    0   0.6024   age135_m42            0.0000     7.4298E+02     5.7023   0.7354   109.9693
 66      0.0008     2.0005E-04    2.2394E-04    1.278050E+09  0.00400  2.677E-04    0   0.5837   age138_m42            0.0000     2.2433E+02     3.9343   0.0298   107.1113
 67      0.0000     0.0000E+00    0.0000E+00    1.434000E+09  0.00400  1.910E-04    0   0.5716   age139_m42            0.0000     2.7801E+02     3.9561   0.2039   108.1118
 68     35.1028     2.5047E+01    2.6241E+01    2.500000E+09  0.00400  9.818E-05    0   0.5463   age150_m42            0.0000     7.4561E+01     2.6123  -0.0732   103.3453
 69      0.0000     0.0000E+00    0.0000E+00    4.250000E+09  0.00400  5.491E-05    0   0.5269   age158_m42            0.0000     1.1084E+02     2.8586  -0.1972   100.5198
 70      0.0000     0.0000E+00    0.0000E+00    6.250000E+09  0.00400  3.857E-05    0   0.5151   age166_m42            0.0000     2.0949E+02     3.7449  -0.3243    99.0576
 71      0.0000     0.0000E+00    0.0000E+00    7.500000E+09  0.00400  3.243E-05    0   0.5110   age171_m42            0.0000     2.8171E+02     4.2788  -0.4031    98.4137
 72      0.0000     0.0000E+00    0.0000E+00    1.000000E+10  0.00400  2.424E-05    0   0.5028   age181_m42            0.0000     3.8968E+02     4.9746  -0.4838    97.7119
 73      0.0000     0.0000E+00    0.0000E+00    1.300000E+10  0.00400  1.883E-05    0   0.4927   age193_m42            0.0000     4.7618E+02     5.4736  -0.5245    97.3657
 74      0.8341     3.4678E+00    3.2714E+00    1.500000E+10  0.00400  1.685E-05    0   0.4919   age201_m42            0.0000     4.5105E+02     5.3070  -0.5187    97.3904
 75      0.0000     0.0000E+00    0.0000E+00    1.800000E+10  0.00400  1.452E-05    0   0.4874   age213_m42            0.0000     4.0404E+02     5.0226  -0.5023    97.6678
 76      0.0000     0.0000E+00    0.0000E+00    1.000000E+06  0.00800  1.286E-02    0   1.0000   age020_m52            0.0000     2.4764E+03    14.6815   3.6908    80.5440
 77      0.0000     0.0000E+00    0.0000E+00    3.160000E+06  0.00800  3.147E-02    0   0.9966   age045_m52            0.0000     2.3924E+03    14.5432   3.5957    82.1462
 78      0.0000     0.0000E+00    0.0000E+00    5.010000E+06  0.00800  2.664E-02    0   0.9443   age055_m52            0.0000     1.8290E+03    12.8417   3.2550    85.6303
 79      0.0000     0.0000E+00    0.0000E+00    6.610000E+06  0.00800  2.151E-02    0   0.9177   age061_m52            0.0000     1.1629E+03    10.3970   1.9276    92.1433
 80      0.0000     0.0000E+00    0.0000E+00    8.710000E+06  0.00800  1.628E-02    0   0.8948   age067_m52            0.0000     1.2175E+03    10.8559   2.3076    92.3410
 81      0.0000     0.0000E+00    0.0000E+00    1.000000E+07  0.00800  1.215E-02    0   0.8827   age070_m52            0.0000     1.4674E+03    11.8585   2.6570    90.3429
 82      0.0000     0.0000E+00    0.0000E+00    1.445000E+07  0.00800  8.739E-03    0   0.8552   age078_m52            0.0000     1.2549E+03    10.8746   2.6954    91.7081
 83      0.0000     0.0000E+00    0.0000E+00    2.512000E+07  0.00800  5.676E-03    0   0.8162   age090_m52            0.0000     9.3623E+02     9.0144   2.2852    96.6046
 84      0.0000     0.0000E+00    0.0000E+00    4.000000E+07  0.00800  3.939E-03    0   0.7841   age104_m52            0.0000     7.6827E+02     7.4581   2.1235    99.0090
 85      0.0000     0.0000E+00    0.0000E+00    5.500000E+07  0.00800  3.155E-03    0   0.7627   age110_m52            0.0000     7.3010E+02     6.6880   2.0888   100.6920
 86      0.0000     0.0000E+00    0.0000E+00    1.015200E+08  0.00800  2.206E-03    0   0.7226   age116_m52            0.0000     8.3075E+02     6.3430   1.8928   104.6096
 87      0.0000     0.0000E+00    0.0000E+00    1.609000E+08  0.00800  1.596E-03    0   0.6963   age120_m52            0.0000     9.5142E+02     6.5905   1.6814   106.1375
 88      0.0000     0.0000E+00    0.0000E+00    2.861200E+08  0.00800  1.002E-03    0   0.6665   age125_m52            0.0000     1.3807E+03     7.7493   1.3945   108.4302
 89      0.0000     0.0000E+00    0.0000E+00    5.088000E+08  0.00800  5.759E-04    0   0.6377   age130_m52            0.0000     1.4407E+03     8.2471   1.0383   112.3260
 90      0.0000     0.0000E+00    0.0000E+00    9.047900E+08  0.00800  2.972E-04    0   0.6086   age135_m52            0.0000     6.9399E+02     6.5058   0.4839   111.3328
 91      0.0000     0.0000E+00    0.0000E+00    1.278050E+09  0.00800  2.242E-04    0   0.5907   age138_m52            0.0000     2.9466E+02     4.8202  -0.1486   109.8883
 92      0.0000     0.0000E+00    0.0000E+00    1.434000E+09  0.00800  1.645E-04    0   0.5787   age139_m52            0.0000     2.2373E+02     4.1284   0.0004   109.4542
 93      0.0000     0.0000E+00    0.0000E+00    2.500000E+09  0.00800  7.723E-05    0   0.5519   age150_m52            0.0000     2.3769E+02     4.4820  -0.3403   105.5540
 94      0.2948     4.9746E-01    5.0754E-01    4.250000E+09  0.00800  4.151E-05    0   0.5320   age158_m52            0.0000     2.8079E+02     4.5610  -0.4080   102.9920
 95      0.0000     0.0000E+00    0.0000E+00    6.250000E+09  0.00800  3.010E-05    0   0.5197   age166_m52            0.0000     4.6867E+02     5.7298  -0.6010   101.3718
 96      0.0000     0.0000E+00    0.0000E+00    7.500000E+09  0.00800  2.467E-05    0   0.5139   age171_m52            0.0000     5.2508E+02     6.0601  -0.6432   100.9257
 97      0.0308     1.1599E-01    1.1242E-01    1.000000E+10  0.00800  1.862E-05    0   0.5054   age181_m52            0.0000     7.0398E+02     7.0773  -0.7756   100.4002
 98      1.1962     5.8480E+00    5.5942E+00    1.300000E+10  0.00800  1.433E-05    0   0.4988   age193_m52            0.0000     9.0834E+02     8.1204  -0.8769   100.9632
 99      0.0000     0.0000E+00    0.0000E+00    1.500000E+10  0.00800  1.244E-05    0   0.4936   age201_m52            0.0000     9.8840E+02     8.4927  -0.9075   101.3883
100      0.0000     0.0000E+00    0.0000E+00    1.800000E+10  0.00800  1.070E-05    0   0.4888   age213_m52            0.0000     1.0514E+03     8.7801  -0.9447   101.2308
101      0.0000     0.0000E+00    0.0000E+00    1.000000E+06  0.02000  1.989E-02    0   1.0000   age020_m62            0.0000     2.7120E+03    15.2190   3.6612    79.7339
102      0.0000     0.0000E+00    0.0000E+00    3.160000E+06  0.02000  3.772E-02    0   0.9858   age045_m62            0.0000     2.4989E+03    14.7603   3.5122    82.0112
103      0.0000     0.0000E+00    0.0000E+00    5.010000E+06  0.02000  3.227E-02    0   0.9342   age055_m62            0.0000     1.1918E+03    10.6271   2.9704    89.9200
104      0.0000     0.0000E+00    0.0000E+00    6.610000E+06  0.02000  2.387E-02    0   0.9090   age061_m62            0.0000     1.7115E+03    12.8720   2.7214    89.2512
105      0.0000     0.0000E+00    0.0000E+00    8.710000E+06  0.02000  1.102E-02    0   0.8861   age067_m62            0.0000     3.8946E+03    19.0230   2.3725    84.2034
106      0.0000     0.0000E+00    0.0000E+00    1.000000E+07  0.02000  1.011E-02    0   0.8751   age070_m62            0.0000     2.8285E+03    16.3370   2.3866    86.8266
107      0.0000     0.0000E+00    0.0000E+00    1.445000E+07  0.02000  7.331E-03    0   0.8472   age078_m62            0.0000     2.0979E+03    14.1116   2.3985    88.3451
108      0.0000     0.0000E+00    0.0000E+00    2.512000E+07  0.02000  4.206E-03    0   0.8099   age090_m62            0.0000     2.1251E+03    13.9906   2.3126    87.5492
109      0.0000     0.0000E+00    0.0000E+00    4.000000E+07  0.02000  3.373E-03    0   0.7799   age104_m62            0.0000     8.2512E+02     8.5752   2.0998    96.3738
110      0.0000     0.0000E+00    0.0000E+00    5.500000E+07  0.02000  2.747E-03    0   0.7595   age110_m62            0.0000     6.9275E+02     6.8483   2.0267    99.8334
111      0.0000     0.0000E+00    0.0000E+00    1.015200E+08  0.02000  1.878E-03    0   0.7221   age116_m62            0.0000     1.0008E+03     7.1085   1.8818   104.6263
112      0.0000     0.0000E+00    0.0000E+00    1.609000E+08  0.02000  1.378E-03    0   0.6978   age120_m62            0.0000     1.3413E+03     7.7496   1.7280   107.1584
113      0.0000     0.0000E+00    0.0000E+00    2.861200E+08  0.02000  8.869E-04    0   0.6700   age125_m62            0.0000     1.9843E+03     8.9992   1.3570   111.2333
114      0.0000     0.0000E+00    0.0000E+00    5.088000E+08  0.02000  4.834E-04    0   0.6430   age130_m62            0.0000     1.6135E+03     8.6602   0.9039   113.7734
115      0.0000     0.0000E+00    0.0000E+00    9.047900E+08  0.02000  2.312E-04    0   0.6152   age135_m62            0.0000     6.2968E+02     6.0010   0.2688   113.6014
116      0.0000     0.0000E+00    0.0000E+00    1.278050E+09  0.02000  1.387E-04    0   0.5927   age138_m62            0.0000     2.3770E+02     4.3314  -0.1080   108.9049
117      0.0000     0.0000E+00    0.0000E+00    1.434000E+09  0.02000  1.168E-04    0   0.5865   age139_m62            0.0000     2.0359E+02     4.1436  -0.1336   107.2607
118      0.0000     0.0000E+00    0.0000E+00    2.500000E+09  0.02000  5.505E-05    0   0.5610   age150_m62            0.0000     3.8335E+02     5.5488  -0.5135   104.0859
119      0.0000     0.0000E+00    0.0000E+00    4.250000E+09  0.02000  3.070E-05    0   0.5407   age158_m62            0.0000     7.7190E+02     7.7973  -0.8146   103.7092
120      0.0000     0.0000E+00    0.0000E+00    6.250000E+09  0.02000  2.104E-05    0   0.5277   age166_m62            0.0000     1.0153E+03     8.9320  -0.9498   104.0234
121      0.0000     0.0000E+00    0.0000E+00    7.500000E+09  0.02000  1.770E-05    0   0.5223   age171_m62            0.0000     1.1577E+03     9.4769  -1.0000   103.4609
122      0.0000     0.0000E+00    0.0000E+00    1.000000E+10  0.02000  1.297E-05    0   0.5121   age181_m62            0.0000     1.5964E+03    10.6791  -1.0000   100.2029
123      0.0000     0.0000E+00    0.0000E+00    1.300000E+10  0.02000  9.691E-06    0   0.5047   age193_m62            0.0000     1.9511E+03    11.5492  -1.0000    98.5313
124      0.0000     0.0000E+00    0.0000E+00    1.500000E+10  0.02000  8.360E-06    0   0.4999   age201_m62            0.0000     2.2931E+03    12.4045  -1.0000    97.0131
125      0.0000     0.0000E+00    0.0000E+00    1.800000E+10  0.02000  6.911E-06    0   0.4946   age213_m62            0.0000     2.7247E+03    13.4560  -1.0000    95.3914
126      0.0000     0.0000E+00    0.0000E+00    1.000000E+06  0.05000  2.651E-02    0   0.9998   age020_m72            0.0000     2.5237E+03    14.5518   3.6624    80.5576
127      0.0000     0.0000E+00    0.0000E+00    3.160000E+06  0.05000  4.817E-02    0   0.9577   age045_m72            0.0000     1.8796E+03    12.8505   3.3600    85.3159
128      0.0000     0.0000E+00    0.0000E+00    5.010000E+06  0.05000  3.101E-02    0   0.9147   age055_m72            0.0000     1.7244E+03    12.5106   3.0147    87.9651
129      0.0000     0.0000E+00    0.0000E+00    6.610000E+06  0.05000  1.472E-02    0   0.8877   age061_m72            0.0000     3.0255E+03    16.3529   2.6164    85.6262
130      0.0000     0.0000E+00    0.0000E+00    8.710000E+06  0.05000  1.050E-02    0   0.8638   age067_m72            0.0000     2.2220E+03    13.9730   2.9919    86.1865
131      0.0000     0.0000E+00    0.0000E+00    1.000000E+07  0.05000  8.954E-03    0   0.8524   age070_m72            0.0000     1.7155E+03    12.1170   3.2586    86.3028
132      0.0000     0.0000E+00    0.0000E+00    1.445000E+07  0.05000  6.392E-03    0   0.8262   age078_m72            0.0000     1.4942E+03    11.3117   3.2001    87.3413
133      0.0000     0.0000E+00    0.0000E+00    2.512000E+07  0.05000  4.207E-03    0   0.7902   age090_m72            0.0000     9.6143E+02     9.1252   2.8137    91.8550
134      0.0000     0.0000E+00    0.0000E+00    4.000000E+07  0.05000  3.198E-03    0   0.7618   age104_m72            0.0000     6.9931E+02     6.0552   2.2765   100.1113
135      0.0000     0.0000E+00    0.0000E+00    5.500000E+07  0.05000  2.593E-03    0   0.7432   age110_m72            0.0000     8.4332E+02     6.5085   2.1760   102.1521
136      0.0000     0.0000E+00    0.0000E+00    1.015200E+08  0.05000  1.716E-03    0   0.7092   age116_m72            0.0000     1.1759E+03     7.4607   1.9823   104.8092
137      0.0000     0.0000E+00    0.0000E+00    1.609000E+08  0.05000  1.218E-03    0   0.6876   age120_m72            0.0000     1.5517E+03     8.0833   1.7014   107.6031
138      0.0000     0.0000E+00    0.0000E+00    2.861200E+08  0.05000  7.047E-04    0   0.6618   age125_m72            0.0000     1.8723E+03     9.0275   1.1456   111.6570
139      0.0000     0.0000E+00    0.0000E+00    5.088000E+08  0.05000  3.590E-04    0   0.6356   age130_m72            0.0000     1.3568E+03     8.3018   0.5358   114.8720
140      0.0000     0.0000E+00    0.0000E+00    9.047900E+08  0.05000  1.484E-04    0   0.6088   age135_m72            0.0000     4.3776E+02     5.9295  -0.2130   108.3252
141      7.4784     5.5526E+00    6.3084E+00    1.278050E+09  0.05000  9.435E-05    0   0.5924   age138_m72            0.0000     6.4140E+02     7.3639  -0.6262   105.0511
142      3.7845     3.3872E+00    3.7982E+00    1.434000E+09  0.05000  7.827E-05    0   0.5847   age139_m72            0.0000     6.2818E+02     7.2261  -0.6099   104.4505
143      0.0000     0.0000E+00    0.0000E+00    2.500000E+09  0.05000  3.759E-05    0   0.5583   age150_m72            0.0000     1.0133E+03     8.9672  -0.9412   103.4637
144      0.0000     0.0000E+00    0.0000E+00    4.250000E+09  0.05000  1.842E-05    0   0.5374   age158_m72            0.0000     1.6791E+03    10.9811  -1.0000    97.3116
145      0.0000     0.0000E+00    0.0000E+00    6.250000E+09  0.05000  1.207E-05    0   0.5242   age166_m72            0.0000     2.7231E+03    13.7273  -1.0000    91.2682
146      0.0000     0.0000E+00    0.0000E+00    7.500000E+09  0.05000  9.993E-06    0   0.5183   age171_m72            0.0000     2.9354E+03    14.2252  -1.0000    90.1705
147      0.0000     0.0000E+00    0.0000E+00    1.000000E+10  0.05000  7.291E-06    0   0.5081   age181_m72            0.0000     3.7328E+03    15.8993  -1.0000    86.9833
148      0.0000     0.0000E+00    0.0000E+00    1.300000E+10  0.05000  5.316E-06    0   0.5018   age193_m72            0.0000     5.1042E+03    18.3520  -1.0000    82.3384
149      0.0000     0.0000E+00    0.0000E+00    1.500000E+10  0.05000  4.497E-06    0   0.4972   age201_m72            0.0000     5.7509E+03    19.3779  -1.0000    80.7013
150      0.0000     0.0000E+00    0.0000E+00    1.800000E+10  0.05000  3.739E-06    0   0.4924   age213_m72            0.0000     6.6848E+03    20.7703  -1.0000    78.2098


## Synthesis Results - Average & Chains ##

# j      x_j: min, <> & last-chain-values for 1 ...  7 chains
  1      0.0000      0.0028      0.0000      0.0000      0.0000      0.0000      0.0000      0.0000      0.0000
  2      6.6433      6.4166      6.3844      6.5904      6.7344      6.4445      6.3601      6.6212      6.4812
  3      0.0000      0.0063      0.0000      0.0000      0.0000      0.0000      0.0000      0.0000      0.0000
  4      0.0000      0.0011      0.0000      0.0000      0.0000      0.0000      0.0000      0.0000      0.0000
  5      0.0000      0.0020      0.0000      0.0000      0.0000      0.0000      0.0000      0.0000      0.0000
  6      0.0000      0.0013      0.0000      0.0000      0.0000      0.0000      0.0000      0.0000      0.0000
  7      0.0000      0.0016      0.0000      0.0000      0.0000      0.0000      0.0000      0.0000      0.0000
  8      0.0000      0.0040      0.0023      0.0000      0.0000      0.0000      0.0000      0.0017      0.0000
  9      0.0000      0.0231      0.1219      0.0000      0.0000      0.0161      0.0355      0.0000      0.0000
 10      0.0000      0.0071      0.0000      0.0000      0.0000      0.0090      0.0000      0.0334      0.0000
 11      0.0000      0.0138      0.0000      0.0000      0.0000      0.0000      0.0000      0.0000      0.0834
 12      0.0000      0.0146      0.0769      0.0000      0.0000      0.0000      0.0000      0.0215      0.1281
 13      0.0000      0.0120      0.0000      0.0000      0.0813      0.0000      0.1097      0.0000      0.0000
 14      0.0000      0.0098      0.0000      0.0000      0.0000      0.0000      0.0000      0.0000      0.0000
 15      0.0000      0.0118      0.0000      0.0000      0.0000      0.0000      0.0000      0.0059      0.0000
 16      0.0000      0.0170      0.0000      0.0000      0.0000      0.0462      0.0000      0.0027      0.0000
 17      0.0000      0.0299      0.0000      0.0070      0.0000      0.0000      0.0225      0.0000      0.0000
 18      0.0000      0.0261      0.0000      0.1053      0.0000      0.0000      0.0000      0.0000      0.0000
 19      0.0000      0.0496      0.0000      0.0000      0.0167      0.0000      0.0000      0.0489      0.0000
 20      0.0000      0.1415      0.2994      0.1273      0.4229      0.3167      0.0000      0.1357      0.1556
 21      0.4942      0.2136      0.1839      0.0000      0.0000      0.2550      0.2738      0.2527      0.1132
 22      0.0821      0.1484      0.0000      0.0132      0.1913      0.1672      0.0861      0.1981      0.0943
 23      0.0000      0.1277      0.2848      0.0835      0.0000      0.0859      0.0499      0.0000      0.2240
 24      0.0000      0.1373      0.0000      0.0000      0.0027      0.1481      0.4289      0.0000      0.1127
 25      0.0000      0.1613      0.0000      0.0126      0.1889      0.0000      0.0768      0.1803      0.0903
 26      0.0000      0.0022      0.0000      0.0000      0.0000      0.0000      0.0000      0.0000      0.0000
 27      0.0000      0.0066      0.0000      0.0000      0.0128      0.0000      0.0000      0.0000      0.0007
 28      0.0000      0.0043      0.0000      0.0000      0.0000      0.0000      0.0000      0.0000      0.0000
 29      0.0000      0.0030      0.0000      0.0000      0.0000      0.0000      0.0000      0.0000      0.0006
 30      0.0000      0.0018      0.0000      0.0000      0.0000      0.0000      0.0000      0.0000      0.0000
 31      0.0000      0.0024      0.0000      0.0000      0.0000      0.0000      0.0000      0.0000      0.0000
 32      0.0000      0.0066      0.0000      0.0000      0.0000      0.0000      0.0379      0.0000      0.0000
 33      0.0000      0.0067      0.0000      0.0000      0.0000      0.0003      0.0000      0.0000      0.0000
 34      0.0000      0.0108      0.1309      0.0120      0.0000      0.0000      0.0000      0.0452      0.0333
 35      0.0000      0.0073      0.0000      0.0000      0.0001      0.0031      0.0700      0.0000      0.0420
 36      0.0000      0.0131      0.0000      0.0000      0.0676      0.0000      0.0000      0.0000      0.0557
 37      0.0000      0.0141      0.0000      0.0000      0.0000      0.0000      0.0000      0.0097      0.0120
 38      0.0000      0.0062      0.0038      0.0000      0.0000      0.0000      0.0000      0.0456      0.0171
 39      0.0000      0.0093      0.0292      0.0000      0.0000      0.0000      0.0000      0.0000      0.0000
 40      0.0000      0.0182      0.0000      0.0000      0.0000      0.0000      0.0287      0.0000      0.0000
 41      0.0000      0.0294      0.0000      0.0000      0.0000      0.0000      0.0621      0.0000      0.1949
 42      0.0000      0.0486      0.0000      0.3842      0.1996      0.0000      0.0018      0.0000      0.0000
 43      1.1176      1.5561      0.9684      1.5573      1.6087      1.3443      1.4847      1.2614      1.4111
 44     19.9181     18.4584     18.0625     18.6658     18.9054     19.4115     18.7374     18.5731     18.7506
 45      3.3583      3.6286      4.3225      3.9994      3.5421      3.6484      3.8221      4.4624      3.7762
 46      6.3741      6.2488      6.7516      6.4292      6.0501      6.3187      6.4168      5.8921      6.6505
 47     13.8615     13.6085     13.4395     13.7761     13.8238     13.5511     13.8538     13.5956     13.7153
 48      0.1590      0.2235      0.8280      0.1451      0.0000      0.0000      0.0000      0.2130      0.0110
 49      0.4051      0.1764      0.1234      0.0362      0.0803      0.2904      0.1488      0.3133      0.0000
 50      0.5530      0.1558      0.0000      0.4016      0.2622      0.0131      0.1196      0.2186      0.2029
 51      0.0000      0.0030      0.0000      0.0000      0.0000      0.0000      0.0000      0.0000      0.0000
 52      0.0000      0.0116      0.0000      0.0000      0.0000      0.0000      0.0000      0.0000      0.0000
 53      0.0000      0.0015      0.0000      0.0000      0.0000      0.0000      0.0000      0.0000      0.0000
 54      0.0000      0.0214      0.0000      0.0000      0.0000      0.0000      0.0591      0.0000      0.0000
 55      0.0000      0.0075      0.0000      0.0000      0.0000      0.0000      0.0000      0.0130      0.0000
 56      0.0000      0.0029      0.0000      0.0000      0.0000      0.0000      0.0000      0.0000      0.0000
 57      0.0000      0.0035      0.0000      0.0000      0.0000      0.0000      0.0000      0.0000      0.0000
 58      0.0000      0.0215      0.0000      0.0070      0.0000      0.1830      0.0000      0.0000      0.0000
 59      0.0000      0.0123      0.0260      0.0985      0.0000      0.0000      0.0297      0.0276      0.0000
 60      0.0000      0.0130      0.0000      0.0000      0.0000      0.0000      0.0000      0.0000      0.0000
 61      0.0000      0.0110      0.0000      0.0169      0.0432      0.0000      0.0057      0.0000      0.0000
 62      0.0000      0.0189      0.0109      0.0000      0.0000      0.0000      0.0000      0.0000      0.1147
 63      0.0000      0.0106      0.0000      0.0000      0.0000      0.0000      0.0000      0.0541      0.0000
 64      0.0000      0.0175      0.0000      0.0000      0.0000      0.0000      0.1169      0.0000      0.0000
 65      0.0000      0.0308      0.0641      0.0000      0.0000      0.0434      0.0000      0.0000      0.0000
 66      0.0008      0.0389      0.0000      0.0000      0.0000      0.0140      0.0284      0.2145      0.0000
 67      0.0000      0.0910      0.1044      0.0000      0.2131      0.0000      0.0000      0.1339      0.0000
 68     35.1028     34.6837     34.9616     34.7945     34.9170     35.4078     35.2030     35.3277     34.8029
 69      0.0000      0.2420      0.2876      0.1216      0.0891      0.2444      0.3148      0.0000      0.3342
 70      0.0000      0.1628      0.1400      0.0000      0.0000      0.0053      0.0000      0.1383      0.1810
 71      0.0000      0.1124      0.0000      0.6925      0.0000      0.0313      0.0000      0.0000      0.1467
 72      0.0000      0.1175      0.0842      0.0106      0.1002      0.2680      0.0000      0.0000      0.0000
 73      0.0000      0.1242      0.0000      0.1242      0.3019      0.1430      0.0000      0.0651      0.2748
 74      0.8341      0.0807      0.1556      0.0385      0.1294      0.0000      0.0000      0.2571      0.0918
 75      0.0000      0.0472      0.0000      0.0000      0.0000      0.0493      0.1819      0.0000      0.0000
 76      0.0000      0.0052      0.0000      0.0010      0.0000      0.0000      0.0000      0.0000      0.0000
 77      0.0000      0.0010      0.0000      0.0000      0.0000      0.0000      0.0000      0.0000      0.0000
 78      0.0000      0.0067      0.0037      0.0000      0.0000      0.0000      0.0000      0.0000      0.0000
 79      0.0000      0.0080      0.0000      0.0000      0.0973      0.0000      0.0000      0.0000      0.0000
 80      0.0000      0.0024      0.0000      0.0000      0.0000      0.0000      0.0000      0.0000      0.0000
 81      0.0000      0.0056      0.0000      0.0000      0.0000      0.0000      0.0000      0.0000      0.0000
 82      0.0000      0.0042      0.0000      0.0000      0.0000      0.0000      0.0000      0.0000      0.0000
 83      0.0000      0.0121      0.0020      0.0000      0.0105      0.0000      0.0000      0.0000      0.0123
 84      0.0000      0.0031      0.0000      0.0000      0.0000      0.0000      0.0000      0.0141      0.0000
 85      0.0000      0.0150      0.0000      0.0000      0.0191      0.0000      0.0000      0.0000      0.0000
 86      0.0000      0.0092      0.0000      0.0000      0.0102      0.0000      0.0000      0.0000      0.0000
 87      0.0000      0.0067      0.0000      0.0000      0.0284      0.0093      0.0000      0.0080      0.0010
 88      0.0000      0.0163      0.0000      0.0000      0.0309      0.0000      0.0000      0.0041      0.0000
 89      0.0000      0.0117      0.0920      0.0000      0.0000      0.0004      0.0594      0.0000      0.0000
 90      0.0000      0.0292      0.0000      0.0000      0.0000      0.0000      0.0260      0.0000      0.0309
 91      0.0000      0.0361      0.0000      0.0000      0.0000      0.0000      0.0000      0.0000      0.0000
 92      0.0000      0.0423      0.0000      0.0000      0.0000      0.0000      0.0000      0.0000      0.0000
 93      0.0000      0.0722      0.0000      0.0000      0.0000      0.0447      0.0000      0.1275      0.0000
 94      0.2948      1.3803      1.3480      1.2262      1.4743      1.5947      1.4199      1.3670      1.3941
 95      0.0000      0.0782      0.0000      0.0504      0.2507      0.1038      0.0000      0.1201      0.1230
 96      0.0000      0.0441      0.0645      0.0000      0.0000      0.0000      0.1604      0.0000      0.0000
 97      0.0308      0.1685      0.0346      0.1517      0.0000      0.2189      0.0000      0.1931      0.0000
 98      1.1962      1.0154      1.0822      1.0784      1.1683      1.0111      0.9163      1.0589      0.9921
 99      0.0000      0.0463      0.0000      0.1165      0.0554      0.0000      0.0000      0.0000      0.0000
100      0.0000      0.0274      0.0000      0.0000      0.0235      0.0000      0.0000      0.0059      0.0000
101      0.0000      0.0013      0.0000      0.0000      0.0000      0.0000      0.0000      0.0000      0.0000
102      0.0000      0.0014      0.0000      0.0000      0.0000      0.0000      0.0000      0.0000      0.0000
103      0.0000      0.0070      0.0000      0.0000      0.0000      0.0000      0.0000      0.0000      0.0000
104      0.0000      0.0031      0.0000      0.0000      0.0000      0.0000      0.0000      0.0000      0.0000
105      0.0000      0.0047      0.0000      0.0000      0.0000      0.0000      0.0000      0.0000      0.0000
106      0.0000      0.0060      0.0078      0.0000      0.0000      0.0000      0.0000      0.0000      0.0000
107      0.0000      0.0020      0.0000      0.0000      0.0000      0.0000      0.0000      0.0000      0.0000
108      0.0000      0.0045      0.0000      0.0000      0.0000      0.0038      0.0000      0.0000      0.0000
109      0.0000      0.0090      0.0000      0.0000      0.0000      0.0019      0.0000      0.0000      0.0000
110      0.0000      0.0102      0.0000      0.0000      0.0000      0.0000      0.0000      0.0000      0.0000
111      0.0000      0.0086      0.0000      0.0000      0.0000      0.0000      0.0000      0.0033      0.0000
112      0.0000      0.0125      0.0345      0.0000      0.0000      0.0000      0.0000      0.0000      0.0000
113      0.0000      0.0164      0.0000      0.1235      0.0000      0.0000      0.0000      0.0155      0.0000
114      0.0000      0.0163      0.0818      0.0000      0.0000      0.0147      0.0000      0.0000      0.0000
115      0.0000      0.0485      0.1793      0.0000      0.0193      0.0356      0.0200      0.0831      0.0429
116      0.0000      0.0974      0.1807      0.0000      0.0000      0.0276      0.0000      0.0000      0.2167
117      0.0000      0.0732      0.0000      0.0000      0.0000      0.1342      0.0000      0.0000      0.0816
118      0.0000      0.0725      0.0000      0.0507      0.0000      0.0754      0.1583      0.0000      0.0000
119      0.0000      0.0535      0.0000      0.0000      0.0050      0.0000      0.0802      0.0000      0.0000
120      0.0000      0.0318      0.1210      0.1215      0.0012      0.0000      0.0000      0.0000      0.0236
121      0.0000      0.0234      0.0000      0.0019      0.0000      0.0000      0.0000      0.0000      0.0000
122      0.0000      0.0275      0.0000      0.0000      0.0000      0.0000      0.0000      0.0000      0.0066
123      0.0000      0.0192      0.0000      0.0000      0.0000      0.0000      0.0000      0.0011      0.0000
124      0.0000      0.0081      0.0000      0.0000      0.0000      0.0000      0.0000      0.0000      0.0043
125      0.0000      0.0097      0.0000      0.0000      0.0000      0.0053      0.0000      0.0000      0.0000
126      0.0000      0.0016      0.0000      0.0000      0.0000      0.0000      0.0000      0.0000      0.0000
127      0.0000      0.0034      0.0000      0.0000      0.0000      0.0000      0.0000      0.0000      0.0000
128      0.0000      0.0038      0.0000      0.0000      0.0000      0.0000      0.0000      0.0000      0.0000
129      0.0000      0.0034      0.0000      0.0000      0.0000      0.0000      0.0000      0.0000      0.0000
130      0.0000      0.0083      0.0000      0.0000      0.0000      0.0000      0.0000      0.0000      0.0000
131      0.0000      0.0028      0.0000      0.0000      0.0000      0.0000      0.0000      0.0000      0.0000
132      0.0000      0.0049      0.0000      0.0000      0.0000      0.0000      0.0000      0.0000      0.0000
133      0.0000      0.0030      0.0000      0.0000      0.0000      0.0003      0.0000      0.0000      0.0000
134      0.0000      0.0061      0.0000      0.0000      0.0000      0.0000      0.0000      0.0000      0.0000
135      0.0000      0.0128      0.0294      0.1878      0.0000      0.0053      0.0000      0.0183      0.0000
136      0.0000      0.0128      0.0000      0.0000      0.0000      0.0107      0.0000      0.0000      0.0000
137      0.0000      0.0094      0.0000      0.0000      0.0000      0.0000      0.0000      0.0000      0.0000
138      0.0000      0.0077      0.0000      0.0000      0.0104      0.0000      0.0098      0.0358      0.0000
139      0.0000      0.0416      0.0515      0.0245      0.0000      0.0063      0.0360      0.0894      0.0309
140      0.0000      0.1535      0.5178      0.0000      0.1555      0.0000      0.0240      0.0000      0.0000
141      7.4784      7.2902      7.0120      7.5574      7.3388      7.2555      7.3994      7.2935      7.1685
142      3.7845      2.5629      2.5750      2.6200      2.8483      2.5009      2.7533      2.5710      3.0263
143      0.0000      0.0432      0.1020      0.0000      0.0000      0.0310      0.1228      0.0000      0.0000
144      0.0000      0.0768      0.1027      0.0000      0.0331      0.0000      0.3377      0.1603      0.0156
145      0.0000      0.0371      0.1656      0.0000      0.0363      0.0000      0.0000      0.0000      0.0000
146      0.0000      0.0427      0.0143      0.0890      0.0000      0.0000      0.0618      0.1150      0.0321
147      0.0000      0.0177      0.0000      0.0000      0.0461      0.0000      0.0119      0.0000      0.0477
148      0.0000      0.0177      0.0000      0.0620      0.0000      0.0429      0.0000      0.0000      0.0411
149      0.0000      0.0137      0.0000      0.0000      0.0217      0.0769      0.0000      0.0000      0.0685
150      0.0000      0.0451      0.0835      0.0210      0.0996      0.0415      0.0000      0.0936      0.0712

# j      m_j: min, <> & last-chain-values for 1 ...  7 chains
  1  0.0000E+00  4.5072E-05  0.0000E+00  0.0000E+00  0.0000E+00  0.0000E+00  0.0000E+00  0.0000E+00  0.0000E+00
  2  1.8754E-02  1.7883E-02  1.7846E-02  1.8495E-02  1.8764E-02  1.8091E-02  1.8090E-02  1.8465E-02  1.8070E-02
  3  0.0000E+00  4.1492E-05  0.0000E+00  0.0000E+00  0.0000E+00  0.0000E+00  0.0000E+00  0.0000E+00  0.0000E+00
  4  0.0000E+00  1.3818E-05  0.0000E+00  0.0000E+00  0.0000E+00  0.0000E+00  0.0000E+00  0.0000E+00  0.0000E+00
  5  0.0000E+00  3.1169E-05  0.0000E+00  0.0000E+00  0.0000E+00  0.0000E+00  0.0000E+00  0.0000E+00  0.0000E+00
  6  0.0000E+00  2.3500E-05  0.0000E+00  0.0000E+00  0.0000E+00  0.0000E+00  0.0000E+00  0.0000E+00  0.0000E+00
  7  0.0000E+00  3.7758E-05  0.0000E+00  0.0000E+00  0.0000E+00  0.0000E+00  0.0000E+00  0.0000E+00  0.0000E+00
  8  0.0000E+00  1.0471E-04  6.2122E-05  0.0000E+00  0.0000E+00  0.0000E+00  0.0000E+00  4.4809E-05  0.0000E+00
  9  0.0000E+00  6.5513E-04  3.4740E-03  0.0000E+00  0.0000E+00  4.6099E-04  1.0305E-03  0.0000E+00  0.0000E+00
 10  0.0000E+00  2.3217E-04  0.0000E+00  0.0000E+00  0.0000E+00  2.9389E-04  0.0000E+00  1.0899E-03  0.0000E+00
 11  0.0000E+00  5.3562E-04  0.0000E+00  0.0000E+00  0.0000E+00  0.0000E+00  0.0000E+00  0.0000E+00  3.2484E-03
 12  0.0000E+00  9.9210E-04  5.2515E-03  0.0000E+00  0.0000E+00  0.0000E+00  0.0000E+00  1.4680E-03  8.7318E-03
 13  0.0000E+00  9.4904E-04  0.0000E+00  0.0000E+00  6.4283E-03  0.0000E+00  8.8563E-03  0.0000E+00  0.0000E+00
 14  0.0000E+00  1.0968E-03  0.0000E+00  0.0000E+00  0.0000E+00  0.0000E+00  0.0000E+00  0.0000E+00  0.0000E+00
 15  0.0000E+00  2.0085E-03  0.0000E+00  0.0000E+00  0.0000E+00  0.0000E+00  0.0000E+00  1.0090E-03  0.0000E+00
 16  0.0000E+00  4.1628E-03  0.0000E+00  0.0000E+00  0.0000E+00  1.1436E-02  0.0000E+00  6.7135E-04  0.0000E+00
 17  0.0000E+00  8.1428E-03  0.0000E+00  1.9226E-03  0.0000E+00  0.0000E+00  6.2625E-03  0.0000E+00  0.0000E+00
 18  0.0000E+00  1.1573E-02  0.0000E+00  4.7077E-02  0.0000E+00  0.0000E+00  0.0000E+00  0.0000E+00  0.0000E+00
 19  0.0000E+00  3.3378E-02  0.0000E+00  0.0000E+00  1.1259E-02  0.0000E+00  0.0000E+00  3.2962E-02  0.0000E+00
 20  0.0000E+00  1.3619E-01  2.8900E-01  1.2343E-01  4.0693E-01  3.0710E-01  0.0000E+00  1.3070E-01  1.4980E-01
 21  5.5751E-01  2.3786E-01  2.0545E-01  0.0000E+00  0.0000E+00  2.8601E-01  3.1119E-01  2.8158E-01  1.2616E-01
 22  1.1948E-01  2.1328E-01  0.0000E+00  1.9131E-02  2.7484E-01  2.4190E-01  1.2626E-01  2.8474E-01  1.3559E-01
 23  0.0000E+00  2.3254E-01  5.2015E-01  1.5304E-01  0.0000E+00  1.5759E-01  9.2656E-02  0.0000E+00  4.0806E-01
 24  0.0000E+00  2.8592E-01  0.0000E+00  0.0000E+00  5.5259E-03  3.1060E-01  9.1166E-01  0.0000E+00  2.3486E-01
 25  0.0000E+00  4.0353E-01  0.0000E+00  3.1811E-02  4.7252E-01  0.0000E+00  1.9603E-01  4.5141E-01  2.2594E-01
 26  0.0000E+00  3.3745E-05  0.0000E+00  0.0000E+00  0.0000E+00  0.0000E+00  0.0000E+00  0.0000E+00  0.0000E+00
 27  0.0000E+00  2.2047E-05  0.0000E+00  0.0000E+00  4.2558E-05  0.0000E+00  0.0000E+00  0.0000E+00  2.1759E-06
 28  0.0000E+00  2.7782E-05  0.0000E+00  0.0000E+00  0.0000E+00  0.0000E+00  0.0000E+00  0.0000E+00  0.0000E+00
 29  0.0000E+00  3.0986E-05  0.0000E+00  0.0000E+00  0.0000E+00  0.0000E+00  0.0000E+00  0.0000E+00  5.7993E-06
 30  0.0000E+00  2.2815E-05  0.0000E+00  0.0000E+00  0.0000E+00  0.0000E+00  0.0000E+00  0.0000E+00  0.0000E+00
 31  0.0000E+00  3.4595E-05  0.0000E+00  0.0000E+00  0.0000E+00  0.0000E+00  0.0000E+00  0.0000E+00  0.0000E+00
 32  0.0000E+00  1.0715E-04  0.0000E+00  0.0000E+00  0.0000E+00  0.0000E+00  6.2673E-04  0.0000E+00  0.0000E+00
 33  0.0000E+00  1.5316E-04  0.0000E+00  0.0000E+00  0.0000E+00  7.7182E-06  0.0000E+00  0.0000E+00  0.0000E+00
 34  0.0000E+00  3.0123E-04  3.6708E-03  3.3649E-04  0.0000E+00  0.0000E+00  0.0000E+00  1.2652E-03  9.3245E-04
 35  0.0000E+00  2.4650E-04  0.0000E+00  0.0000E+00  1.9743E-06  1.0687E-04  2.4119E-03  0.0000E+00  1.4186E-03
 36  0.0000E+00  5.6570E-04  0.0000E+00  0.0000E+00  2.9254E-03  0.0000E+00  0.0000E+00  0.0000E+00  2.4129E-03
 37  0.0000E+00  7.5891E-04  0.0000E+00  0.0000E+00  0.0000E+00  0.0000E+00  0.0000E+00  5.2351E-04  6.4412E-04
 38  0.0000E+00  4.6804E-04  2.8490E-04  0.0000E+00  0.0000E+00  0.0000E+00  0.0000E+00  3.4193E-03  1.2827E-03
 39  0.0000E+00  1.0390E-03  3.2802E-03  0.0000E+00  0.0000E+00  0.0000E+00  0.0000E+00  0.0000E+00  0.0000E+00
 40  0.0000E+00  3.5929E-03  0.0000E+00  0.0000E+00  0.0000E+00  0.0000E+00  5.7795E-03  0.0000E+00  0.0000E+00
 41  0.0000E+00  7.7640E-03  0.0000E+00  0.0000E+00  0.0000E+00  0.0000E+00  1.6747E-02  0.0000E+00  5.1526E-02
 42  0.0000E+00  1.4341E-02  0.0000E+00  1.1417E-01  5.8889E-02  0.0000E+00  5.4382E-04  0.0000E+00  0.0000E+00
 43  5.4349E-01  7.4709E-01  4.6629E-01  7.5283E-01  7.7209E-01  6.5008E-01  7.2742E-01  6.0597E-01  6.7770E-01
 44  1.5319E+01  1.4015E+01  1.3754E+01  1.4271E+01  1.4350E+01  1.4845E+01  1.4519E+01  1.4111E+01  1.4242E+01
 45  3.5999E+00  3.8400E+00  4.5877E+00  4.2616E+00  3.7474E+00  3.8889E+00  4.1277E+00  4.7252E+00  3.9975E+00
 46  8.1393E+00  7.8776E+00  8.5363E+00  8.1611E+00  7.6250E+00  8.0234E+00  8.2553E+00  7.4326E+00  8.3869E+00
 47  2.3199E+01  2.2485E+01  2.2271E+01  2.2919E+01  2.2834E+01  2.2552E+01  2.3360E+01  2.2478E+01  2.2669E+01
 48  3.1685E-01  4.3971E-01  1.6339E+00  2.8740E-01  0.0000E+00  0.0000E+00  0.0000E+00  4.1934E-01  2.1645E-02
 49  9.0327E-01  3.8820E-01  2.7237E-01  8.0161E-02  1.7671E-01  6.4383E-01  3.3415E-01  6.9013E-01  0.0000E+00
 50  1.4502E+00  4.0336E-01  0.0000E+00  1.0470E+00  6.7855E-01  3.4051E-02  3.1591E-01  5.6618E-01  5.2550E-01
 51  0.0000E+00  3.5160E-05  0.0000E+00  0.0000E+00  0.0000E+00  0.0000E+00  0.0000E+00  0.0000E+00  0.0000E+00
 52  0.0000E+00  3.7767E-05  0.0000E+00  0.0000E+00  0.0000E+00  0.0000E+00  0.0000E+00  0.0000E+00  0.0000E+00
 53  0.0000E+00  7.5295E-06  0.0000E+00  0.0000E+00  0.0000E+00  0.0000E+00  0.0000E+00  0.0000E+00  0.0000E+00
 54  0.0000E+00  1.0132E-04  0.0000E+00  0.0000E+00  0.0000E+00  0.0000E+00  2.8533E-04  0.0000E+00  0.0000E+00
 55  0.0000E+00  5.2545E-05  0.0000E+00  0.0000E+00  0.0000E+00  0.0000E+00  0.0000E+00  9.0968E-05  0.0000E+00
 56  0.0000E+00  2.6933E-05  0.0000E+00  0.0000E+00  0.0000E+00  0.0000E+00  0.0000E+00  0.0000E+00  0.0000E+00
 57  0.0000E+00  5.2427E-05  0.0000E+00  0.0000E+00  0.0000E+00  0.0000E+00  0.0000E+00  0.0000E+00  0.0000E+00
 58  0.0000E+00  4.5965E-04  0.0000E+00  1.5072E-04  0.0000E+00  3.9412E-03  0.0000E+00  0.0000E+00  0.0000E+00
 59  0.0000E+00  3.6690E-04  7.7354E-04  2.9461E-03  0.0000E+00  0.0000E+00  8.9924E-04  8.2008E-04  0.0000E+00
 60  0.0000E+00  4.2956E-04  0.0000E+00  0.0000E+00  0.0000E+00  0.0000E+00  0.0000E+00  0.0000E+00  0.0000E+00
 61  0.0000E+00  4.6408E-04  0.0000E+00  7.1842E-04  1.8191E-03  0.0000E+00  2.4499E-04  0.0000E+00  0.0000E+00
 62  0.0000E+00  1.0077E-03  5.8610E-04  0.0000E+00  0.0000E+00  0.0000E+00  0.0000E+00  0.0000E+00  6.1329E-03
 63  0.0000E+00  8.5785E-04  0.0000E+00  0.0000E+00  0.0000E+00  0.0000E+00  0.0000E+00  4.4022E-03  0.0000E+00
 64  0.0000E+00  2.3346E-03  0.0000E+00  0.0000E+00  0.0000E+00  0.0000E+00  1.5948E-02  0.0000E+00  0.0000E+00
 65  0.0000E+00  6.9574E-03  1.4535E-02  0.0000E+00  0.0000E+00  9.8919E-03  0.0000E+00  0.0000E+00  0.0000E+00
 66  2.2394E-04  1.1263E-02  0.0000E+00  0.0000E+00  0.0000E+00  4.0874E-03  8.3846E-03  6.2065E-02  0.0000E+00
 67  0.0000E+00  3.6103E-02  4.1577E-02  0.0000E+00  8.4557E-02  0.0000E+00  0.0000E+00  5.3170E-02  0.0000E+00
 68  2.6241E+01  2.5597E+01  2.5878E+01  2.5857E+01  2.5762E+01  2.6321E+01  2.6513E+01  2.6089E+01  2.5694E+01
 69  0.0000E+00  3.0794E-01  3.6708E-01  1.5587E-01  1.1331E-01  3.1328E-01  4.0891E-01  0.0000E+00  4.2552E-01
 70  0.0000E+00  2.8841E-01  2.4877E-01  0.0000E+00  0.0000E+00  9.3896E-03  0.0000E+00  2.4504E-01  3.2074E-01
 71  0.0000E+00  2.3484E-01  0.0000E+00  1.4574E+00  0.0000E+00  6.5955E-02  0.0000E+00  0.0000E+00  3.0661E-01
 72  0.0000E+00  3.2338E-01  2.3220E-01  2.9341E-02  2.7566E-01  7.4256E-01  0.0000E+00  0.0000E+00  0.0000E+00
 73  0.0000E+00  4.3119E-01  0.0000E+00  4.3414E-01  1.0475E+00  4.9981E-01  0.0000E+00  2.2623E-01  9.5402E-01
 74  3.2714E+00  3.1260E-01  6.0443E-01  1.5016E-01  5.0088E-01  0.0000E+00  0.0000E+00  9.9626E-01  3.5548E-01
 75  0.0000E+00  2.1010E-01  0.0000E+00  0.0000E+00  0.0000E+00  2.2113E-01  8.2668E-01  0.0000E+00  0.0000E+00
 76  0.0000E+00  5.3511E-05  0.0000E+00  1.0758E-05  0.0000E+00  0.0000E+00  0.0000E+00  0.0000E+00  0.0000E+00
 77  0.0000E+00  4.3373E-06  0.0000E+00  0.0000E+00  0.0000E+00  0.0000E+00  0.0000E+00  0.0000E+00  0.0000E+00
 78  0.0000E+00  3.1706E-05  1.7621E-05  0.0000E+00  0.0000E+00  0.0000E+00  0.0000E+00  0.0000E+00  0.0000E+00
 79  0.0000E+00  4.5286E-05  0.0000E+00  0.0000E+00  5.5037E-04  0.0000E+00  0.0000E+00  0.0000E+00  0.0000E+00
 80  0.0000E+00  1.7230E-05  0.0000E+00  0.0000E+00  0.0000E+00  0.0000E+00  0.0000E+00  0.0000E+00  0.0000E+00
 81  0.0000E+00  5.3636E-05  0.0000E+00  0.0000E+00  0.0000E+00  0.0000E+00  0.0000E+00  0.0000E+00  0.0000E+00
 82  0.0000E+00  5.3879E-05  0.0000E+00  0.0000E+00  0.0000E+00  0.0000E+00  0.0000E+00  0.0000E+00  0.0000E+00
 83  0.0000E+00  2.3082E-04  3.7587E-05  0.0000E+00  2.0026E-04  0.0000E+00  0.0000E+00  0.0000E+00  2.3554E-04
 84  0.0000E+00  8.1911E-05  0.0000E+00  0.0000E+00  0.0000E+00  0.0000E+00  0.0000E+00  3.7201E-04  0.0000E+00
 85  0.0000E+00  4.8194E-04  0.0000E+00  0.0000E+00  6.1126E-04  0.0000E+00  0.0000E+00  0.0000E+00  0.0000E+00
 86  0.0000E+00  4.0059E-04  0.0000E+00  0.0000E+00  4.4402E-04  0.0000E+00  0.0000E+00  0.0000E+00  0.0000E+00
 87  0.0000E+00  3.9054E-04  0.0000E+00  0.0000E+00  1.6413E-03  5.4241E-04  0.0000E+00  4.6202E-04  6.0236E-05
 88  0.0000E+00  1.4406E-03  0.0000E+00  0.0000E+00  2.7216E-03  0.0000E+00  0.0000E+00  3.6441E-04  0.0000E+00
 89  0.0000E+00  1.7120E-03  1.3559E-02  0.0000E+00  0.0000E+00  5.8335E-05  8.8991E-03  0.0000E+00  0.0000E+00
 90  0.0000E+00  7.9205E-03  0.0000E+00  0.0000E+00  0.0000E+00  0.0000E+00  7.2105E-03  0.0000E+00  8.3970E-03
 91  0.0000E+00  1.2609E-02  0.0000E+00  0.0000E+00  0.0000E+00  0.0000E+00  0.0000E+00  0.0000E+00  0.0000E+00
 92  0.0000E+00  1.9748E-02  0.0000E+00  0.0000E+00  0.0000E+00  0.0000E+00  0.0000E+00  0.0000E+00  0.0000E+00
 93  0.0000E+00  6.8407E-02  0.0000E+00  0.0000E+00  0.0000E+00  4.2644E-02  0.0000E+00  1.2095E-01  0.0000E+00
 94  5.0754E-01  2.3464E+00  2.2981E+00  2.0988E+00  2.5055E+00  2.7305E+00  2.4632E+00  2.3251E+00  2.3707E+00
 95  0.0000E+00  1.7905E-01  0.0000E+00  1.1616E-01  5.7387E-01  2.3945E-01  0.0000E+00  2.7527E-01  2.8185E-01
 96  0.0000E+00  1.2180E-01  1.7878E-01  0.0000E+00  0.0000E+00  0.0000E+00  4.5231E-01  0.0000E+00  0.0000E+00
 97  1.1242E-01  6.0670E-01  1.2478E-01  5.5006E-01  0.0000E+00  7.9395E-01  0.0000E+00  6.9559E-01  0.0000E+00
 98  5.5942E+00  4.6879E+00  5.0108E+00  5.0133E+00  5.3922E+00  4.7017E+00  4.3173E+00  4.8919E+00  4.5821E+00
 99  0.0000E+00  2.4381E-01  0.0000E+00  6.1723E-01  2.9145E-01  0.0000E+00  0.0000E+00  0.0000E+00  0.0000E+00
100  0.0000E+00  1.6624E-01  0.0000E+00  0.0000E+00  1.4229E-01  0.0000E+00  0.0000E+00  3.5704E-02  0.0000E+00
101  0.0000E+00  8.4783E-06  0.0000E+00  0.0000E+00  0.0000E+00  0.0000E+00  0.0000E+00  0.0000E+00  0.0000E+00
102  0.0000E+00  4.9199E-06  0.0000E+00  0.0000E+00  0.0000E+00  0.0000E+00  0.0000E+00  0.0000E+00  0.0000E+00
103  0.0000E+00  2.6743E-05  0.0000E+00  0.0000E+00  0.0000E+00  0.0000E+00  0.0000E+00  0.0000E+00  0.0000E+00
104  0.0000E+00  1.5706E-05  0.0000E+00  0.0000E+00  0.0000E+00  0.0000E+00  0.0000E+00  0.0000E+00  0.0000E+00
105  0.0000E+00  5.0113E-05  0.0000E+00  0.0000E+00  0.0000E+00  0.0000E+00  0.0000E+00  0.0000E+00  0.0000E+00
106  0.0000E+00  6.8769E-05  9.0330E-05  0.0000E+00  0.0000E+00  0.0000E+00  0.0000E+00  0.0000E+00  0.0000E+00
107  0.0000E+00  2.9996E-05  0.0000E+00  0.0000E+00  0.0000E+00  0.0000E+00  0.0000E+00  0.0000E+00  0.0000E+00
108  0.0000E+00  1.1523E-04  0.0000E+00  0.0000E+00  0.0000E+00  9.7508E-05  0.0000E+00  0.0000E+00  0.0000E+00
109  0.0000E+00  2.7747E-04  0.0000E+00  0.0000E+00  0.0000E+00  5.7639E-05  0.0000E+00  0.0000E+00  0.0000E+00
110  0.0000E+00  3.7581E-04  0.0000E+00  0.0000E+00  0.0000E+00  0.0000E+00  0.0000E+00  0.0000E+00  0.0000E+00
111  0.0000E+00  4.3712E-04  0.0000E+00  0.0000E+00  0.0000E+00  0.0000E+00  0.0000E+00  1.6668E-04  0.0000E+00
112  0.0000E+00  8.4204E-04  2.3245E-03  0.0000E+00  0.0000E+00  0.0000E+00  0.0000E+00  0.0000E+00  0.0000E+00
113  0.0000E+00  1.6415E-03  0.0000E+00  1.2461E-02  0.0000E+00  0.0000E+00  0.0000E+00  1.5494E-03  0.0000E+00
114  0.0000E+00  2.8684E-03  1.4472E-02  0.0000E+00  0.0000E+00  2.6159E-03  0.0000E+00  0.0000E+00  0.0000E+00
115  0.0000E+00  1.7122E-02  6.3477E-02  0.0000E+00  6.8144E-03  1.2644E-02  7.1939E-03  2.9336E-02  1.5138E-02
116  0.0000E+00  5.5207E-02  1.0271E-01  0.0000E+00  0.0000E+00  1.5744E-02  0.0000E+00  0.0000E+00  1.2287E-01
117  0.0000E+00  4.8721E-02  0.0000E+00  0.0000E+00  0.0000E+00  9.0013E-02  0.0000E+00  0.0000E+00  5.4397E-02
118  0.0000E+00  9.7998E-02  0.0000E+00  6.8963E-02  0.0000E+00  1.0269E-01  2.1836E-01  0.0000E+00  0.0000E+00
119  0.0000E+00  1.2505E-01  0.0000E+00  0.0000E+00  1.1792E-02  0.0000E+00  1.9128E-01  0.0000E+00  0.0000E+00
120  0.0000E+00  1.0568E-01  4.0363E-01  4.0689E-01  4.0058E-03  0.0000E+00  0.0000E+00  0.0000E+00  7.8393E-02
121  0.0000E+00  9.1505E-02  0.0000E+00  7.4590E-03  0.0000E+00  0.0000E+00  0.0000E+00  0.0000E+00  0.0000E+00
122  0.0000E+00  1.4382E-01  0.0000E+00  0.0000E+00  0.0000E+00  0.0000E+00  0.0000E+00  0.0000E+00  3.4657E-02
123  0.0000E+00  1.3243E-01  0.0000E+00  0.0000E+00  0.0000E+00  0.0000E+00  0.0000E+00  7.6777E-03  0.0000E+00
124  0.0000E+00  6.3999E-02  0.0000E+00  0.0000E+00  0.0000E+00  0.0000E+00  0.0000E+00  0.0000E+00  3.4475E-02
125  0.0000E+00  9.1661E-02  0.0000E+00  0.0000E+00  0.0000E+00  5.0340E-02  0.0000E+00  0.0000E+00  0.0000E+00
126  0.0000E+00  8.1438E-06  0.0000E+00  0.0000E+00  0.0000E+00  0.0000E+00  0.0000E+00  0.0000E+00  0.0000E+00
127  0.0000E+00  9.0955E-06  0.0000E+00  0.0000E+00  0.0000E+00  0.0000E+00  0.0000E+00  0.0000E+00  0.0000E+00
128  0.0000E+00  1.4779E-05  0.0000E+00  0.0000E+00  0.0000E+00  0.0000E+00  0.0000E+00  0.0000E+00  0.0000E+00
129  0.0000E+00  2.7094E-05  0.0000E+00  0.0000E+00  0.0000E+00  0.0000E+00  0.0000E+00  0.0000E+00  0.0000E+00
130  0.0000E+00  9.0901E-05  0.0000E+00  0.0000E+00  0.0000E+00  0.0000E+00  0.0000E+00  0.0000E+00  0.0000E+00
131  0.0000E+00  3.5705E-05  0.0000E+00  0.0000E+00  0.0000E+00  0.0000E+00  0.0000E+00  0.0000E+00  0.0000E+00
132  0.0000E+00  8.4523E-05  0.0000E+00  0.0000E+00  0.0000E+00  0.0000E+00  0.0000E+00  0.0000E+00  0.0000E+00
133  0.0000E+00  7.5545E-05  0.0000E+00  0.0000E+00  0.0000E+00  7.1551E-06  0.0000E+00  0.0000E+00  0.0000E+00
134  0.0000E+00  1.9231E-04  0.0000E+00  0.0000E+00  0.0000E+00  0.0000E+00  0.0000E+00  0.0000E+00  0.0000E+00
135  0.0000E+00  4.8767E-04  1.1217E-03  7.1876E-03  0.0000E+00  2.0386E-04  0.0000E+00  6.9722E-04  0.0000E+00
136  0.0000E+00  7.0280E-04  0.0000E+00  0.0000E+00  0.0000E+00  5.8876E-04  0.0000E+00  0.0000E+00  0.0000E+00
137  0.0000E+00  7.0454E-04  0.0000E+00  0.0000E+00  0.0000E+00  0.0000E+00  0.0000E+00  0.0000E+00  0.0000E+00
138  0.0000E+00  9.5517E-04  0.0000E+00  0.0000E+00  1.2998E-03  0.0000E+00  1.2430E-03  4.4624E-03  0.0000E+00
139  0.0000E+00  9.7769E-03  1.2124E-02  5.7862E-03  0.0000E+00  1.4883E-03  8.6388E-03  2.0999E-02  7.2499E-03
140  0.0000E+00  8.3523E-02  2.8259E-01  0.0000E+00  8.4575E-02  0.0000E+00  1.3328E-02  0.0000E+00  0.0000E+00
141  6.3084E+00  6.0711E+00  5.8566E+00  6.3373E+00  6.1099E+00  6.0861E+00  6.2885E+00  6.0777E+00  5.9719E+00
142  3.7982E+00  2.5394E+00  2.5588E+00  2.6139E+00  2.8214E+00  2.4959E+00  2.7840E+00  2.5491E+00  2.9996E+00
143  0.0000E+00  8.5041E-02  2.0151E-01  0.0000E+00  0.0000E+00  6.1550E-02  2.4685E-01  0.0000E+00  0.0000E+00
144  0.0000E+00  2.9723E-01  3.9861E-01  0.0000E+00  1.2792E-01  0.0000E+00  1.3338E+00  6.2061E-01  6.0445E-02
145  0.0000E+00  2.1388E-01  9.5664E-01  0.0000E+00  2.0911E-01  0.0000E+00  0.0000E+00  0.0000E+00  0.0000E+00
146  0.0000E+00  2.9383E-01  9.8486E-02  6.1683E-01  0.0000E+00  0.0000E+00  4.3377E-01  7.9160E-01  2.2057E-01
147  0.0000E+00  1.6379E-01  0.0000E+00  0.0000E+00  4.2644E-01  0.0000E+00  1.1236E-01  0.0000E+00  4.4077E-01
148  0.0000E+00  2.2175E-01  0.0000E+00  7.8222E-01  0.0000E+00  5.4081E-01  0.0000E+00  0.0000E+00  5.1450E-01
149  0.0000E+00  2.0099E-01  0.0000E+00  0.0000E+00  3.1807E-01  1.1363E+00  0.0000E+00  0.0000E+00  1.0055E+00
150  0.0000E+00  7.8841E-01  1.4632E+00  3.6854E-01  1.7392E+00  7.3102E-01  0.0000E+00  1.6362E+00  1.2447E+00

# AV, chi2 & Mass for <> & i_chain = 1 ...  7 solutions
AV       0.0914      0.0931      0.0934      0.0929      0.0925      0.0933      0.0918      0.0925      0.0928
chi2 2.7995E+00  2.8445E+00  2.8270E+00  2.8220E+00  2.8217E+00  2.8191E+00  2.8173E+00  2.8132E+00  2.8139E+00
Mass 6.9996E-10  7.1069E-10  7.0886E-10  7.0559E-10  7.1030E-10  7.0576E-10  6.9515E-10  7.0968E-10  7.1015E-10
  -3.49                                  [v0_min (km/s) before EX0s...]
  68.22                                  [vd_min (km/s) before EX0s...]


## Synthetic spectrum (Best Model) ##l_obs f_obs f_syn wei
 3070    [Nl_obs]
 3359.00    0.23931   0.44606   -1.000
 3360.00    0.22817   0.42276   -1.000
 3361.00    0.23060   0.42675   -1.000
 3362.00    0.24838   0.45463   -1.000
 3363.00    0.26918   0.49180   -1.000
 3364.00    0.29386   0.51794   -1.000
 3365.00    0.30567   0.52186   -1.000
 3366.00    0.30446   0.50973   -1.000
 3367.00    0.29837   0.49222   -1.000
 3368.00    0.29442   0.47672   -1.000
 3369.00    0.29261   0.46374   -1.000
 3370.00    0.28547   0.44980   -1.000
 3371.00    0.28022   0.43916   -1.000
 3372.00    0.28499   0.44070   -1.000
 3373.00    0.29941   0.45865   -1.000
 3374.00    0.31899   0.48809   -1.000
 3375.00    0.34321   0.51849   -1.000
 3376.00    0.36267   0.53557   -1.000
 3377.00    0.36830   0.53167   -1.000
 3378.00    0.36187   0.51222   -1.000
 3379.00    0.35627   0.49237   -1.000
 3380.00    0.35206   0.48520   -1.000
 3381.00    0.35165   0.49149   -1.000
 3382.00    0.36364   0.50437   -1.000
 3383.00    0.37863   0.51670   -1.000
 3384.00    0.38835   0.52706   -1.000
 3385.00    0.38920   0.53506   -1.000
 3386.00    0.39087   0.53534   -1.000
 3387.00    0.39588   0.52819   -1.000
 3388.00    0.39466   0.52306   -1.000
 3389.00    0.40048   0.52557   -1.000
 3390.00    0.40832   0.52984   -1.000
 3391.00    0.40975   0.52713   -1.000
 3392.00    0.40384   0.51589   -1.000
 3393.00    0.40334   0.50800   -1.000
 3394.00    0.41609   0.51404   -1.000
 3395.00    0.42872   0.53229   -1.000
 3396.00    0.43962   0.55509   -1.000
 3397.00    0.45305   0.57486   -1.000
 3398.00    0.46948   0.58813   -1.000
 3399.00    0.47953   0.59177   -1.000
 3400.00    0.48130   0.58447   -1.000
 3401.00    0.47571   0.56822   -1.000
 3402.00    0.46102   0.54829   -1.000
 3403.00    0.45385   0.53370   -1.000
 3404.00    0.44999   0.52781   -1.000
 3405.00    0.45063   0.52743   -1.000
 3406.00    0.44772   0.52475   -1.000
 3407.00    0.43483   0.51668   -1.000
 3408.00    0.42927   0.50981   -1.000
 3409.00    0.43015   0.51308   -1.000
 3410.00    0.43542   0.52323   -1.000
 3411.00    0.44237   0.52747   -1.000
 3412.00    0.44062   0.52102   -1.000
 3413.00    0.43880   0.51012   -1.000
 3414.00    0.43607   0.50687   -1.000
 3415.00    0.44078   0.51595   -1.000
 3416.00    0.44953   0.53188   -1.000
 3417.00    0.46087   0.54844   -1.000
 3418.00    0.47690   0.56313   -1.000
 3419.00    0.49133   0.57419   -1.000
 3420.00    0.49593   0.57854   -1.000
 3421.00    0.49404   0.57259   -1.000
 3422.00    0.49214   0.55815   -1.000
 3423.00    0.48536   0.54372   -1.000
 3424.00    0.47636   0.53747   -1.000
 3425.00    0.47888   0.53995   -1.000
 3426.00    0.47946   0.54783   -1.000
 3427.00    0.48338   0.56170   -1.000
 3428.00    0.49671   0.58160   -1.000
 3429.00    0.51497   0.59865   -1.000
 3430.00    0.52510   0.60091   -1.000
 3431.00    0.52416   0.58501   -1.000
 3432.00    0.51339   0.56424   -1.000
 3433.00    0.50175   0.55488   -1.000
 3434.00    0.50330   0.56172   -1.000
 3435.00    0.51710   0.57421   -1.000
 3436.00    0.51992   0.57712   -1.000
 3437.00    0.51212   0.56655   -1.000
 3438.00    0.49882   0.54671   -1.000
 3439.00    0.47971   0.52204   -1.000
 3440.00    0.45916   0.49642   -1.000
 3441.00    0.44339   0.47616   -1.000
 3442.00    0.44203   0.46795   91.427
 3443.00    0.44547   0.47249   87.586
 3444.00    0.45543   0.48558   -1.000
 3445.00    0.47640   0.50434   -1.000
 3446.00    0.49262   0.52866   -1.000
 3447.00    0.51282   0.55567   -1.000
 3448.00    0.52901   0.57847   -1.000
 3449.00    0.53570   0.58908   -1.000
 3450.00    0.54149   0.58175   -1.000
 3451.00    0.53833   0.56143   -1.000
 3452.00    0.53710   0.54170  667.687
 3453.00    0.53186   0.53427  667.687
 3454.00    0.53497   0.53941  667.687
 3455.00    0.53801   0.54886  123.070
 3456.00    0.53750   0.55281   85.064
 3457.00    0.53749   0.54747   85.087
 3458.00    0.53034   0.53611  203.981
 3459.00    0.52199   0.52272  667.687
 3460.00    0.51458   0.51122  667.687
 3461.00    0.52005   0.50949   -1.000
 3462.00    0.53027   0.52100   -1.000
 3463.00    0.53889   0.53618  667.687
 3464.00    0.55057   0.54425   -1.000
 3465.00    0.55472   0.54431   -1.000
 3466.00    0.55173   0.54571   -1.000
 3467.00    0.55537   0.55541  667.687
 3468.00    0.57413   0.57015  667.687
 3469.00    0.58882   0.58233   -1.000
 3470.00    0.58810   0.58601  667.687
 3471.00    0.58153   0.57963  121.403
 3472.00    0.57329   0.56420   87.147
 3473.00    0.55215   0.54142   86.909
 3474.00    0.52757   0.51777  213.677
 3475.00    0.50762   0.50293   -1.000
 3476.00    0.49779   0.50428   -1.000
 3477.00    0.51379   0.52139   -1.000
 3478.00    0.54350   0.54388  667.687
 3479.00    0.56456   0.56226  667.687
 3480.00    0.58678   0.57227   -1.000
 3481.00    0.58714   0.57261   -1.000
 3482.00    0.57499   0.56618   -1.000
 3483.00    0.57125   0.55919   -1.000
 3484.00    0.57112   0.55866   -1.000
 3485.00    0.58250   0.56838   -1.000
 3486.00    0.59595   0.58139   -1.000
 3487.00    0.59946   0.58395   -1.000
 3488.00    0.59489   0.57142   -1.000
 3489.00    0.57466   0.55090   -1.000
 3490.00    0.55047   0.53627   -1.000
 3491.00    0.54223   0.53611   -1.000
 3492.00    0.54594   0.54414  667.687
 3493.00    0.55556   0.54834   -1.000
 3494.00    0.56078   0.54319   -1.000
 3495.00    0.55200   0.53199   -1.000
 3496.00    0.53812   0.52466   -1.000
 3497.00    0.53815   0.53018   -1.000
 3498.00    0.55821   0.54573   -1.000
 3499.00    0.57969   0.56055   -1.000
 3500.00    0.59740   0.56787   -1.000
 3501.00    0.59934   0.57092   -1.000
 3502.00    0.60645   0.57548   -1.000
 3503.00    0.61523   0.57945   -1.000
 3504.00    0.61067   0.57688   -1.000
 3505.00    0.60322   0.56818   -1.000
 3506.00    0.59127   0.56027   -1.000
 3507.00    0.58884   0.55670   -1.000
 3508.00    0.58994   0.55560   -1.000
 3509.00    0.58772   0.55379   -1.000
 3510.00    0.58061   0.54943   -1.000
 3511.00    0.57255   0.54315   -1.000
 3512.00    0.56402   0.53531   -1.000
 3513.00    0.56185   0.52879   -1.000
 3514.00    0.55703   0.53108   -1.000
 3515.00    0.56556   0.54694   -1.000
 3516.00    0.57996   0.57215   -1.000
 3517.00    0.60227   0.59317   -1.000
 3518.00    0.60583   0.59740   -1.000
 3519.00    0.59324   0.58413   -1.000
 3520.00    0.57630   0.56356  112.966
 3521.00    0.56383   0.54587   86.459
 3522.00    0.55431   0.53222   86.904
 3523.00    0.53868   0.51834   -1.000
 3524.00    0.52480   0.50411   -1.000
 3525.00    0.51611   0.49723   -1.000
 3526.00    0.51349   0.50592   -1.000
 3527.00    0.52813   0.52806  667.687
 3528.00    0.55792   0.55404   -1.000
 3529.00    0.58483   0.57398   -1.000
 3530.00    0.59101   0.58323   -1.000
 3531.00    0.58732   0.58373  667.687
 3532.00    0.58737   0.57890   -1.000
 3533.00    0.59041   0.57308   -1.000
 3534.00    0.58881   0.57100   -1.000
 3535.00    0.59059   0.57513   -1.000
 3536.00    0.59556   0.58618   -1.000
 3537.00    0.59534   0.60066   -1.000
 3538.00    0.60375   0.61294   -1.000
 3539.00    0.60936   0.61871   -1.000
 3540.00    0.60251   0.61664   -1.000
 3541.00    0.60218   0.61217   -1.000
 3542.00    0.59538   0.61250   -1.000
 3543.00    0.60260   0.61850   -1.000
 3544.00    0.60579   0.62410   -1.000
 3545.00    0.60566   0.62368   -1.000
 3546.00    0.60428   0.61857   -1.000
 3547.00    0.59835   0.61373   -1.000
 3548.00    0.59771   0.61311   -1.000
 3549.00    0.59934   0.61692   -1.000
 3550.00    0.60037   0.62144   -1.000
 3551.00    0.59300   0.62153   -1.000
 3552.00    0.57752   0.61379   -1.000
 3553.00    0.57293   0.60252   -1.000
 3554.00    0.56874   0.59588   -1.000
 3555.00    0.57600   0.59712   -1.000
 3556.00    0.57950   0.60331   -1.000
 3557.00    0.57531   0.60912   -1.000
 3558.00    0.57993   0.61081   -1.000
 3559.00    0.57734   0.61006   -1.000
 3560.00    0.57706   0.61177   -1.000
 3561.00    0.58374   0.61663   -1.000
 3562.00    0.58898   0.61748   87.788
 3563.00    0.58389   0.60457   87.829
 3564.00    0.56633   0.57721   87.208
 3565.00    0.53502   0.54938   89.391
 3566.00    0.51851   0.53451   91.375
 3567.00    0.51925   0.53161   89.501
 3568.00    0.51407   0.53001   85.734
 3569.00    0.50721   0.52256   -1.000
 3570.00    0.49733   0.51357   -1.000
 3571.00    0.50111   0.51164   -1.000
 3572.00    0.51300   0.51744  667.687
 3573.00    0.52773   0.52546  667.687
 3574.00    0.53536   0.53232  667.687
 3575.00    0.53790   0.53892  110.172
 3576.00    0.54438   0.54581   93.383
 3577.00    0.55577   0.55060   99.044
 3578.00    0.54919   0.54802  100.710
 3579.00    0.53287   0.53445  101.165
 3580.00    0.51367   0.51548  103.269
 3581.00    0.49016   0.50075  106.523
 3582.00    0.48199   0.49502  108.458
 3583.00    0.48371   0.49411  104.359
 3584.00    0.47538   0.48784   98.825
 3585.00    0.46057   0.47408   93.946
 3586.00    0.45198   0.46209   86.254
 3587.00    0.46146   0.46229  284.165
 3588.00    0.48240   0.47856   -1.000
 3589.00    0.49971   0.50616   -1.000
 3590.00    0.52099   0.53515   -1.000
 3591.00    0.55192   0.55611  667.687
 3592.00    0.56717   0.56602  667.687
 3593.00    0.56509   0.56969  663.801
 3594.00    0.57009   0.57548   -1.000
 3595.00    0.58237   0.58743   -1.000
 3596.00    0.58843   0.60144   -1.000
 3597.00    0.60229   0.61245   -1.000
 3598.00    0.61676   0.61926  667.687
 3599.00    0.62085   0.62107  667.687
 3600.00    0.61701   0.61457  667.687
 3601.00    0.59935   0.59787  667.687
 3602.00    0.58224   0.57709   -1.000
 3603.00    0.56880   0.56201   -1.000
 3604.00    0.55829   0.55793  667.687
 3605.00    0.55510   0.56087   -1.000
 3606.00    0.55993   0.56169  667.687
 3607.00    0.55728   0.55564  667.687
 3608.00    0.54385   0.54548  667.687
 3609.00    0.53816   0.53934  667.687
 3610.00    0.54530   0.54220  667.687
 3611.00    0.55538   0.55101   -1.000
 3612.00    0.56064   0.56103  667.687
 3613.00    0.56022   0.57147   -1.000
 3614.00    0.56556   0.58449   -1.000
 3615.00    0.58540   0.59629  100.338
 3616.00    0.58961   0.59421  311.793
 3617.00    0.57346   0.57439  667.687
 3618.00    0.54272   0.55094   -1.000
 3619.00    0.52677   0.54199   -1.000
 3620.00    0.54374   0.55343   -1.000
 3621.00    0.57304   0.57463  632.964
 3622.00    0.59495   0.59295  606.749
 3623.00    0.60761   0.60598  595.143
 3624.00    0.61392   0.62005   -1.000
 3625.00    0.62068   0.64058   -1.000
 3626.00    0.63976   0.66361   -1.000
 3627.00    0.65015   0.67748   -1.000
 3628.00    0.64299   0.66924   -1.000
 3629.00    0.62094   0.63647   -1.000
 3630.00    0.58433   0.59342   -1.000
 3631.00    0.54972   0.56247   -1.000
 3632.00    0.53855   0.55653   -1.000
 3633.00    0.55355   0.56938   -1.000
 3634.00    0.56769   0.58535   -1.000
 3635.00    0.58208   0.59536   -1.000
 3636.00    0.59461   0.60330   -1.000
 3637.00    0.60355   0.61612   -1.000
 3638.00    0.62443   0.63300   -1.000
 3639.00    0.63415   0.64719   -1.000
 3640.00    0.63545   0.65130   -1.000
 3641.00    0.62203   0.64264   -1.000
 3642.00    0.60508   0.62509   -1.000
 3643.00    0.59210   0.60658   -1.000
 3644.00    0.58849   0.59343   -1.000
 3645.00    0.57005   0.58600   -1.000
 3646.00    0.57098   0.58122   -1.000
 3647.00    0.58001   0.57813  658.865
 3648.00    0.57181   0.57786   -1.000
 3649.00    0.57697   0.58192   -1.000
 3650.00    0.58617   0.59179   -1.000
 3651.00    0.59923   0.60740   -1.000
 3652.00    0.61472   0.62576   -1.000
 3653.00    0.62705   0.64256   -1.000
 3654.00    0.63544   0.65581   -1.000
 3655.00    0.64307   0.66681   -1.000
 3656.00    0.64844   0.67671   -1.000
 3657.00    0.65633   0.68387   -1.000
 3658.00    0.66019   0.68672   -1.000
 3659.00    0.66060   0.68574   -1.000
 3660.00    0.65270   0.68103   -1.000
 3661.00    0.64458   0.67242   -1.000
 3662.00    0.64484   0.66210   -1.000
 3663.00    0.63842   0.65429   -1.000
 3664.00    0.63156   0.65261   -1.000
 3665.00    0.64054   0.65526   -1.000
 3666.00    0.64547   0.65654   -1.000
 3667.00    0.63902   0.65201   -1.000
 3668.00    0.62674   0.64246   -1.000
 3669.00    0.62233   0.63589   -1.000
 3670.00    0.61789   0.63878   -1.000
 3671.00    0.62654   0.64971   -1.000
 3672.00    0.63847   0.66143   -1.000
 3673.00    0.64525   0.66702   -1.000
 3674.00    0.64498   0.66473   -1.000
 3675.00    0.64959   0.65509   -1.000
 3676.00    0.64001   0.63939  664.642
 3677.00    0.62191   0.62150  648.659
 3678.00    0.60434   0.60750  629.981
 3679.00    0.59400   0.60223   -1.000
 3680.00    0.59854   0.60513   -1.000
 3681.00    0.60903   0.61246  661.393
 3682.00    0.62151   0.62011  667.687
 3683.00    0.63298   0.62320   -1.000
 3684.00    0.61946   0.61806  667.687
 3685.00    0.60409   0.60556  642.304
 3686.00    0.58711   0.59433   -1.000
 3687.00    0.58364   0.59448   -1.000
 3688.00    0.60108   0.60948   -1.000
 3689.00    0.62576   0.63298   -1.000
 3690.00    0.64615   0.65376   -1.000
 3691.00    0.65133   0.66420   -1.000
 3692.00    0.65147   0.66451   -1.000
 3693.00    0.64959   0.66075   -1.000
 3694.00    0.64963   0.65764   -1.000
 3695.00    0.65475   0.65572  558.631
 3696.00    0.65007   0.65486  550.641
 3697.00    0.64180   0.65962   -1.000
 3698.00    0.65935   0.67468   -1.000
 3699.00    0.68611   0.69486   -1.000
 3700.00    0.70232   0.70648   -1.000
 3701.00    0.68815   0.69598   -1.000
 3702.00    0.65660   0.66152   -1.000
 3703.00    0.62323   0.61640   -1.000
 3704.00    0.58404   0.57875   -1.000
 3705.00    0.55825   0.56142  667.687
 3706.00    0.56970   0.56414   -1.000
 3707.00    0.58771   0.57673   -1.000
 3708.00    0.59656   0.58880   -1.000
 3709.00    0.60358   0.59466   -1.000
 3710.00    0.60677   0.59618   -1.000
 3711.00    0.61372   0.60245   -1.000
 3712.00    0.62846   0.62119   -1.000
 3713.00    0.66155   0.65066   -1.000
 3714.00    0.69856   0.68131   -1.000
 3715.00    0.71235   0.70237   -1.000
 3716.00    0.71385   0.70746   -1.000
 3717.00    0.71005   0.69334   91.749
 3718.00    0.66465   0.65721   -1.000
 3719.00    0.59419   0.60208   -1.000
 3720.00    0.54429   0.54560  638.468
 3721.00    0.51285   0.51327  609.755
 3722.00    0.52477   0.52004   -1.000
 3723.00    0.57388   0.56059   -1.000
 3724.00    0.63322   0.61354   -1.000
 3725.00    0.67616   0.65259   -1.000
 3726.00    0.68751   0.66825   -1.000
 3727.00    0.67194   0.67202  662.394
 3728.00    0.67669   0.67552  667.687
 3729.00    0.68702   0.67781   88.941
 3730.00    0.67642   0.66761   93.519
 3731.00    0.64432   0.63322   97.462
 3732.00    0.60024   0.57663   92.989
 3733.00    0.53186   0.51611   84.393
 3734.00    0.48016   0.47314   -1.000
 3735.00    0.46807   0.46247   -1.000
 3736.00    0.49275   0.48721   -1.000
 3737.00    0.54045   0.53735  625.867
 3738.00    0.61144   0.59733   -1.000
 3739.00    0.65875   0.65166   -1.000
 3740.00    0.69152   0.68646   -1.000
 3741.00    0.70234   0.69525   -1.000
 3742.00    0.69466   0.68201   -1.000
 3743.00    0.66680   0.65673   89.002
 3744.00    0.63749   0.62839   90.476
 3745.00    0.60958   0.60118   91.639
 3746.00    0.58279   0.57312   -1.000
 3747.00    0.55032   0.53969   -1.000
 3748.00    0.50930   0.50486  652.812
 3749.00    0.47462   0.48414   -1.000
 3750.00    0.48872   0.49286  571.045
 3751.00    0.55110   0.53343   -1.000
 3752.00    0.62641   0.59343   -1.000
 3753.00    0.68193   0.65491   -1.000
 3754.00    0.72152   0.70158   -1.000
 3755.00    0.75047   0.72216   -1.000
 3756.00    0.73424   0.71280   -1.000
 3757.00    0.68931   0.68328   -1.000
 3758.00    0.65014   0.65416  650.022
 3759.00    0.64616   0.64192  644.659
 3760.00    0.66122   0.64794   -1.000
 3761.00    0.68760   0.66191   -1.000
 3762.00    0.69653   0.67385   -1.000
 3763.00    0.70174   0.67979   -1.000
 3764.00    0.69953   0.67816   -1.000
 3765.00    0.69859   0.66806   -1.000
 3766.00    0.68214   0.65012   -1.000
 3767.00    0.64926   0.62535   -1.000
 3768.00    0.63268   0.59593   -1.000
 3769.00    0.61451   0.56883   -1.000
 3770.00    0.59301   0.55622   -1.000
 3771.00    0.60324   0.56891   -1.000
 3772.00    0.64593   0.60411   -1.000
 3773.00    0.68851   0.64540   -1.000
 3774.00    0.71114   0.67747   -1.000
 3775.00    0.72363   0.69747   -1.000
 3776.00    0.73306   0.71250   -1.000
 3777.00    0.74989   0.73056   -1.000
 3778.00    0.75870   0.75376   -1.000
 3779.00    0.79311   0.77805   -1.000
 3780.00    0.81459   0.79750   -1.000
 3781.00    0.82730   0.80841   -1.000
 3782.00    0.82683   0.81113   -1.000
 3783.00    0.82462   0.80704   -1.000
 3784.00    0.81407   0.79455   -1.000
 3785.00    0.79220   0.77234   -1.000
 3786.00    0.75709   0.74513   -1.000
 3787.00    0.73177   0.72096   -1.000
 3788.00    0.71720   0.70647   -1.000
 3789.00    0.71487   0.70273   -1.000
 3790.00    0.72845   0.70421   -1.000
 3791.00    0.72947   0.70259   -1.000
 3792.00    0.71117   0.69078   -1.000
 3793.00    0.68284   0.66648   -1.000
 3794.00    0.64948   0.63220   -1.000
 3795.00    0.61884   0.59210   -1.000
 3796.00    0.58109   0.55085   -1.000
 3797.00    0.53106   0.51757   -1.000
 3798.00    0.51602   0.50860   -1.000
 3799.00    0.55225   0.53581   -1.000
 3800.00    0.61339   0.59194   -1.000
 3801.00    0.67216   0.65575   -1.000
 3802.00    0.71897   0.70792   -1.000
 3803.00    0.75124   0.74001   -1.000
 3804.00    0.76532   0.75311   -1.000
 3805.00    0.76795   0.75235   -1.000
 3806.00    0.76005   0.74795   -1.000
 3807.00    0.75702   0.75262   -1.000
 3808.00    0.77111   0.77032  634.310
 3809.00    0.79468   0.79294  667.687
 3810.00    0.81280   0.80647   -1.000
 3811.00    0.80597   0.79973   -1.000
 3812.00    0.77533   0.77280  667.687
 3813.00    0.74319   0.73768   -1.000
 3814.00    0.71841   0.71068   -1.000
 3815.00    0.70435   0.70348  667.687
 3816.00    0.72017   0.71463   -1.000
 3817.00    0.74629   0.72857   -1.000
 3818.00    0.74875   0.72871   -1.000
 3819.00    0.72126   0.71239   -1.000
 3820.00    0.68137   0.69420   -1.000
 3821.00    0.68985   0.68867   88.142
 3822.00    0.71609   0.69175   89.915
 3823.00    0.71304   0.68684   89.052
 3824.00    0.67454   0.66673   87.593
 3825.00    0.64702   0.64159   86.250
 3826.00    0.63174   0.62365   87.505
 3827.00    0.63359   0.61473   91.715
 3828.00    0.63432   0.61004   99.006
 3829.00    0.63825   0.60338   -1.000
 3830.00    0.62636   0.58898   -1.000
 3831.00    0.59572   0.56277   -1.000
 3832.00    0.54565   0.52531   93.612
 3833.00    0.50769   0.48449   95.732
 3834.00    0.48190   0.45429   97.860
 3835.00    0.47270   0.44463   95.806
 3836.00    0.49065   0.45478   -1.000
 3837.00    0.50774   0.47729   -1.000
 3838.00    0.53248   0.50509   -1.000
 3839.00    0.55846   0.53658   -1.000
 3840.00    0.59862   0.57429   -1.000
 3841.00    0.63575   0.61845   -1.000
 3842.00    0.67927   0.66382   -1.000
 3843.00    0.72214   0.70274   -1.000
 3844.00    0.74395   0.73001   -1.000
 3845.00    0.75328   0.74767   -1.000
 3846.00    0.75470   0.76160   -1.000
 3847.00    0.75905   0.77208   -1.000
 3848.00    0.75660   0.77488   -1.000
 3849.00    0.74193   0.77172   -1.000
 3850.00    0.73680   0.77115   -1.000
 3851.00    0.74913   0.77954   -1.000
 3852.00    0.76377   0.79299   -1.000
 3853.00    0.77267   0.80041   -1.000
 3854.00    0.77101   0.79588   83.754
 3855.00    0.75802   0.78313   88.583
 3856.00    0.75569   0.76724   92.532
 3857.00    0.74804   0.75019  667.687
 3858.00    0.72116   0.73468   -1.000
 3859.00    0.69929   0.72837   -1.000
 3860.00    0.70068   0.73867   -1.000
 3861.00    0.73311   0.76313   -1.000
 3862.00    0.77334   0.78948   -1.000
 3863.00    0.80354   0.80463  667.687
 3864.00    0.80060   0.80623   -1.000
 3865.00    0.79491   0.80219   -1.000
 3866.00    0.79225   0.79986   -1.000
 3867.00    0.78590   0.80071   91.358
 3868.00    0.77791   0.80034   -1.000
 3869.00    0.76838   0.79163   -1.000
 3870.00    0.74298   0.77206   -1.000
 3871.00    0.71743   0.74789   -1.000
 3872.00    0.70167   0.73100   -1.000
 3873.00    0.70726   0.73068   -1.000
 3874.00    0.74178   0.74477  667.687
 3875.00    0.76802   0.75741   -1.000
 3876.00    0.76250   0.75346   -1.000
 3877.00    0.72433   0.73458   -1.000
 3878.00    0.69257   0.71620   -1.000
 3879.00    0.69376   0.70963   -1.000
 3880.00    0.69931   0.71156   -1.000
 3881.00    0.68870   0.71129   -1.000
 3882.00    0.67963   0.70355   -1.000
 3883.00    0.68466   0.68928   -1.000
 3884.00    0.68588   0.66673   -1.000
 3885.00    0.66178   0.63120   -1.000
 3886.00    0.61503   0.58480   -1.000
 3887.00    0.57267   0.54031   -1.000
 3888.00    0.54418   0.51475   -1.000
 3889.00    0.54618   0.52008   -1.000
 3890.00    0.58967   0.55567   -1.000
 3891.00    0.65362   0.60704   -1.000
 3892.00    0.70216   0.65285   -1.000
 3893.00    0.71820   0.68103   -1.000
 3894.00    0.72158   0.69628   -1.000
 3895.00    0.73560   0.70973   -1.000
 3896.00    0.74822   0.72580   -1.000
 3897.00    0.76257   0.74051   -1.000
 3898.00    0.77040   0.74998   -1.000
 3899.00    0.76652   0.75656   -1.000
 3900.00    0.77647   0.76494   -1.000
 3901.00    0.79749   0.77372   -1.000
 3902.00    0.80366   0.77665   -1.000
 3903.00    0.79842   0.77079   -1.000
 3904.00    0.78588   0.76076   -1.000
 3905.00    0.77070   0.75660   -1.000
 3906.00    0.76450   0.76611  515.799
 3907.00    0.79475   0.78990  511.094
 3908.00    0.83419   0.82034   -1.000
 3909.00    0.85232   0.84611   -1.000
 3910.00    0.86490   0.86148  527.235
 3911.00    0.87038   0.86723  538.966
 3912.00    0.86577   0.86530  545.713
 3913.00    0.85511   0.85722  554.192
 3914.00    0.84159   0.84628   -1.000
 3915.00    0.83524   0.83709  597.763
 3916.00    0.82525   0.83077   -1.000
 3917.00    0.81687   0.82375   -1.000
 3918.00    0.80855   0.81302  627.077
 3919.00    0.79484   0.79990   -1.000
 3920.00    0.78217   0.78903   -1.000
 3921.00    0.77894   0.78490   -1.000
 3922.00    0.78013   0.78801   -1.000
 3923.00    0.79020   0.79263  385.145
 3924.00    0.79162   0.78978   95.266
 3925.00    0.77413   0.77300  111.702
 3926.00    0.72924   0.74048  130.892
 3927.00    0.67256   0.69443   -1.000
 3928.00    0.60752   0.63816   -1.000
 3929.00    0.53202   0.57287   -1.000
 3930.00    0.46099   0.49748   -1.000
 3931.00    0.40423   0.41451  155.189
 3932.00    0.34357   0.33829  128.047
 3933.00    0.30165   0.29217  105.555
 3934.00    0.30661   0.29461  105.840
 3935.00    0.35632   0.34612   -1.000
 3936.00    0.43034   0.42824   -1.000
 3937.00    0.51683   0.51809  667.687
 3938.00    0.59546   0.60007  667.687
 3939.00    0.65781   0.66486   -1.000
 3940.00    0.69668   0.70906   -1.000
 3941.00    0.71838   0.73392   -1.000
 3942.00    0.73261   0.74468   -1.000
 3943.00    0.73635   0.75055   -1.000
 3944.00    0.75376   0.76040   -1.000
 3945.00    0.78967   0.77654   -1.000
 3946.00    0.81422   0.79310   -1.000
 3947.00    0.81245   0.80304   -1.000
 3948.00    0.79990   0.80680   -1.000
 3949.00    0.81229   0.80900  529.445
 3950.00    0.82839   0.81077   -1.000
 3951.00    0.83269   0.81149   -1.000
 3952.00    0.82514   0.81350   -1.000
 3953.00    0.83206   0.81835   -1.000
 3954.00    0.84398   0.82113   -1.000
 3955.00    0.83938   0.81604   -1.000
 3956.00    0.81532   0.80566   -1.000
 3957.00    0.80311   0.79806   -1.000
 3958.00    0.81099   0.79382   -1.000
 3959.00    0.81053   0.78212   -1.000
 3960.00    0.77876   0.75371   90.164
 3961.00    0.72026   0.71240  106.772
 3962.00    0.66767   0.66874  131.719
 3963.00    0.62181   0.62645  158.446
 3964.00    0.56560   0.57741  169.212
 3965.00    0.49338   0.51010  152.876
 3966.00    0.40979   0.42562  125.718
 3967.00    0.33032   0.34287  103.670
 3968.00    0.27877   0.28904  108.163
 3969.00    0.27595   0.28327   -1.000
 3970.00    0.32538   0.32534  667.687
 3971.00    0.40517   0.39845   -1.000
 3972.00    0.49252   0.48120   -1.000
 3973.00    0.57287   0.55835   -1.000
 3974.00    0.64261   0.62441   -1.000
 3975.00    0.70191   0.67937   -1.000
 3976.00    0.74685   0.72535   -1.000
 3977.00    0.78310   0.76505   -1.000
 3978.00    0.82271   0.80000   -1.000
 3979.00    0.85533   0.82681   -1.000
 3980.00    0.86911   0.84074   -1.000
 3981.00    0.86663   0.84340   -1.000
 3982.00    0.86227   0.84336   -1.000
 3983.00    0.86814   0.84858   -1.000
 3984.00    0.88373   0.86033   -1.000
 3985.00    0.90020   0.87449   -1.000
 3986.00    0.91150   0.88786   -1.000
 3987.00    0.92218   0.90005   -1.000
 3988.00    0.93294   0.91037   -1.000
 3989.00    0.93380   0.91788   -1.000
 3990.00    0.93705   0.92453   -1.000
 3991.00    0.95043   0.93324   -1.000
 3992.00    0.96383   0.94270   -1.000
 3993.00    0.96862   0.94738   -1.000
 3994.00    0.96038   0.94274   -1.000
 3995.00    0.94116   0.92917   -1.000
 3996.00    0.91965   0.91356  413.129
 3997.00    0.90945   0.90627  406.849
 3998.00    0.92036   0.91307   -1.000
 3999.00    0.94494   0.93071   -1.000
 4000.00    0.97165   0.95041   -1.000
 4001.00    0.98859   0.96335   -1.000
 4002.00    0.99859   0.96394   -1.000
 4003.00    0.98509   0.95067   -1.000
 4004.00    0.95140   0.92809   -1.000
 4005.00    0.92566   0.90947   -1.000
 4006.00    0.92533   0.90979   -1.000
 4007.00    0.95347   0.92946   -1.000
 4008.00    0.98412   0.95505   -1.000
 4009.00    0.99132   0.97373   -1.000
 4010.00    0.99027   0.98213   -1.000
 4011.00    0.99778   0.98413   -1.000
 4012.00    0.99777   0.98428   -1.000
 4013.00    0.99325   0.98565  407.303
 4014.00    1.00100   0.98879   -1.000
 4015.00    1.00504   0.99192   -1.000
 4016.00    1.00595   0.99414   -1.000
 4017.00    1.00507   0.99710   -1.000
 4018.00    1.00033   1.00280  409.365
 4019.00    1.00955   1.00946  412.193
 4020.00    1.01382   1.01273  411.968
 4021.00    1.00627   1.01005  400.218
 4022.00    1.00040   1.00302  387.370
 4023.00    0.99188   0.99541  382.551
 4024.00    0.99200   0.99182  389.399
 4025.00    1.00031   0.99691  408.541
 4026.00    1.01681   1.00991  434.309
 4027.00    1.02922   1.02075   -1.000
 4028.00    1.02617   1.01630   -1.000
 4029.00    0.99748   0.99362  442.699
 4030.00    0.95988   0.96235  425.921
 4031.00    0.94060   0.93650  404.625
 4032.00    0.93410   0.92576   -1.000
 4033.00    0.93719   0.93113  375.948
 4034.00    0.95576   0.94964  377.302
 4035.00    0.98445   0.97768  385.873
 4036.00    1.01712   1.00955  393.808
 4037.00    1.03791   1.03550  397.333
 4038.00    1.04238   1.04633  403.773
 4039.00    1.03498   1.04192   -1.000
 4040.00    1.01937   1.03139   -1.000
 4041.00    1.00736   1.02138   -1.000
 4042.00    1.00301   1.00768  460.391
 4043.00    0.98706   0.98081  419.776
 4044.00    0.93817   0.94372  398.420
 4045.00    0.89486   0.91780   -1.000
 4046.00    0.90481   0.92140   -1.000
 4047.00    0.95501   0.95227  391.938
 4048.00    1.00000   0.99101   -1.000
 4049.00    1.01645   1.01827  412.077
 4050.00    1.01706   1.02846   -1.000
 4051.00    1.01965   1.02551  420.614
 4052.00    1.01476   1.01390  423.904
 4053.00    0.99896   0.99925  425.648
 4054.00    0.98950   0.98773  417.261
 4055.00    0.98717   0.98041  403.837
 4056.00    0.98426   0.97592   -1.000
 4057.00    0.97864   0.97603  413.902
 4058.00    0.98449   0.98430  444.621
 4059.00    0.99751   0.99842  464.234
 4060.00    1.01893   1.00524   -1.000
 4061.00    1.00853   0.99235   -1.000
 4062.00    0.96145   0.96357  421.346
 4063.00    0.92465   0.93616   -1.000
 4064.00    0.92564   0.92467  398.320
 4065.00    0.95352   0.92940   -1.000
 4066.00    0.96151   0.94185   -1.000
 4067.00    0.96874   0.95543   -1.000
 4068.00    0.99419   0.96570   -1.000
 4069.00    1.00732   0.96620   -1.000
 4070.00    0.99105   0.95428   -1.000
 4071.00    0.96833   0.93868   -1.000
 4072.00    0.96123   0.93274   -1.000
 4073.00    0.97338   0.93781   -1.000
 4074.00    0.97658   0.93955   -1.000
 4075.00    0.95360   0.92558   -1.000
 4076.00    0.91414   0.90081   -1.000
 4077.00    0.88218   0.88252  391.516
 4078.00    0.88798   0.88578  400.739
 4079.00    0.92858   0.91129   -1.000
 4080.00    0.96800   0.94427   -1.000
 4081.00    0.99390   0.96571   -1.000
 4082.00    0.99455   0.96770   -1.000
 4083.00    0.97034   0.95651   -1.000
 4084.00    0.95412   0.94546   -1.000
 4085.00    0.95287   0.94528  372.825
 4086.00    0.97212   0.95773   -1.000
 4087.00    0.99924   0.97585   -1.000
 4088.00    1.01745   0.98901   -1.000
 4089.00    1.01915   0.99080   -1.000
 4090.00    1.00518   0.98264   -1.000
 4091.00    0.99207   0.97104   -1.000
 4092.00    0.98345   0.95956   -1.000
 4093.00    0.96946   0.94579   -1.000
 4094.00    0.95998   0.92654   -1.000
 4095.00    0.93534   0.90129   -1.000
 4096.00    0.90223   0.87294   -1.000
 4097.00    0.87683   0.84220   -1.000
 4098.00    0.85536   0.80376   -1.000
 4099.00    0.80670   0.75256   -1.000
 4100.00    0.72948   0.69534   -1.000
 4101.00    0.66800   0.65502   -1.000
 4102.00    0.66057   0.65420   -1.000
 4103.00    0.72029   0.69593   -1.000
 4104.00    0.79650   0.76000   -1.000
 4105.00    0.85760   0.81967   -1.000
 4106.00    0.89177   0.86069   -1.000
 4107.00    0.90716   0.88376   -1.000
 4108.00    0.91696   0.89516   -1.000
 4109.00    0.92111   0.90181   -1.000
 4110.00    0.92743   0.90957   -1.000
 4111.00    0.93752   0.92110   -1.000
 4112.00    0.95090   0.93646   -1.000
 4113.00    0.96543   0.95419   -1.000
 4114.00    0.98113   0.97166   -1.000
 4115.00    0.99035   0.98371  423.060
 4116.00    0.99792   0.98551   -1.000
 4117.00    0.98265   0.97735  415.242
 4118.00    0.95530   0.96549   -1.000
 4119.00    0.94622   0.95738   -1.000
 4120.00    0.95685   0.95661  403.140
 4121.00    0.96521   0.96100  404.384
 4122.00    0.96381   0.96707  411.228
 4123.00    0.96899   0.97420  418.236
 4124.00    0.99070   0.98193   -1.000
 4125.00    0.99827   0.98662   -1.000
 4126.00    0.99168   0.98472  432.733
 4127.00    0.97914   0.97839  446.680
 4128.00    0.97125   0.97270  456.027
 4129.00    0.96660   0.96863  450.740
 4130.00    0.96406   0.96126  432.400
 4131.00    0.95232   0.94866  413.269
 4132.00    0.93349   0.93804  402.543
 4133.00    0.92549   0.93950   -1.000
 4134.00    0.94440   0.95589   -1.000
 4135.00    0.96783   0.98063   -1.000
 4136.00    0.99360   1.00514   -1.000
 4137.00    1.01537   1.02477   -1.000
 4138.00    1.02261   1.03859   -1.000
 4139.00    1.02610   1.04371   -1.000
 4140.00    1.02720   1.03407   -1.000
 4141.00    0.99789   1.00873   -1.000
 4142.00    0.95106   0.97757   -1.000
 4143.00    0.91880   0.95637   -1.000
 4144.00    0.92323   0.95701   -1.000
 4145.00    0.95748   0.97565   -1.000
 4146.00    0.99022   0.99611  438.140
 4147.00    1.00242   1.00623  435.006
 4148.00    0.99450   1.00642   -1.000
 4149.00    0.98039   1.00432   -1.000
 4150.00    0.97600   1.00423   -1.000
 4151.00    0.97629   1.00388   -1.000
 4152.00    0.97661   0.99909   -1.000
 4153.00    0.97201   0.98981   -1.000
 4154.00    0.96282   0.98102   -1.000
 4155.00    0.96779   0.97872   -1.000
 4156.00    0.97536   0.98534   -1.000
 4157.00    0.96587   0.99809   -1.000
 4158.00    0.96770   1.01222   -1.000
 4159.00    0.98900   1.02354   -1.000
 4160.00    1.00920   1.03083   -1.000
 4161.00    1.01523   1.03617   -1.000
 4162.00    1.01815   1.04180   -1.000
 4163.00    1.01982   1.04721   -1.000
 4164.00    1.01340   1.04918   -1.000
 4165.00    1.01026   1.04490   -1.000
 4166.00    1.00196   1.03584   -1.000
 4167.00    0.99011   1.02752   -1.000
 4168.00    0.98716   1.02245   -1.000
 4169.00    0.99345   1.01531   -1.000
 4170.00    0.98513   0.99794   -1.000
 4171.00    0.95036   0.97023   -1.000
 4172.00    0.91568   0.94446   -1.000
 4173.00    0.90520   0.93555   -1.000
 4174.00    0.91814   0.94567   -1.000
 4175.00    0.93473   0.96340   -1.000
 4176.00    0.93984   0.97582   -1.000
 4177.00    0.94200   0.98165   -1.000
 4178.00    0.94353   0.98743   -1.000
 4179.00    0.95736   0.99585   -1.000
 4180.00    0.97094   1.00235   -1.000
 4181.00    0.97594   1.00244   -1.000
 4182.00    0.97321   1.00049   -1.000
 4183.00    0.97301   1.00348   -1.000
 4184.00    0.98529   1.00902   -1.000
 4185.00    0.98699   1.00896   -1.000
 4186.00    0.97064   1.00130   -1.000
 4187.00    0.95513   0.99300   -1.000
 4188.00    0.95428   0.99205   -1.000
 4189.00    0.96423   0.99840   -1.000
 4190.00    0.97187   1.00660   -1.000
 4191.00    0.97762   1.01433   -1.000
 4192.00    0.98907   1.02178   -1.000
 4193.00    1.00101   1.02579   -1.000
 4194.00    0.99975   1.02066   -1.000
 4195.00    0.97795   1.00411   -1.000
 4196.00    0.94982   0.98117   -1.000
 4197.00    0.93313   0.96035   -1.000
 4198.00    0.92698   0.94712   -1.000
 4199.00    0.92872   0.94273   -1.000
 4200.00    0.93518   0.94532   -1.000
 4201.00    0.93865   0.95056   -1.000
 4202.00    0.94704   0.95659   -1.000
 4203.00    0.95188   0.96609   -1.000
 4204.00    0.95472   0.97996   -1.000
 4205.00    0.96339   0.99536   -1.000
 4206.00    0.97499   1.00956   -1.000
 4207.00    0.98785   1.02019   -1.000
 4208.00    0.99649   1.02545   -1.000
 4209.00    0.99721   1.02682   -1.000
 4210.00    0.99843   1.02869   -1.000
 4211.00    0.99775   1.03309   -1.000
 4212.00    0.99492   1.03495   -1.000
 4213.00    0.98763   1.02627   -1.000
 4214.00    0.96770   1.00788   -1.000
 4215.00    0.94394   0.99120   -1.000
 4216.00    0.94381   0.98748   -1.000
 4217.00    0.97045   0.99950   -1.000
 4218.00    0.99859   1.01950   -1.000
 4219.00    1.01497   1.03649   -1.000
 4220.00    1.02353   1.04423   -1.000
 4221.00    1.02351   1.03973   -1.000
 4222.00    1.00469   1.01971   -1.000
 4223.00    0.97520   0.98221   -1.000
 4224.00    0.93518   0.93213  436.797
 4225.00    0.87599   0.88508   -1.000
 4226.00    0.82402   0.86255   -1.000
 4227.00    0.82896   0.87884   -1.000
 4228.00    0.89596   0.92762   -1.000
 4229.00    0.96954   0.98210   -1.000
 4230.00    1.00543   1.01650   -1.000
 4231.00    1.00801   1.02365   -1.000
 4232.00    0.99658   1.01292   -1.000
 4233.00    0.98093   0.99672   -1.000
 4234.00    0.96996   0.98363   -1.000
 4235.00    0.96026   0.97696   -1.000
 4236.00    0.95248   0.97550   -1.000
 4237.00    0.95526   0.97874   -1.000
 4238.00    0.96043   0.98723   -1.000
 4239.00    0.96907   0.99942   -1.000
 4240.00    0.98518   1.01314   -1.000
 4241.00    0.99822   1.02590   -1.000
 4242.00    1.00311   1.03558   -1.000
 4243.00    1.00651   1.04083   -1.000
 4244.00    1.01079   1.03997   -1.000
 4245.00    1.00359   1.03046   -1.000
 4246.00    0.97652   1.01213   -1.000
 4247.00    0.95183   0.99120   -1.000
 4248.00    0.94242   0.97612   -1.000
 4249.00    0.94005   0.97113   -1.000
 4250.00    0.94250   0.97632   -1.000
 4251.00    0.95544   0.98766   -1.000
 4252.00    0.97199   0.99730   -1.000
 4253.00    0.97177   0.99920   -1.000
 4254.00    0.96276   0.99729   -1.000
 4255.00    0.96693   1.00028   -1.000
 4256.00    0.98465   1.00776   -1.000
 4257.00    0.99727   1.00863   -1.000
 4258.00    0.98358   0.99533   -1.000
 4259.00    0.95425   0.97570   -1.000
 4260.00    0.93734   0.96720   -1.000
 4261.00    0.94297   0.97936   -1.000
 4262.00    0.96993   1.00646   -1.000
 4263.00    1.00608   1.03387   -1.000
 4264.00    1.02876   1.05037   -1.000
 4265.00    1.03317   1.05329   -1.000
 4266.00    1.02709   1.04655   -1.000
 4267.00    1.01121   1.03303   -1.000
 4268.00    0.99120   1.01240   -1.000
 4269.00    0.97097   0.98468   -1.000
 4270.00    0.94000   0.95413   -1.000
 4271.00    0.90411   0.92945   -1.000
 4272.00    0.88936   0.91903   -1.000
 4273.00    0.89827   0.92444   -1.000
 4274.00    0.91527   0.94159   -1.000
 4275.00    0.93811   0.96682   -1.000
 4276.00    0.97413   0.99621   -1.000
 4277.00    1.00859   1.02022   -1.000
 4278.00    1.01322   1.02903   -1.000
 4279.00    0.99040   1.02191   -1.000
 4280.00    0.96996   1.00793   -1.000
 4281.00    0.96473   0.99767   -1.000
 4282.00    0.96606   0.99451   -1.000
 4283.00    0.96911   0.99361   -1.000
 4284.00    0.96508   0.98987   -1.000
 4285.00    0.94910   0.98119   -1.000
 4286.00    0.93694   0.96664   -1.000
 4287.00    0.93049   0.94630   -1.000
 4288.00    0.90528   0.92237   -1.000
 4289.00    0.87417   0.90286   -1.000
 4290.00    0.86877   0.89901   -1.000
 4291.00    0.89180   0.91315   -1.000
 4292.00    0.92539   0.93373   -1.000
 4293.00    0.94269   0.94645  494.329
 4294.00    0.93965   0.94612   -1.000
 4295.00    0.93204   0.93698   -1.000
 4296.00    0.92076   0.92097  548.494
 4297.00    0.89387   0.89572  536.166
 4298.00    0.85282   0.86282   -1.000
 4299.00    0.81351   0.83147   -1.000
 4300.00    0.79332   0.81172   -1.000
 4301.00    0.79899   0.80723   -1.000
 4302.00    0.81112   0.81421  555.873
 4303.00    0.82210   0.82631  577.113
 4304.00    0.83439   0.83695  576.089
 4305.00    0.84031   0.83859  552.400
 4306.00    0.83177   0.82869  518.333
 4307.00    0.80476   0.81425   -1.000
 4308.00    0.78356   0.80690   -1.000
 4309.00    0.79182   0.81443   -1.000
 4310.00    0.81837   0.83414   -1.000
 4311.00    0.84377   0.85694   -1.000
 4312.00    0.86117   0.87804   -1.000
 4313.00    0.87492   0.90157   -1.000
 4314.00    0.89932   0.93443   -1.000
 4315.00    0.94691   0.97742   -1.000
 4316.00    1.00118   1.02099   -1.000
 4317.00    1.03641   1.05119   -1.000
 4318.00    1.04821   1.06102   -1.000
 4319.00    1.04208   1.05443   -1.000
 4320.00    1.02604   1.03853   -1.000
 4321.00    1.01031   1.01558  465.838
 4322.00    0.98416   0.98386  422.578
 4323.00    0.94361   0.94525  386.180
 4324.00    0.89926   0.91066   -1.000
 4325.00    0.87456   0.89706   -1.000
 4326.00    0.88781   0.91363   -1.000
 4327.00    0.93539   0.95100   -1.000
 4328.00    0.98330   0.98670  359.391
 4329.00    1.00084   1.00557  357.545
 4330.00    0.99539   1.00871   -1.000
 4331.00    0.99513   1.00661   -1.000
 4332.00    0.99694   1.00527   -1.000
 4333.00    0.98970   1.00142   -1.000
 4334.00    0.97904   0.98757   -1.000
 4335.00    0.96674   0.95668   -1.000
 4336.00    0.92790   0.90490   -1.000
 4337.00    0.85962   0.83572   -1.000
 4338.00    0.78576   0.76340   -1.000
 4339.00    0.71639   0.70898   -1.000
 4340.00    0.67699   0.69128   -1.000
 4341.00    0.70380   0.71736   -1.000
 4342.00    0.77869   0.77558  371.093
 4343.00    0.84918   0.84107  365.841
 4344.00    0.89735   0.89526  364.145
 4345.00    0.93431   0.93546  377.194
 4346.00    0.95998   0.96619  403.369
 4347.00    0.97669   0.98944   -1.000
 4348.00    0.99292   1.00143   -1.000
 4349.00    0.99646   0.99624  390.626
 4350.00    0.96831   0.97499  376.486
 4351.00    0.92956   0.95184   -1.000
 4352.00    0.91855   0.94492   -1.000
 4353.00    0.94972   0.96016   -1.000
 4354.00    0.98796   0.98814  376.176
 4355.00    1.01042   1.01398  373.066
 4356.00    1.02435   1.02943  362.830
 4357.00    1.03005   1.03436  356.177
 4358.00    1.01831   1.03365   -1.000
 4359.00    1.00883   1.03458   -1.000
 4360.00    1.01602   1.04239   -1.000
 4361.00    1.03371   1.05568   -1.000
 4362.00    1.04596   1.06881   -1.000
 4363.00    1.05200   1.07813   -1.000
 4364.00    1.05628   1.08177   -1.000
 4365.00    1.05372   1.07720   -1.000
 4366.00    1.04010   1.06415   -1.000
 4367.00    1.02055   1.04790   -1.000
 4368.00    1.01095   1.03523   -1.000
 4369.00    1.01699   1.02849   -1.000
 4370.00    1.02242   1.02472  406.465
 4371.00    1.02826   1.01839   -1.000
 4372.00    1.02308   1.00509   -1.000
 4373.00    0.99685   0.98603   -1.000
 4374.00    0.97234   0.97013  364.487
 4375.00    0.96393   0.96943  369.739
 4376.00    0.98430   0.98757  383.621
 4377.00    1.02138   1.01420  417.882
 4378.00    1.04281   1.03423   -1.000
 4379.00    1.04748   1.03813   -1.000
 4380.00    1.04080   1.02247   -1.000
 4381.00    1.01684   0.98738   -1.000
 4382.00    0.96607   0.94052   -1.000
 4383.00    0.90234   0.90106  387.498
 4384.00    0.87806   0.88991   -1.000
 4385.00    0.91144   0.91034  393.037
 4386.00    0.96665   0.94487   -1.000
 4387.00    0.99985   0.97283   -1.000
 4388.00    1.00784   0.98651   -1.000
 4389.00    1.00420   0.99093   -1.000
 4390.00    1.00118   0.99373  387.271
 4391.00    1.00870   0.99840   -1.000
 4392.00    1.02085   1.00251   -1.000
 4393.00    1.02158   1.00168   -1.000
 4394.00    1.00344   0.99828  372.433
 4395.00    0.99537   1.00104  384.629
 4396.00    1.01532   1.01254  384.995
 4397.00    1.03892   1.02299   -1.000
 4398.00    1.03731   1.02201   -1.000
 4399.00    1.01041   1.01143  405.616
 4400.00    0.99278   1.00171   -1.000
 4401.00    1.00259   0.99871  406.280
 4402.00    1.02122   0.99740   -1.000
 4403.00    1.01546   0.99037   -1.000
 4404.00    0.98458   0.97967  381.954
 4405.00    0.97103   0.97481  365.799
 4406.00    0.98558   0.97954  352.374
 4407.00    0.99796   0.98987  345.951
 4408.00    0.99404   1.00291   -1.000
 4409.00    1.00225   1.02129   -1.000
 4410.00    1.03444   1.04382   -1.000
 4411.00    1.06352   1.06072  387.226
 4412.00    1.07908   1.06196   -1.000
 4413.00    1.06850   1.04546   -1.000
 4414.00    1.03101   1.01849   -1.000
 4415.00    0.99658   0.99584  348.364
 4416.00    0.98974   0.99118  355.781
 4417.00    1.00399   1.00679  363.269
 4418.00    1.02428   1.03341   -1.000
 4419.00    1.04971   1.05739   -1.000
 4420.00    1.06647   1.06805  362.055
 4421.00    1.05380   1.06483   -1.000
 4422.00    1.04172   1.05658   -1.000
 4423.00    1.04273   1.05143   -1.000
 4424.00    1.04898   1.05014  362.788
 4425.00    1.04626   1.04932  364.812
 4426.00    1.03443   1.04840   -1.000
 4427.00    1.03475   1.04962   -1.000
 4428.00    1.04172   1.05290   -1.000
 4429.00    1.04262   1.05591   -1.000
 4430.00    1.04078   1.05729   -1.000
 4431.00    1.04907   1.05617  380.964
 4432.00    1.05632   1.05008  359.185
 4433.00    1.03787   1.03730  342.045
 4434.00    1.00552   1.02307   -1.000
 4435.00    0.99194   1.01952   -1.000
 4436.00    1.01452   1.03463   -1.000
 4437.00    1.05547   1.06226  376.828
 4438.00    1.08320   1.08615  381.971
 4439.00    1.09544   1.09220  371.336
 4440.00    1.08095   1.07697  355.681
 4441.00    1.04398   1.04949  346.709
 4442.00    1.00913   1.02643   -1.000
 4443.00    0.99061   1.02159   -1.000
 4444.00    1.00021   1.03667   -1.000
 4445.00    1.03383   1.06088   -1.000
 4446.00    1.05878   1.08041   -1.000
 4447.00    1.06473   1.08916   -1.000
 4448.00    1.06905   1.09012   -1.000
 4449.00    1.06537   1.08793   -1.000
 4450.00    1.06008   1.08471   -1.000
 4451.00    1.05565   1.07973   -1.000
 4452.00    1.05283   1.06918   -1.000
 4453.00    1.04288   1.05012   -1.000
 4454.00    1.01503   1.02758   -1.000
 4455.00    0.99656   1.01260   -1.000
 4456.00    1.00627   1.01130  386.557
 4457.00    1.02055   1.01839  381.550
 4458.00    1.02221   1.02448  368.017
 4459.00    1.01855   1.02615  357.822
 4460.00    1.01458   1.02637   -1.000
 4461.00    1.00908   1.02982   -1.000
 4462.00    1.01259   1.03918   -1.000
 4463.00    1.02992   1.05224   -1.000
 4464.00    1.04978   1.06286   -1.000
 4465.00    1.05545   1.06633   -1.000
 4466.00    1.05069   1.06203   -1.000
 4467.00    1.04079   1.05281   -1.000
 4468.00    1.02608   1.04451   -1.000
 4469.00    1.01456   1.04431   -1.000
 4470.00    1.02603   1.05581   -1.000
 4471.00    1.05001   1.07570   -1.000
 4472.00    1.07388   1.09653   -1.000
 4473.00    1.09628   1.11194   -1.000
 4474.00    1.10832   1.11985   -1.000
 4475.00    1.10568   1.12274   -1.000
 4476.00    1.10915   1.12341   -1.000
 4477.00    1.11572   1.12093  361.566
 4478.00    1.11322   1.11040  348.397
 4479.00    1.09464   1.08946  334.706
 4480.00    1.06422   1.06485  326.385
 4481.00    1.04029   1.04976   -1.000
 4482.00    1.04160   1.05338   -1.000
 4483.00    1.06327   1.07402   -1.000
 4484.00    1.08851   1.10079   -1.000
 4485.00    1.10495   1.12052   -1.000
 4486.00    1.11334   1.12549   -1.000
 4487.00    1.11014   1.11577  336.150
 4488.00    1.08753   1.09889   -1.000
 4489.00    1.06256   1.08578   -1.000
 4490.00    1.06138   1.08424   -1.000
 4491.00    1.08023   1.09223   -1.000
 4492.00    1.09293   1.09992  344.489
 4493.00    1.08570   1.09958   -1.000
 4494.00    1.06753   1.09328   -1.000
 4495.00    1.05793   1.08974   -1.000
 4496.00    1.06054   1.09349   -1.000
 4497.00    1.07452   1.10174   -1.000
 4498.00    1.09348   1.10850   -1.000
 4499.00    1.10567   1.10951  310.251
 4500.00    1.10319   1.10639  310.938
 4501.00    1.09340   1.10699   -1.000
 4502.00    1.10401   1.11763   -1.000
 4503.00    1.12523   1.13547   -1.000
 4504.00    1.14197   1.15138  319.228
 4505.00    1.14825   1.15801   -1.000
 4506.00    1.13833   1.15514   -1.000
 4507.00    1.13012   1.14825   -1.000
 4508.00    1.12424   1.14388   -1.000
 4509.00    1.12923   1.14426   -1.000
 4510.00    1.13223   1.14606   -1.000
 4511.00    1.12975   1.14427   -1.000
 4512.00    1.12481   1.13753   -1.000
 4513.00    1.11353   1.12859   -1.000
 4514.00    1.10094   1.12063   -1.000
 4515.00    1.09725   1.11551   -1.000
 4516.00    1.09273   1.11289   -1.000
 4517.00    1.08817   1.11062   -1.000
 4518.00    1.08375   1.10809   -1.000
 4519.00    1.09182   1.10743   -1.000
 4520.00    1.10147   1.10916  348.574
 4521.00    1.10107   1.10961   -1.000
 4522.00    1.08606   1.10492   -1.000
 4523.00    1.07295   1.09580   -1.000
 4524.00    1.07676   1.08573   -1.000
 4525.00    1.06920   1.07510  366.717
 4526.00    1.05479   1.06170  360.000
 4527.00    1.03994   1.04603  357.425
 4528.00    1.02337   1.03318   -1.000
 4529.00    1.02202   1.02895  377.817
 4530.00    1.03361   1.03321  375.809
 4531.00    1.04516   1.03954  356.699
 4532.00    1.04454   1.03961  335.540
 4533.00    1.03134   1.03198  324.772
 4534.00    1.01083   1.02554   -1.000
 4535.00    1.00951   1.03167   -1.000
 4536.00    1.04201   1.05370   -1.000
 4537.00    1.08750   1.08341  332.238
 4538.00    1.11704   1.10761   -1.000
 4539.00    1.11412   1.11787  444.613
 4540.00    1.10350   1.11652  173.914
 4541.00    1.09709   1.11186   -1.000
 4542.00    1.10956   1.10945  177.161
 4543.00    0.44825   1.10845   -1.000
 4544.00   -0.33642   1.10512    0.000
 4545.00   -0.24491   1.09897    0.000
 4546.00    0.61323   1.09151   -1.000
 4547.00    0.43557   1.08153   -1.000
 4548.00    0.59340   1.06811   -1.000
 4549.00    1.00354   1.05656   -1.000
 4550.00    1.04439   1.05468   -1.000
 4551.00    1.06232   1.06208  338.860
 4552.00    1.06246   1.06881  325.277
 4553.00    1.04409   1.06751   -1.000
 4554.00    1.03056   1.06216   -1.000
 4555.00    1.03759   1.06246   -1.000
 4556.00    1.06492   1.07419  319.530
 4557.00    1.08991   1.09416  325.976
 4558.00    1.11129   1.11378  334.143
 4559.00    1.11953   1.12748  340.237
 4560.00    1.11532   1.13436   -1.000
 4561.00    1.11794   1.13386   -1.000
 4562.00    1.11127   1.12526   -1.000
 4563.00    1.08721   1.11141   -1.000
 4564.00    1.06743   1.09998   -1.000
 4565.00    1.06929   1.09826   -1.000
 4566.00    1.08910   1.10700   -1.000
 4567.00    1.11090   1.12001  334.951
 4568.00    1.12351   1.12826  325.634
 4569.00    1.12452   1.12625  320.272
 4570.00    1.10782   1.11516  319.913
 4571.00    1.08007   1.10247   -1.000
 4572.00    1.07798   1.09793   -1.000
 4573.00    1.09667   1.10535  328.214
 4574.00    1.11122   1.11798  337.619
 4575.00    1.11610   1.12616   -1.000
 4576.00    1.11964   1.12664  344.998
 4577.00    1.11205   1.12100   -1.000
 4578.00    1.10376   1.11051  337.681
 4579.00    1.09200   1.09612  338.308
 4580.00    1.07183   1.08125   -1.000
 4581.00    1.06494   1.07035  336.406
 4582.00    1.06610   1.06542  327.940
 4583.00    1.07166   1.06537  320.751
 4584.00    1.07316   1.06870  319.591
 4585.00    1.07648   1.07457  323.774
 4586.00    1.08896   1.08272  329.739
 4587.00    1.10385   1.09251   -1.000
 4588.00    1.10944   1.10178  336.492
 4589.00    1.11625   1.10720  333.904
 4590.00    1.10842   1.10677  331.228
 4591.00    1.09272   1.10143  330.173
 4592.00    1.08732   1.09510  329.471
 4593.00    1.08595   1.09224  328.734
 4594.00    1.08721   1.09407  331.279
 4595.00    1.09687   1.09866  334.289
 4596.00    1.10702   1.10380  335.427
 4597.00    1.11003   1.10776  332.270
 4598.00    1.11030   1.10893  328.515
 4599.00    1.10623   1.10645  328.668
 4600.00    1.09920   1.10126  328.247
 4601.00    1.09149   1.09634  324.929
 4602.00    1.08661   1.09448  318.718
 4603.00    1.09567   1.09600  311.901
 4604.00    1.10159   1.09971  307.958
 4605.00    1.10924   1.10463  308.923
 4606.00    1.11429   1.11096  312.985
 4607.00    1.12420   1.11936  316.559
 4608.00    1.14099   1.12876   -1.000
 4609.00    1.15047   1.13586   -1.000
 4610.00    1.14649   1.13715  314.676
 4611.00    1.13491   1.13274  313.285
 4612.00    1.12535   1.12693  315.137
 4613.00    1.12044   1.12330  317.490
 4614.00    1.12262   1.12249  317.390
 4615.00    1.12669   1.12268  314.533
 4616.00    1.12501   1.12174  309.639
 4617.00    1.11760   1.11906  309.187
 4618.00    1.11523   1.11626  309.936
 4619.00    1.11565   1.11638  310.562
 4620.00    1.12274   1.12127  313.280
 4621.00    1.13450   1.12922  314.201
 4622.00    1.14613   1.13580   -1.000
 4623.00    1.14432   1.13763  315.978
 4624.00    1.13747   1.13535  316.755
 4625.00    1.13613   1.13168  315.296
 4626.00    1.13080   1.12842  311.747
 4627.00    1.13235   1.12607  312.833
 4628.00    1.12335   1.12415  317.269
 4629.00    1.11183   1.12330   -1.000
 4630.00    1.12230   1.12476  320.779
 4631.00    1.13110   1.12771  323.209
 4632.00    1.13795   1.12878   -1.000
 4633.00    1.13511   1.12590   -1.000
 4634.00    1.12221   1.12076  328.571
 4635.00    1.12523   1.11626  323.227
 4636.00    1.12548   1.11297   -1.000
 4637.00    1.11166   1.11012  310.866
 4638.00    1.11168   1.10863  311.885
 4639.00    1.11698   1.11041  317.536
 4640.00    1.12330   1.11627  326.410
 4641.00    1.13790   1.12429   -1.000
 4642.00    1.15125   1.13023   -1.000
 4643.00    1.14603   1.12998   -1.000
 4644.00    1.13686   1.12239   -1.000
 4645.00    1.11825   1.10964  319.243
 4646.00    1.09632   1.09555  318.553
 4647.00    1.08739   1.08616  317.908
 4648.00    1.09674   1.08693   -1.000
 4649.00    1.11514   1.09697   -1.000
 4650.00    1.12566   1.10973   -1.000
 4651.00    1.12294   1.11866  330.220
 4652.00    1.12010   1.12085  319.883
 4653.00    1.11657   1.11682  307.610
 4654.00    1.10479   1.10927  300.551
 4655.00    1.08886   1.10298   -1.000
 4656.00    1.08883   1.10297   -1.000
 4657.00    1.10224   1.11209  311.156
 4658.00    1.12863   1.12878  317.353
 4659.00    1.15690   1.14607   -1.000
 4660.00    1.16477   1.15534   -1.000
 4661.00    1.15146   1.15335  337.154
 4662.00    1.13488   1.14323  351.283
 4663.00    1.12827   1.12985  351.921
 4664.00    1.12633   1.11513   -1.000
 4665.00    1.12729   1.09794   -1.000
 4666.00    1.10114   1.07827   -1.000
 4667.00    1.06690   1.06129  316.023
 4668.00    1.05537   1.05523  316.258
 4669.00    1.06312   1.06339  315.937
 4670.00    1.08924   1.08067  311.847
 4671.00    1.11449   1.09855   -1.000
 4672.00    1.12583   1.11103   -1.000
 4673.00    1.13247   1.11800   -1.000
 4674.00    1.13350   1.12305   -1.000
 4675.00    1.13714   1.12828   -1.000
 4676.00    1.14701   1.13131   -1.000
 4677.00    1.15190   1.12769   -1.000
 4678.00    1.13794   1.11697   -1.000
 4679.00    1.12084   1.10388   -1.000
 4680.00    1.10654   1.09389   -1.000
 4681.00    1.09876   1.08991   -1.000
 4682.00    1.10052   1.09230  316.589
 4683.00    1.11859   1.09927   -1.000
 4684.00    1.13442   1.10706   -1.000
 4685.00    1.13878   1.11214   -1.000
 4686.00    1.13782   1.11371   -1.000
 4687.00    1.13434   1.11322   -1.000
 4688.00    1.13296   1.11211   -1.000
 4689.00    1.12983   1.11079   -1.000
 4690.00    1.12462   1.10898   -1.000
 4691.00    1.12046   1.10732   -1.000
 4692.00    1.12922   1.10794   -1.000
 4693.00    1.14558   1.11166   -1.000
 4694.00    1.15199   1.11658   -1.000
 4695.00    1.15609   1.11982   -1.000
 4696.00    1.15742   1.11884   -1.000
 4697.00    1.15076   1.11201   -1.000
 4698.00    1.13681   1.10071   -1.000
 4699.00    1.12504   1.08900   -1.000
 4700.00    1.12488   1.07946   -1.000
 4701.00    1.12314   1.07189   -1.000
 4702.00    1.10589   1.06618   -1.000
 4703.00    1.09556   1.06470   -1.000
 4704.00    1.10189   1.06909   -1.000
 4705.00    1.10848   1.07568   -1.000
 4706.00    1.10788   1.07806   -1.000
 4707.00    1.09654   1.07440   -1.000
 4708.00    1.08676   1.06957   -1.000
 4709.00    1.08454   1.07015   -1.000
 4710.00    1.09824   1.07779   -1.000
 4711.00    1.12077   1.08827   -1.000
 4712.00    1.13904   1.09558   -1.000
 4713.00    1.13207   1.09669   -1.000
 4714.00    1.11633   1.09472   -1.000
 4715.00    1.11791   1.09585   -1.000
 4716.00    1.12998   1.10306   -1.000
 4717.00    1.14277   1.11368   -1.000
 4718.00    1.15128   1.12279   -1.000
 4719.00    1.15083   1.12800   -1.000
 4720.00    1.14809   1.12945   -1.000
 4721.00    1.14497   1.12866   -1.000
 4722.00    1.14758   1.12787   -1.000
 4723.00    1.14647   1.12884   -1.000
 4724.00    1.14720   1.13048   -1.000
 4725.00    1.16018   1.12871   -1.000
 4726.00    1.14255   1.12038   -1.000
 4727.00    1.12248   1.10644   -1.000
 4728.00    1.10362   1.09213   -1.000
 4729.00    1.10540   1.08299   -1.000
 4730.00    1.11223   1.08038   -1.000
 4731.00    1.11617   1.08280   -1.000
 4732.00    1.11494   1.08867   -1.000
 4733.00    1.11755   1.09538   -1.000
 4734.00    1.13150   1.09977   -1.000
 4735.00    1.13118   1.10061   -1.000
 4736.00    1.11788   1.09951   -1.000
 4737.00    1.11653   1.09949   -1.000
 4738.00    1.12307   1.10201   -1.000
 4739.00    1.12971   1.10560   -1.000
 4740.00    1.13179   1.10805   -1.000
 4741.00    1.12632   1.10953   -1.000
 4742.00    1.12860   1.11190   -1.000
 4743.00    1.13669   1.11549   -1.000
 4744.00    1.14088   1.11891   -1.000
 4745.00    1.14171   1.12142   -1.000
 4746.00    1.14054   1.12401   -1.000
 4747.00    1.14220   1.12793   -1.000
 4748.00    1.14898   1.13276   -1.000
 4749.00    1.15452   1.13722   -1.000
 4750.00    1.15292   1.14055   -1.000
 4751.00    1.15094   1.14108   -1.000
 4752.00    1.14835   1.13712   -1.000
 4753.00    1.13590   1.12962  317.664
 4754.00    1.12758   1.12212  314.880
 4755.00    1.13142   1.11799   -1.000
 4756.00    1.11889   1.11823  319.917
 4757.00    1.11455   1.12173  328.050
 4758.00    1.12276   1.12638  331.925
 4759.00    1.12369   1.12974  332.166
 4760.00    1.13555   1.12881  331.362
 4761.00    1.12939   1.12122  328.858
 4762.00    1.10998   1.10788  324.068
 4763.00    1.09572   1.09365  316.605
 4764.00    1.08822   1.08405  312.546
 4765.00    1.09584   1.08157   -1.000
 4766.00    1.10676   1.08617   -1.000
 4767.00    1.11655   1.09683   -1.000
 4768.00    1.12780   1.11116   -1.000
 4769.00    1.13428   1.12435   -1.000
 4770.00    1.13999   1.13130  306.107
 4771.00    1.12566   1.13122  306.508
 4772.00    1.12377   1.12885  307.494
 4773.00    1.12993   1.13001  309.637
 4774.00    1.14623   1.13618   -1.000
 4775.00    1.15843   1.14347   -1.000
 4776.00    1.15393   1.14774  315.614
 4777.00    1.14987   1.14804  317.258
 4778.00    1.14259   1.14519  319.757
 4779.00    1.13601   1.14058  319.519
 4780.00    1.13288   1.13613  320.785
 4781.00    1.13409   1.13292  324.052
 4782.00    1.13038   1.12983  325.719
 4783.00    1.12164   1.12573  325.196
 4784.00    1.12347   1.12118  323.499
 4785.00    1.12089   1.11676  321.400
 4786.00    1.10481   1.11264  317.844
 4787.00    1.10454   1.11003  312.396
 4788.00    1.10720   1.11018  305.405
 4789.00    1.11077   1.11286  300.506
 4790.00    1.12004   1.11793  299.888
 4791.00    1.12590   1.12609  303.340
 4792.00    1.13367   1.13734  309.636
 4793.00    1.14086   1.14998  315.278
 4794.00    1.15341   1.16082  318.471
 4795.00    1.16036   1.16630  315.058
 4796.00    1.15628   1.16427  308.595
 4797.00    1.14399   1.15593   -1.000
 4798.00    1.12525   1.14531   -1.000
 4799.00    1.11704   1.13757   -1.000
 4800.00    1.12149   1.13654   -1.000
 4801.00    1.13702   1.14212  316.329
 4802.00    1.14572   1.14956  316.030
 4803.00    1.14296   1.15246   -1.000
 4804.00    1.13251   1.14816   -1.000
 4805.00    1.12248   1.14015   -1.000
 4806.00    1.12148   1.13389   -1.000
 4807.00    1.11969   1.13177   -1.000
 4808.00    1.12730   1.13336  306.844
 4809.00    1.13062   1.13716  306.036
 4810.00    1.13400   1.14119  304.845
 4811.00    1.13704   1.14418  302.875
 4812.00    1.14260   1.14674  301.056
 4813.00    1.14368   1.15006  299.964
 4814.00    1.15237   1.15429  299.927
 4815.00    1.15012   1.15886  300.179
 4816.00    1.14949   1.16309   -1.000
 4817.00    1.15183   1.16622   -1.000
 4818.00    1.15912   1.16761  316.806
 4819.00    1.15959   1.16731  315.379
 4820.00    1.15300   1.16472   -1.000
 4821.00    1.15347   1.15753  305.435
 4822.00    1.14003   1.14446  307.256
 4823.00    1.12541   1.12905  310.856
 4824.00    1.11381   1.11887  312.494
 4825.00    1.12251   1.11892  312.608
 4826.00    1.13728   1.12612   -1.000
 4827.00    1.14546   1.13280   -1.000
 4828.00    1.13727   1.13434  309.998
 4829.00    1.12874   1.13162  306.243
 4830.00    1.12877   1.12744  305.433
 4831.00    1.12456   1.12320  306.121
 4832.00    1.11927   1.12011  307.931
 4833.00    1.12538   1.11996  312.444
 4834.00    1.13596   1.12296   -1.000
 4835.00    1.13671   1.12686   -1.000
 4836.00    1.13659   1.12887  316.523
 4837.00    1.13638   1.12753  314.795
 4838.00    1.12999   1.12269  312.309
 4839.00    1.11630   1.11542  308.931
 4840.00    1.10576   1.10850  304.361
 4841.00    1.10724   1.10448  303.861
 4842.00    1.11571   1.10367   -1.000
 4843.00    1.12327   1.10492   -1.000
 4844.00    1.12095   1.10763   -1.000
 4845.00    1.12440   1.11127   -1.000
 4846.00    1.13105   1.11320   -1.000
 4847.00    1.12627   1.11014   -1.000
 4848.00    1.10769   1.10349  314.550
 4849.00    1.09444   1.09833  324.272
 4850.00    1.10362   1.09698  332.183
 4851.00    1.10875   1.09649   -1.000
 4852.00    1.10586   1.09184   -1.000
 4853.00    1.09691   1.07940   -1.000
 4854.00    1.07150   1.05899   -1.000
 4855.00    1.04560   1.03540   -1.000
 4856.00    1.03442   1.01445   -1.000
 4857.00    1.02948   0.99432   -1.000
 4858.00    1.00737   0.96284   -1.000
 4859.00    0.93544   0.90844   -1.000
 4860.00    0.83630   0.83911  331.572
 4861.00    0.76445   0.78553   -1.000
 4862.00    0.78191   0.77822  322.712
 4863.00    0.86718   0.82040   -1.000
 4864.00    0.95064   0.88587   -1.000
 4865.00    1.00229   0.94615   -1.000
 4866.00    1.02907   0.98997   -1.000
 4867.00    1.04639   1.01912   -1.000
 4868.00    1.06279   1.03662   -1.000
 4869.00    1.06641   1.04214   -1.000
 4870.00    1.05438   1.03579   -1.000
 4871.00    1.03249   1.02407  319.016
 4872.00    1.02888   1.01893   -1.000
 4873.00    1.04833   1.02777   -1.000
 4874.00    1.07005   1.04601   -1.000
 4875.00    1.08119   1.06319   -1.000
 4876.00    1.08108   1.07350  318.655
 4877.00    1.07944   1.07943  319.950
 4878.00    1.08673   1.08662  319.187
 4879.00    1.10187   1.09696  321.538
 4880.00    1.11062   1.10674  326.147
 4881.00    1.10564   1.11053  327.195
 4882.00    1.09650   1.10740   -1.000
 4883.00    1.09724   1.10127  325.979
 4884.00    1.09419   1.09484  331.424
 4885.00    1.08690   1.08885  337.326
 4886.00    1.08528   1.08448  332.768
 4887.00    1.09079   1.08196  318.609
 4888.00    1.08972   1.07873   -1.000
 4889.00    1.07698   1.07152  296.348
 4890.00    1.05872   1.06165  291.596
 4891.00    1.05105   1.05752  290.682
 4892.00    1.07201   1.06847  292.351
 4893.00    1.11226   1.09471   -1.000
 4894.00    1.14227   1.12564   -1.000
 4895.00    1.15820   1.14963  307.895
 4896.00    1.16437   1.16210  306.559
 4897.00    1.16228   1.16447  307.660
 4898.00    1.15664   1.15979  310.310
 4899.00    1.14273   1.15113  306.070
 4900.00    1.12951   1.14213   -1.000
 4901.00    1.12969   1.13553  298.866
 4902.00    1.13168   1.13105  302.621
 4903.00    1.12201   1.12799  310.391
 4904.00    1.12141   1.12898  318.545
 4905.00    1.13931   1.13624  320.874
 4906.00    1.15402   1.14519  316.064
 4907.00    1.14693   1.14776  310.536
 4908.00    1.13344   1.14050  306.360
 4909.00    1.11841   1.12637  302.615
 4910.00    1.10548   1.11218  300.762
 4911.00    1.10115   1.10503  304.049
 4912.00    1.11019   1.10828  316.182
 4913.00    1.12439   1.11932  333.407
 4914.00    1.13225   1.13212  346.939
 4915.00    1.14198   1.14034  347.465
 4916.00    1.14976   1.13789   -1.000
 4917.00    1.12710   1.12051  324.615
 4918.00    1.09200   1.09019  320.907
 4919.00    1.05858   1.05701  319.960
 4920.00    1.03527   1.03445  314.864
 4921.00    1.03933   1.03016   -1.000
 4922.00    1.06338   1.04047   -1.000
 4923.00    1.08319   1.05495   -1.000
 4924.00    1.09001   1.06761   -1.000
 4925.00    1.09273   1.08086   -1.000
 4926.00    1.11310   1.09789   -1.000
 4927.00    1.13162   1.11693   -1.000
 4928.00    1.14016   1.13371  319.044
 4929.00    1.14752   1.14524  318.121
 4930.00    1.15301   1.14943  313.365
 4931.00    1.15131   1.14413  315.313
 4932.00    1.13414   1.12913  324.825
 4933.00    1.10388   1.10966  331.230
 4934.00    1.08529   1.09522  326.129
 4935.00    1.09395   1.09097  314.885
 4936.00    1.10813   1.09135   -1.000
 4937.00    1.09857   1.08683   -1.000
 4938.00    1.07848   1.07726  298.806
 4939.00    1.07201   1.07281  299.534
 4940.00    1.09323   1.08183   -1.000
 4941.00    1.12438   1.10250   -1.000
 4942.00    1.14107   1.12513   -1.000
 4943.00    1.14574   1.14072  295.261
 4944.00    1.14370   1.14655  294.362
 4945.00    1.13963   1.14539  293.743
 4946.00    1.13857   1.14241  295.473
 4947.00    1.13883   1.14238  297.843
 4948.00    1.14050   1.14680  301.407
 4949.00    1.14906   1.15285  306.173
 4950.00    1.15434   1.15646  316.254
 4951.00    1.15557   1.15603  332.086
 4952.00    1.15337   1.15260  340.589
 4953.00    1.15095   1.14738  330.043
 4954.00    1.14836   1.13891   -1.000
 4955.00    1.13731   1.12226   -1.000
 4956.00    1.10203   1.09534  302.774
 4957.00    1.06412   1.06798  304.532
 4958.00    1.05561   1.05769  307.282
 4959.00    1.08891   1.07235   -1.000
 4960.00    1.12737   1.10137   -1.000
 4961.00    1.14119   1.12709   -1.000
 4962.00    1.14341   1.14056  320.557
 4963.00    1.13914   1.14272  319.234
 4964.00    1.13473   1.13691  316.565
 4965.00    1.12405   1.12633  313.142
 4966.00    1.11259   1.11537  309.679
 4967.00    1.10641   1.10788  306.156
 4968.00    1.11038   1.10501  303.701
 4969.00    1.11617   1.10650   -1.000
 4970.00    1.11914   1.11192  305.837
 4971.00    1.12292   1.11992  309.336
 4972.00    1.13180   1.12842  313.793
 4973.00    1.14245   1.13552  318.629
 4974.00    1.14788   1.13982  322.681
 4975.00    1.14707   1.14048  328.836
 4976.00    1.14448   1.13725  339.837
 4977.00    1.13523   1.13052  347.989
 4978.00    1.12559   1.12168  345.972
 4979.00    1.11431   1.11145  338.426
 4980.00    1.10243   1.09782  328.479
 4981.00    1.07628   1.07831  318.621
 4982.00    1.04970   1.05530  312.960
 4983.00    1.03916   1.03743  314.588
 4984.00    1.04716   1.03366   -1.000
 4985.00    1.06431   1.04570   -1.000
 4986.00    1.08310   1.06749   -1.000
 4987.00    1.10161   1.09001   -1.000
 4988.00    1.11174   1.10496  317.109
 4989.00    1.10901   1.10825  316.574
 4990.00    1.09881   1.10278  314.916
 4991.00    1.09633   1.09589  314.315
 4992.00    1.09833   1.09322  316.952
 4993.00    1.10191   1.09536  321.874
 4994.00    1.10754   1.10024  327.766
 4995.00    1.11062   1.10603  330.726
 4996.00    1.11836   1.11054  329.904
 4997.00    1.11986   1.11035   -1.000
 4998.00    1.11086   1.10257  326.769
 4999.00    1.09305   1.08808  332.674
 5000.00    1.08424   1.07283   -1.000
 5001.00    1.08552   1.06371   -1.000
 5002.00    1.08959   1.06249   -1.000
 5003.00    1.09194   1.06432   -1.000
 5004.00    1.09106   1.06196   -1.000
 5005.00    1.07758   1.05286   -1.000
 5006.00    1.06273   1.04359   -1.000
 5007.00    1.06697   1.04425   -1.000
 5008.00    1.09306   1.05679   -1.000
 5009.00    1.11175   1.07203   -1.000
 5010.00    1.10644   1.07846   -1.000
 5011.00    1.08695   1.07128   -1.000
 5012.00    1.06301   1.05458  334.967
 5013.00    1.04096   1.03767  333.884
 5014.00    1.03687   1.02882  330.313
 5015.00    1.04992   1.02963   -1.000
 5016.00    1.06675   1.03465   -1.000
 5017.00    1.06637   1.03762   -1.000
 5018.00    1.06357   1.03845   -1.000
 5019.00    1.06858   1.04217   -1.000
 5020.00    1.07942   1.05043   -1.000
 5021.00    1.08351   1.05917   -1.000
 5022.00    1.08592   1.06533   -1.000
 5023.00    1.08939   1.07087   -1.000
 5024.00    1.09535   1.07835   -1.000
 5025.00    1.09956   1.08554   -1.000
 5026.00    1.09832   1.08825   -1.000
 5027.00    1.09261   1.08683  304.074
 5028.00    1.09502   1.08591   -1.000
 5029.00    1.10272   1.08903   -1.000
 5030.00    1.11184   1.09623   -1.000
 5031.00    1.12268   1.10564   -1.000
 5032.00    1.12957   1.11454   -1.000
 5033.00    1.13095   1.11847   -1.000
 5034.00    1.12558   1.11308   -1.000
 5035.00    1.10451   1.09932  365.638
 5036.00    1.07998   1.08405  359.395
 5037.00    1.07382   1.07254  339.914
 5038.00    1.07138   1.06176   -1.000
 5039.00    1.05433   1.04484  310.354
 5040.00    1.02821   1.02348  302.105
 5041.00    1.00988   1.01057  297.230
 5042.00    1.03634   1.01786   -1.000
 5043.00    1.01292   1.04447   -1.000
 5044.00    0.57677   1.07827   -1.000
 5045.00    0.01811   1.10622   -1.000
 5046.00    0.03657   1.12098   -1.000
 5047.00    0.41725   1.12067   -1.000
 5048.00    0.98261   1.10779   -1.000
 5049.00    1.08697   1.08902  305.879
 5050.00    1.07847   1.07281  303.693
 5051.00    1.08006   1.06551   -1.000
 5052.00    1.09167   1.06968   -1.000
 5053.00    1.11176   1.08351   -1.000
 5054.00    1.13287   1.10074   -1.000
 5055.00    1.14144   1.11461   -1.000
 5056.00    1.14508   1.12288   -1.000
 5057.00    1.14690   1.12753   -1.000
 5058.00    1.14666   1.13112   -1.000
 5059.00    1.14304   1.13460   -1.000
 5060.00    1.13784   1.13744  328.957
 5061.00    1.13937   1.13811  324.401
 5062.00    1.13551   1.13388  320.850
 5063.00    1.12405   1.12208  319.745
 5064.00    1.10291   1.10475  317.992
 5065.00    1.08705   1.08929  317.562
 5066.00    1.08815   1.08198  320.245
 5067.00    1.09616   1.08233   -1.000
 5068.00    1.10530   1.08573   -1.000
 5069.00    1.11206   1.08920   -1.000
 5070.00    1.11920   1.09177   -1.000
 5071.00    1.11891   1.09204   -1.000
 5072.00    1.11360   1.08954   -1.000
 5073.00    1.11195   1.08673   -1.000
 5074.00    1.11311   1.08623   -1.000
 5075.00    1.11439   1.08756   -1.000
 5076.00    1.11285   1.08747   -1.000
 5077.00    1.10565   1.08184   -1.000
 5078.00    1.08848   1.06834   -1.000
 5079.00    1.06334   1.05071   -1.000
 5080.00    1.04609   1.03815  316.672
 5081.00    1.05287   1.03662   -1.000
 5082.00    1.07417   1.04388   -1.000
 5083.00    1.08651   1.05461   -1.000
 5084.00    1.09678   1.06648   -1.000
 5085.00    1.11234   1.07903   -1.000
 5086.00    1.12425   1.09029   -1.000
 5087.00    1.12804   1.09802   -1.000
 5088.00    1.12362   1.10252   -1.000
 5089.00    1.12592   1.10577   -1.000
 5090.00    1.12948   1.10923   -1.000
 5091.00    1.13064   1.11351   -1.000
 5092.00    1.13288   1.11869   -1.000
 5093.00    1.13973   1.12326   -1.000
 5094.00    1.14423   1.12383   -1.000
 5095.00    1.14174   1.11715   -1.000
 5096.00    1.12847   1.10289   -1.000
 5097.00    1.10718   1.08458   -1.000
 5098.00    1.08480   1.06848   -1.000
 5099.00    1.07848   1.06122   -1.000
 5100.00    1.09183   1.06606   -1.000
 5101.00    1.11584   1.07948   -1.000
 5102.00    1.12882   1.09302   -1.000
 5103.00    1.12861   1.10000   -1.000
 5104.00    1.12299   1.09919   -1.000
 5105.00    1.11550   1.09231   -1.000
 5106.00    1.09980   1.08139   -1.000
 5107.00    1.08317   1.06956   -1.000
 5108.00    1.07638   1.06110   -1.000
 5109.00    1.07933   1.05906   -1.000
 5110.00    1.08681   1.06390   -1.000
 5111.00    1.09760   1.07438   -1.000
 5112.00    1.11049   1.08751   -1.000
 5113.00    1.12045   1.09949   -1.000
 5114.00    1.12679   1.10836   -1.000
 5115.00    1.13291   1.11475   -1.000
 5116.00    1.14217   1.12013   -1.000
 5117.00    1.14792   1.12457   -1.000
 5118.00    1.14762   1.12627   -1.000
 5119.00    1.14389   1.12308   -1.000
 5120.00    1.13535   1.11452   -1.000
 5121.00    1.12163   1.10190   -1.000
 5122.00    1.09966   1.08712   -1.000
 5123.00    1.08153   1.07253   -1.000
 5124.00    1.07808   1.06148   -1.000
 5125.00    1.07721   1.05628   -1.000
 5126.00    1.07913   1.05581   -1.000
 5127.00    1.08397   1.05674   -1.000
 5128.00    1.08357   1.05720   -1.000
 5129.00    1.08238   1.05830   -1.000
 5130.00    1.08430   1.06211   -1.000
 5131.00    1.09278   1.06877   -1.000
 5132.00    1.10496   1.07634   -1.000
 5133.00    1.10892   1.08301   -1.000
 5134.00    1.11395   1.08798   -1.000
 5135.00    1.12151   1.08987   -1.000
 5136.00    1.11496   1.08622   -1.000
 5137.00    1.09846   1.07642   -1.000
 5138.00    1.07860   1.06407   -1.000
 5139.00    1.06636   1.05477   -1.000
 5140.00    1.07054   1.05137   -1.000
 5141.00    1.07612   1.05202   -1.000
 5142.00    1.07128   1.05381   -1.000
 5143.00    1.06931   1.05673   -1.000
 5144.00    1.08119   1.06148   -1.000
 5145.00    1.09333   1.06568   -1.000
 5146.00    1.09671   1.06627   -1.000
 5147.00    1.09350   1.06422   -1.000
 5148.00    1.09148   1.06315   -1.000
 5149.00    1.09618   1.06347   -1.000
 5150.00    1.09480   1.06203   -1.000
 5151.00    1.08176   1.05744   -1.000
 5152.00    1.07259   1.05242   -1.000
 5153.00    1.07593   1.05080   -1.000
 5154.00    1.08605   1.05475   -1.000
 5155.00    1.10030   1.06463   -1.000
 5156.00    1.11699   1.07855   -1.000
 5157.00    1.13153   1.09259   -1.000
 5158.00    1.14275   1.10301   -1.000
 5159.00    1.14690   1.10821   -1.000
 5160.00    1.14401   1.10829   -1.000
 5161.00    1.13784   1.10378   -1.000
 5162.00    1.13229   1.09519   -1.000
 5163.00    1.12624   1.08196   -1.000
 5164.00    1.10944   1.06022   -1.000
 5165.00    1.06809   1.02452   -1.000
 5166.00    1.00294   0.97685   -1.000
 5167.00    0.94861   0.93243   -1.000
 5168.00    0.94013   0.91039   -1.000
 5169.00    0.97020   0.91455   -1.000
 5170.00    0.99734   0.92684   -1.000
 5171.00    0.98759   0.92752   -1.000
 5172.00    0.95569   0.91874   -1.000
 5173.00    0.95266   0.92198   -1.000
 5174.00    0.99995   0.95194   -1.000
 5175.00    1.06470   0.99947   -1.000
 5176.00    1.10651   1.04326   -1.000
 5177.00    1.12274   1.07069   -1.000
 5178.00    1.12979   1.08197   -1.000
 5179.00    1.12723   1.08033   -1.000
 5180.00    1.11379   1.06428   -1.000
 5181.00    1.08177   1.03021   -1.000
 5182.00    1.02459   0.98226   -1.000
 5183.00    0.96433   0.93869   -1.000
 5184.00    0.95096   0.92336   -1.000
 5185.00    0.99984   0.94504   -1.000
 5186.00    1.06310   0.98809   -1.000
 5187.00    1.09557   1.02747   -1.000
 5188.00    1.10037   1.05002   -1.000
 5189.00    1.10053   1.05748   -1.000
 5190.00    1.09497   1.05488   -1.000
 5191.00    1.07257   1.04515   -1.000
 5192.00    1.04922   1.03343   -1.000
 5193.00    1.04565   1.02694   -1.000
 5194.00    1.05702   1.02865   -1.000
 5195.00    1.06984   1.03560   -1.000
 5196.00    1.08294   1.04444   -1.000
 5197.00    1.09722   1.05482   -1.000
 5198.00    1.10716   1.06691   -1.000
 5199.00    1.11400   1.07856   -1.000
 5200.00    1.12028   1.08623   -1.000
 5201.00    1.12030   1.08665   -1.000
 5202.00    1.11273   1.07811   -1.000
 5203.00    1.09830   1.06107   -1.000
 5204.00    1.07671   1.03885   -1.000
 5205.00    1.05508   1.01752   -1.000
 5206.00    1.04370   1.00290   -1.000
 5207.00    1.04294   0.99664   -1.000
 5208.00    1.04506   0.99715   -1.000
 5209.00    1.04914   1.00456   -1.000
 5210.00    1.06281   1.02098   -1.000
 5211.00    1.09112   1.04516   -1.000
 5212.00    1.12175   1.06991   -1.000
 5213.00    1.13751   1.08599   -1.000
 5214.00    1.13626   1.08826   -1.000
 5215.00    1.11801   1.07959   -1.000
 5216.00    1.10068   1.06965   -1.000
 5217.00    1.10262   1.06815   -1.000
 5218.00    1.11639   1.07780   -1.000
 5219.00    1.13296   1.09350   -1.000
 5220.00    1.14482   1.10767   -1.000
 5221.00    1.15127   1.11513   -1.000
 5222.00    1.14890   1.11356   -1.000
 5223.00    1.13392   1.10150   -1.000
 5224.00    1.10575   1.07802   -1.000
 5225.00    1.06718   1.04606   -1.000
 5226.00    1.03367   1.01622   -1.000
 5227.00    1.02705   1.00312   -1.000
 5228.00    1.05465   1.01387   -1.000
 5229.00    1.09379   1.04003   -1.000
 5230.00    1.12215   1.06426   -1.000
 5231.00    1.13085   1.07456   -1.000
 5232.00    1.11745   1.07083   -1.000
 5233.00    1.09890   1.06174   -1.000
 5234.00    1.09391   1.05808   -1.000
 5235.00    1.10532   1.06551   -1.000
 5236.00    1.12740   1.08133   -1.000
 5237.00    1.14414   1.09809   -1.000
 5238.00    1.14959   1.10982   -1.000
 5239.00    1.15005   1.11508   -1.000
 5240.00    1.15078   1.11585   -1.000
 5241.00    1.15167   1.11474   -1.000
 5242.00    1.15350   1.11379   -1.000
 5243.00    1.15565   1.11425   -1.000
 5244.00    1.15745   1.11517   -1.000
 5245.00    1.15384   1.11278   -1.000
 5246.00    1.13089   1.10433   -1.000
 5247.00    1.10560   1.09191   -1.000
 5248.00    1.09813   1.08061   -1.000
 5249.00    1.09513   1.07347   -1.000
 5250.00    1.08944   1.07042   -1.000
 5251.00    1.08815   1.07094   -1.000
 5252.00    1.09528   1.07425   -1.000
 5253.00    1.10413   1.07807   -1.000
 5254.00    1.10661   1.08091   -1.000
 5255.00    1.10939   1.08502   -1.000
 5256.00    1.12599   1.09375   -1.000
 5257.00    1.14937   1.10621   -1.000
 5258.00    1.15778   1.11648   -1.000
 5259.00    1.15332   1.11766   -1.000
 5260.00    1.13761   1.10620   -1.000
 5261.00    1.11109   1.08311   -1.000
 5262.00    1.08249   1.05329   -1.000
 5263.00    1.05558   1.02350   -1.000
 5264.00    1.03346   1.00027   -1.000
 5265.00    1.02446   0.98790   -1.000
 5266.00    1.03470   0.98597   -1.000
 5267.00    1.05089   0.98764   -1.000
 5268.00    1.04652   0.98411   -1.000
 5269.00    1.01782   0.97475   -1.000
 5270.00    1.00228   0.97078   -1.000
 5271.00    1.02950   0.98331   -1.000
 5272.00    1.06859   1.00866   -1.000
 5273.00    1.08869   1.03249   -1.000
 5274.00    1.09542   1.04647   -1.000
 5275.00    1.09846   1.05459   -1.000
 5276.00    1.10696   1.06518   -1.000
 5277.00    1.12553   1.08117   -1.000
 5278.00    1.14492   1.09718   -1.000
 5279.00    1.15087   1.10466   -1.000
 5280.00    1.14297   1.09979   -1.000
 5281.00    1.12577   1.08618   -1.000
 5282.00    1.08868   1.07142   -1.000
 5283.00    1.07378   1.06315   -1.000
 5284.00    1.09660   1.06684   -1.000
 5285.00    1.12708   1.08270   -1.000
 5286.00    1.15288   1.10412   -1.000
 5287.00    1.16331   1.12213   -1.000
 5288.00    1.16269   1.13235   -1.000
 5289.00    1.16020   1.13652   -1.000
 5290.00    1.16027   1.13779   -1.000
 5291.00    1.16271   1.13724   -1.000
 5292.00    1.16067   1.13508   -1.000
 5293.00    1.15469   1.13135   -1.000
 5294.00    1.14694   1.12459   -1.000
 5295.00    1.13540   1.11225   -1.000
 5296.00    1.11350   1.09400   -1.000
 5297.00    1.08762   1.07507   -1.000
 5298.00    1.08143   1.06393   -1.000
 5299.00    1.09525   1.06471   -1.000
 5300.00    1.11079   1.07372   -1.000
 5301.00    1.11584   1.08455   -1.000
 5302.00    1.11690   1.09468   -1.000
 5303.00    1.12648   1.10544   -1.000
 5304.00    1.14683   1.11655   -1.000
 5305.00    1.16003   1.12437   -1.000
 5306.00    1.15695   1.12655   -1.000
 5307.00    1.14621   1.12530   -1.000
 5308.00    1.14614   1.12528   -1.000
 5309.00    1.15501   1.12882   -1.000
 5310.00    1.16323   1.13396   -1.000
 5311.00    1.16602   1.13712   -1.000
 5312.00    1.16403   1.13636   -1.000
 5313.00    1.16124   1.13163   -1.000
 5314.00    1.15906   1.12348   -1.000
 5315.00    1.14941   1.11311   -1.000
 5316.00    1.13321   1.10364   -1.000
 5317.00    1.12800   1.09954   -1.000
 5318.00    1.13883   1.10277   -1.000
 5319.00    1.14549   1.10999   -1.000
 5320.00    1.14593   1.11495   -1.000
 5321.00    1.14006   1.11323   -1.000
 5322.00    1.13321   1.10439   -1.000
 5323.00    1.12296   1.09120   -1.000
 5324.00    1.11119   1.07744   -1.000
 5325.00    1.10758   1.06380   -1.000
 5326.00    1.09256   1.04653   -1.000
 5327.00    1.05801   1.02416   -1.000
 5328.00    1.02903   1.00566   -1.000
 5329.00    1.03437   1.00515   -1.000
 5330.00    1.07437   1.02599   -1.000
 5331.00    1.11181   1.05581   -1.000
 5332.00    1.12395   1.07978   -1.000
 5333.00    1.12783   1.09356   -1.000
 5334.00    1.13690   1.10107   -1.000
 5335.00    1.14205   1.10527   -1.000
 5336.00    1.13837   1.10582   -1.000
 5337.00    1.13318   1.10184   -1.000
 5338.00    1.12889   1.09317   -1.000
 5339.00    1.11969   1.08101   -1.000
 5340.00    1.10413   1.06977   -1.000
 5341.00    1.10082   1.06611   -1.000
 5342.00    1.11511   1.07292   -1.000
 5343.00    1.13054   1.08516   -1.000
 5344.00    1.14075   1.09422   -1.000
 5345.00    1.14278   1.09574   -1.000
 5346.00    1.13517   1.09148   -1.000
 5347.00    1.12498   1.08554   -1.000
 5348.00    1.11997   1.08124   -1.000
 5349.00    1.11602   1.08096   -1.000
 5350.00    1.12497   1.08610   -1.000
 5351.00    1.14208   1.09571   -1.000
 5352.00    1.14864   1.10644   -1.000
 5353.00    1.15080   1.11551   -1.000
 5354.00    1.16049   1.12297   -1.000
 5355.00    1.16844   1.13003   -1.000
 5356.00    1.17352   1.13628   -1.000
 5357.00    1.17142   1.14017   -1.000
 5358.00    1.17166   1.14096   -1.000
 5359.00    1.16900   1.13877   -1.000
 5360.00    1.16589   1.13352   -1.000
 5361.00    1.15550   1.12504   -1.000
 5362.00    1.14320   1.11423   -1.000
 5363.00    1.13681   1.10314   -1.000
 5364.00    1.13141   1.09398   -1.000
 5365.00    1.12939   1.08823   -1.000
 5366.00    1.12576   1.08572   -1.000
 5367.00    1.12039   1.08367   -1.000
 5368.00    1.11912   1.07767   -1.000
 5369.00    1.10847   1.06526   -1.000
 5370.00    1.08513   1.04972   -1.000
 5371.00    1.07349   1.03998   -1.000
 5372.00    1.09018   1.04447   -1.000
 5373.00    1.12359   1.06344   -1.000
 5374.00    1.14802   1.08804   -1.000
 5375.00    1.15968   1.10769   -1.000
 5376.00    1.16719   1.11783   -1.000
 5377.00    1.16729   1.12041   -1.000
 5378.00    1.16318   1.11899   -1.000
 5379.00    1.15633   1.11526   -1.000
 5380.00    1.14694   1.10958   -1.000
 5381.00    1.14051   1.10293   -1.000
 5382.00    1.13332   1.09741   -1.000
 5383.00    1.13046   1.09534   -1.000
 5384.00    1.13462   1.09804   -1.000
 5385.00    1.14206   1.10456   -1.000
 5386.00    1.15351   1.11145   -1.000
 5387.00    1.15506   1.11464   -1.000
 5388.00    1.14634   1.11221   -1.000
 5389.00    1.13802   1.10511   -1.000
 5390.00    1.13038   1.09599   -1.000
 5391.00    1.12597   1.08752   -1.000
 5392.00    1.11987   1.08103   -1.000
 5393.00    1.11216   1.07639   -1.000
 5394.00    1.11178   1.07195   -1.000
 5395.00    1.10472   1.06509   -1.000
 5396.00    1.08951   1.05554   -1.000
 5397.00    1.07862   1.04817   -1.000
 5398.00    1.08922   1.04934   -1.000
 5399.00    1.11088   1.05982   -1.000
 5400.00    1.13002   1.07325   -1.000
 5401.00    1.13231   1.08172   -1.000
 5402.00    1.12616   1.08030   -1.000
 5403.00    1.11125   1.06791   -1.000
 5404.00    1.08403   1.04867   -1.000
 5405.00    1.06890   1.03202   -1.000
 5406.00    1.07423   1.02672   -1.000
 5407.00    1.08608   1.03314   -1.000
 5408.00    1.09693   1.04335   -1.000
 5409.00    1.09739   1.05011   -1.000
 5410.00    1.09415   1.05449   -1.000
 5411.00    1.10339   1.06195   -1.000
 5412.00    1.12501   1.07334   -1.000
 5413.00    1.13882   1.08383   -1.000
 5414.00    1.13709   1.08979   -1.000
 5415.00    1.12939   1.09305   -1.000
 5416.00    1.13244   1.09715   -1.000
 5417.00    1.14003   1.10222   -1.000
 5418.00    1.14048   1.10555   -1.000
 5419.00    1.13942   1.10563   -1.000
 5420.00    1.13714   1.10341   -1.000
 5421.00    1.13719   1.10010   -1.000
 5422.00    1.13778   1.09550   -1.000
 5423.00    1.12766   1.08980   -1.000
 5424.00    1.11760   1.08585   -1.000
 5425.00    1.12123   1.08735   -1.000
 5426.00    1.12880   1.09332   -1.000
 5427.00    1.13525   1.09626   -1.000
 5428.00    1.12537   1.08957   -1.000
 5429.00    1.09947   1.07609   -1.000
 5430.00    1.08943   1.06553   -1.000
 5431.00    1.09702   1.06337   -1.000
 5432.00    1.10431   1.06520   -1.000
 5433.00    1.09758   1.06384   -1.000
 5434.00    1.08355   1.05930   -1.000
 5435.00    1.08142   1.05846   -1.000
 5436.00    1.09369   1.06688   -1.000
 5437.00    1.11251   1.08336   -1.000
 5438.00    1.13537   1.10176   -1.000
 5439.00    1.15317   1.11624   -1.000
 5440.00    1.15969   1.12472   -1.000
 5441.00    1.15674   1.12817   -1.000
 5442.00    1.15144   1.12719   -1.000
 5443.00    1.15032   1.12014   -1.000
 5444.00    1.13811   1.10491   -1.000
 5445.00    1.10931   1.08308   -1.000
 5446.00    1.07895   1.06243   -1.000
 5447.00    1.07169   1.05323   -1.000
 5448.00    1.09194   1.06023   -1.000
 5449.00    1.12789   1.07817   -1.000
 5450.00    1.14513   1.09622   -1.000
 5451.00    1.14624   1.10625   -1.000
 5452.00    1.14487   1.10560   -1.000
 5453.00    1.13758   1.09502   -1.000
 5454.00    1.11129   1.07828   -1.000
 5455.00    1.08186   1.06345   -1.000
 5456.00    1.08010   1.06010   -1.000
 5457.00    1.10889   1.07142   -1.000
 5458.00    1.13793   1.09011   -1.000
 5459.00    1.14674   1.10467   -1.000
 5460.00    1.13834   1.10844   -1.000
 5461.00    1.12756   1.10225   -1.000
 5462.00    1.11960   1.09172   -1.000
 5463.00    1.11269   1.08369   -1.000
 5464.00    1.11958   1.08257   -1.000
 5465.00    1.13055   1.08793   -1.000
 5466.00    1.13294   1.09570   -1.000
 5467.00    1.13794   1.10221   -1.000
 5468.00    1.14271   1.10624   -1.000
 5469.00    1.14252   1.10775   -1.000
 5470.00    1.13507   1.10662   -1.000
 5471.00    1.12575   1.10303   -1.000
 5472.00    1.12247   1.09756   -1.000
 5473.00    1.11662   1.09009   -1.000
 5474.00    1.10743   1.07958   -1.000
 5475.00    1.09398   1.06622   -1.000
 5476.00    1.07539   1.05400   -1.000
 5477.00    1.07278   1.04953   -1.000
 5478.00    1.09097   1.05586   -1.000
 5479.00    1.10999   1.06803   -1.000
 5480.00    1.11331   1.07740   -1.000
 5481.00    1.10593   1.08081   -1.000
 5482.00    1.10406   1.08257   -1.000
 5483.00    1.11152   1.08768   -1.000
 5484.00    1.11962   1.09594   -1.000
 5485.00    1.13239   1.10278   -1.000
 5486.00    1.13431   1.10409   -1.000
 5487.00    1.12451   1.10013   -1.000
 5488.00    1.12075   1.09509   -1.000
 5489.00    1.11917   1.09310   -1.000
 5490.00    1.12469   1.09488   -1.000
 5491.00    1.12653   1.09818   -1.000
 5492.00    1.12362   1.10063   -1.000
 5493.00    1.12491   1.10128   -1.000
 5494.00    1.12589   1.10022   -1.000
 5495.00    1.12836   1.09741   -1.000
 5496.00    1.12468   1.09309   -1.000
 5497.00    1.11214   1.08909   -1.000
 5498.00    1.10797   1.08766   -1.000
 5499.00    1.12155   1.08823   -1.000
 5500.00    1.12627   1.08722   -1.000
 5501.00    1.11601   1.08282   -1.000
 5502.00    1.10724   1.07806   -1.000
 5503.00    1.11219   1.07651   -1.000
 5504.00    1.12306   1.07686   -1.000
 5505.00    1.11872   1.07528   -1.000
 5506.00    1.10335   1.07149   -1.000
 5507.00    1.09614   1.06968   -1.000
 5508.00    1.10438   1.07293   -1.000
 5509.00    1.11924   1.07874   -1.000
 5510.00    1.11986   1.08155   -1.000
 5511.00    1.10933   1.07859   -1.000
 5512.00    1.09938   1.07202   -1.000
 5513.00    1.08904   1.06662   -1.000
 5514.00    1.09047   1.06622   -1.000
 5515.00    1.09975   1.07146   -1.000
 5516.00    1.11469   1.08039   -1.000
 5517.00    1.12618   1.09052   -1.000
 5518.00    1.13765   1.09971   -1.000
 5519.00    1.14272   1.10617   -1.000
 5520.00    1.14496   1.10907   -1.000
 5521.00    1.13744   1.10926   -1.000
 5522.00    1.13707   1.10828   -1.000
 5523.00    1.13803   1.10643   -1.000
 5524.00    1.13445   1.10195   -1.000
 5525.00    1.12290   1.09255   -1.000
 5526.00    1.10290   1.07820   -1.000
 5527.00    1.08590   1.06307   -1.000
 5528.00    1.07398   1.05419   -1.000
 5529.00    1.08209   1.05662   -1.000
 5530.00    1.10487   1.06871   -1.000
 5531.00    1.12242   1.08261   -1.000
 5532.00    1.12379   1.09062   -1.000
 5533.00    1.11634   1.09095   -1.000
 5534.00    1.10915   1.08723   -1.000
 5535.00    1.11056   1.08453   -1.000
 5536.00    1.11226   1.08575   -1.000
 5537.00    1.12084   1.09032   -1.000
 5538.00    1.12565   1.09592   -1.000
 5539.00    1.12950   1.10097   -1.000
 5540.00    1.13084   1.10485   -1.000
 5541.00    1.13268   1.10651   -1.000
 5542.00    1.13778   1.10492   -1.000
 5543.00    1.13098   1.10097   -1.000
 5544.00    1.12199   1.09736   -1.000
 5545.00    1.12158   1.09631   -1.000
 5546.00    1.11976   1.09813   -1.000
 5547.00    1.12536   1.10216   -1.000
 5548.00    1.13509   1.10759   -1.000
 5549.00    1.14161   1.11287   -1.000
 5550.00    1.14471   1.11595   -1.000
 5551.00    1.13861   1.11571   -1.000
 5552.00    1.13564   1.11258   -1.000
 5553.00    1.12888   1.10815   -1.000
 5554.00    1.11933   1.10447   -1.000
 5555.00    1.12286   1.10298   -1.000
 5556.00    1.12385   1.10353   -1.000
 5557.00    1.12801   1.10485   -1.000
 5558.00    1.13258   1.10600   -1.000
 5559.00    1.13411   1.10655   -1.000
 5560.00    1.12946   1.10576   -1.000
 5561.00    1.13049   1.10282   -1.000
 5562.00    1.12101   1.09815   -1.000
 5563.00    1.11538   1.09341   -1.000
 5564.00    1.11414   1.08998   -1.000
 5565.00    1.10854   1.08782   -1.000
 5566.00    1.10535   1.08606   -1.000
 5567.00    1.10536   1.08428   -1.000
 5568.00    1.10815   1.08251   -1.000
 5569.00    1.10320   1.08099   -1.000
 5570.00    1.09246   1.07971   -1.000
 5571.00    1.08283   1.07817  293.001
 5572.00    1.07691   1.07637  297.876
 5573.00    1.08041   1.07592  308.259
 5574.00    1.10173   1.07844   -1.000
 5575.00    1.10679   1.08310   -1.000
 5576.00    1.10704   1.08776   -1.000
 5577.00    1.11513   1.09176   -1.000
 5578.00    1.11447   1.09548   -1.000
 5579.00    1.11719   1.09847   -1.000
 5580.00    1.12178   1.09965   -1.000
 5581.00    1.11590   1.09892   -1.000
 5582.00    1.11378   1.09732   -1.000
 5583.00    1.11176   1.09509   -1.000
 5584.00    1.11642   1.09010   -1.000
 5585.00    1.10943   1.07944   -1.000
 5586.00    1.08559   1.06313   -1.000
 5587.00    1.06384   1.04606   -1.000
 5588.00    1.05437   1.03503   -1.000
 5589.00    1.05698   1.03387   -1.000
 5590.00    1.06925   1.04128   -1.000
 5591.00    1.08859   1.05222   -1.000
 5592.00    1.09389   1.06123   -1.000
 5593.00    1.09117   1.06619   -1.000
 5594.00    1.09133   1.06919   -1.000
 5595.00    1.09126   1.07302   -1.000
 5596.00    1.10207   1.07684   -1.000
 5597.00    1.10489   1.07706   -1.000
 5598.00    1.09212   1.07236   -1.000
 5599.00    1.08773   1.06534   -1.000
 5600.00    1.08628   1.05876   -1.000
 5601.00    1.07800   1.05389   -1.000
 5602.00    1.06948   1.05310   -1.000
 5603.00    1.07186   1.05969   -1.000
 5604.00    1.09257   1.07383   -1.000
 5605.00    1.11561   1.09109   -1.000
 5606.00    1.12812   1.10570   -1.000
 5607.00    1.13473   1.11470   -1.000
 5608.00    1.13533   1.11882   -1.000
 5609.00    1.13437   1.12041   -1.000
 5610.00    1.13590   1.12110   -1.000
 5611.00    1.13538   1.12035   -1.000
 5612.00    1.13483   1.11530   -1.000
 5613.00    1.12852   1.10302   -1.000
 5614.00    1.10152   1.08470   -1.000
 5615.00    1.07738   1.06749   -1.000
 5616.00    1.07465   1.06014   -1.000
 5617.00    1.08656   1.06516   -1.000
 5618.00    1.10266   1.07677   -1.000
 5619.00    1.11380   1.08753   -1.000
 5620.00    1.11406   1.09438   -1.000
 5621.00    1.11700   1.09732   -1.000
 5622.00    1.11846   1.09607   -1.000
 5623.00    1.10914   1.09047   -1.000
 5624.00    1.08805   1.08315  299.341
 5625.00    1.08700   1.07906  298.101
 5626.00    1.09609   1.08129   -1.000
 5627.00    1.10686   1.08839   -1.000
 5628.00    1.12015   1.09645   -1.000
 5629.00    1.12699   1.10264   -1.000
 5630.00    1.13206   1.10643   -1.000
 5631.00    1.13217   1.10825   -1.000
 5632.00    1.13362   1.10823   -1.000
 5633.00    1.12915   1.10632   -1.000
 5634.00    1.12403   1.10264   -1.000
 5635.00    1.12070   1.09778   -1.000
 5636.00    1.11617   1.09279   -1.000
 5637.00    1.11033   1.08889   -1.000
 5638.00    1.10635   1.08672   -1.000
 5639.00    1.10865   1.08575   -1.000
 5640.00    1.10467   1.08479   -1.000
 5641.00    1.10016   1.08374   -1.000
 5642.00    1.10798   1.08386   -1.000
 5643.00    1.11214   1.08589   -1.000
 5644.00    1.10862   1.08901   -1.000
 5645.00    1.11559   1.09201   -1.000
 5646.00    1.12619   1.09422   -1.000
 5647.00    1.12152   1.09524   -1.000
 5648.00    1.11782   1.09506   -1.000
 5649.00    1.12121   1.09435   -1.000
 5650.00    1.11673   1.09427   -1.000
 5651.00    1.12239   1.09520   -1.000
 5652.00    1.12724   1.09597   -1.000
 5653.00    1.12392   1.09477   -1.000
 5654.00    1.11905   1.09067   -1.000
 5655.00    1.10725   1.08345   -1.000
 5656.00    1.09816   1.07302   -1.000
 5657.00    1.08311   1.06062   -1.000
 5658.00    1.06009   1.05052   -1.000
 5659.00    1.06273   1.04770   -1.000
 5660.00    1.07945   1.05246   -1.000
 5661.00    1.09143   1.06005   -1.000
 5662.00    1.09197   1.06668   -1.000
 5663.00    1.09245   1.07279   -1.000
 5664.00    1.10725   1.07953   -1.000
 5665.00    1.11127   1.08513   -1.000
 5666.00    1.10731   1.08674   -1.000
 5667.00    1.11030   1.08451   -1.000
 5668.00    1.10071   1.08175   -1.000
 5669.00    1.09704   1.08152   -1.000
 5670.00    1.10046   1.08449   -1.000
 5671.00    1.10704   1.08953   -1.000
 5672.00    1.11959   1.09495   -1.000
 5673.00    1.12782   1.09917   -1.000
 5674.00    1.12629   1.10141   -1.000
 5675.00    1.12026   1.10210   -1.000
 5676.00    1.12466   1.10236   -1.000
 5677.00    1.11883   1.10249   -1.000
 5678.00    1.11599   1.10160   -1.000
 5679.00    1.11797   1.09861   -1.000
 5680.00    1.10944   1.09317   -1.000
 5681.00    1.10830   1.08571   -1.000
 5682.00    1.10541   1.07781   -1.000
 5683.00    1.09716   1.07203   -1.000
 5684.00    1.09723   1.07010   -1.000
 5685.00    1.09721   1.07111   -1.000
 5686.00    1.09121   1.07230   -1.000
 5687.00    1.08712   1.07201   -1.000
 5688.00    1.08712   1.07137   -1.000
 5689.00    1.09207   1.07289   -1.000
 5690.00    1.10399   1.07777   -1.000
 5691.00    1.11515   1.08476   -1.000
 5692.00    1.11716   1.09135   -1.000
 5693.00    1.11641   1.09570   -1.000
 5694.00    1.11824   1.09768   -1.000
 5695.00    1.11572   1.09798   -1.000
 5696.00    1.11427   1.09693   -1.000
 5697.00    1.11495   1.09423   -1.000
 5698.00    1.11008   1.08965   -1.000
 5699.00    1.09528   1.08376   -1.000
 5700.00    1.09436   1.07794   -1.000
 5701.00    1.09279   1.07389   -1.000
 5702.00    1.08522   1.07289   -1.000
 5703.00    1.09017   1.07457   -1.000
 5704.00    1.09774   1.07643   -1.000
 5705.00    1.09449   1.07532   -1.000
 5706.00    1.08857   1.06994   -1.000
 5707.00    1.07237   1.06130   -1.000
 5708.00    1.06299   1.05161   -1.000
 5709.00    1.05112   1.04364  302.557
 5710.00    1.04801   1.04033  301.892
 5711.00    1.05613   1.04343   -1.000
 5712.00    1.06675   1.05242   -1.000
 5713.00    1.08431   1.06459   -1.000
 5714.00    1.09894   1.07622   -1.000
 5715.00    1.10232   1.08459   -1.000
 5716.00    1.11069   1.08954   -1.000
 5717.00    1.11211   1.09278   -1.000
 5718.00    1.10999   1.09593   -1.000
 5719.00    1.11411   1.09954   -1.000
 5720.00    1.11867   1.10329   -1.000
 5721.00    1.12388   1.10655   -1.000
 5722.00    1.13007   1.10885   -1.000
 5723.00    1.12650   1.10980   -1.000
 5724.00    1.12486   1.10886   -1.000
 5725.00    1.11725   1.10567   -1.000
 5726.00    1.10840   1.10096  300.927
 5727.00    1.10292   1.09678  297.830
 5728.00    1.10946   1.09481   -1.000
 5729.00    1.12009   1.09482   -1.000
 5730.00    1.11808   1.09531   -1.000
 5731.00    1.10915   1.09551   -1.000
 5732.00    1.11174   1.09634   -1.000
 5733.00    1.11540   1.09891   -1.000
 5734.00    1.11934   1.10258   -1.000
 5735.00    1.12038   1.10538   -1.000
 5736.00    1.11588   1.10627   -1.000
 5737.00    1.11958   1.10583   -1.000
 5738.00    1.11938   1.10521   -1.000
 5739.00    1.11477   1.10484   -1.000
 5740.00    1.11590   1.10438   -1.000
 5741.00    1.11396   1.10343   -1.000
 5742.00    1.11252   1.10238   -1.000
 5743.00    1.11572   1.10227   -1.000
 5744.00    1.11750   1.10337   -1.000
 5745.00    1.12096   1.10441   -1.000
 5746.00    1.11913   1.10376   -1.000
 5747.00    1.10838   1.10158  307.621
 5748.00    1.10732   1.09982  306.825
 5749.00    1.10899   1.09965   -1.000
 5750.00    1.11432   1.09944   -1.000
 5751.00    1.11250   1.09637   -1.000
 5752.00    1.10342   1.08996   -1.000
 5753.00    1.08997   1.08354  299.103
 5754.00    1.08458   1.08162  303.097
 5755.00    1.09664   1.08604   -1.000
 5756.00    1.11055   1.09452   -1.000
 5757.00    1.12165   1.10264   -1.000
 5758.00    1.12116   1.10689   -1.000
 5759.00    1.11909   1.10585   -1.000
 5760.00    1.11324   1.10033   -1.000
 5761.00    1.10381   1.09309   -1.000
 5762.00    1.09433   1.08807  293.757
 5763.00    1.09761   1.08860   -1.000
 5764.00    1.10827   1.09492   -1.000
 5765.00    1.11586   1.10362   -1.000
 5766.00    1.12647   1.11045   -1.000
 5767.00    1.12544   1.11351   -1.000
 5768.00    1.12637   1.11347   -1.000
 5769.00    1.12407   1.11175   -1.000
 5770.00    1.12054   1.10926   -1.000
 5771.00    1.11343   1.10638  297.625
 5772.00    1.11057   1.10329  299.071
 5773.00    1.11313   1.10034   -1.000
 5774.00    1.10512   1.09813  310.996
 5775.00    1.10240   1.09722  314.104
 5776.00    1.10929   1.09743   -1.000
 5777.00    1.11225   1.09726   -1.000
 5778.00    1.11315   1.09444   -1.000
 5779.00    1.11094   1.08797   -1.000
 5780.00    1.10601   1.07922   -1.000
 5781.00    1.09554   1.07114   -1.000
 5782.00    1.09380   1.06620   -1.000
 5783.00    1.09589   1.06489   -1.000
 5784.00    1.09512   1.06599   -1.000
 5785.00    1.09670   1.06862   -1.000
 5786.00    1.10405   1.07286   -1.000
 5787.00    1.10939   1.07846   -1.000
 5788.00    1.11351   1.08376   -1.000
 5789.00    1.11673   1.08676   -1.000
 5790.00    1.11035   1.08718   -1.000
 5791.00    1.10528   1.08708   -1.000
 5792.00    1.11165   1.08899   -1.000
 5793.00    1.11760   1.09352   -1.000
 5794.00    1.12022   1.09880   -1.000
 5795.00    1.12468   1.10222   -1.000
 5796.00    1.12249   1.10246   -1.000
 5797.00    1.12014   1.10050   -1.000
 5798.00    1.11624   1.09924   -1.000
 5799.00    1.12144   1.10095   -1.000
 5800.00    1.13192   1.10500   -1.000
 5801.00    1.13381   1.10857   -1.000
 5802.00    1.13140   1.10940   -1.000
 5803.00    1.12900   1.10717   -1.000
 5804.00    1.12404   1.10333   -1.000
 5805.00    1.11819   1.10014   -1.000
 5806.00    1.11538   1.09921   -1.000
 5807.00    1.12225   1.10053   -1.000
 5808.00    1.12770   1.10292   -1.000
 5809.00    1.12806   1.10529   -1.000
 5810.00    1.13145   1.10729   -1.000
 5811.00    1.13317   1.10867   -1.000
 5812.00    1.13459   1.10877   -1.000
 5813.00    1.13061   1.10700   -1.000
 5814.00    1.13261   1.10357   -1.000
 5815.00    1.12708   1.09987   -1.000
 5816.00    1.12458   1.09819   -1.000
 5817.00    1.12603   1.10008   -1.000
 5818.00    1.13221   1.10468   -1.000
 5819.00    1.13899   1.10933   -1.000
 5820.00    1.13836   1.11207   -1.000
 5821.00    1.13596   1.11293   -1.000
 5822.00    1.13960   1.11290   -1.000
 5823.00    1.13953   1.11269   -1.000
 5824.00    1.13669   1.11247   -1.000
 5825.00    1.13666   1.11237   -1.000
 5826.00    1.14191   1.11265   -1.000
 5827.00    1.13783   1.11341   -1.000
 5828.00    1.13488   1.11442   -1.000
 5829.00    1.14208   1.11517   -1.000
 5830.00    1.14420   1.11523   -1.000
 5831.00    1.14183   1.11450   -1.000
 5832.00    1.14268   1.11304   -1.000
 5833.00    1.14197   1.11104   -1.000
 5834.00    1.13817   1.10908   -1.000
 5835.00    1.13513   1.10803   -1.000
 5836.00    1.13707   1.10838   -1.000
 5837.00    1.13832   1.10972   -1.000
 5838.00    1.13993   1.11134   -1.000
 5839.00    1.14040   1.11291   -1.000
 5840.00    1.14019   1.11437   -1.000
 5841.00    1.14081   1.11533   -1.000
 5842.00    1.14122   1.11514   -1.000
 5843.00    1.14104   1.11347   -1.000
 5844.00    1.13700   1.11062   -1.000
 5845.00    1.13355   1.10719   -1.000
 5846.00    1.13267   1.10385   -1.000
 5847.00    1.13217   1.10139   -1.000
 5848.00    1.13259   1.10024   -1.000
 5849.00    1.13305   1.09966   -1.000
 5850.00    1.13067   1.09792   -1.000
 5851.00    1.12888   1.09375   -1.000
 5852.00    1.11888   1.08775   -1.000
 5853.00    1.10396   1.08183   -1.000
 5854.00    1.10047   1.07719   -1.000
 5855.00    1.10686   1.07277   -1.000
 5856.00    1.10553   1.06695   -1.000
 5857.00    1.09303   1.06086   -1.000
 5858.00    1.09244   1.05827   -1.000
 5859.00    1.10196   1.06159   -1.000
 5860.00    1.11297   1.06895   -1.000
 5861.00    1.12485   1.07647   -1.000
 5862.00    1.12586   1.08198   -1.000
 5863.00    1.11918   1.08542   -1.000
 5864.00    1.12025   1.08707   -1.000
 5865.00    1.12045   1.08675   -1.000
 5866.00    1.11925   1.08516   -1.000
 5867.00    1.11602   1.08454   -1.000
 5868.00    1.11735   1.08666   -1.000
 5869.00    1.12753   1.09106   -1.000
 5870.00    1.13053   1.09556   -1.000
 5871.00    1.13222   1.09815   -1.000
 5872.00    1.13078   1.09836   -1.000
 5873.00    1.12454   1.09706   -1.000
 5874.00    1.11742   1.09529   -1.000
 5875.00    1.11786   1.09344   -1.000
 5876.00    1.11765   1.09129   -1.000
 5877.00    1.11807   1.08852   -1.000
 5878.00    1.11162   1.08499   -1.000
 5879.00    1.10628   1.08105   -1.000
 5880.00    1.09668   1.07746   -1.000
 5881.00    1.08623   1.07458   -1.000
 5882.00    1.07754   1.07190  345.575
 5883.00    1.05683   1.06874   -1.000
 5884.00    1.03968   1.06477   -1.000
 5885.00    1.04293   1.05873   -1.000
 5886.00    1.06469   1.04661   -1.000
 5887.00    1.07360   1.02322   -1.000
 5888.00    1.04762   0.98843   -1.000
 5889.00    0.99454   0.95250   -1.000
 5890.00    0.96174   0.93151   -1.000
 5891.00    0.97533   0.93345   -1.000
 5892.00    1.01609   0.94973   -1.000
 5893.00    1.04401   0.96271   -1.000
 5894.00    1.03913   0.96229   -1.000
 5895.00    1.01905   0.95325   -1.000
 5896.00    1.01044   0.94914   -1.000
 5897.00    1.02952   0.95943   -1.000
 5898.00    1.06654   0.98178   -1.000
 5899.00    1.08925   1.00684   -1.000
 5900.00    1.09599   1.02779   -1.000
 5901.00    1.10478   1.04335   -1.000
 5902.00    1.10730   1.05425   -1.000
 5903.00    1.10488   1.06114   -1.000
 5904.00    1.10455   1.06493   -1.000
 5905.00    1.10477   1.06697   -1.000
 5906.00    1.10731   1.06866   -1.000
 5907.00    1.10776   1.07073   -1.000
 5908.00    1.10956   1.07302   -1.000
 5909.00    1.11124   1.07498   -1.000
 5910.00    1.10865   1.07588   -1.000
 5911.00    1.10111   1.07484   -1.000
 5912.00    1.09571   1.07113   -1.000
 5913.00    1.08379   1.06510   -1.000
 5914.00    1.07194   1.05880   -1.000
 5915.00    1.07590   1.05503   -1.000
 5916.00    1.07642   1.05519   -1.000
 5917.00    1.08045   1.05855   -1.000
 5918.00    1.09091   1.06321   -1.000
 5919.00    1.10466   1.06738   -1.000
 5920.00    1.10873   1.07002   -1.000
 5921.00    1.10975   1.07103   -1.000
 5922.00    1.10970   1.07119   -1.000
 5923.00    1.11048   1.07163   -1.000
 5924.00    1.11415   1.07315   -1.000
 5925.00    1.11581   1.07536   -1.000
 5926.00    1.11135   1.07676   -1.000
 5927.00    1.11348   1.07582   -1.000
 5928.00    1.11484   1.07243   -1.000
 5929.00    1.10821   1.06843   -1.000
 5930.00    1.10087   1.06634   -1.000
 5931.00    1.10513   1.06716   -1.000
 5932.00    1.10331   1.06933   -1.000
 5933.00    1.09560   1.07057   -1.000
 5934.00    1.08697   1.07052   -1.000
 5935.00    1.07721   1.07080  307.176
 5936.00    1.07966   1.07259  306.278
 5937.00    1.08718   1.07499   -1.000
 5938.00    1.09053   1.07605   -1.000
 5939.00    1.09259   1.07466   -1.000
 5940.00    1.09008   1.07136   -1.000
 5941.00    1.08566   1.06800   -1.000
 5942.00    1.08597   1.06648   -1.000
 5943.00    1.09183   1.06745   -1.000
 5944.00    1.09785   1.06978   -1.000
 5945.00    1.11008   1.07155   -1.000
 5946.00    1.11637   1.07120   -1.000
 5947.00    1.11527   1.06883   -1.000
 5948.00    1.10598   1.06614   -1.000
 5949.00    1.09913   1.06505   -1.000
 5950.00    1.09729   1.06579   -1.000
 5951.00    1.09207   1.06678   -1.000
 5952.00    1.08799   1.06675   -1.000
 5953.00    1.08892   1.06612   -1.000
 5954.00    1.09339   1.06571   -1.000
 5955.00    1.09845   1.06525   -1.000
 5956.00    1.09670   1.06431   -1.000
 5957.00    1.09494   1.06395   -1.000
 5958.00    1.10012   1.06573   -1.000
 5959.00    1.10163   1.06972   -1.000
 5960.00    1.09688   1.07451   -1.000
 5961.00    1.09765   1.07832   -1.000
 5962.00    1.10331   1.08007   -1.000
 5963.00    1.10544   1.07963   -1.000
 5964.00    1.10515   1.07756   -1.000
 5965.00    1.10524   1.07505   -1.000
 5966.00    1.10474   1.07347   -1.000
 5967.00    1.10669   1.07362   -1.000
 5968.00    1.11329   1.07523   -1.000
 5969.00    1.11251   1.07746   -1.000
 5970.00    1.10707   1.07963   -1.000
 5971.00    1.10719   1.08119   -1.000
 5972.00    1.11371   1.08147   -1.000
 5973.00    1.11453   1.07988   -1.000
 5974.00    1.11060   1.07625   -1.000
 5975.00    1.10576   1.07118   -1.000
 5976.00    1.10040   1.06640   -1.000
 5977.00    1.09786   1.06393   -1.000
 5978.00    1.09976   1.06468   -1.000
 5979.00    1.10283   1.06775   -1.000
 5980.00    1.10437   1.07088   -1.000
 5981.00    1.10454   1.07157   -1.000
 5982.00    1.09721   1.06870   -1.000
 5983.00    1.08800   1.06353   -1.000
 5984.00    1.08230   1.05909   -1.000
 5985.00    1.08057   1.05795   -1.000
 5986.00    1.08561   1.06036   -1.000
 5987.00    1.09296   1.06451   -1.000
 5988.00    1.09989   1.06825   -1.000
 5989.00    1.10217   1.07043   -1.000
 5990.00    1.10033   1.07118   -1.000
 5991.00    1.09934   1.07174   -1.000
 5992.00    1.10373   1.07358   -1.000
 5993.00    1.10702   1.07661   -1.000
 5994.00    1.10574   1.07896   -1.000
 5995.00    1.10770   1.07867   -1.000
 5996.00    1.10472   1.07586   -1.000
 5997.00    1.10406   1.07248   -1.000
 5998.00    1.10305   1.07048   -1.000
 5999.00    1.10448   1.07025   -1.000
 6000.00    1.10778   1.07057   -1.000
 6001.00    1.10393   1.07007   -1.000
 6002.00    1.10069   1.06857   -1.000
 6003.00    1.09430   1.06699   -1.000
 6004.00    1.08949   1.06579   -1.000
 6005.00    1.09055   1.06400   -1.000
 6006.00    1.08764   1.06057   -1.000
 6007.00    1.08070   1.05660   -1.000
 6008.00    1.07901   1.05502   -1.000
 6009.00    1.08381   1.05744   -1.000
 6010.00    1.09326   1.06207   -1.000
 6011.00    1.10085   1.06536   -1.000
 6012.00    1.10112   1.06564   -1.000
 6013.00    1.09252   1.06423   -1.000
 6014.00    1.09105   1.06307   -1.000
 6015.00    1.09463   1.06257   -1.000
 6016.00    1.09252   1.06204   -1.000
 6017.00    1.09183   1.06092   -1.000
 6018.00    1.09017   1.05908   -1.000
 6019.00    1.08479   1.05662   -1.000
 6020.00    1.07982   1.05424   -1.000
 6021.00    1.07817   1.05314   -1.000
 6022.00    1.08086   1.05387   -1.000
 6023.00    1.08291   1.05604   -1.000
 6024.00    1.08435   1.05920   -1.000
 6025.00    1.08818   1.06315   -1.000
 6026.00    1.09488   1.06735   -1.000
 6027.00    1.09816   1.07106   -1.000
 6028.00    1.10119   1.07408   -1.000
 6029.00    1.10539   1.07658   -1.000
 6030.00    1.10466   1.07851   -1.000
 6031.00    1.10252   1.07996   -1.000
 6032.00    1.10271   1.08124   -1.000
 6033.00    1.10723   1.08257   -1.000
 6034.00    1.10668   1.08384   -1.000
 6035.00    1.10509   1.08465   -1.000
 6036.00    1.10664   1.08456   -1.000
 6037.00    1.10451   1.08328   -1.000
 6038.00    1.10078   1.08090   -1.000
 6039.00    1.09748   1.07790   -1.000
 6040.00    1.09991   1.07505   -1.000
 6041.00    1.10393   1.07312   -1.000
 6042.00    1.10180   1.07261   -1.000
 6043.00    1.10315   1.07382   -1.000
 6044.00    1.10784   1.07669   -1.000
 6045.00    1.10926   1.08019   -1.000
 6046.00    1.10799   1.08305   -1.000
 6047.00    1.10690   1.08494   -1.000
 6048.00    1.10792   1.08605   -1.000
 6049.00    1.10503   1.08637   -1.000
 6050.00    1.10158   1.08582   -1.000
 6051.00    1.10050   1.08434   -1.000
 6052.00    1.10067   1.08187   -1.000
 6053.00    1.10014   1.07859   -1.000
 6054.00    1.09938   1.07499   -1.000
 6055.00    1.09649   1.07192   -1.000
 6056.00    1.10128   1.07032   -1.000
 6057.00    1.07489   1.07072  307.946
 6058.00    0.83537   1.07266   -1.000
 6059.00    0.76635   1.07493   -1.000
 6060.00    1.05608   1.07610  127.338
 6061.00    0.68361   1.07490   -1.000
 6062.00    0.17017   1.07073   -1.000
 6063.00    0.40374   1.06429   -1.000
 6064.00    0.86650   1.05788   -1.000
 6065.00    1.08080   1.05470   -1.000
 6066.00    1.08222   1.05693   -1.000
 6067.00    0.68875   1.06367   -1.000
 6068.00    0.48265   1.07146   -1.000
 6069.00    1.00086   1.07745   -1.000
 6070.00    1.12745   1.08108   -1.000
 6071.00    1.10311   1.08305   -1.000
 6072.00    1.10319   1.08415   -1.000
 6073.00    1.10355   1.08457   -1.000
 6074.00    1.10621   1.08398   -1.000
 6075.00    1.10206   1.08199   -1.000
 6076.00    1.09780   1.07853   -1.000
 6077.00    1.09109   1.07422   -1.000
 6078.00    1.08578   1.07015   -1.000
 6079.00    1.08422   1.06730   -1.000
 6080.00    1.08508   1.06566   -1.000
 6081.00    1.08588   1.06436   -1.000
 6082.00    1.08255   1.06290   -1.000
 6083.00    1.07832   1.06171   -1.000
 6084.00    1.07706   1.06136   -1.000
 6085.00    1.07798   1.06203   -1.000
 6086.00    1.07891   1.06363   -1.000
 6087.00    1.07906   1.06549   -1.000
 6088.00    1.08362   1.06638   -1.000
 6089.00    1.08283   1.06551   -1.000
 6090.00    1.07698   1.06347   -1.000
 6091.00    1.07459   1.06184   -1.000
 6092.00    1.07698   1.06189   -1.000
 6093.00    1.07735   1.06378   -1.000
 6094.00    1.08156   1.06671   -1.000
 6095.00    1.08811   1.06968   -1.000
 6096.00    1.08689   1.07205   -1.000
 6097.00    1.08526   1.07358   -1.000
 6098.00    1.08607   1.07355   -1.000
 6099.00    1.08402   1.07034   -1.000
 6100.00    1.07557   1.06249   -1.000
 6101.00    1.06112   1.05091   -1.000
 6102.00    1.04734   1.04014   -1.000
 6103.00    1.04578   1.03581   -1.000
 6104.00    1.05711   1.03996   -1.000
 6105.00    1.07295   1.04914   -1.000
 6106.00    1.08044   1.05822   -1.000
 6107.00    1.07604   1.06474   -1.000
 6108.00    1.07341   1.06900  304.025
 6109.00    1.07403   1.07176  305.770
 6110.00    1.07601   1.07311  307.012
 6111.00    1.07941   1.07323  307.869
 6112.00    1.07989   1.07300  311.014
 6113.00    1.08063   1.07318   -1.000
 6114.00    1.08318   1.07355   -1.000
 6115.00    1.08371   1.07349   -1.000
 6116.00    1.08101   1.07267   -1.000
 6117.00    1.07673   1.07066  312.702
 6118.00    1.07505   1.06629   -1.000
 6119.00    1.07032   1.05830   -1.000
 6120.00    1.05750   1.04739   -1.000
 6121.00    1.04451   1.03692   -1.000
 6122.00    1.04026   1.03129   -1.000
 6123.00    1.04592   1.03315   -1.000
 6124.00    1.05747   1.04058   -1.000
 6125.00    1.06434   1.04882   -1.000
 6126.00    1.06221   1.05453  307.879
 6127.00    1.06007   1.05736  313.141
 6128.00    1.06166   1.05901  321.710
 6129.00    1.06474   1.06148  330.620
 6130.00    1.06940   1.06535  334.834
 6131.00    1.07323   1.06924  330.168
 6132.00    1.07401   1.07073  320.739
 6133.00    1.06862   1.06707  314.686
 6134.00    1.05821   1.05625  313.775
 6135.00    1.03934   1.03945  314.528
 6136.00    1.01609   1.02255  312.961
 6137.00    1.00422   1.01313  309.222
 6138.00    1.00865   1.01427  307.298
 6139.00    1.02761   1.02177  308.096
 6140.00    1.04048   1.02927   -1.000
 6141.00    1.03953   1.03501  312.071
 6142.00    1.03549   1.04115  314.105
 6143.00    1.04254   1.04880  314.894
 6144.00    1.05774   1.05603  314.136
 6145.00    1.06797   1.06012   -1.000
 6146.00    1.06942   1.06027   -1.000
 6147.00    1.06341   1.05769  312.556
 6148.00    1.05764   1.05430  314.808
 6149.00    1.05396   1.05189  315.537
 6150.00    1.05238   1.05146  316.306
 6151.00    1.05157   1.05276  318.878
 6152.00    1.05657   1.05436  323.943
 6153.00    1.06249   1.05457   -1.000
 6154.00    1.06179   1.05276   -1.000
 6155.00    1.05761   1.04995   -1.000
 6156.00    1.05350   1.04742  346.556
 6157.00    1.05068   1.04485  338.324
 6158.00    1.04888   1.04004   -1.000
 6159.00    1.04494   1.03025   -1.000
 6160.00    1.02847   1.01481   -1.000
 6161.00    1.00405   0.99750  331.607
 6162.00    0.98870   0.98543  335.589
 6163.00    0.98967   0.98378  335.437
 6164.00    1.00544   0.99149   -1.000
 6165.00    1.02220   1.00256   -1.000
 6166.00    1.02860   1.01096   -1.000
 6167.00    1.02926   1.01365   -1.000
 6168.00    1.02447   1.01129   -1.000
 6169.00    1.01534   1.00794   -1.000
 6170.00    1.01415   1.00855  321.765
 6171.00    1.02279   1.01470   -1.000
 6172.00    1.03047   1.02346  319.061
 6173.00    1.03577   1.03126  318.023
 6174.00    1.04049   1.03669  316.725
 6175.00    1.04243   1.04003  315.626
 6176.00    1.04547   1.04204  315.744
 6177.00    1.04864   1.04356  316.756
 6178.00    1.04909   1.04500  318.756
 6179.00    1.05081   1.04632  321.979
 6180.00    1.05094   1.04772  325.439
 6181.00    1.04880   1.04952  328.620
 6182.00    1.05134   1.05135  331.274
 6183.00    1.05581   1.05220  334.835
 6184.00    1.05625   1.05134  337.983
 6185.00    1.05456   1.04869  336.290
 6186.00    1.05226   1.04457   -1.000
 6187.00    1.04642   1.03938  322.633
 6188.00    1.03683   1.03314  319.619
 6189.00    1.02745   1.02550  318.748
 6190.00    1.01698   1.01761  319.941
 6191.00    1.00577   1.01292  323.218
 6192.00    1.00941   1.01481  326.358
 6193.00    1.02682   1.02288  327.064
 6194.00    1.04200   1.03299   -1.000
 6195.00    1.04966   1.04120   -1.000
 6196.00    1.04892   1.04574  318.648
 6197.00    1.04357   1.04634  318.538
 6198.00    1.03778   1.04387  318.223
 6199.00    1.03236   1.04066  317.981
 6200.00    1.02800   1.03956  318.811
 6201.00    1.03210   1.04181  319.307
 6202.00    1.04214   1.04620  320.113
 6203.00    1.04604   1.05073  322.623
 6204.00    1.04579   1.05419  325.379
 6205.00    1.04905   1.05637  328.303
 6206.00    1.05159   1.05752  332.742
 6207.00    1.04900   1.05781  336.817
 6208.00    1.04802   1.05706  338.458
 6209.00    1.04891   1.05480  335.727
 6210.00    1.04480   1.05053  332.856
 6211.00    1.03392   1.04401  334.173
 6212.00    1.02216   1.03581   -1.000
 6213.00    1.01527   1.02766   -1.000
 6214.00    1.01121   1.02175  332.610
 6215.00    1.00952   1.01914  349.636
 6216.00    1.01306   1.01888  352.068
 6217.00    1.02241   1.01903  335.002
 6218.00    0.97803   1.01843   -1.000
 6219.00    0.89011   1.01772   -1.000
 6220.00    0.94695   1.01844   -1.000
 6221.00    1.01802   1.02111  334.843
 6222.00    1.02087   1.02468  340.225
 6223.00    1.02348   1.02765  345.053
 6224.00    1.02348   1.02955  345.458
 6225.00    1.02312   1.03043  341.330
 6226.00    1.02710   1.02971  335.221
 6227.00    1.02880   1.02613  329.410
 6228.00    1.02064   1.01886  326.683
 6229.00    1.00521   1.00916  327.852
 6230.00    0.98908   1.00073   -1.000
 6231.00    0.98279   0.99770   -1.000
 6232.00    0.99189   1.00164  337.897
 6233.00    1.00511   1.01036  340.027
 6234.00    1.01574   1.01957  340.279
 6235.00    1.02454   1.02538  341.873
 6236.00    1.02716   1.02627  344.361
 6237.00    1.02304   1.02328  344.900
 6238.00    1.01384   1.01874  343.206
 6239.00    1.00547   1.01467  340.098
 6240.00    1.00015   1.01175   -1.000
 6241.00    0.99711   1.00935   -1.000
 6242.00    0.99643   1.00627  330.935
 6243.00    0.99606   1.00215  333.081
 6244.00    0.99686   0.99813  338.448
 6245.00    0.99550   0.99617  343.425
 6246.00    0.99199   0.99797  346.239
 6247.00    0.99478   1.00364  347.569
 6248.00    1.00243   1.01083  347.714
 6249.00    1.00983   1.01576  349.812
 6250.00    1.01106   1.01560  353.126
 6251.00    1.00033   1.01029  353.017
 6252.00    0.98165   1.00251   -1.000
 6253.00    0.97421   0.99579   -1.000
 6254.00    0.97350   0.99200   -1.000
 6255.00    0.97067   0.99057   -1.000
 6256.00    0.97031   0.99011   -1.000
 6257.00    0.96933   0.99017   -1.000
 6258.00    0.96865   0.99176   -1.000
 6259.00    0.97455   0.99603   -1.000
 6260.00    0.98518   1.00290   -1.000
 6261.00    0.99298   1.01085   -1.000
 6262.00    0.99742   1.01775   -1.000
 6263.00    1.00025   1.02205   -1.000
 6264.00    0.99932   1.02369   -1.000
 6265.00    0.99225   1.02412   -1.000
 6266.00    0.98766   1.02479   -1.000
 6267.00    0.98989   1.02570   -1.000
 6268.00    0.98550   1.02587   -1.000
 6269.00    0.96676   1.02501   -1.000
 6270.00    0.94181   1.02397   -1.000
 6271.00    0.93074   1.02333   -1.000
 6272.00    0.93397   1.02238   -1.000
 6273.00    0.94609   1.01960   -1.000
 6274.00    0.95973   1.01403   -1.000
 6275.00    0.96621   1.00615   -1.000
 6276.00    0.97307   0.99759   -1.000
 6277.00    0.97862   0.99012   -1.000
 6278.00    0.97583   0.98505  335.783
 6279.00    0.97140   0.98314   -1.000
 6280.00    0.96661   0.98496   -1.000
 6281.00    0.96670   0.99065   -1.000
 6282.00    0.97248   0.99917   -1.000
 6283.00    0.97928   1.00854   -1.000
 6284.00    0.98254   1.01674   -1.000
 6285.00    0.98562   1.02261   -1.000
 6286.00    0.98813   1.02613   -1.000
 6287.00    0.99014   1.02757   -1.000
 6288.00    0.99462   1.02693   -1.000
 6289.00    0.99476   1.02438   -1.000
 6290.00    0.99405   1.02086   -1.000
 6291.00    0.99268   1.01777   -1.000
 6292.00    0.98872   1.01581   -1.000
 6293.00    0.97984   1.01451   -1.000
 6294.00    0.97623   1.01277   -1.000
 6295.00    0.97906   1.00978   -1.000
 6296.00    0.97852   1.00579   -1.000
 6297.00    0.97259   1.00202   -1.000
 6298.00    0.96923   0.99939   -1.000
 6299.00    0.97020   0.99775   -1.000
 6300.00    0.96873   0.99649   -1.000
 6301.00    0.96514   0.99610   -1.000
 6302.00    0.96354   0.99815   -1.000
 6303.00    0.96839   1.00329   -1.000
 6304.00    0.97785   1.01012   -1.000
 6305.00    0.98610   1.01650   -1.000
 6306.00    0.99535   1.02127   -1.000
 6307.00    1.00046   1.02430   -1.000
 6308.00    0.99855   1.02572   -1.000
 6309.00    0.99623   1.02576   -1.000
 6310.00    0.99555   1.02476   -1.000
 6311.00    0.99261   1.02288   -1.000
 6312.00    0.99008   1.02011   -1.000
 6313.00    0.98518   1.01644   -1.000
 6314.00    0.97890   1.01214   -1.000
 6315.00    0.97330   1.00796   -1.000
 6316.00    0.96987   1.00462   -1.000
 6317.00    0.96984   1.00281   -1.000
 6318.00    0.97020   1.00346   -1.000
 6319.00    0.97532   1.00707   -1.000
 6320.00    0.98256   1.01260   -1.000
 6321.00    0.98488   1.01818   -1.000
 6322.00    0.98734   1.02296   -1.000
 6323.00    0.98829   1.02723   -1.000
 6324.00    0.99295   1.03101   -1.000
 6325.00    0.99872   1.03354   -1.000
 6326.00    1.00070   1.03450   -1.000
 6327.00    0.99891   1.03435   -1.000
 6328.00    0.99512   1.03385   -1.000
 6329.00    0.99428   1.03357   -1.000
 6330.00    0.98982   1.03366   -1.000
 6331.00    0.99042   1.03365   -1.000
 6332.00    0.99371   1.03227   -1.000
 6333.00    0.99075   1.02813   -1.000
 6334.00    0.98425   1.02138   -1.000
 6335.00    0.97573   1.01448   -1.000
 6336.00    0.96776   1.01072   -1.000
 6337.00    0.97185   1.01165   -1.000
 6338.00    0.98306   1.01610   -1.000
 6339.00    0.98921   1.02166   -1.000
 6340.00    0.99167   1.02624   -1.000
 6341.00    0.99237   1.02847   -1.000
 6342.00    0.99308   1.02804   -1.000
 6343.00    0.99235   1.02591   -1.000
 6344.00    0.99035   1.02389   -1.000
 6345.00    0.99059   1.02352   -1.000
 6346.00    0.99388   1.02534   -1.000
 6347.00    0.99411   1.02899   -1.000
 6348.00    0.99542   1.03358   -1.000
 6349.00    0.99884   1.03779   -1.000
 6350.00    1.00083   1.04035   -1.000
 6351.00    1.00116   1.04053   -1.000
 6352.00    0.99783   1.03837   -1.000
 6353.00    0.99272   1.03467   -1.000
 6354.00    0.98702   1.03067   -1.000
 6355.00    0.98289   1.02727   -1.000
 6356.00    0.97854   1.02439   -1.000
 6357.00    0.97362   1.02139   -1.000
 6358.00    0.96750   1.01802   -1.000
 6359.00    0.96469   1.01481   -1.000
 6360.00    0.96840   1.01222   -1.000
 6361.00    0.96880   1.01038   -1.000
 6362.00    0.96551   1.00977   -1.000
 6363.00    0.96797   1.01106   -1.000
 6364.00    0.97149   1.01425   -1.000
 6365.00    0.97426   1.01853   -1.000
 6366.00    0.97758   1.02276   -1.000
 6367.00    0.97797   1.02605   -1.000
 6368.00    0.98175   1.02784   -1.000
 6369.00    0.98226   1.02816   -1.000
 6370.00    0.97958   1.02805   -1.000
 6371.00    0.97880   1.02872   -1.000
 6372.00    0.97875   1.03051   -1.000
 6373.00    0.97840   1.03268   -1.000
 6374.00    0.97709   1.03409   -1.000
 6375.00    0.97606   1.03411   -1.000
 6376.00    0.97812   1.03282   -1.000
 6377.00    0.97683   1.03068   -1.000
 6378.00    0.97083   1.02827   -1.000
 6379.00    0.96575   1.02609   -1.000
 6380.00    0.95772   1.02450   -1.000
 6381.00    0.95309   1.02366   -1.000
 6382.00    0.95399   1.02355   -1.000
 6383.00    0.95286   1.02412   -1.000
 6384.00    0.95215   1.02537   -1.000
 6385.00    0.95144   1.02720   -1.000
 6386.00    0.94742   1.02913   -1.000
 6387.00    0.94301   1.03046   -1.000
 6388.00    0.93852   1.03059   -1.000
 6389.00    0.93702   1.02900   -1.000
 6390.00    0.93194   1.02518   -1.000
 6391.00    0.92042   1.01926   -1.000
 6392.00    0.91080   1.01295   -1.000
 6393.00    0.89955   1.00929   -1.000
 6394.00    0.89471   1.01028   -1.000
 6395.00    0.89845   1.01465   -1.000
 6396.00    0.90219   1.01860   -1.000
 6397.00    0.90038   1.01872   -1.000
 6398.00    0.89085   1.01465   -1.000
 6399.00    0.87846   1.00949   -1.000
 6400.00    0.86585   1.00764   -1.000
 6401.00    0.85990   1.01112   -1.000
 6402.00    0.87057   1.01808   -1.000
 6403.00    0.87905   1.02463   -1.000
 6404.00    0.87520   1.02779   -1.000
 6405.00    0.87011   1.02672   -1.000
 6406.00    0.86682   1.02265   -1.000
 6407.00    0.85239   1.01810   -1.000
 6408.00    0.84008   1.01523   -1.000
 6409.00    0.83475   1.01452   -1.000
 6410.00    0.83315   1.01482   -1.000
 6411.00    0.82772   1.01516   -1.000
 6412.00    0.82039   1.01595   -1.000
 6413.00    0.81682   1.01761   -1.000
 6414.00    0.81180   1.01969   -1.000
 6415.00    0.80661   1.02136   -1.000
 6416.00    0.80030   1.02194   -1.000
 6417.00    0.79385   1.02071   -1.000
 6418.00    0.78587   1.01739   -1.000
 6419.00    0.77319   1.01301   -1.000
 6420.00    0.75842   1.00998   -1.000
 6421.00    0.75123   1.01072   -1.000
 6422.00    0.74806   1.01569   -1.000
 6423.00    0.74613   1.02292   -1.000
 6424.00    0.16168   1.02967   -1.000
 6425.00    0.00000   1.03440   -2.000
 6426.00    0.00000   1.03643   -2.000
 6427.00    0.00000   1.03511   -2.000
 6428.00    0.00000   1.03012   -2.000
