###################################################################
## OUTPUT of StarlightChains_v04.for    [Cid@UFSC - 01/Apr/2007] ##
###################################################################

## Some input info
NGC104_a_1.cxt                           [arq_obs]
Base.BC03.S                              [arq_base]
NGC104_a_1.msk                           [arq_masks]
StCv04.C11.config                        [arq_config]
  150                                    [N_base]
    0                                    [N_YAV_components = # of components with extra extinction!]
    0                                    [i_FitPowerLaw (1/0 = Yes/No)]
-9.99                                    [alpha_PowerLaw]
CCM                                      [red_law_option]
 1.458241                                [q_norm = A(l_norm)/A(V)]

## (Re)Sampling Parameters
 3359.00                                 [l_ini (A)]
 6428.00                                 [l_fin (A)]
    1.00                                 [dl    (A)]     (OBS: dl_cushion =    50.00 A)

## Normalization info
 4020.00                                 [l_norm (A) - for base]
 4010.00                                 [llow_norm (A) - window for f_obs]
 4060.00                                 [lupp_norm (A) - window for f_obs]
2.050577E-13                             [fobs_norm (in input units)]

## S/N
 4730.00                                 [llow_SN (A) - window for S/N]
 4780.00                                 [lupp_SN (A) - window for S/N]
  43.784                                 [S/N in S/N window]
  33.933                                 [S/N in norm. window]
1000.000                                 [S/N_err in S/N window]
 775.022                                 [S/N_err in norm. window]
  1.0000                                 [fscale_chi2]

## etc...
 -2147483648                             [idum_orig]
  3067                                   [NOl_eff]
   239                                   [Nl_eff]
  2828    NSIGMA                         [Ntot_cliped & clip_method]
 12334770                                [Nglobal_steps]
   7                                     [N_chains]
  15                                     [NEX0s_base = N_base in EX0s-fits]
 0   0   1      254   2.0   1.654E+03    [Clip-Bug, RC-Crash & Burn-In warning-flags, n_censored_weights, wei_nsig_threshold & wei_limit]
   511    511.141    511.126      0.015  [idt_all, wdt_TotTime, wdt_UsrTime & wdt_SysTime (sec)]

## Synthesis Results - Best model ##

 3.20387E+00                             [chi2/Nl_eff]
     0.39124                             [adev (%)]

   100.48470                             [sum-of-x (%)]
 1.82864E-13                             [Flux_tot (units of input spectrum!)]
 8.40569E-09                             [Mini_tot (???)]
 4.24436E-09                             [Mcor_tot (???)]

 -26.92                                  [v0_min  (km/s)]
  46.14                                  [vd_min  (km/s)]
-0.0889                                  [AV_min  (mag)]
 0.0000                                  [YAV_min (mag)]

# j     x_j(%)      Mini_j(%)     Mcor_j(%)     age_j(yr)     Z_j      (L/M)_j    YAV?  Mstars   component_j        a/Fe...       SSP_chi2r SSP_adev(%)   SSP_AV   SSP_x(%)
  1      0.0000     0.0000E+00    0.0000E+00    1.000000E+06  0.00010  8.160E-03    0   1.0000   age020_m22            0.0000     1.8936E+04    23.8737   4.0000    78.1845
  2      2.9847     1.3578E-03    2.6890E-03    3.160000E+06  0.00010  4.759E-02    0   1.0000   age045_m22            0.0000     6.8332E+03    14.2765   2.0792    98.1568
  3      0.0000     0.0000E+00    0.0000E+00    5.010000E+06  0.00010  1.932E-02    0   0.9582   age055_m22            0.0000     1.8487E+04    22.0117   2.4360    81.4866
  4      0.0000     0.0000E+00    0.0000E+00    6.610000E+06  0.00010  9.973E-03    0   0.9297   age061_m22            0.0000     2.0227E+04    23.9200   4.0000    80.0414
  5      0.0000     0.0000E+00    0.0000E+00    8.710000E+06  0.00010  7.690E-03    0   0.9030   age067_m22            0.0000     1.9375E+04    23.5571   4.0000    80.3806
  6      0.0000     0.0000E+00    0.0000E+00    1.000000E+07  0.00010  6.375E-03    0   0.8902   age070_m22            0.0000     1.8817E+04    23.3461   4.0000    80.9489
  7      0.0000     0.0000E+00    0.0000E+00    1.445000E+07  0.00010  4.874E-03    0   0.8589   age078_m22            0.0000     1.5101E+04    21.1801   3.9269    81.7052
  8      0.0000     0.0000E+00    0.0000E+00    2.512000E+07  0.00010  4.103E-03    0   0.8174   age090_m22            0.0000     1.0681E+04    18.5511   3.4930    89.5735
  9      0.0000     0.0000E+00    0.0000E+00    4.000000E+07  0.00010  3.654E-03    0   0.7830   age104_m22            0.0000     9.1646E+03    16.4241   3.1592    96.1802
 10      0.0000     0.0000E+00    0.0000E+00    5.500000E+07  0.00010  3.093E-03    0   0.7597   age110_m22            0.0000     9.1947E+03    15.7065   3.0510    98.2636
 11      0.0000     0.0000E+00    0.0000E+00    1.015200E+08  0.00010  2.431E-03    0   0.7138   age116_m22            0.0000     1.0220E+04    15.1460   2.6858   102.2059
 12      0.0000     0.0000E+00    0.0000E+00    1.609000E+08  0.00010  1.319E-03    0   0.6775   age120_m22            0.0000     1.0010E+04    14.2075   2.2167   104.2216
 13      0.0000     0.0000E+00    0.0000E+00    2.861200E+08  0.00010  1.075E-03    0   0.6412   age125_m22            0.0000     1.6982E+04    15.1426   2.2720   109.3287
 14      0.0000     0.0000E+00    0.0000E+00    5.088000E+08  0.00010  7.183E-04    0   0.6083   age130_m22            0.0000     1.9365E+04    15.5239   2.0422   111.4539
 15      0.0000     0.0000E+00    0.0000E+00    9.047900E+08  0.00010  4.524E-04    0   0.5785   age135_m22            0.0000     1.9265E+04    15.3206   1.8381   112.8978
 16      0.0000     0.0000E+00    0.0000E+00    1.278050E+09  0.00010  3.018E-04    0   0.5588   age138_m22            0.0000     1.1072E+04    12.1191   1.3068   110.3962
 17      0.0000     0.0000E+00    0.0000E+00    1.434000E+09  0.00010  2.691E-04    0   0.5532   age139_m22            0.0000     9.6869E+03    11.5571   1.1515   109.6325
 18      0.0000     0.0000E+00    0.0000E+00    2.500000E+09  0.00010  1.582E-04    0   0.5296   age150_m22            0.0000     9.1668E+03    11.6312   1.0239   110.6666
 19      0.0000     0.0000E+00    0.0000E+00    4.250000E+09  0.00010  1.007E-04    0   0.5110   age158_m22            0.0000     6.6932E+03    10.6355   0.8824   108.1211
 20      0.0000     0.0000E+00    0.0000E+00    6.250000E+09  0.00010  6.869E-05    0   0.4985   age166_m22            0.0000     4.9972E+03    10.0580   0.8395   104.3024
 21      0.0000     0.0000E+00    0.0000E+00    7.500000E+09  0.00010  5.873E-05    0   0.4931   age171_m22            0.0000     4.9641E+03    10.2824   0.8277   103.6449
 22      0.0000     0.0000E+00    0.0000E+00    1.000000E+10  0.00010  4.481E-05    0   0.4854   age181_m22            0.0000     4.8242E+03    10.1665   0.7919   103.2030
 23      0.0000     0.0000E+00    0.0000E+00    1.300000E+10  0.00010  3.489E-05    0   0.4791   age193_m22            0.0000     4.5344E+03     9.9324   0.7376   102.5549
 24      0.0000     0.0000E+00    0.0000E+00    1.500000E+10  0.00010  3.035E-05    0   0.4766   age201_m22            0.0000     4.3715E+03     9.8526   0.6984   102.3472
 25      0.0000     0.0000E+00    0.0000E+00    1.800000E+10  0.00010  2.510E-05    0   0.4735   age213_m22            0.0000     4.0648E+03     9.7139   0.6310   101.6154
 26      0.0000     0.0000E+00    0.0000E+00    1.000000E+06  0.00040  8.458E-03    0   1.0000   age020_m32            0.0000     1.9398E+04    24.0005   4.0000    79.1415
 27      0.0000     0.0000E+00    0.0000E+00    3.160000E+06  0.00040  3.973E-02    0   1.0000   age045_m32            0.0000     1.1168E+04    18.7748   3.3865    89.6441
 28      0.0000     0.0000E+00    0.0000E+00    5.010000E+06  0.00040  1.935E-02    0   0.9532   age055_m32            0.0000     1.7000E+04    22.1434   3.6364    82.2044
 29      0.0000     0.0000E+00    0.0000E+00    6.610000E+06  0.00040  1.204E-02    0   0.9243   age061_m32            0.0000     1.7609E+04    22.3042   3.9630    79.9274
 30      0.0000     0.0000E+00    0.0000E+00    8.710000E+06  0.00040  9.433E-03    0   0.9001   age067_m32            0.0000     1.6486E+04    21.8331   3.9320    81.0234
 31      0.0000     0.0000E+00    0.0000E+00    1.000000E+07  0.00040  8.053E-03    0   0.8877   age070_m32            0.0000     1.6061E+04    21.6590   3.8936    81.5782
 32      0.0000     0.0000E+00    0.0000E+00    1.445000E+07  0.00040  7.027E-03    0   0.8578   age078_m32            0.0000     1.2781E+04    20.0728   3.3422    87.9907
 33      0.0000     0.0000E+00    0.0000E+00    2.512000E+07  0.00040  4.707E-03    0   0.8166   age090_m32            0.0000     1.0405E+04    18.2893   3.0291    92.8968
 34      0.0000     0.0000E+00    0.0000E+00    4.000000E+07  0.00040  3.714E-03    0   0.7827   age104_m32            0.0000     9.0971E+03    16.4662   2.8050    97.5884
 35      0.0000     0.0000E+00    0.0000E+00    5.500000E+07  0.00040  2.982E-03    0   0.7593   age110_m32            0.0000     9.1648E+03    15.8867   2.7384    99.2076
 36      0.0000     0.0000E+00    0.0000E+00    1.015200E+08  0.00040  2.188E-03    0   0.7143   age116_m32            0.0000     1.1789E+04    14.6930   2.4574   105.0614
 37      0.0000     0.0000E+00    0.0000E+00    1.609000E+08  0.00040  1.690E-03    0   0.6856   age120_m32            0.0000     1.4715E+04    14.9621   2.2313   108.8517
 38      0.0000     0.0000E+00    0.0000E+00    2.861200E+08  0.00040  1.152E-03    0   0.6509   age125_m32            0.0000     1.7344E+04    14.9963   2.0221   110.7644
 39      0.0000     0.0000E+00    0.0000E+00    5.088000E+08  0.00040  7.331E-04    0   0.6182   age130_m32            0.0000     1.7976E+04    14.9011   1.8618   111.6169
 40      0.0000     0.0000E+00    0.0000E+00    9.047900E+08  0.00040  3.960E-04    0   0.5890   age135_m32            0.0000     1.1478E+04    12.1322   1.4064   109.5051
 41      0.0000     0.0000E+00    0.0000E+00    1.278050E+09  0.00040  2.854E-04    0   0.5687   age138_m32            0.0000     1.0172E+04    11.6686   1.0897   111.8898
 42      0.0000     0.0000E+00    0.0000E+00    1.434000E+09  0.00040  2.531E-04    0   0.5632   age139_m32            0.0000     9.8401E+03    11.6149   1.0273   111.8723
 43      0.0000     0.0000E+00    0.0000E+00    2.500000E+09  0.00040  1.488E-04    0   0.5386   age150_m32            0.0000     7.4825E+03    10.6460   0.7870   109.2154
 44      0.0000     0.0000E+00    0.0000E+00    4.250000E+09  0.00040  9.082E-05    0   0.5199   age158_m32            0.0000     4.5211E+03     9.2067   0.7052   104.5576
 45      0.0118     4.0135E-03    4.0347E-03    6.250000E+09  0.00040  6.362E-05    0   0.5076   age166_m32            0.0000     3.6571E+03     9.2631   0.6701   100.2682
 46      3.2524     1.3313E+00    1.3254E+00    7.500000E+09  0.00040  5.289E-05    0   0.5027   age171_m32            0.0000     3.4280E+03     9.1710   0.6399    98.7135
 47     11.9511     6.5141E+00    6.3833E+00    1.000000E+10  0.00040  3.972E-05    0   0.4948   age181_m32            0.0000     3.1137E+03     8.9213   0.5851    97.0986
 48      0.0000     0.0000E+00    0.0000E+00    1.300000E+10  0.00040  3.283E-05    0   0.4870   age193_m32            0.0000     3.2132E+03     8.6459   0.5279   100.5921
 49      0.0000     0.0000E+00    0.0000E+00    1.500000E+10  0.00040  2.925E-05    0   0.4854   age201_m32            0.0000     3.4698E+03     8.6067   0.5016   102.6559
 50      0.0000     0.0000E+00    0.0000E+00    1.800000E+10  0.00040  2.469E-05    0   0.4819   age213_m32            0.0000     3.5539E+03     8.5526   0.4570   103.4080
 51      0.0000     0.0000E+00    0.0000E+00    1.000000E+06  0.00400  1.114E-02    0   1.0000   age020_m42            0.0000     1.7838E+04    23.0772   4.0000    78.1240
 52      0.0000     0.0000E+00    0.0000E+00    3.160000E+06  0.00400  4.073E-02    0   0.9999   age045_m42            0.0000     8.6270E+03    16.4743   3.0817    93.0307
 53      0.0000     0.0000E+00    0.0000E+00    5.010000E+06  0.00400  2.534E-02    0   0.9488   age055_m42            0.0000     1.2558E+04    19.9400   3.5085    85.1122
 54      0.0000     0.0000E+00    0.0000E+00    6.610000E+06  0.00400  2.583E-02    0   0.9220   age061_m42            0.0000     8.1866E+03    16.2701   2.8750    94.6895
 55      0.0000     0.0000E+00    0.0000E+00    8.710000E+06  0.00400  1.706E-02    0   0.8983   age067_m42            0.0000     9.8417E+03    18.3985   2.7000    91.9956
 56      0.0000     0.0000E+00    0.0000E+00    1.000000E+07  0.00400  1.271E-02    0   0.8862   age070_m42            0.0000     1.2185E+04    20.2411   2.6881    89.9047
 57      0.0000     0.0000E+00    0.0000E+00    1.445000E+07  0.00400  7.666E-03    0   0.8571   age078_m42            0.0000     1.3995E+04    21.1530   3.1149    85.6381
 58      0.0000     0.0000E+00    0.0000E+00    2.512000E+07  0.00400  5.070E-03    0   0.8174   age090_m42            0.0000     1.1301E+04    19.5245   2.5565    91.5435
 59      0.0000     0.0000E+00    0.0000E+00    4.000000E+07  0.00400  3.505E-03    0   0.7851   age104_m42            0.0000     8.7839E+03    17.2525   2.2373    95.0303
 60      0.0000     0.0000E+00    0.0000E+00    5.500000E+07  0.00400  3.059E-03    0   0.7629   age110_m42            0.0000     7.6802E+03    14.4106   2.2720   101.6357
 61      0.0000     0.0000E+00    0.0000E+00    1.015200E+08  0.00400  2.268E-03    0   0.7207   age116_m42            0.0000     1.2397E+04    13.7050   2.1545   109.2356
 62      0.0000     0.0000E+00    0.0000E+00    1.609000E+08  0.00400  1.720E-03    0   0.6930   age120_m42            0.0000     1.3051E+04    13.3768   2.0139   111.1766
 63      0.0000     0.0000E+00    0.0000E+00    2.861200E+08  0.00400  1.079E-03    0   0.6613   age125_m42            0.0000     1.2610E+04    12.6243   1.6672   111.4364
 64      0.0000     0.0000E+00    0.0000E+00    5.088000E+08  0.00400  6.261E-04    0   0.6313   age130_m42            0.0000     1.3789E+04    12.8675   1.4510   115.3743
 65      0.0000     0.0000E+00    0.0000E+00    9.047900E+08  0.00400  3.535E-04    0   0.6024   age135_m42            0.0000     8.4621E+03     9.9304   1.0555   114.9763
 66      0.0000     0.0000E+00    0.0000E+00    1.278050E+09  0.00400  2.677E-04    0   0.5837   age138_m42            0.0000     2.4397E+03     5.3497   0.4250   109.8629
 67      0.0000     0.0000E+00    0.0000E+00    1.434000E+09  0.00400  1.910E-04    0   0.5716   age139_m42            0.0000     3.7249E+03     6.2770   0.5787   111.4104
 68      0.0000     0.0000E+00    0.0000E+00    2.500000E+09  0.00400  9.818E-05    0   0.5463   age150_m42            0.0000     9.2413E+02     3.3211   0.3511   104.2931
 69      0.0000     0.0000E+00    0.0000E+00    4.250000E+09  0.00400  5.491E-05    0   0.5269   age158_m42            0.0000     4.3440E+02     2.7769   0.2408   100.6338
 70      0.0000     0.0000E+00    0.0000E+00    6.250000E+09  0.00400  3.857E-05    0   0.5151   age166_m42            0.0000     2.4156E+02     2.0466   0.1256    98.8641
 71      0.0000     0.0000E+00    0.0000E+00    7.500000E+09  0.00400  3.243E-05    0   0.5110   age171_m42            0.0000     2.0280E+02     1.7557   0.0536    98.1073
 72      0.0000     0.0000E+00    0.0000E+00    1.000000E+10  0.00400  2.424E-05    0   0.5028   age181_m42            0.0000     2.3443E+02     1.6395  -0.0166    97.1710
 73      0.0000     0.0000E+00    0.0000E+00    1.300000E+10  0.00400  1.883E-05    0   0.4927   age193_m42            0.0000     3.5364E+02     2.1389  -0.0485    96.5607
 74      0.0000     0.0000E+00    0.0000E+00    1.500000E+10  0.00400  1.685E-05    0   0.4919   age201_m42            0.0000     3.5214E+02     2.0573  -0.0469    96.6548
 75      0.0000     0.0000E+00    0.0000E+00    1.800000E+10  0.00400  1.452E-05    0   0.4874   age213_m42            0.0000     3.6059E+02     1.9708  -0.0368    97.0451
 76      0.0000     0.0000E+00    0.0000E+00    1.000000E+06  0.00800  1.286E-02    0   1.0000   age020_m52            0.0000     1.6797E+04    22.3376   4.0000    79.5466
 77      0.0000     0.0000E+00    0.0000E+00    3.160000E+06  0.00800  3.147E-02    0   0.9966   age045_m52            0.0000     1.6673E+04    21.8498   3.9828    79.4241
 78      0.0000     0.0000E+00    0.0000E+00    5.010000E+06  0.00800  2.664E-02    0   0.9443   age055_m52            0.0000     1.3964E+04    20.6250   3.6411    83.4922
 79      0.0000     0.0000E+00    0.0000E+00    6.610000E+06  0.00800  2.151E-02    0   0.9177   age061_m52            0.0000     9.9827E+03    17.8910   2.3090    90.8813
 80      0.0000     0.0000E+00    0.0000E+00    8.710000E+06  0.00800  1.628E-02    0   0.8948   age067_m52            0.0000     1.1142E+04    19.0966   2.6652    91.6714
 81      0.0000     0.0000E+00    0.0000E+00    1.000000E+07  0.00800  1.215E-02    0   0.8827   age070_m52            0.0000     1.2822E+04    20.3119   3.0108    89.3574
 82      0.0000     0.0000E+00    0.0000E+00    1.445000E+07  0.00800  8.739E-03    0   0.8552   age078_m52            0.0000     1.1661E+04    19.4521   3.0451    91.1632
 83      0.0000     0.0000E+00    0.0000E+00    2.512000E+07  0.00800  5.676E-03    0   0.8162   age090_m52            0.0000     1.0227E+04    17.7278   2.6077    97.6911
 84      0.0000     0.0000E+00    0.0000E+00    4.000000E+07  0.00800  3.939E-03    0   0.7841   age104_m52            0.0000     9.4421E+03    15.9719   2.4465   100.8297
 85      0.0000     0.0000E+00    0.0000E+00    5.500000E+07  0.00800  3.155E-03    0   0.7627   age110_m52            0.0000     9.4735E+03    14.7801   2.4168   103.1090
 86      0.0000     0.0000E+00    0.0000E+00    1.015200E+08  0.00800  2.206E-03    0   0.7226   age116_m52            0.0000     1.0567E+04    13.1714   2.2181   108.3891
 87      0.0000     0.0000E+00    0.0000E+00    1.609000E+08  0.00800  1.596E-03    0   0.6963   age120_m52            0.0000     1.1265E+04    12.7654   1.9993   110.6167
 88      0.0000     0.0000E+00    0.0000E+00    2.861200E+08  0.00800  1.002E-03    0   0.6665   age125_m52            0.0000     1.4137E+04    12.8987   1.7102   114.0818
 89      0.0000     0.0000E+00    0.0000E+00    5.088000E+08  0.00800  5.759E-04    0   0.6377   age130_m52            0.0000     1.3969E+04    12.1254   1.3615   118.5284
 90      0.0000     0.0000E+00    0.0000E+00    9.047900E+08  0.00800  2.972E-04    0   0.6086   age135_m52            0.0000     7.6739E+03     8.3326   0.8692   115.1818
 91      0.0000     0.0000E+00    0.0000E+00    1.278050E+09  0.00800  2.242E-04    0   0.5907   age138_m52            0.0000     2.0090E+03     4.2002   0.2740   112.0376
 92      0.0000     0.0000E+00    0.0000E+00    1.434000E+09  0.00800  1.645E-04    0   0.5787   age139_m52            0.0000     1.9924E+03     4.0855   0.4217   111.2622
 93      0.0000     0.0000E+00    0.0000E+00    2.500000E+09  0.00800  7.723E-05    0   0.5519   age150_m52            0.0000     3.8338E+02     1.7706   0.1108   105.9379
 94     11.7103     6.1076E+00    6.4349E+00    4.250000E+09  0.00800  4.151E-05    0   0.5320   age158_m52            0.0000     1.3810E+02     1.1073   0.0476   102.9454
 95     16.3727     1.1776E+01    1.2121E+01    6.250000E+09  0.00800  3.010E-05    0   0.5197   age166_m52            0.0000     4.9558E+01     1.2540  -0.1304   100.9830
 96     10.5742     9.2797E+00    9.4443E+00    7.500000E+09  0.00800  2.467E-05    0   0.5139   age171_m52            0.0000     7.7644E+01     1.6239  -0.1679   100.4697
 97      9.0981     1.0579E+01    1.0588E+01    1.000000E+10  0.00800  1.862E-05    0   0.5054   age181_m52            0.0000     2.5854E+02     2.8607  -0.2878    99.8261
 98     14.3796     2.1725E+01    2.1461E+01    1.300000E+10  0.00800  1.433E-05    0   0.4988   age193_m52            0.0000     5.7013E+02     4.1648  -0.3738   100.1762
 99      9.2529     1.6103E+01    1.5742E+01    1.500000E+10  0.00800  1.244E-05    0   0.4936   age201_m52            0.0000     7.2183E+02     4.6213  -0.3997   100.5462
100      5.2537     1.0630E+01    1.0290E+01    1.800000E+10  0.00800  1.070E-05    0   0.4888   age213_m52            0.0000     8.4489E+02     4.9816  -0.4329   100.3596
101      0.0000     0.0000E+00    0.0000E+00    1.000000E+06  0.02000  1.989E-02    0   1.0000   age020_m62            0.0000     1.7832E+04    22.6011   4.0000    77.9027
102      0.0000     0.0000E+00    0.0000E+00    3.160000E+06  0.02000  3.772E-02    0   0.9858   age045_m62            0.0000     1.7147E+04    22.2158   3.9032    79.1552
103      0.0000     0.0000E+00    0.0000E+00    5.010000E+06  0.02000  3.227E-02    0   0.9342   age055_m62            0.0000     1.0566E+04    18.8787   3.3400    88.9647
104      0.0000     0.0000E+00    0.0000E+00    6.610000E+06  0.02000  2.387E-02    0   0.9090   age061_m62            0.0000     1.3906E+04    21.2067   3.0758    87.9467
105      0.0000     0.0000E+00    0.0000E+00    8.710000E+06  0.02000  1.102E-02    0   0.8861   age067_m62            0.0000     2.9533E+04    27.7414   2.6858    81.4117
106      0.0000     0.0000E+00    0.0000E+00    1.000000E+07  0.02000  1.011E-02    0   0.8751   age070_m62            0.0000     2.2170E+04    24.9224   2.7096    84.5716
107      0.0000     0.0000E+00    0.0000E+00    1.445000E+07  0.02000  7.331E-03    0   0.8472   age078_m62            0.0000     1.6932E+04    22.5321   2.7333    86.5057
108      0.0000     0.0000E+00    0.0000E+00    2.512000E+07  0.02000  4.206E-03    0   0.8099   age090_m62            0.0000     1.7646E+04    22.7355   2.6489    85.6189
109      0.0000     0.0000E+00    0.0000E+00    4.000000E+07  0.02000  3.373E-03    0   0.7799   age104_m62            0.0000     9.8890E+03    17.4687   2.4227    97.1339
110      0.0000     0.0000E+00    0.0000E+00    5.500000E+07  0.02000  2.747E-03    0   0.7595   age110_m62            0.0000     9.2917E+03    15.5050   2.3423   102.0543
111      0.0000     0.0000E+00    0.0000E+00    1.015200E+08  0.02000  1.878E-03    0   0.7221   age116_m62            0.0000     1.1746E+04    13.8777   2.1833   109.0251
112      0.0000     0.0000E+00    0.0000E+00    1.609000E+08  0.02000  1.378E-03    0   0.6978   age120_m62            0.0000     1.4317E+04    13.7654   2.0221   112.6414
113      0.0000     0.0000E+00    0.0000E+00    2.861200E+08  0.02000  8.869E-04    0   0.6700   age125_m62            0.0000     1.8537E+04    14.5144   1.6385   118.4197
114      0.0000     0.0000E+00    0.0000E+00    5.088000E+08  0.02000  4.834E-04    0   0.6430   age130_m62            0.0000     1.5399E+04    12.4829   1.2232   120.3277
115      0.0000     0.0000E+00    0.0000E+00    9.047900E+08  0.02000  2.312E-04    0   0.6152   age135_m62            0.0000     6.9617E+03     7.6416   0.6537   117.3666
116      0.0000     0.0000E+00    0.0000E+00    1.278050E+09  0.02000  1.387E-04    0   0.5927   age138_m62            0.0000     2.4017E+03     4.1493   0.3008   110.8691
117      0.0000     0.0000E+00    0.0000E+00    1.434000E+09  0.02000  1.168E-04    0   0.5865   age139_m62            0.0000     1.7934E+03     3.5507   0.2859   108.7068
118      0.0000     0.0000E+00    0.0000E+00    2.500000E+09  0.02000  5.505E-05    0   0.5610   age150_m62            0.0000     4.0691E+02     1.7001  -0.0616   104.4492
119      0.5071     3.5761E-01    3.8294E-01    4.250000E+09  0.02000  3.070E-05    0   0.5407   age158_m62            0.0000     5.9677E+02     3.6487  -0.3336   103.7316
120      4.0684     4.1863E+00    4.3750E+00    6.250000E+09  0.02000  2.104E-05    0   0.5277   age166_m62            0.0000     9.4899E+02     4.9821  -0.4568   103.8915
121      0.8454     1.0340E+00    1.0696E+00    7.500000E+09  0.02000  1.770E-05    0   0.5223   age171_m62            0.0000     1.2222E+03     5.6464  -0.5410   104.1667
122      0.2223     3.7110E-01    3.7636E-01    1.000000E+10  0.02000  1.297E-05    0   0.5121   age181_m62            0.0000     1.8624E+03     6.9560  -0.6919   104.4628
123      0.0000     0.0000E+00    0.0000E+00    1.300000E+10  0.02000  9.691E-06    0   0.5047   age193_m62            0.0000     2.3267E+03     7.7122  -0.7697   104.6943
124      0.0000     0.0000E+00    0.0000E+00    1.500000E+10  0.02000  8.360E-06    0   0.4999   age201_m62            0.0000     2.8001E+03     8.4058  -0.8371   104.8946
125      0.0000     0.0000E+00    0.0000E+00    1.800000E+10  0.02000  6.911E-06    0   0.4946   age213_m62            0.0000     3.4703E+03     9.2927  -0.9075   105.1489
126      0.0000     0.0000E+00    0.0000E+00    1.000000E+06  0.05000  2.651E-02    0   0.9998   age020_m72            0.0000     1.6752E+04    21.9731   4.0000    78.8874
127      0.0000     0.0000E+00    0.0000E+00    3.160000E+06  0.05000  4.817E-02    0   0.9577   age045_m72            0.0000     1.3993E+04    20.6568   3.7501    83.0783
128      0.0000     0.0000E+00    0.0000E+00    5.010000E+06  0.05000  3.101E-02    0   0.9147   age055_m72            0.0000     1.3993E+04    20.7815   3.3673    86.1560
129      0.0000     0.0000E+00    0.0000E+00    6.610000E+06  0.05000  1.472E-02    0   0.8877   age061_m72            0.0000     2.4680E+04    25.5198   2.8936    83.0628
130      0.0000     0.0000E+00    0.0000E+00    8.710000E+06  0.05000  1.050E-02    0   0.8638   age067_m72            0.0000     1.7902E+04    22.5742   3.3171    83.9026
131      0.0000     0.0000E+00    0.0000E+00    1.000000E+07  0.05000  8.954E-03    0   0.8524   age070_m72            0.0000     1.3670E+04    20.1320   3.6287    84.0600
132      0.0000     0.0000E+00    0.0000E+00    1.445000E+07  0.05000  6.392E-03    0   0.8262   age078_m72            0.0000     1.2459E+04    19.3537   3.5743    85.3376
133      0.0000     0.0000E+00    0.0000E+00    2.512000E+07  0.05000  4.207E-03    0   0.7902   age090_m72            0.0000     1.0326E+04    17.8924   3.1562    91.2068
134      0.0000     0.0000E+00    0.0000E+00    4.000000E+07  0.05000  3.198E-03    0   0.7618   age104_m72            0.0000     9.4335E+03    14.3134   2.5803   102.9110
135      0.0000     0.0000E+00    0.0000E+00    5.500000E+07  0.05000  2.593E-03    0   0.7432   age110_m72            0.0000     1.0609E+04    14.1679   2.4670   105.8031
136      0.0000     0.0000E+00    0.0000E+00    1.015200E+08  0.05000  1.716E-03    0   0.7092   age116_m72            0.0000     1.3345E+04    14.0844   2.2514   109.7950
137      0.0000     0.0000E+00    0.0000E+00    1.609000E+08  0.05000  1.218E-03    0   0.6876   age120_m72            0.0000     1.5899E+04    13.8131   1.9815   113.5978
138      0.0000     0.0000E+00    0.0000E+00    2.861200E+08  0.05000  7.047E-04    0   0.6618   age125_m72            0.0000     1.7561E+04    13.5733   1.4329   118.6004
139      0.0000     0.0000E+00    0.0000E+00    5.088000E+08  0.05000  3.590E-04    0   0.6356   age130_m72            0.0000     1.2976E+04    10.8215   0.8852   120.3435
140      0.0000     0.0000E+00    0.0000E+00    9.047900E+08  0.05000  1.484E-04    0   0.6088   age135_m72            0.0000     2.9884E+03     4.8027   0.2167   110.1532
141      0.0000     0.0000E+00    0.0000E+00    1.278050E+09  0.05000  9.435E-05    0   0.5924   age138_m72            0.0000     1.4201E+03     3.8372  -0.1572   105.7582
142      0.0000     0.0000E+00    0.0000E+00    1.434000E+09  0.05000  7.827E-05    0   0.5847   age139_m72            0.0000     1.0423E+03     3.5490  -0.1441   104.9610
143      0.0000     0.0000E+00    0.0000E+00    2.500000E+09  0.05000  3.759E-05    0   0.5583   age150_m72            0.0000     1.0737E+03     5.0909  -0.4506   103.2971
144      0.0000     0.0000E+00    0.0000E+00    4.250000E+09  0.05000  1.842E-05    0   0.5374   age158_m72            0.0000     1.8711E+03     6.6092  -0.7725   102.7929
145      0.0000     0.0000E+00    0.0000E+00    6.250000E+09  0.05000  1.207E-05    0   0.5242   age166_m72            0.0000     3.0423E+03     8.1543  -1.0000   102.3295
146      0.0000     0.0000E+00    0.0000E+00    7.500000E+09  0.05000  9.993E-06    0   0.5183   age171_m72            0.0000     3.3406E+03     8.5359  -1.0000   101.0210
147      0.0000     0.0000E+00    0.0000E+00    1.000000E+10  0.05000  7.291E-06    0   0.5081   age181_m72            0.0000     5.2072E+03    10.6094  -1.0000    97.4983
148      0.0000     0.0000E+00    0.0000E+00    1.300000E+10  0.05000  5.316E-06    0   0.5018   age193_m72            0.0000     9.7756E+03    13.9144  -1.0000    92.1420
149      0.0000     0.0000E+00    0.0000E+00    1.500000E+10  0.05000  4.497E-06    0   0.4972   age201_m72            0.0000     1.2330E+04    15.3029  -1.0000    90.3062
150      0.0000     0.0000E+00    0.0000E+00    1.800000E+10  0.05000  3.739E-06    0   0.4924   age213_m72            0.0000     1.6260E+04    17.1251  -1.0000    87.4375


## Synthesis Results - Average & Chains ##

# j      x_j: min, <> & last-chain-values for 1 ...  7 chains
  1      0.0000      0.0036      0.0000      0.0364      0.0000      0.0321      0.0235      0.0127      0.0000
  2      2.9847      3.1301      2.9849      3.0035      3.2053      3.2060      3.0258      3.2700      2.9841
  3      0.0000      0.1007      0.0000      0.1097      0.0605      0.1121      0.0000      0.1091      0.1559
  4      0.0000      0.0014      0.0000      0.0019      0.0000      0.0000      0.0010      0.0000      0.0326
  5      0.0000      0.0041      0.0021      0.0000      0.0000      0.0000      0.0000      0.0000      0.0000
  6      0.0000      0.0010      0.0083      0.0000      0.0000      0.0000      0.0000      0.0000      0.0000
  7      0.0000      0.0011      0.0000      0.0000      0.0000      0.0000      0.0000      0.0000      0.0000
  8      0.0000      0.0025      0.0000      0.0000      0.0000      0.0000      0.0000      0.0000      0.0000
  9      0.0000      0.0030      0.0015      0.0000      0.0000      0.0000      0.0282      0.0000      0.0000
 10      0.0000      0.0035      0.0000      0.0677      0.0000      0.0000      0.0000      0.0000      0.0000
 11      0.0000      0.0021      0.0003      0.0000      0.0000      0.0000      0.0000      0.0000      0.0000
 12      0.0000      0.0016      0.0000      0.0000      0.0000      0.0000      0.0000      0.0000      0.0000
 13      0.0000      0.0014      0.0000      0.0000      0.0007      0.0000      0.0000      0.0000      0.0000
 14      0.0000      0.0013      0.0000      0.0000      0.0000      0.0000      0.0000      0.0000      0.0000
 15      0.0000      0.0020      0.0000      0.0000      0.0030      0.0000      0.0000      0.0000      0.0000
 16      0.0000      0.0043      0.0236      0.0000      0.0000      0.0000      0.0000      0.0000      0.0000
 17      0.0000      0.0034      0.0000      0.0000      0.0000      0.0000      0.0000      0.0000      0.0000
 18      0.0000      0.0080      0.0000      0.0080      0.0000      0.0000      0.0000      0.0000      0.0000
 19      0.0000      0.0267      0.0032      0.0000      0.0000      0.0136      0.0000      0.0196      0.0000
 20      0.0000      0.0168      0.0000      0.0000      0.0420      0.1289      0.0000      0.0447      0.0030
 21      0.0000      0.0192      0.0002      0.0000      0.0000      0.0000      0.0000      0.0000      0.0000
 22      0.0000      0.0192      0.0000      0.0824      0.0000      0.1165      0.0000      0.0000      0.0413
 23      0.0000      0.0254      0.0000      0.0000      0.0000      0.0277      0.1585      0.1178      0.0000
 24      0.0000      0.0195      0.0000      0.0000      0.0385      0.0062      0.0148      0.0987      0.0136
 25      0.0000      0.0398      0.0128      0.1776      0.0154      0.0000      0.0355      0.0000      0.0000
 26      0.0000      0.0011      0.0000      0.0000      0.0000      0.0000      0.0000      0.0000      0.0000
 27      0.0000      0.0017      0.0000      0.0000      0.0000      0.0000      0.0000      0.0000      0.0000
 28      0.0000      0.0021      0.0060      0.0000      0.0009      0.0000      0.0000      0.0000      0.0000
 29      0.0000      0.0038      0.0000      0.0000      0.0000      0.0000      0.0000      0.0000      0.0000
 30      0.0000      0.0028      0.0000      0.0000      0.0000      0.0101      0.0534      0.0000      0.0000
 31      0.0000      0.0017      0.0000      0.0000      0.0000      0.0000      0.0000      0.0000      0.0000
 32      0.0000      0.0025      0.0000      0.0000      0.0000      0.0000      0.0000      0.0000      0.0000
 33      0.0000      0.0027      0.0090      0.0022      0.0000      0.0000      0.0000      0.0000      0.0000
 34      0.0000      0.0038      0.0023      0.0000      0.0000      0.0000      0.0000      0.0000      0.0000
 35      0.0000      0.0020      0.0000      0.0000      0.0000      0.0000      0.0072      0.0000      0.0000
 36      0.0000      0.0027      0.0000      0.0000      0.0000      0.0000      0.0000      0.0000      0.0000
 37      0.0000      0.0026      0.0000      0.0221      0.0000      0.0008      0.0000      0.0000      0.0000
 38      0.0000      0.0015      0.0063      0.0000      0.0000      0.0000      0.0000      0.0000      0.0000
 39      0.0000      0.0025      0.0093      0.0000      0.0000      0.0584      0.0000      0.0000      0.0000
 40      0.0000      0.0040      0.0000      0.0000      0.0000      0.0000      0.0000      0.0000      0.0000
 41      0.0000      0.0052      0.0000      0.0000      0.0000      0.0000      0.0000      0.0000      0.0000
 42      0.0000      0.0076      0.0000      0.0000      0.0000      0.0000      0.0614      0.0000      0.0117
 43      0.0000      0.0065      0.0000      0.0000      0.0000      0.0000      0.0000      0.0684      0.0362
 44      0.0000      0.0459      0.0048      0.0000      0.0130      0.0642      0.0000      0.0464      0.0000
 45      0.0118      0.7154      0.5040      0.6498      0.7061      0.7637      0.7914      0.7314      0.8579
 46      3.2524      2.7670      2.6105      2.6937      2.9811      2.6630      2.8506      2.7823      2.7379
 47     11.9511      9.4792     11.9142      9.9019      9.7557      9.6307      9.4100      9.6854      9.8428
 48      0.0000      0.1174      0.0285      0.2104      0.1389      0.2094      0.1837      0.0000      0.1481
 49      0.0000      0.0544      0.0322      0.1698      0.0000      0.0000      0.0584      0.0000      0.0000
 50      0.0000      0.0863      0.0162      0.0000      0.0000      0.1172      0.0000      0.1608      0.0653
 51      0.0000      0.0014      0.0000      0.0000      0.0000      0.0000      0.0000      0.0000      0.0000
 52      0.0000      0.0029      0.0000      0.0000      0.0000      0.0000      0.0000      0.0000      0.0000
 53      0.0000      0.0013      0.0000      0.0000      0.0000      0.0029      0.0271      0.0000      0.0000
 54      0.0000      0.0021      0.0210      0.0000      0.0000      0.0000      0.0000      0.0000      0.0212
 55      0.0000      0.0019      0.0089      0.0163      0.0000      0.0000      0.0000      0.0000      0.0000
 56      0.0000      0.0033      0.0035      0.0000      0.0008      0.0000      0.0000      0.0000      0.0174
 57      0.0000      0.0034      0.0030      0.0000      0.0000      0.0000      0.0000      0.0000      0.0179
 58      0.0000      0.0033      0.0000      0.0000      0.0487      0.0000      0.0000      0.0000      0.0000
 59      0.0000      0.0023      0.0000      0.0000      0.0049      0.0000      0.0000      0.0000      0.0000
 60      0.0000      0.0048      0.0006      0.0000      0.0000      0.0000      0.0000      0.0000      0.0055
 61      0.0000      0.0074      0.0000      0.0000      0.0030      0.0000      0.0000      0.0000      0.0000
 62      0.0000      0.0029      0.0021      0.0000      0.0000      0.0000      0.0000      0.0000      0.0031
 63      0.0000      0.0024      0.0017      0.0000      0.0006      0.0000      0.0000      0.0000      0.0000
 64      0.0000      0.0016      0.0000      0.0000      0.0000      0.0000      0.0000      0.0000      0.0000
 65      0.0000      0.0026      0.0000      0.0000      0.0000      0.0000      0.0147      0.0000      0.0000
 66      0.0000      0.0063      0.0000      0.0000      0.0000      0.0018      0.0000      0.0000      0.0000
 67      0.0000      0.0074      0.0000      0.0000      0.0058      0.0000      0.0000      0.0000      0.0595
 68      0.0000      0.0262      0.0000      0.1019      0.0000      0.0000      0.0000      0.0000      0.0000
 69      0.0000      0.0452      0.0000      0.1518      0.0000      0.0000      0.0000      0.0000      0.0000
 70      0.0000      0.0754      0.1331      0.1533      0.1300      0.0960      0.3665      0.0000      0.0000
 71      0.0000      0.1242      0.0106      0.0000      0.0459      0.0044      0.0848      0.0036      0.2343
 72      0.0000      0.1561      0.0000      0.1359      0.0773      0.0000      0.1032      0.0000      0.1790
 73      0.0000      0.0950      0.0000      0.0770      0.3300      0.0000      0.0000      0.0580      0.4034
 74      0.0000      0.1343      0.1153      0.0000      0.0102      0.1084      0.0777      0.0000      0.0000
 75      0.0000      0.0928      0.0000      0.0000      0.0371      0.0000      0.0238      0.0000      0.0000
 76      0.0000      0.0009      0.0000      0.0000      0.0000      0.0000      0.0000      0.0000      0.0000
 77      0.0000      0.0019      0.0000      0.0122      0.0000      0.0000      0.0000      0.0000      0.0000
 78      0.0000      0.0018      0.0000      0.0000      0.0000      0.0000      0.0000      0.0000      0.0000
 79      0.0000      0.0017      0.0000      0.0000      0.0000      0.0000      0.0000      0.0000      0.0000
 80      0.0000      0.0096      0.0000      0.0070      0.0000      0.0000      0.0605      0.0131      0.0000
 81      0.0000      0.0039      0.0000      0.0000      0.0000      0.0000      0.0097      0.0000      0.0000
 82      0.0000      0.0025      0.0000      0.0000      0.0000      0.0000      0.0194      0.0000      0.0000
 83      0.0000      0.0024      0.0000      0.0000      0.0000      0.0000      0.0050      0.0000      0.0000
 84      0.0000      0.0036      0.0000      0.0000      0.0000      0.0000      0.0000      0.0000      0.0000
 85      0.0000      0.0018      0.0061      0.0000      0.0000      0.0000      0.0000      0.0000      0.0000
 86      0.0000      0.0019      0.0000      0.0000      0.0000      0.0000      0.0000      0.0000      0.0000
 87      0.0000      0.0013      0.0207      0.0000      0.0000      0.0000      0.0000      0.0000      0.0000
 88      0.0000      0.0016      0.0019      0.0000      0.0000      0.0481      0.0000      0.0000      0.0000
 89      0.0000      0.0042      0.0075      0.0000      0.0000      0.0000      0.0000      0.0000      0.0000
 90      0.0000      0.0076      0.0000      0.0000      0.0677      0.0000      0.0000      0.0094      0.0000
 91      0.0000      0.0157      0.0000      0.0000      0.0418      0.0977      0.0159      0.0000      0.0000
 92      0.0000      0.0153      0.0134      0.0475      0.0548      0.0184      0.0000      0.0000      0.0000
 93      0.0000      0.0630      0.0121      0.0000      0.0000      0.0752      0.1387      0.0000      0.1961
 94     11.7103     15.3034     11.1790     15.0262     15.1731     15.0851     15.0254     15.5778     15.2110
 95     16.3727     13.1189     13.9624     13.0656     12.8646     13.0939     12.9716     13.0088     12.4518
 96     10.5742     12.1777     12.9460     12.2638     12.2086     11.8213     13.0409     11.8882     12.1899
 97      9.0981      7.2258      8.5800      7.3367      7.2211      7.7665      7.2623      7.0666      7.2202
 98     14.3796     15.1390     14.6162     15.0238     15.3222     15.4796     15.0462     16.0512     15.4601
 99      9.2529      8.3462      8.9477      8.5913      8.4185      8.5295      8.5977      8.2213      8.3636
100      5.2537      5.4189      5.2311      5.4997      5.5524      5.5157      5.2207      5.4417      5.6183
101      0.0000      0.0016      0.0000      0.0000      0.0000      0.0000      0.0000      0.0000      0.0000
102      0.0000      0.0056      0.0000      0.0000      0.0000      0.0000      0.0000      0.0000      0.0000
103      0.0000      0.0019      0.0000      0.0000      0.0000      0.0000      0.0000      0.0239      0.0000
104      0.0000      0.0010      0.0000      0.0000      0.0000      0.0000      0.0030      0.0000      0.0000
105      0.0000      0.0027      0.0000      0.0000      0.0369      0.0000      0.0000      0.0000      0.0000
106      0.0000      0.0021      0.0000      0.0000      0.0000      0.0018      0.0000      0.0000      0.0000
107      0.0000      0.0047      0.0000      0.0000      0.0000      0.0000      0.0000      0.0000      0.0000
108      0.0000      0.0031      0.0000      0.0000      0.0000      0.0000      0.0000      0.0000      0.0000
109      0.0000      0.0034      0.0000      0.0000      0.0000      0.0000      0.0000      0.0000      0.0000
110      0.0000      0.0026      0.0007      0.0000      0.0000      0.0000      0.0000      0.0000      0.0000
111      0.0000      0.0015      0.0000      0.0000      0.0000      0.0000      0.0000      0.0000      0.0000
112      0.0000      0.0014      0.0160      0.0000      0.0000      0.0000      0.0000      0.0033      0.0043
113      0.0000      0.0013      0.0255      0.0000      0.0000      0.0000      0.0000      0.0000      0.0000
114      0.0000      0.0039      0.0000      0.0000      0.0082      0.0000      0.0000      0.0079      0.0000
115      0.0000      0.0092      0.0245      0.0000      0.0000      0.0000      0.0000      0.0000      0.0000
116      0.0000      0.0371      0.0260      0.0837      0.0592      0.0124      0.1806      0.0622      0.1047
117      0.0000      0.0353      0.0000      0.0082      0.0000      0.0284      0.0651      0.0173      0.0000
118      0.0000      0.0664      0.0012      0.0750      0.0000      0.0000      0.0000      0.0000      0.0000
119      0.5071      0.8395      1.3278      0.7951      0.8580      0.8341      0.8042      0.8169      0.8085
120      4.0684      3.6541      3.5979      3.7058      3.7132      3.7041      3.4306      3.7453      3.6013
121      0.8454      0.8911      1.1276      0.6941      0.8818      0.8760      0.7688      0.9294      0.9141
122      0.2223      0.0762      0.1500      0.1273      0.0000      0.0440      0.0000      0.1978      0.0000
123      0.0000      0.0530      0.0432      0.0882      0.0757      0.0000      0.0299      0.0000      0.0000
124      0.0000      0.0762      0.0076      0.2319      0.0000      0.0000      0.1377      0.0000      0.0000
125      0.0000      0.0632      0.0624      0.0000      0.0370      0.0372      0.0793      0.0138      0.1934
126      0.0000      0.0024      0.0018      0.0000      0.0000      0.0116      0.0000      0.0000      0.0000
127      0.0000      0.0018      0.0079      0.0000      0.0000      0.0000      0.0000      0.0000      0.0000
128      0.0000      0.0009      0.0000      0.0072      0.0000      0.0000      0.0000      0.0000      0.0000
129      0.0000      0.0018      0.0024      0.0000      0.0000      0.0000      0.0000      0.0131      0.0000
130      0.0000      0.0027      0.0000      0.0000      0.0000      0.0000      0.0000      0.0000      0.0000
131      0.0000      0.0021      0.0010      0.0000      0.0185      0.0000      0.0088      0.0000      0.0000
132      0.0000      0.0064      0.0000      0.0000      0.0000      0.0000      0.0000      0.0000      0.0000
133      0.0000      0.0029      0.0013      0.0000      0.0000      0.0000      0.0000      0.0000      0.0000
134      0.0000      0.0019      0.0000      0.0000      0.0000      0.0000      0.0000      0.0019      0.0000
135      0.0000      0.0017      0.0000      0.0000      0.0000      0.0000      0.0000      0.0000      0.0225
136      0.0000      0.0011      0.0000      0.0000      0.0000      0.0000      0.0000      0.0000      0.0000
137      0.0000      0.0007      0.0000      0.0000      0.0000      0.0000      0.0000      0.0000      0.0000
138      0.0000      0.0022      0.0193      0.0000      0.0000      0.0000      0.0000      0.0000      0.0000
139      0.0000      0.0045      0.0000      0.0000      0.0000      0.0000      0.0000      0.0000      0.0000
140      0.0000      0.0207      0.0000      0.0000      0.0000      0.0000      0.0000      0.0000      0.1399
141      0.0000      0.0689      0.0000      0.0778      0.0821      0.0000      0.0000      0.0166      0.0725
142      0.0000      0.0770      0.0000      0.0341      0.1861      0.0000      0.0666      0.0610      0.0000
143      0.0000      0.0803      0.0000      0.0000      0.0000      0.0000      0.1924      0.0900      0.1670
144      0.0000      0.0240      0.0257      0.0118      0.0123      0.0000      0.0000      0.1042      0.0011
145      0.0000      0.0187      0.0198      0.0000      0.0802      0.1864      0.0270      0.0000      0.0000
146      0.0000      0.0095      0.0000      0.0305      0.0000      0.0000      0.0334      0.0000      0.0030
147      0.0000      0.0050      0.0000      0.0000      0.0000      0.0000      0.0000      0.0000      0.0000
148      0.0000      0.0027      0.0301      0.0000      0.0000      0.0000      0.0000      0.0000      0.0000
149      0.0000      0.0147      0.0000      0.0000      0.0000      0.0000      0.0000      0.0447      0.0000
150      0.0000      0.0093      0.0000      0.0021      0.0000      0.0000      0.0000      0.0022      0.0000

# j      m_j: min, <> & last-chain-values for 1 ...  7 chains
  1  0.0000E+00  1.8957E-05  0.0000E+00  1.9248E-04  0.0000E+00  1.6953E-04  1.2473E-04  6.7073E-05  0.0000E+00
  2  2.6890E-03  2.8494E-03  2.6819E-03  2.7246E-03  2.9178E-03  2.9072E-03  2.7589E-03  2.9692E-03  2.7081E-03
  3  0.0000E+00  2.1641E-04  0.0000E+00  2.3497E-04  1.3000E-04  2.3988E-04  0.0000E+00  2.3383E-04  3.3398E-04
  4  0.0000E+00  5.8430E-06  0.0000E+00  7.6573E-06  0.0000E+00  0.0000E+00  4.1241E-06  0.0000E+00  1.3122E-04
  5  0.0000E+00  2.0729E-05  1.0463E-05  0.0000E+00  0.0000E+00  0.0000E+00  0.0000E+00  0.0000E+00  0.0000E+00
  6  0.0000E+00  6.2716E-06  4.9414E-05  0.0000E+00  0.0000E+00  0.0000E+00  0.0000E+00  0.0000E+00  0.0000E+00
  7  0.0000E+00  8.0444E-06  0.0000E+00  0.0000E+00  0.0000E+00  0.0000E+00  0.0000E+00  0.0000E+00  0.0000E+00
  8  0.0000E+00  2.1597E-05  0.0000E+00  0.0000E+00  0.0000E+00  0.0000E+00  0.0000E+00  0.0000E+00  0.0000E+00
  9  0.0000E+00  2.7555E-05  1.4174E-05  0.0000E+00  0.0000E+00  0.0000E+00  2.6235E-04  0.0000E+00  0.0000E+00
 10  0.0000E+00  3.7213E-05  0.0000E+00  7.1801E-04  0.0000E+00  0.0000E+00  0.0000E+00  0.0000E+00  0.0000E+00
 11  0.0000E+00  2.7148E-05  3.2213E-06  0.0000E+00  0.0000E+00  0.0000E+00  0.0000E+00  0.0000E+00  0.0000E+00
 12  0.0000E+00  3.6046E-05  0.0000E+00  0.0000E+00  0.0000E+00  0.0000E+00  0.0000E+00  0.0000E+00  0.0000E+00
 13  0.0000E+00  3.6493E-05  0.0000E+00  0.0000E+00  1.8517E-05  0.0000E+00  0.0000E+00  0.0000E+00  0.0000E+00
 14  0.0000E+00  4.6178E-05  0.0000E+00  0.0000E+00  0.0000E+00  0.0000E+00  0.0000E+00  0.0000E+00  0.0000E+00
 15  0.0000E+00  1.1055E-04  0.0000E+00  0.0000E+00  1.6393E-04  0.0000E+00  0.0000E+00  0.0000E+00  0.0000E+00
 16  0.0000E+00  3.4800E-04  1.8685E-03  0.0000E+00  0.0000E+00  0.0000E+00  0.0000E+00  0.0000E+00  0.0000E+00
 17  0.0000E+00  3.0515E-04  0.0000E+00  0.0000E+00  0.0000E+00  0.0000E+00  0.0000E+00  0.0000E+00  0.0000E+00
 18  0.0000E+00  1.1650E-03  0.0000E+00  1.1631E-03  0.0000E+00  0.0000E+00  0.0000E+00  0.0000E+00  0.0000E+00
 19  0.0000E+00  5.8773E-03  6.9650E-04  0.0000E+00  0.0000E+00  2.9738E-03  0.0000E+00  4.3046E-03  0.0000E+00
 20  0.0000E+00  5.2672E-03  0.0000E+00  0.0000E+00  1.3200E-02  4.0358E-02  0.0000E+00  1.4032E-02  9.2648E-04
 21  0.0000E+00  7.0005E-03  8.5866E-05  0.0000E+00  0.0000E+00  0.0000E+00  0.0000E+00  0.0000E+00  0.0000E+00
 22  0.0000E+00  8.9955E-03  0.0000E+00  3.8546E-02  0.0000E+00  5.4454E-02  0.0000E+00  0.0000E+00  1.9328E-02
 23  0.0000E+00  1.5097E-02  0.0000E+00  0.0000E+00  0.0000E+00  1.6441E-02  9.4456E-02  6.9907E-02  0.0000E+00
 24  0.0000E+00  1.3276E-02  0.0000E+00  0.0000E+00  2.6169E-02  4.1678E-03  1.0071E-02  6.6981E-02  9.2516E-03
 25  0.0000E+00  3.2531E-02  1.0356E-02  1.4465E-01  1.2613E-02  0.0000E+00  2.9076E-02  0.0000E+00  0.0000E+00
 26  0.0000E+00  5.4200E-06  0.0000E+00  0.0000E+00  0.0000E+00  0.0000E+00  0.0000E+00  0.0000E+00  0.0000E+00
 27  0.0000E+00  1.8751E-06  0.0000E+00  0.0000E+00  0.0000E+00  0.0000E+00  0.0000E+00  0.0000E+00  0.0000E+00
 28  0.0000E+00  4.5683E-06  1.2678E-05  0.0000E+00  1.8531E-06  0.0000E+00  0.0000E+00  0.0000E+00  0.0000E+00
 29  0.0000E+00  1.2611E-05  0.0000E+00  0.0000E+00  0.0000E+00  0.0000E+00  0.0000E+00  0.0000E+00  0.0000E+00
 30  0.0000E+00  1.1679E-05  0.0000E+00  0.0000E+00  0.0000E+00  4.1566E-05  2.2111E-04  0.0000E+00  0.0000E+00
 31  0.0000E+00  7.9709E-06  0.0000E+00  0.0000E+00  0.0000E+00  0.0000E+00  0.0000E+00  0.0000E+00  0.0000E+00
 32  0.0000E+00  1.3019E-05  0.0000E+00  0.0000E+00  0.0000E+00  0.0000E+00  0.0000E+00  0.0000E+00  0.0000E+00
 33  0.0000E+00  2.0038E-05  6.6877E-05  1.6312E-05  0.0000E+00  0.0000E+00  0.0000E+00  0.0000E+00  0.0000E+00
 34  0.0000E+00  3.4287E-05  2.0971E-05  0.0000E+00  0.0000E+00  0.0000E+00  0.0000E+00  0.0000E+00  0.0000E+00
 35  0.0000E+00  2.1635E-05  0.0000E+00  0.0000E+00  0.0000E+00  0.0000E+00  7.9974E-05  0.0000E+00  0.0000E+00
 36  0.0000E+00  3.8396E-05  0.0000E+00  0.0000E+00  0.0000E+00  0.0000E+00  0.0000E+00  0.0000E+00  0.0000E+00
 37  0.0000E+00  4.6101E-05  0.0000E+00  3.8715E-04  0.0000E+00  1.3438E-05  0.0000E+00  0.0000E+00  0.0000E+00
 38  0.0000E+00  3.6464E-05  1.5155E-04  0.0000E+00  0.0000E+00  0.0000E+00  0.0000E+00  0.0000E+00  0.0000E+00
 39  0.0000E+00  9.2759E-05  3.3450E-04  0.0000E+00  0.0000E+00  2.1254E-03  0.0000E+00  0.0000E+00  0.0000E+00
 40  0.0000E+00  2.5888E-04  0.0000E+00  0.0000E+00  0.0000E+00  0.0000E+00  0.0000E+00  0.0000E+00  0.0000E+00
 41  0.0000E+00  4.5157E-04  0.0000E+00  0.0000E+00  0.0000E+00  0.0000E+00  0.0000E+00  0.0000E+00  0.0000E+00
 42  0.0000E+00  7.3175E-04  0.0000E+00  0.0000E+00  0.0000E+00  0.0000E+00  5.9322E-03  0.0000E+00  1.1239E-03
 43  0.0000E+00  1.0164E-03  0.0000E+00  0.0000E+00  0.0000E+00  0.0000E+00  0.0000E+00  1.0703E-02  5.6616E-03
 44  0.0000E+00  1.1389E-02  1.1852E-03  0.0000E+00  3.2179E-03  1.5851E-02  0.0000E+00  1.1484E-02  0.0000E+00
 45  4.0347E-03  2.4728E-01  1.7193E-01  2.2382E-01  2.4405E-01  2.6296E-01  2.7400E-01  2.5217E-01  2.9563E-01
 46  1.3254E+00  1.1393E+00  1.0609E+00  1.1053E+00  1.2274E+00  1.0923E+00  1.1757E+00  1.1428E+00  1.1239E+00
 47  6.3833E+00  5.1156E+00  6.3460E+00  5.3251E+00  5.2646E+00  5.1774E+00  5.0866E+00  5.2137E+00  5.2955E+00
 48  0.0000E+00  7.5475E-02  1.8074E-02  1.3474E-01  8.9273E-02  1.3408E-01  1.1824E-01  0.0000E+00  9.4893E-02
 49  0.0000E+00  3.9094E-02  2.2834E-02  1.2162E-01  0.0000E+00  0.0000E+00  4.2037E-02  0.0000E+00  0.0000E+00
 50  0.0000E+00  7.2958E-02  1.3481E-02  0.0000E+00  0.0000E+00  9.8711E-02  0.0000E+00  1.3559E-01  5.5075E-02
 51  0.0000E+00  5.3702E-06  0.0000E+00  0.0000E+00  0.0000E+00  0.0000E+00  0.0000E+00  0.0000E+00  0.0000E+00
 52  0.0000E+00  3.1043E-06  0.0000E+00  0.0000E+00  0.0000E+00  0.0000E+00  0.0000E+00  0.0000E+00  0.0000E+00
 53  0.0000E+00  2.0757E-06  0.0000E+00  0.0000E+00  0.0000E+00  4.7312E-06  4.4050E-05  0.0000E+00  0.0000E+00
 54  0.0000E+00  3.2396E-06  3.2068E-05  0.0000E+00  0.0000E+00  0.0000E+00  0.0000E+00  0.0000E+00  3.2676E-05
 55  0.0000E+00  4.2555E-06  1.9969E-05  3.6988E-05  0.0000E+00  0.0000E+00  0.0000E+00  0.0000E+00  0.0000E+00
 56  0.0000E+00  9.8916E-06  1.0470E-05  0.0000E+00  2.2904E-06  0.0000E+00  0.0000E+00  0.0000E+00  5.2529E-05
 57  0.0000E+00  1.6493E-05  1.4135E-05  0.0000E+00  0.0000E+00  0.0000E+00  0.0000E+00  0.0000E+00  8.6434E-05
 58  0.0000E+00  2.2844E-05  0.0000E+00  0.0000E+00  3.3982E-04  0.0000E+00  0.0000E+00  0.0000E+00  0.0000E+00
 59  0.0000E+00  2.2452E-05  0.0000E+00  0.0000E+00  4.7712E-05  0.0000E+00  0.0000E+00  0.0000E+00  0.0000E+00
 60  0.0000E+00  5.1728E-05  6.4226E-06  0.0000E+00  0.0000E+00  0.0000E+00  0.0000E+00  0.0000E+00  5.9634E-05
 61  0.0000E+00  1.0169E-04  0.0000E+00  0.0000E+00  4.1052E-05  0.0000E+00  0.0000E+00  0.0000E+00  0.0000E+00
 62  0.0000E+00  5.0646E-05  3.6415E-05  0.0000E+00  0.0000E+00  0.0000E+00  0.0000E+00  0.0000E+00  5.4044E-05
 63  0.0000E+00  6.4573E-05  4.3494E-05  0.0000E+00  1.6387E-05  0.0000E+00  0.0000E+00  0.0000E+00  0.0000E+00
 64  0.0000E+00  7.0336E-05  0.0000E+00  0.0000E+00  0.0000E+00  0.0000E+00  0.0000E+00  0.0000E+00  0.0000E+00
 65  0.0000E+00  1.9111E-04  0.0000E+00  0.0000E+00  0.0000E+00  0.0000E+00  1.0853E-03  0.0000E+00  0.0000E+00
 66  0.0000E+00  5.9691E-04  0.0000E+00  0.0000E+00  0.0000E+00  1.6720E-04  0.0000E+00  0.0000E+00  0.0000E+00
 67  0.0000E+00  9.6106E-04  0.0000E+00  0.0000E+00  7.5004E-04  0.0000E+00  0.0000E+00  0.0000E+00  7.6870E-03
 68  0.0000E+00  6.3042E-03  0.0000E+00  2.4473E-02  0.0000E+00  0.0000E+00  0.0000E+00  0.0000E+00  0.0000E+00
 69  0.0000E+00  1.8800E-02  0.0000E+00  6.2886E-02  0.0000E+00  0.0000E+00  0.0000E+00  0.0000E+00  0.0000E+00
 70  0.0000E+00  4.3620E-02  7.5979E-02  8.8404E-02  7.5191E-02  5.5340E-02  2.1237E-01  0.0000E+00  0.0000E+00
 71  0.0000E+00  8.4768E-02  7.1109E-03  0.0000E+00  3.1361E-02  2.9792E-03  5.7991E-02  2.4398E-03  1.5942E-01
 72  0.0000E+00  1.4030E-01  0.0000E+00  1.2171E-01  6.9490E-02  0.0000E+00  9.2851E-02  0.0000E+00  1.6039E-01
 73  0.0000E+00  1.0773E-01  0.0000E+00  8.7031E-02  3.7411E-01  0.0000E+00  0.0000E+00  6.5574E-02  4.5586E-01
 74  0.0000E+00  1.6979E-01  1.4398E-01  0.0000E+00  1.2856E-02  1.3654E-01  9.8438E-02  0.0000E+00  0.0000E+00
 75  0.0000E+00  1.3495E-01  0.0000E+00  0.0000E+00  5.3917E-02  0.0000E+00  3.4739E-02  0.0000E+00  0.0000E+00
 76  0.0000E+00  3.0955E-06  0.0000E+00  0.0000E+00  0.0000E+00  0.0000E+00  0.0000E+00  0.0000E+00  0.0000E+00
 77  0.0000E+00  2.5463E-06  0.0000E+00  1.6644E-05  0.0000E+00  0.0000E+00  0.0000E+00  0.0000E+00  0.0000E+00
 78  0.0000E+00  2.7969E-06  0.0000E+00  0.0000E+00  0.0000E+00  0.0000E+00  0.0000E+00  0.0000E+00  0.0000E+00
 79  0.0000E+00  3.0777E-06  0.0000E+00  0.0000E+00  0.0000E+00  0.0000E+00  0.0000E+00  0.0000E+00  0.0000E+00
 80  0.0000E+00  2.2868E-05  0.0000E+00  1.6612E-05  0.0000E+00  0.0000E+00  1.4434E-04  3.1035E-05  0.0000E+00
 81  0.0000E+00  1.2177E-05  0.0000E+00  0.0000E+00  0.0000E+00  0.0000E+00  3.0720E-05  0.0000E+00  0.0000E+00
 82  0.0000E+00  1.0463E-05  0.0000E+00  0.0000E+00  0.0000E+00  0.0000E+00  8.2340E-05  0.0000E+00  0.0000E+00
 83  0.0000E+00  1.4982E-05  0.0000E+00  0.0000E+00  0.0000E+00  0.0000E+00  3.1441E-05  0.0000E+00  0.0000E+00
 84  0.0000E+00  3.1337E-05  0.0000E+00  0.0000E+00  0.0000E+00  0.0000E+00  0.0000E+00  0.0000E+00  0.0000E+00
 85  0.0000E+00  1.8780E-05  6.2748E-05  0.0000E+00  0.0000E+00  0.0000E+00  0.0000E+00  0.0000E+00  0.0000E+00
 86  0.0000E+00  2.7431E-05  0.0000E+00  0.0000E+00  0.0000E+00  0.0000E+00  0.0000E+00  0.0000E+00  0.0000E+00
 87  0.0000E+00  2.4758E-05  3.8682E-04  0.0000E+00  0.0000E+00  0.0000E+00  0.0000E+00  0.0000E+00  0.0000E+00
 88  0.0000E+00  4.6893E-05  5.2932E-05  0.0000E+00  0.0000E+00  1.3800E-03  0.0000E+00  0.0000E+00  0.0000E+00
 89  0.0000E+00  2.0347E-04  3.5391E-04  0.0000E+00  0.0000E+00  0.0000E+00  0.0000E+00  0.0000E+00  0.0000E+00
 90  0.0000E+00  6.7234E-04  0.0000E+00  0.0000E+00  6.0013E-03  0.0000E+00  0.0000E+00  8.3158E-04  0.0000E+00
 91  0.0000E+00  1.7906E-03  0.0000E+00  0.0000E+00  4.7663E-03  1.1107E-02  1.8213E-03  0.0000E+00  0.0000E+00
 92  0.0000E+00  2.3323E-03  2.0192E-03  7.2153E-03  8.3513E-03  2.8002E-03  0.0000E+00  0.0000E+00  0.0000E+00
 93  0.0000E+00  1.9497E-02  3.7057E-03  0.0000E+00  0.0000E+00  2.3198E-02  4.3009E-02  0.0000E+00  6.0511E-02
 94  6.4349E+00  8.4967E+00  6.1260E+00  8.3138E+00  8.4241E+00  8.3433E+00  8.3561E+00  8.6273E+00  8.4195E+00
 95  1.2121E+01  9.8126E+00  1.0308E+01  9.7388E+00  9.6222E+00  9.7563E+00  9.7185E+00  9.7059E+00  9.2851E+00
 96  9.4443E+00  1.0990E+01  1.1531E+01  1.1029E+01  1.1017E+01  1.0627E+01  1.1788E+01  1.0701E+01  1.0967E+01
 97  1.0588E+01  8.4966E+00  9.9577E+00  8.5969E+00  8.4908E+00  9.0972E+00  8.5536E+00  8.2885E+00  8.4639E+00
 98  2.1461E+01  2.2829E+01  2.1754E+01  2.2576E+01  2.3104E+01  2.3253E+01  2.2726E+01  2.4143E+01  2.3241E+01
 99  1.5742E+01  1.4347E+01  1.5180E+01  1.4716E+01  1.4470E+01  1.4605E+01  1.4803E+01  1.4096E+01  1.4332E+01
100  1.0290E+01  1.0724E+01  1.0218E+01  1.0846E+01  1.0988E+01  1.0874E+01  1.0349E+01  1.0742E+01  1.1085E+01
101  0.0000E+00  3.4704E-06  0.0000E+00  0.0000E+00  0.0000E+00  0.0000E+00  0.0000E+00  0.0000E+00  0.0000E+00
102  0.0000E+00  6.3819E-06  0.0000E+00  0.0000E+00  0.0000E+00  0.0000E+00  0.0000E+00  0.0000E+00  0.0000E+00
103  0.0000E+00  2.4409E-06  0.0000E+00  0.0000E+00  0.0000E+00  0.0000E+00  0.0000E+00  2.9903E-05  0.0000E+00
104  0.0000E+00  1.6106E-06  0.0000E+00  0.0000E+00  0.0000E+00  0.0000E+00  4.8959E-06  0.0000E+00  0.0000E+00
105  0.0000E+00  9.4365E-06  0.0000E+00  0.0000E+00  1.2868E-04  0.0000E+00  0.0000E+00  0.0000E+00  0.0000E+00
106  0.0000E+00  7.8853E-06  0.0000E+00  0.0000E+00  0.0000E+00  6.8920E-06  0.0000E+00  0.0000E+00  0.0000E+00
107  0.0000E+00  2.3418E-05  0.0000E+00  0.0000E+00  0.0000E+00  0.0000E+00  0.0000E+00  0.0000E+00  0.0000E+00
108  0.0000E+00  2.6115E-05  0.0000E+00  0.0000E+00  0.0000E+00  0.0000E+00  0.0000E+00  0.0000E+00  0.0000E+00
109  0.0000E+00  3.3954E-05  0.0000E+00  0.0000E+00  0.0000E+00  0.0000E+00  0.0000E+00  0.0000E+00  0.0000E+00
110  0.0000E+00  3.0641E-05  7.8331E-06  0.0000E+00  0.0000E+00  0.0000E+00  0.0000E+00  0.0000E+00  0.0000E+00
111  0.0000E+00  2.5113E-05  0.0000E+00  0.0000E+00  0.0000E+00  0.0000E+00  0.0000E+00  0.0000E+00  0.0000E+00
112  0.0000E+00  3.0264E-05  3.4650E-04  0.0000E+00  0.0000E+00  0.0000E+00  0.0000E+00  7.1827E-05  9.4514E-05
113  0.0000E+00  4.3457E-05  8.2465E-04  0.0000E+00  0.0000E+00  0.0000E+00  0.0000E+00  0.0000E+00  0.0000E+00
114  0.0000E+00  2.2538E-04  0.0000E+00  0.0000E+00  4.7364E-04  0.0000E+00  0.0000E+00  4.5447E-04  0.0000E+00
115  0.0000E+00  1.0561E-03  2.7827E-03  0.0000E+00  0.0000E+00  0.0000E+00  0.0000E+00  0.0000E+00  0.0000E+00
116  0.0000E+00  6.8752E-03  4.7478E-03  1.5444E-02  1.0966E-02  2.2937E-03  3.3493E-02  1.1491E-02  1.9320E-02
117  0.0000E+00  7.6788E-03  0.0000E+00  1.7702E-03  0.0000E+00  6.1441E-03  1.4196E-02  3.7467E-03  0.0000E+00
118  0.0000E+00  2.9332E-02  5.3317E-04  3.3005E-02  0.0000E+00  0.0000E+00  0.0000E+00  0.0000E+00  0.0000E+00
119  3.8294E-01  6.4052E-01  9.9995E-01  6.0453E-01  6.5466E-01  6.3394E-01  6.1462E-01  6.2174E-01  6.1501E-01
120  4.3750E+00  3.9703E+00  3.8584E+00  4.0125E+00  4.0344E+00  4.0092E+00  3.7337E+00  4.0591E+00  3.9009E+00
121  1.0696E+00  1.1391E+00  1.4227E+00  8.8417E-01  1.1273E+00  1.1155E+00  9.8445E-01  1.1851E+00  1.1649E+00
122  3.7636E-01  1.3035E-01  2.5318E-01  2.1700E-01  0.0000E+00  7.4936E-02  0.0000E+00  3.3743E-01  0.0000E+00
123  0.0000E+00  1.1964E-01  9.6205E-02  1.9819E-01  1.7068E-01  0.0000E+00  6.7541E-02  0.0000E+00  0.0000E+00
124  0.0000E+00  1.9745E-01  1.9549E-02  5.9869E-01  0.0000E+00  0.0000E+00  3.5742E-01  0.0000E+00  0.0000E+00
125  0.0000E+00  1.9583E-01  1.9085E-01  0.0000E+00  1.1464E-01  1.1485E-01  2.4617E-01  4.2784E-02  5.9793E-01
126  0.0000E+00  3.9365E-06  2.8346E-06  0.0000E+00  0.0000E+00  1.8843E-05  0.0000E+00  0.0000E+00  0.0000E+00
127  0.0000E+00  1.5144E-06  6.6755E-06  0.0000E+00  0.0000E+00  0.0000E+00  0.0000E+00  0.0000E+00  0.0000E+00
128  0.0000E+00  1.1266E-06  0.0000E+00  9.1080E-06  0.0000E+00  0.0000E+00  0.0000E+00  0.0000E+00  0.0000E+00
129  0.0000E+00  4.6049E-06  6.1905E-06  0.0000E+00  0.0000E+00  0.0000E+00  0.0000E+00  3.4206E-05  0.0000E+00
130  0.0000E+00  9.5204E-06  0.0000E+00  0.0000E+00  0.0000E+00  0.0000E+00  0.0000E+00  0.0000E+00  0.0000E+00
131  0.0000E+00  8.6226E-06  4.2635E-06  0.0000E+00  7.6310E-05  0.0000E+00  3.6517E-05  0.0000E+00  0.0000E+00
132  0.0000E+00  3.5638E-05  0.0000E+00  0.0000E+00  0.0000E+00  0.0000E+00  0.0000E+00  0.0000E+00  0.0000E+00
133  0.0000E+00  2.3265E-05  1.0089E-05  0.0000E+00  0.0000E+00  0.0000E+00  0.0000E+00  0.0000E+00  0.0000E+00
134  0.0000E+00  1.9462E-05  0.0000E+00  0.0000E+00  0.0000E+00  0.0000E+00  0.0000E+00  1.9667E-05  0.0000E+00
135  0.0000E+00  2.1603E-05  0.0000E+00  0.0000E+00  0.0000E+00  0.0000E+00  0.0000E+00  0.0000E+00  2.7891E-04
136  0.0000E+00  2.0098E-05  0.0000E+00  0.0000E+00  0.0000E+00  0.0000E+00  0.0000E+00  0.0000E+00  0.0000E+00
137  0.0000E+00  1.7162E-05  0.0000E+00  0.0000E+00  0.0000E+00  0.0000E+00  0.0000E+00  0.0000E+00  0.0000E+00
138  0.0000E+00  9.0141E-05  7.7399E-04  0.0000E+00  0.0000E+00  0.0000E+00  0.0000E+00  0.0000E+00  0.0000E+00
139  0.0000E+00  3.4788E-04  0.0000E+00  0.0000E+00  0.0000E+00  0.0000E+00  0.0000E+00  0.0000E+00  0.0000E+00
140  0.0000E+00  3.6810E-03  0.0000E+00  0.0000E+00  0.0000E+00  0.0000E+00  0.0000E+00  0.0000E+00  2.4786E-02
141  0.0000E+00  1.8747E-02  0.0000E+00  2.1087E-02  2.2329E-02  0.0000E+00  0.0000E+00  4.4940E-03  1.9673E-02
142  0.0000E+00  2.4932E-02  0.0000E+00  1.1013E-02  6.0227E-02  0.0000E+00  2.1578E-02  1.9686E-02  0.0000E+00
143  0.0000E+00  5.1679E-02  0.0000E+00  0.0000E+00  0.0000E+00  0.0000E+00  1.2403E-01  5.7795E-02  1.0713E-01
144  0.0000E+00  3.0332E-02  3.2070E-02  1.4829E-02  1.5488E-02  0.0000E+00  0.0000E+00  1.3137E-01  1.3759E-03
145  0.0000E+00  3.5207E-02  3.6789E-02  0.0000E+00  1.5084E-01  3.4926E-01  5.0958E-02  0.0000E+00  0.0000E+00
146  0.0000E+00  2.1451E-02  0.0000E+00  6.8208E-02  0.0000E+00  0.0000E+00  7.5234E-02  0.0000E+00  6.6177E-03
147  0.0000E+00  1.4986E-02  0.0000E+00  0.0000E+00  0.0000E+00  0.0000E+00  0.0000E+00  0.0000E+00  0.0000E+00
148  0.0000E+00  1.1228E-02  1.2152E-01  0.0000E+00  0.0000E+00  0.0000E+00  0.0000E+00  0.0000E+00  0.0000E+00
149  0.0000E+00  7.0211E-02  0.0000E+00  0.0000E+00  0.0000E+00  0.0000E+00  0.0000E+00  2.1362E-01  0.0000E+00
150  0.0000E+00  5.3287E-02  0.0000E+00  1.1799E-02  0.0000E+00  0.0000E+00  0.0000E+00  1.2395E-02  0.0000E+00

# AV, chi2 & Mass for <> & i_chain = 1 ...  7 solutions
AV      -0.0889     -0.0829     -0.0892     -0.0832     -0.0829     -0.0839     -0.0829     -0.0840     -0.0836
chi2 3.2039E+00  3.4843E+00  3.2365E+00  3.4052E+00  3.4137E+00  3.4307E+00  3.4507E+00  3.4305E+00  3.4011E+00
Mass 4.2444E-09  4.2344E-09  4.2546E-09  4.2479E-09  4.2348E-09  4.2454E-09  4.2274E-09  4.2391E-09  4.2436E-09
 -26.92                                  [v0_min (km/s) before EX0s...]
  46.14                                  [vd_min (km/s) before EX0s...]


## Synthetic spectrum (Best Model) ##l_obs f_obs f_syn wei
 3070    [Nl_obs]
 3359.00    0.00000   0.39669   -2.000
 3360.00    0.19989   0.36373   -1.000
 3361.00    0.20809   0.37394   -1.000
 3362.00    0.23330   0.41815   -1.000
 3363.00    0.26553   0.47171   -1.000
 3364.00    0.28286   0.50518   -1.000
 3365.00    0.28778   0.50586   -1.000
 3366.00    0.28261   0.48283   -1.000
 3367.00    0.27537   0.45349   -1.000
 3368.00    0.26525   0.42867   -1.000
 3369.00    0.24879   0.41103   -1.000
 3370.00    0.24187   0.39615   -1.000
 3371.00    0.24291   0.38907   -1.000
 3372.00    0.25292   0.39851   -1.000
 3373.00    0.26371   0.42809   -1.000
 3374.00    0.28543   0.47138   -1.000
 3375.00    0.30499   0.51418   -1.000
 3376.00    0.32796   0.53623   -1.000
 3377.00    0.34438   0.52522   -1.000
 3378.00    0.33305   0.49003   -1.000
 3379.00    0.31552   0.45722   -1.000
 3380.00    0.31590   0.44485   -1.000
 3381.00    0.31814   0.45594   -1.000
 3382.00    0.33073   0.47831   -1.000
 3383.00    0.33280   0.49821   -1.000
 3384.00    0.33883   0.51405   -1.000
 3385.00    0.35699   0.52514   -1.000
 3386.00    0.35483   0.52527   -1.000
 3387.00    0.35190   0.52017   -1.000
 3388.00    0.35981   0.51971   -1.000
 3389.00    0.36610   0.52341   -1.000
 3390.00    0.37435   0.52059   -1.000
 3391.00    0.36974   0.50307   -1.000
 3392.00    0.36615   0.47937   -1.000
 3393.00    0.36430   0.47127   -1.000
 3394.00    0.37632   0.48682   -1.000
 3395.00    0.39374   0.51783   -1.000
 3396.00    0.41725   0.54983   -1.000
 3397.00    0.42954   0.57694   -1.000
 3398.00    0.44329   0.59660   -1.000
 3399.00    0.46064   0.60251   -1.000
 3400.00    0.46659   0.59468   -1.000
 3401.00    0.46221   0.57688   -1.000
 3402.00    0.44237   0.55387   -1.000
 3403.00    0.43813   0.53570   -1.000
 3404.00    0.43049   0.52456   -1.000
 3405.00    0.42276   0.51744   -1.000
 3406.00    0.41601   0.50966   -1.000
 3407.00    0.41421   0.50196   -1.000
 3408.00    0.40754   0.50008   -1.000
 3409.00    0.40543   0.50797   -1.000
 3410.00    0.40807   0.51884   -1.000
 3411.00    0.42108   0.51682   -1.000
 3412.00    0.42419   0.49798   -1.000
 3413.00    0.40604   0.47438   -1.000
 3414.00    0.39893   0.46438   -1.000
 3415.00    0.40001   0.47612   -1.000
 3416.00    0.41043   0.50151   -1.000
 3417.00    0.42906   0.53213   -1.000
 3418.00    0.45042   0.56052   -1.000
 3419.00    0.47444   0.58166   -1.000
 3420.00    0.47594   0.58593   -1.000
 3421.00    0.47930   0.56884   -1.000
 3422.00    0.47624   0.54193   -1.000
 3423.00    0.46240   0.52672   -1.000
 3424.00    0.45223   0.52773   -1.000
 3425.00    0.46605   0.53478   -1.000
 3426.00    0.47864   0.54161   -1.000
 3427.00    0.48103   0.55489   -1.000
 3428.00    0.49194   0.58021   -1.000
 3429.00    0.50623   0.60454   -1.000
 3430.00    0.51523   0.60480   -1.000
 3431.00    0.50856   0.57956   -1.000
 3432.00    0.49125   0.54997   -1.000
 3433.00    0.47903   0.53965   -1.000
 3434.00    0.48240   0.55210   -1.000
 3435.00    0.49363   0.56476   -1.000
 3436.00    0.49641   0.55959   -1.000
 3437.00    0.48251   0.53723   -1.000
 3438.00    0.46066   0.50214   -1.000
 3439.00    0.43439   0.45858   -1.000
 3440.00    0.40216   0.41882   -1.000
 3441.00    0.38678   0.39502  258.546
 3442.00    0.38632   0.39354  258.856
 3443.00    0.38800   0.40904   -1.000
 3444.00    0.40424   0.43166   -1.000
 3445.00    0.42776   0.45723   -1.000
 3446.00    0.45284   0.48683   -1.000
 3447.00    0.46903   0.51803   -1.000
 3448.00    0.49759   0.54797   -1.000
 3449.00    0.51887   0.56890   -1.000
 3450.00    0.52163   0.56738   -1.000
 3451.00    0.51696   0.54654   -1.000
 3452.00    0.49678   0.52941   -1.000
 3453.00    0.48858   0.52897   -1.000
 3454.00    0.49506   0.54054   -1.000
 3455.00    0.50981   0.54729   -1.000
 3456.00    0.51816   0.53743   -1.000
 3457.00    0.51583   0.51457 1654.190
 3458.00    0.50209   0.48990   -1.000
 3459.00    0.48108   0.47197  207.867
 3460.00    0.47459   0.46321  210.710
 3461.00    0.47789   0.47137  209.254
 3462.00    0.49516   0.49698 1654.190
 3463.00    0.51304   0.52286   -1.000
 3464.00    0.52817   0.52942 1654.190
 3465.00    0.53288   0.52219   -1.000
 3466.00    0.52659   0.52078   -1.000
 3467.00    0.53277   0.53503   -1.000
 3468.00    0.55306   0.55928   -1.000
 3469.00    0.56537   0.57769   -1.000
 3470.00    0.56924   0.57821   -1.000
 3471.00    0.56381   0.55985   -1.000
 3472.00    0.54495   0.52814   -1.000
 3473.00    0.51829   0.48981   -1.000
 3474.00    0.50257   0.45538   -1.000
 3475.00    0.47710   0.43640   -1.000
 3476.00    0.45963   0.44433   -1.000
 3477.00    0.47028   0.47423  212.639
 3478.00    0.50743   0.50870 1654.190
 3479.00    0.54362   0.53470   -1.000
 3480.00    0.56107   0.54666   -1.000
 3481.00    0.56436   0.54308   -1.000
 3482.00    0.56299   0.52980   -1.000
 3483.00    0.55534   0.51811   -1.000
 3484.00    0.54899   0.52092   -1.000
 3485.00    0.56167   0.54224   -1.000
 3486.00    0.58037   0.56483   -1.000
 3487.00    0.59299   0.56687   -1.000
 3488.00    0.57972   0.54195   -1.000
 3489.00    0.54520   0.50593   -1.000
 3490.00    0.51586   0.48126   -1.000
 3491.00    0.49939   0.47816   -1.000
 3492.00    0.51026   0.48950   -1.000
 3493.00    0.51607   0.50149   -1.000
 3494.00    0.52383   0.50345   -1.000
 3495.00    0.52626   0.49286   -1.000
 3496.00    0.51542   0.48447   -1.000
 3497.00    0.51229   0.49714   -1.000
 3498.00    0.53081   0.53001 1654.190
 3499.00    0.57291   0.56254   -1.000
 3500.00    0.60195   0.57981   -1.000
 3501.00    0.60932   0.59001   -1.000
 3502.00    0.61668   0.59941   -1.000
 3503.00    0.62116   0.60068   -1.000
 3504.00    0.60354   0.58951   -1.000
 3505.00    0.59619   0.57216   -1.000
 3506.00    0.58416   0.56041   -1.000
 3507.00    0.59214   0.55899   -1.000
 3508.00    0.59880   0.55677   -1.000
 3509.00    0.59131   0.54631   -1.000
 3510.00    0.56903   0.53235   -1.000
 3511.00    0.55762   0.51726   -1.000
 3512.00    0.55210   0.49998   -1.000
 3513.00    0.53160   0.48574   -1.000
 3514.00    0.51921   0.48992   -1.000
 3515.00    0.53317   0.52283   -1.000
 3516.00    0.56306   0.56962   -1.000
 3517.00    0.59911   0.60216   -1.000
 3518.00    0.60821   0.60366   -1.000
 3519.00    0.58943   0.57789   -1.000
 3520.00    0.56850   0.54446   -1.000
 3521.00    0.54497   0.51494   -1.000
 3522.00    0.52389   0.49053   -1.000
 3523.00    0.49774   0.46522   -1.000
 3524.00    0.48128   0.44186   -1.000
 3525.00    0.46441   0.43583   -1.000
 3526.00    0.46769   0.45849  213.817
 3527.00    0.49932   0.50156   -1.000
 3528.00    0.54001   0.54666   -1.000
 3529.00    0.57071   0.57391   -1.000
 3530.00    0.57958   0.57811 1654.190
 3531.00    0.56721   0.56839 1654.190
 3532.00    0.56370   0.56301 1654.190
 3533.00    0.57016   0.56947 1654.190
 3534.00    0.57993   0.58158 1654.190
 3535.00    0.59259   0.59122 1654.190
 3536.00    0.60183   0.59885   -1.000
 3537.00    0.59819   0.61121   -1.000
 3538.00    0.60495   0.62612   -1.000
 3539.00    0.61286   0.63136   -1.000
 3540.00    0.60737   0.62292   -1.000
 3541.00    0.59588   0.61147   -1.000
 3542.00    0.59090   0.61102   -1.000
 3543.00    0.59483   0.62200   -1.000
 3544.00    0.60409   0.63188   -1.000
 3545.00    0.60582   0.63179   -1.000
 3546.00    0.59455   0.62281   -1.000
 3547.00    0.58112   0.61430   -1.000
 3548.00    0.57901   0.61354   -1.000
 3549.00    0.58031   0.61827   -1.000
 3550.00    0.58451   0.61894   -1.000
 3551.00    0.57636   0.60785   -1.000
 3552.00    0.55871   0.58709   -1.000
 3553.00    0.54298   0.56858   -1.000
 3554.00    0.53438   0.56417   -1.000
 3555.00    0.53955   0.57246   -1.000
 3556.00    0.55242   0.58097   -1.000
 3557.00    0.54965   0.58205   -1.000
 3558.00    0.54169   0.57741   -1.000
 3559.00    0.53485   0.57605   -1.000
 3560.00    0.54040   0.58443   -1.000
 3561.00    0.55103   0.59950   -1.000
 3562.00    0.55313   0.60412   -1.000
 3563.00    0.55184   0.57832   -1.000
 3564.00    0.51898   0.52712   -1.000
 3565.00    0.47642   0.48113  209.900
 3566.00    0.45757   0.46550  218.547
 3567.00    0.46319   0.46923  215.895
 3568.00    0.46574   0.46601  214.711
 3569.00    0.45009   0.45263  222.177
 3570.00    0.44204   0.44533  226.224
 3571.00    0.45663   0.45424  218.994
 3572.00    0.47813   0.47407  209.147
 3573.00    0.49638   0.49163   -1.000
 3574.00    0.50397   0.50348 1654.190
 3575.00    0.50455   0.51219   -1.000
 3576.00    0.50581   0.51538   -1.000
 3577.00    0.50393   0.50704   -1.000
 3578.00    0.48850   0.48433   -1.000
 3579.00    0.46095   0.44899  216.943
 3580.00    0.42671   0.41541  234.353
 3581.00    0.40463   0.39803  247.141
 3582.00    0.40225   0.40194  248.602
 3583.00    0.40061   0.40933  249.622
 3584.00    0.39060   0.40260   -1.000
 3585.00    0.37805   0.38790  264.512
 3586.00    0.37288   0.38091  268.183
 3587.00    0.39307   0.39230  254.405
 3588.00    0.41524   0.42312  240.825
 3589.00    0.43630   0.46663   -1.000
 3590.00    0.47950   0.51027   -1.000
 3591.00    0.51930   0.53943   -1.000
 3592.00    0.53937   0.54816   -1.000
 3593.00    0.54021   0.55066   -1.000
 3594.00    0.54944   0.56335   -1.000
 3595.00    0.56773   0.58864   -1.000
 3596.00    0.59695   0.61454   -1.000
 3597.00    0.61475   0.63055   -1.000
 3598.00    0.63128   0.64081   -1.000
 3599.00    0.64172   0.64621   -1.000
 3600.00    0.63380   0.63523 1577.792
 3601.00    0.60424   0.60443 1654.190
 3602.00    0.57179   0.56705   -1.000
 3603.00    0.54704   0.53733   -1.000
 3604.00    0.53793   0.52421   -1.000
 3605.00    0.53463   0.52282   -1.000
 3606.00    0.54048   0.51952   -1.000
 3607.00    0.53429   0.50425   -1.000
 3608.00    0.50726   0.48512   -1.000
 3609.00    0.49907   0.48037   -1.000
 3610.00    0.51035   0.49636   -1.000
 3611.00    0.52611   0.52140   -1.000
 3612.00    0.54562   0.54030   -1.000
 3613.00    0.55879   0.55648   -1.000
 3614.00    0.56905   0.57681   -1.000
 3615.00    0.59084   0.58878 1654.190
 3616.00    0.58915   0.57014   -1.000
 3617.00    0.54129   0.52180   -1.000
 3618.00    0.49298   0.47568   -1.000
 3619.00    0.48371   0.46931  206.737
 3620.00    0.51484   0.50418   -1.000
 3621.00    0.56506   0.55464   -1.000
 3622.00    0.59898   0.59332   -1.000
 3623.00    0.61338   0.61629   -1.000
 3624.00    0.62092   0.64091   -1.000
 3625.00    0.64514   0.67588   -1.000
 3626.00    0.67353   0.70857   -1.000
 3627.00    0.68328   0.71965   -1.000
 3628.00    0.67055   0.69354   -1.000
 3629.00    0.63110   0.63028 1584.533
 3630.00    0.56293   0.55669   -1.000
 3631.00    0.51971   0.51311   -1.000
 3632.00    0.51420   0.51058   -1.000
 3633.00    0.53102   0.53422   -1.000
 3634.00    0.55060   0.56150   -1.000
 3635.00    0.56347   0.58218   -1.000
 3636.00    0.58561   0.60040   -1.000
 3637.00    0.61475   0.62562   -1.000
 3638.00    0.64374   0.65520   -1.000
 3639.00    0.66596   0.67703   -1.000
 3640.00    0.66638   0.68071   -1.000
 3641.00    0.64965   0.66356   -1.000
 3642.00    0.62828   0.63396   -1.000
 3643.00    0.59554   0.60398   -1.000
 3644.00    0.57886   0.57926 1654.190
 3645.00    0.56924   0.56012   -1.000
 3646.00    0.56070   0.54399   -1.000
 3647.00    0.55051   0.53384   -1.000
 3648.00    0.55023   0.53717   -1.000
 3649.00    0.56594   0.55568   -1.000
 3650.00    0.58996   0.58799 1654.190
 3651.00    0.62017   0.62688   -1.000
 3652.00    0.64728   0.66079   -1.000
 3653.00    0.66339   0.68112   -1.000
 3654.00    0.67262   0.69310   -1.000
 3655.00    0.67476   0.70403   -1.000
 3656.00    0.68280   0.71915   -1.000
 3657.00    0.68991   0.73448   -1.000
 3658.00    0.70205   0.74290   -1.000
 3659.00    0.70101   0.74457   -1.000
 3660.00    0.70111   0.73818   -1.000
 3661.00    0.69321   0.72204   -1.000
 3662.00    0.68587   0.70185   -1.000
 3663.00    0.67416   0.68920   -1.000
 3664.00    0.66918   0.68787   -1.000
 3665.00    0.67773   0.69141   -1.000
 3666.00    0.67711   0.68901   -1.000
 3667.00    0.66274   0.67538   -1.000
 3668.00    0.65569   0.65669 1525.099
 3669.00    0.63956   0.64870   -1.000
 3670.00    0.64413   0.66217   -1.000
 3671.00    0.66983   0.68705   -1.000
 3672.00    0.68331   0.70552   -1.000
 3673.00    0.68549   0.71192   -1.000
 3674.00    0.68561   0.70782   -1.000
 3675.00    0.68399   0.69175   -1.000
 3676.00    0.66292   0.66425 1508.488
 3677.00    0.64288   0.63298   -1.000
 3678.00    0.62396   0.60686   -1.000
 3679.00    0.60852   0.59503   -1.000
 3680.00    0.61055   0.60180   -1.000
 3681.00    0.62732   0.62054   -1.000
 3682.00    0.64607   0.63881   -1.000
 3683.00    0.65185   0.64428   -1.000
 3684.00    0.63584   0.62888   -1.000
 3685.00    0.61043   0.59791   -1.000
 3686.00    0.58628   0.57085   -1.000
 3687.00    0.57621   0.56825   -1.000
 3688.00    0.59348   0.59493 1654.190
 3689.00    0.63620   0.64119   -1.000
 3690.00    0.68139   0.68558   -1.000
 3691.00    0.70214   0.70795   -1.000
 3692.00    0.69626   0.70191   -1.000
 3693.00    0.67705   0.68301   -1.000
 3694.00    0.66812   0.67014   -1.000
 3695.00    0.67134   0.66824   -1.000
 3696.00    0.67745   0.67621 1476.125
 3697.00    0.68590   0.69554   -1.000
 3698.00    0.70959   0.72331   -1.000
 3699.00    0.72794   0.74523   -1.000
 3700.00    0.73761   0.74903   -1.000
 3701.00    0.72319   0.72548   -1.000
 3702.00    0.69087   0.67302   -1.000
 3703.00    0.62995   0.60649   -1.000
 3704.00    0.57475   0.55052   -1.000
 3705.00    0.54592   0.52016   -1.000
 3706.00    0.55192   0.51681   -1.000
 3707.00    0.56712   0.52677   -1.000
 3708.00    0.57287   0.54225   -1.000
 3709.00    0.59233   0.56576   -1.000
 3710.00    0.62040   0.59857   -1.000
 3711.00    0.65004   0.63859   -1.000
 3712.00    0.68945   0.68218   -1.000
 3713.00    0.72406   0.71850   -1.000
 3714.00    0.74200   0.73550   -1.000
 3715.00    0.74402   0.72970   -1.000
 3716.00    0.72428   0.70485   -1.000
 3717.00    0.69266   0.65812   -1.000
 3718.00    0.63142   0.58773   -1.000
 3719.00    0.54926   0.50737   -1.000
 3720.00    0.48967   0.44799   -1.000
 3721.00    0.47408   0.43749   -1.000
 3722.00    0.50850   0.47603   -1.000
 3723.00    0.57460   0.54263   -1.000
 3724.00    0.64006   0.60699   -1.000
 3725.00    0.66717   0.63799   -1.000
 3726.00    0.66141   0.63358   -1.000
 3727.00    0.63993   0.62102   -1.000
 3728.00    0.63497   0.62046   -1.000
 3729.00    0.64606   0.62387   -1.000
 3730.00    0.63904   0.61144   -1.000
 3731.00    0.61053   0.56768   -1.000
 3732.00    0.54973   0.49926   -1.000
 3733.00    0.48293   0.43174   -1.000
 3734.00    0.43052   0.38552   -1.000
 3735.00    0.41528   0.37574   -1.000
 3736.00    0.43755   0.40563   -1.000
 3737.00    0.48334   0.46562   -1.000
 3738.00    0.54712   0.53826   -1.000
 3739.00    0.60816   0.60278   -1.000
 3740.00    0.64521   0.63701   -1.000
 3741.00    0.64829   0.63278   -1.000
 3742.00    0.62309   0.59900   -1.000
 3743.00    0.58546   0.55578   -1.000
 3744.00    0.55248   0.51717   -1.000
 3745.00    0.52226   0.49029   -1.000
 3746.00    0.49793   0.46564   -1.000
 3747.00    0.47617   0.43452   -1.000
 3748.00    0.44697   0.40895   -1.000
 3749.00    0.44244   0.41177   -1.000
 3750.00    0.48997   0.45400   -1.000
 3751.00    0.56067   0.52284   -1.000
 3752.00    0.62406   0.59495   -1.000
 3753.00    0.67462   0.65879   -1.000
 3754.00    0.71185   0.69918   -1.000
 3755.00    0.72565   0.69709   -1.000
 3756.00    0.68555   0.65096   -1.000
 3757.00    0.60406   0.58600   -1.000
 3758.00    0.54256   0.54128 1654.190
 3759.00    0.54586   0.53773   -1.000
 3760.00    0.58392   0.55896   -1.000
 3761.00    0.61179   0.57946   -1.000
 3762.00    0.62445   0.58699   -1.000
 3763.00    0.62938   0.58841   -1.000
 3764.00    0.63565   0.58907   -1.000
 3765.00    0.62621   0.58375   -1.000
 3766.00    0.61101   0.57369   -1.000
 3767.00    0.60447   0.56769   -1.000
 3768.00    0.61464   0.56697   -1.000
 3769.00    0.61611   0.56810   -1.000
 3770.00    0.60820   0.57675   -1.000
 3771.00    0.63252   0.60240   -1.000
 3772.00    0.67427   0.63711   -1.000
 3773.00    0.69443   0.66399   -1.000
 3774.00    0.69656   0.67607   -1.000
 3775.00    0.69718   0.68015   -1.000
 3776.00    0.69901   0.68574   -1.000
 3777.00    0.70095   0.69811   -1.000
 3778.00    0.71108   0.71708   -1.000
 3779.00    0.73626   0.73850   -1.000
 3780.00    0.75365   0.75614   -1.000
 3781.00    0.75848   0.76551   -1.000
 3782.00    0.76312   0.76948   -1.000
 3783.00    0.76256   0.76556   -1.000
 3784.00    0.74488   0.74154   -1.000
 3785.00    0.70650   0.69743   -1.000
 3786.00    0.65645   0.65026   -1.000
 3787.00    0.62557   0.61408   -1.000
 3788.00    0.61461   0.59699   -1.000
 3789.00    0.61530   0.59969   -1.000
 3790.00    0.62678   0.61174   -1.000
 3791.00    0.63316   0.61826   -1.000
 3792.00    0.62314   0.60861   -1.000
 3793.00    0.60002   0.58411   -1.000
 3794.00    0.58011   0.55672   -1.000
 3795.00    0.56306   0.53082   -1.000
 3796.00    0.53460   0.50217   -1.000
 3797.00    0.50639   0.47555   -1.000
 3798.00    0.50815   0.47275   -1.000
 3799.00    0.53472   0.50765   -1.000
 3800.00    0.58744   0.56742   -1.000
 3801.00    0.63862   0.62903   -1.000
 3802.00    0.66734   0.67618   -1.000
 3803.00    0.68212   0.70123   -1.000
 3804.00    0.68576   0.70265   -1.000
 3805.00    0.67499   0.68333   -1.000
 3806.00    0.64971   0.66240   -1.000
 3807.00    0.63755   0.65967   -1.000
 3808.00    0.65543   0.67881   -1.000
 3809.00    0.68230   0.70471   -1.000
 3810.00    0.68953   0.71553   -1.000
 3811.00    0.67572   0.69753   -1.000
 3812.00    0.64031   0.65487   -1.000
 3813.00    0.60262   0.60471 1654.190
 3814.00    0.56852   0.56515   -1.000
 3815.00    0.54392   0.55204   -1.000
 3816.00    0.55441   0.56267   -1.000
 3817.00    0.57676   0.57454   -1.000
 3818.00    0.56632   0.56271   -1.000
 3819.00    0.52815   0.53096   -1.000
 3820.00    0.50223   0.51227   -1.000
 3821.00    0.51511   0.52023   -1.000
 3822.00    0.53984   0.53453   -1.000
 3823.00    0.53375   0.52623   -1.000
 3824.00    0.48977   0.49481   -1.000
 3825.00    0.46055   0.46475  217.131
 3826.00    0.45098   0.45060  221.738
 3827.00    0.45522   0.45139  219.674
 3828.00    0.46280   0.46035  216.078
 3829.00    0.47055   0.46823  212.519
 3830.00    0.46440   0.46205  215.329
 3831.00    0.44368   0.43880  225.388
 3832.00    0.41021   0.40753  243.778
 3833.00    0.39850   0.38387   -1.000
 3834.00    0.40702   0.37942   -1.000
 3835.00    0.42448   0.38842   -1.000
 3836.00    0.43377   0.40028   -1.000
 3837.00    0.42421   0.40569   -1.000
 3838.00    0.41412   0.40787  241.477
 3839.00    0.42208   0.42026  236.921
 3840.00    0.44820   0.45496  223.113
 3841.00    0.49443   0.50805   -1.000
 3842.00    0.54715   0.56203   -1.000
 3843.00    0.58379   0.60132   -1.000
 3844.00    0.59422   0.61968   -1.000
 3845.00    0.59398   0.62737   -1.000
 3846.00    0.59434   0.63443   -1.000
 3847.00    0.59317   0.63661   -1.000
 3848.00    0.57867   0.62719   -1.000
 3849.00    0.55643   0.61503   -1.000
 3850.00    0.54821   0.61430   -1.000
 3851.00    0.56186   0.62759   -1.000
 3852.00    0.57732   0.64070   -1.000
 3853.00    0.57286   0.63978   -1.000
 3854.00    0.55819   0.62484   -1.000
 3855.00    0.54204   0.60543   -1.000
 3856.00    0.53440   0.58608   -1.000
 3857.00    0.51741   0.56144   -1.000
 3858.00    0.48638   0.53470   -1.000
 3859.00    0.45711   0.52434   -1.000
 3860.00    0.46845   0.54514   -1.000
 3861.00    0.52312   0.59063   -1.000
 3862.00    0.58266   0.63425   -1.000
 3863.00    0.60945   0.65257   -1.000
 3864.00    0.60458   0.64780   -1.000
 3865.00    0.59249   0.63796   -1.000
 3866.00    0.58378   0.63334   -1.000
 3867.00    0.57248   0.63011   -1.000
 3868.00    0.55009   0.62050   -1.000
 3869.00    0.52270   0.59965   -1.000
 3870.00    0.48997   0.57143   -1.000
 3871.00    0.48018   0.54976   -1.000
 3872.00    0.49549   0.54883   -1.000
 3873.00    0.54751   0.57654   -1.000
 3874.00    0.60190   0.61536   -1.000
 3875.00    0.62469   0.63361   -1.000
 3876.00    0.60455   0.61561   -1.000
 3877.00    0.55658   0.58256   -1.000
 3878.00    0.52162   0.56563   -1.000
 3879.00    0.51859   0.56766   -1.000
 3880.00    0.51880   0.57443   -1.000
 3881.00    0.50568   0.57816   -1.000
 3882.00    0.51965   0.58167   -1.000
 3883.00    0.57103   0.58636   -1.000
 3884.00    0.60693   0.57584   -1.000
 3885.00    0.59462   0.54349   -1.000
 3886.00    0.56352   0.50503   -1.000
 3887.00    0.55694   0.47949   -1.000
 3888.00    0.55913   0.48087   -1.000
 3889.00    0.57936   0.51182   -1.000
 3890.00    0.63232   0.56469   -1.000
 3891.00    0.69149   0.62082   -1.000
 3892.00    0.71577   0.65494   -1.000
 3893.00    0.71214   0.66096   -1.000
 3894.00    0.69984   0.65767   -1.000
 3895.00    0.70106   0.66325   -1.000
 3896.00    0.72175   0.67641   -1.000
 3897.00    0.74206   0.68494   -1.000
 3898.00    0.72777   0.68497   -1.000
 3899.00    0.71750   0.68397   -1.000
 3900.00    0.72852   0.68858   -1.000
 3901.00    0.73519   0.69275   -1.000
 3902.00    0.72778   0.68686   -1.000
 3903.00    0.69690   0.66944   -1.000
 3904.00    0.68079   0.64816   -1.000
 3905.00    0.66053   0.63917   -1.000
 3906.00    0.66679   0.65534   -1.000
 3907.00    0.70944   0.69198   -1.000
 3908.00    0.76107   0.73015   -1.000
 3909.00    0.77871   0.75606   -1.000
 3910.00    0.78548   0.77085   -1.000
 3911.00    0.79308   0.77947   -1.000
 3912.00    0.79772   0.78040   -1.000
 3913.00    0.78797   0.77212   -1.000
 3914.00    0.77168   0.75805   -1.000
 3915.00    0.75382   0.74495   -1.000
 3916.00    0.74461   0.73324   -1.000
 3917.00    0.73476   0.71835   -1.000
 3918.00    0.71347   0.69472   -1.000
 3919.00    0.68281   0.66421   -1.000
 3920.00    0.65145   0.63928   -1.000
 3921.00    0.63882   0.63115   -1.000
 3922.00    0.64517   0.63945   -1.000
 3923.00    0.65754   0.64896   -1.000
 3924.00    0.65189   0.64420   -1.000
 3925.00    0.61997   0.61792   -1.000
 3926.00    0.56447   0.57070   -1.000
 3927.00    0.50277   0.51087   -1.000
 3928.00    0.43502   0.44789  229.872
 3929.00    0.37095   0.38755   -1.000
 3930.00    0.31711   0.32815   -1.000
 3931.00    0.26785   0.27054  373.349
 3932.00    0.22903   0.22409  436.633
 3933.00    0.20989   0.20321   -1.000
 3934.00    0.21949   0.21658  455.592
 3935.00    0.25332   0.26112   -1.000
 3936.00    0.30659   0.32464   -1.000
 3937.00    0.37344   0.39704   -1.000
 3938.00    0.44413   0.46714   -1.000
 3939.00    0.50226   0.52352   -1.000
 3940.00    0.54141   0.56198   -1.000
 3941.00    0.56236   0.57898   -1.000
 3942.00    0.56722   0.58242   -1.000
 3943.00    0.56739   0.59104   -1.000
 3944.00    0.59821   0.61640   -1.000
 3945.00    0.65933   0.65143   -1.000
 3946.00    0.69938   0.67823   -1.000
 3947.00    0.70633   0.69155   -1.000
 3948.00    0.71143   0.70290   -1.000
 3949.00    0.73919   0.72039   -1.000
 3950.00    0.76414   0.73409   -1.000
 3951.00    0.75996   0.73541   -1.000
 3952.00    0.74867   0.73646   -1.000
 3953.00    0.76278   0.74490   -1.000
 3954.00    0.78260   0.74915   -1.000
 3955.00    0.77345   0.74172   -1.000
 3956.00    0.74545   0.72973   -1.000
 3957.00    0.73387   0.72436   -1.000
 3958.00    0.74778   0.72239   -1.000
 3959.00    0.72997   0.69777   -1.000
 3960.00    0.65785   0.64103   -1.000
 3961.00    0.58171   0.57771   -1.000
 3962.00    0.52595   0.52900   -1.000
 3963.00    0.50180   0.49375   -1.000
 3964.00    0.46241   0.45183  216.256
 3965.00    0.39364   0.38903  254.039
 3966.00    0.31866   0.31426  313.812
 3967.00    0.26051   0.25227   -1.000
 3968.00    0.23621   0.22645   -1.000
 3969.00    0.25506   0.24310   -1.000
 3970.00    0.30996   0.29436   -1.000
 3971.00    0.37733   0.36429   -1.000
 3972.00    0.45095   0.43733  221.753
 3973.00    0.52249   0.50716   -1.000
 3974.00    0.59158   0.57088   -1.000
 3975.00    0.65644   0.62635   -1.000
 3976.00    0.71203   0.67778   -1.000
 3977.00    0.75626   0.72689   -1.000
 3978.00    0.79801   0.77231   -1.000
 3979.00    0.84356   0.80492   -1.000
 3980.00    0.85286   0.81582   -1.000
 3981.00    0.84651   0.81055   -1.000
 3982.00    0.83004   0.80193   -1.000
 3983.00    0.83669   0.80410   -1.000
 3984.00    0.85488   0.81926   -1.000
 3985.00    0.87207   0.83842   -1.000
 3986.00    0.88630   0.85818   -1.000
 3987.00    0.90377   0.87520   -1.000
 3988.00    0.91230   0.88323   -1.000
 3989.00    0.90856   0.88515   -1.000
 3990.00    0.91464   0.89044   -1.000
 3991.00    0.93692   0.90267   -1.000
 3992.00    0.96034   0.91538   -1.000
 3993.00    0.94784   0.91831   -1.000
 3994.00    0.92504   0.90559   -1.000
 3995.00    0.90423   0.88207   -1.000
 3996.00    0.88730   0.86396   -1.000
 3997.00    0.88018   0.86589   -1.000
 3998.00    0.90135   0.88917   -1.000
 3999.00    0.94568   0.92125   -1.000
 4000.00    0.97849   0.94761   -1.000
 4001.00    0.99384   0.96229   -1.000
 4002.00    1.00822   0.95792   -1.000
 4003.00    0.98761   0.92700   -1.000
 4004.00    0.92282   0.87937   -1.000
 4005.00    0.87779   0.84926   -1.000
 4006.00    0.88620   0.86006   -1.000
 4007.00    0.94241   0.90023   -1.000
 4008.00    0.98068   0.93995   -1.000
 4009.00    0.99296   0.96280   -1.000
 4010.00    1.00375   0.97248   -1.000
 4011.00    1.00688   0.97427   -1.000
 4012.00    0.99932   0.97506   -1.000
 4013.00    0.99396   0.97992   -1.000
 4014.00    1.00188   0.98544   -1.000
 4015.00    1.01664   0.98546   -1.000
 4016.00    1.00714   0.98079   -1.000
 4017.00    0.99464   0.98041   -1.000
 4018.00    1.00000   0.98855   -1.000
 4019.00    1.01620   0.99834   -1.000
 4020.00    1.01317   1.00172   -1.000
 4021.00    0.99801   0.99679 1001.996
 4022.00    0.99248   0.98749   -1.000
 4023.00    0.98598   0.97777   -1.000
 4024.00    0.97826   0.97506   -1.000
 4025.00    1.00426   0.98881   -1.000
 4026.00    1.04196   1.01599   -1.000
 4027.00    1.06297   1.03451   -1.000
 4028.00    1.05243   1.02018   -1.000
 4029.00    1.00943   0.97053   -1.000
 4030.00    0.94341   0.91119   -1.000
 4031.00    0.90597   0.87005   -1.000
 4032.00    0.89603   0.85675   -1.000
 4033.00    0.90828   0.87078   -1.000
 4034.00    0.93968   0.90846   -1.000
 4035.00    0.98931   0.96161   -1.000
 4036.00    1.04070   1.01492   -1.000
 4037.00    1.07819   1.05024   -1.000
 4038.00    1.08122   1.05546   -1.000
 4039.00    1.05772   1.03926   -1.000
 4040.00    1.03285   1.02119   -1.000
 4041.00    1.02214   1.00895   -1.000
 4042.00    1.01744   0.98165   -1.000
 4043.00    0.96896   0.91861   -1.000
 4044.00    0.88064   0.84134   -1.000
 4045.00    0.81766   0.80449   -1.000
 4046.00    0.85574   0.83825   -1.000
 4047.00    0.95008   0.91373   -1.000
 4048.00    1.01035   0.98289   -1.000
 4049.00    1.03907   1.02208   -1.000
 4050.00    1.05067   1.03057   -1.000
 4051.00    1.04284   1.02032   -1.000
 4052.00    1.01407   0.99880   -1.000
 4053.00    0.98846   0.97441   -1.000
 4054.00    0.97365   0.95459   -1.000
 4055.00    0.96619   0.93879   -1.000
 4056.00    0.95974   0.92529   -1.000
 4057.00    0.94961   0.92288   -1.000
 4058.00    0.96167   0.94190   -1.000
 4059.00    0.99891   0.97134   -1.000
 4060.00    1.01858   0.98113   -1.000
 4061.00    1.00010   0.94680   -1.000
 4062.00    0.92956   0.88634   -1.000
 4063.00    0.86916   0.84886   -1.000
 4064.00    0.88527   0.85091   -1.000
 4065.00    0.93252   0.87481   -1.000
 4066.00    0.95499   0.90412   -1.000
 4067.00    0.98168   0.93320   -1.000
 4068.00    1.01474   0.95447   -1.000
 4069.00    1.02720   0.95140   -1.000
 4070.00    0.98622   0.92153   -1.000
 4071.00    0.94254   0.89712   -1.000
 4072.00    0.95098   0.90497   -1.000
 4073.00    0.98857   0.92743   -1.000
 4074.00    0.99288   0.92724   -1.000
 4075.00    0.94499   0.88948   -1.000
 4076.00    0.86904   0.84335   -1.000
 4077.00    0.84495   0.82810   -1.000
 4078.00    0.87565   0.85817   -1.000
 4079.00    0.94165   0.91917   -1.000
 4080.00    1.01150   0.97429   -1.000
 4081.00    1.04187   0.99639   -1.000
 4082.00    1.02288   0.98313   -1.000
 4083.00    0.98814   0.95700   -1.000
 4084.00    0.97383   0.94512   -1.000
 4085.00    0.98958   0.96098   -1.000
 4086.00    1.02502   0.99811   -1.000
 4087.00    1.06629   1.03603   -1.000
 4088.00    1.10158   1.05714   -1.000
 4089.00    1.09522   1.05462   -1.000
 4090.00    1.07226   1.03691   -1.000
 4091.00    1.05263   1.01998   -1.000
 4092.00    1.04113   1.00963   -1.000
 4093.00    1.04059   0.99646   -1.000
 4094.00    1.02108   0.97174   -1.000
 4095.00    0.97495   0.93795   -1.000
 4096.00    0.94372   0.90766   -1.000
 4097.00    0.93778   0.88557   -1.000
 4098.00    0.92242   0.85523   -1.000
 4099.00    0.87244   0.80251   -1.000
 4100.00    0.79704   0.74465   -1.000
 4101.00    0.74558   0.71511   -1.000
 4102.00    0.76357   0.73472   -1.000
 4103.00    0.83599   0.79624   -1.000
 4104.00    0.90656   0.86632   -1.000
 4105.00    0.95735   0.91902   -1.000
 4106.00    0.98678   0.94852   -1.000
 4107.00    0.99079   0.95772   -1.000
 4108.00    0.98088   0.95276   -1.000
 4109.00    0.96161   0.94475   -1.000
 4110.00    0.94771   0.94327   -1.000
 4111.00    0.96060   0.95347   -1.000
 4112.00    0.98329   0.97326   -1.000
 4113.00    1.00028   0.99634   -1.000
 4114.00    1.01585   1.01529  984.398
 4115.00    1.02567   1.02303  974.975
 4116.00    1.02007   1.01331   -1.000
 4117.00    0.99807   0.98971   -1.000
 4118.00    0.96475   0.96636 1036.534
 4119.00    0.95434   0.95693 1047.849
 4120.00    0.96731   0.96211   -1.000
 4121.00    0.97737   0.97060   -1.000
 4122.00    0.97594   0.97806 1024.653
 4123.00    0.98699   0.98715 1013.177
 4124.00    1.00519   0.99579   -1.000
 4125.00    1.00806   0.99678   -1.000
 4126.00    0.99398   0.98625   -1.000
 4127.00    0.97254   0.97147 1028.235
 4128.00    0.96503   0.96208 1036.241
 4129.00    0.96030   0.95378   -1.000
 4130.00    0.94804   0.93501   -1.000
 4131.00    0.91823   0.90857   -1.000
 4132.00    0.89002   0.89218 1123.568
 4133.00    0.88858   0.90240   -1.000
 4134.00    0.92010   0.93693   -1.000
 4135.00    0.96994   0.97857   -1.000
 4136.00    1.00194   1.01307   -1.000
 4137.00    1.01777   1.03717   -1.000
 4138.00    1.03394   1.05120   -1.000
 4139.00    1.03760   1.04929   -1.000
 4140.00    1.01575   1.02031   -1.000
 4141.00    0.96349   0.96284 1037.896
 4142.00    0.88686   0.90252   -1.000
 4143.00    0.84317   0.87833   -1.000
 4144.00    0.87803   0.90180   -1.000
 4145.00    0.93534   0.95009   -1.000
 4146.00    0.97080   0.98806   -1.000
 4147.00    0.98005   0.99795   -1.000
 4148.00    0.96060   0.98861   -1.000
 4149.00    0.93395   0.97668   -1.000
 4150.00    0.92299   0.97111   -1.000
 4151.00    0.93047   0.96853   -1.000
 4152.00    0.93580   0.96182   -1.000
 4153.00    0.92655   0.95032   -1.000
 4154.00    0.91118   0.94141   -1.000
 4155.00    0.93617   0.94277   -1.000
 4156.00    0.94352   0.95639   -1.000
 4157.00    0.93057   0.97837   -1.000
 4158.00    0.97516   1.00250   -1.000
 4159.00    0.96392   1.02242   -1.000
 4160.00    0.97053   1.03660   -1.000
 4161.00    1.00237   1.04716   -1.000
 4162.00    1.01280   1.05476   -1.000
 4163.00    1.00613   1.05582   -1.000
 4164.00    0.98928   1.04644   -1.000
 4165.00    0.97481   1.02702   -1.000
 4166.00    0.95290   1.00654   -1.000
 4167.00    0.93876   0.99863   -1.000
 4168.00    0.94679   1.00296   -1.000
 4169.00    0.96403   1.00187   -1.000
 4170.00    0.95298   0.97601   -1.000
 4171.00    0.89724   0.93061   -1.000
 4172.00    0.84544   0.89584   -1.000
 4173.00    0.84483   0.89269   -1.000
 4174.00    0.87782   0.91481   -1.000
 4175.00    0.91081   0.93760   -1.000
 4176.00    0.91033   0.94813   -1.000
 4177.00    0.90468   0.95482   -1.000
 4178.00    0.90900   0.96584   -1.000
 4179.00    0.92399   0.97700   -1.000
 4180.00    0.93275   0.97931   -1.000
 4181.00    0.93160   0.97403   -1.000
 4182.00    0.94219   0.97694   -1.000
 4183.00    0.96198   0.99315   -1.000
 4184.00    0.97923   1.00513   -1.000
 4185.00    0.97702   0.99769   -1.000
 4186.00    0.94355   0.97555   -1.000
 4187.00    0.91741   0.96221   -1.000
 4188.00    0.92702   0.96865   -1.000
 4189.00    0.94922   0.98203   -1.000
 4190.00    0.95431   0.99412   -1.000
 4191.00    0.96754   1.00797   -1.000
 4192.00    0.98945   1.02169   -1.000
 4193.00    1.00239   1.02361   -1.000
 4194.00    0.97205   1.00093   -1.000
 4195.00    0.92215   0.96030   -1.000
 4196.00    0.89336   0.92308   -1.000
 4197.00    0.87845   0.90226   -1.000
 4198.00    0.87712   0.89768   -1.000
 4199.00    0.88737   0.90085   -1.000
 4200.00    0.90213   0.90669   -1.000
 4201.00    0.90401   0.91322   -1.000
 4202.00    0.91006   0.92495   -1.000
 4203.00    0.92510   0.94764   -1.000
 4204.00    0.93137   0.97616   -1.000
 4205.00    0.95048   1.00245   -1.000
 4206.00    0.97519   1.02514   -1.000
 4207.00    0.99430   1.04013   -1.000
 4208.00    0.99859   1.04228   -1.000
 4209.00    0.99401   1.03752   -1.000
 4210.00    0.99643   1.03664   -1.000
 4211.00    1.00378   1.04187   -1.000
 4212.00    0.99733   1.03784   -1.000
 4213.00    0.96427   1.01016   -1.000
 4214.00    0.92120   0.97419   -1.000
 4215.00    0.89714   0.95818   -1.000
 4216.00    0.93126   0.97895   -1.000
 4217.00    0.99629   1.02533   -1.000
 4218.00    1.04154   1.06789   -1.000
 4219.00    1.07059   1.09240   -1.000
 4220.00    1.08143   1.09477   -1.000
 4221.00    1.07075   1.07225  933.929
 4222.00    1.02661   1.02143   -1.000
 4223.00    0.95771   0.94341   -1.000
 4224.00    0.86997   0.85003   -1.000
 4225.00    0.76513   0.77324   -1.000
 4226.00    0.70906   0.75425   -1.000
 4227.00    0.76107   0.81191   -1.000
 4228.00    0.88300   0.91655   -1.000
 4229.00    0.98217   1.01030   -1.000
 4230.00    1.03393   1.05221   -1.000
 4231.00    1.04000   1.04922   -1.000
 4232.00    1.01553   1.02579   -1.000
 4233.00    0.98924   0.99779   -1.000
 4234.00    0.98037   0.97462   -1.000
 4235.00    0.95706   0.96070   -1.000
 4236.00    0.94024   0.95578   -1.000
 4237.00    0.94847   0.96277   -1.000
 4238.00    0.97209   0.98105   -1.000
 4239.00    0.98556   1.00444   -1.000
 4240.00    1.00530   1.02743   -1.000
 4241.00    1.01871   1.04721   -1.000
 4242.00    1.02269   1.06389   -1.000
 4243.00    1.04136   1.07953   -1.000
 4244.00    1.06409   1.08739   -1.000
 4245.00    1.05133   1.07162   -1.000
 4246.00    1.00277   1.03195   -1.000
 4247.00    0.96637   0.98681   -1.000
 4248.00    0.94289   0.95414   -1.000
 4249.00    0.93512   0.94415   -1.000
 4250.00    0.93665   0.95760   -1.000
 4251.00    0.96594   0.98116   -1.000
 4252.00    0.99397   0.99140 1006.068
 4253.00    0.98658   0.98463 1013.602
 4254.00    0.95906   0.98032   -1.000
 4255.00    0.97369   0.99656   -1.000
 4256.00    1.01497   1.02058   -1.000
 4257.00    1.02164   1.01671   -1.000
 4258.00    0.98129   0.97769   -1.000
 4259.00    0.92873   0.93543   -1.000
 4260.00    0.90627   0.92899   -1.000
 4261.00    0.94466   0.96959   -1.000
 4262.00    1.00917   1.03252   -1.000
 4263.00    1.05849   1.08446   -1.000
 4264.00    1.08252   1.10618   -1.000
 4265.00    1.08403   1.10179   -1.000
 4266.00    1.06547   1.08173   -1.000
 4267.00    1.03011   1.04803   -1.000
 4268.00    0.99990   1.00037 1000.101
 4269.00    0.96231   0.94163   -1.000
 4270.00    0.90111   0.88400   -1.000
 4271.00    0.84876   0.84811 1178.184
 4272.00    0.84210   0.84430 1187.504
 4273.00    0.86293   0.86769   -1.000
 4274.00    0.88528   0.90727   -1.000
 4275.00    0.92788   0.95919   -1.000
 4276.00    0.99367   1.01533   -1.000
 4277.00    1.04113   1.05041   -1.000
 4278.00    1.03931   1.04714   -1.000
 4279.00    0.99215   1.01877   -1.000
 4280.00    0.95926   0.99449   -1.000
 4281.00    0.95835   0.99412   -1.000
 4282.00    0.97302   1.00434   -1.000
 4283.00    0.98165   1.00378   -1.000
 4284.00    0.96795   0.98883   -1.000
 4285.00    0.93920   0.96781   -1.000
 4286.00    0.91633   0.94808   -1.000
 4287.00    0.90402   0.92358   -1.000
 4288.00    0.86921   0.88883   -1.000
 4289.00    0.82704   0.86154   -1.000
 4290.00    0.82743   0.86625   -1.000
 4291.00    0.87378   0.90250   -1.000
 4292.00    0.93415   0.94176   -1.000
 4293.00    0.94994   0.95620   -1.000
 4294.00    0.93982   0.94576   -1.000
 4295.00    0.92416   0.92250 1082.066
 4296.00    0.90315   0.88576   -1.000
 4297.00    0.85815   0.83253   -1.000
 4298.00    0.78769   0.77511   -1.000
 4299.00    0.73344   0.73411 1363.446
 4300.00    0.72666   0.72133   -1.000
 4301.00    0.75068   0.73020   -1.000
 4302.00    0.76160   0.74651   -1.000
 4303.00    0.77338   0.76001   -1.000
 4304.00    0.78272   0.76386   -1.000
 4305.00    0.77867   0.75108   -1.000
 4306.00    0.75115   0.72347   -1.000
 4307.00    0.71170   0.69623   -1.000
 4308.00    0.69548   0.68924   -1.000
 4309.00    0.71135   0.71090 1405.783
 4310.00    0.75343   0.75322 1327.260
 4311.00    0.80674   0.80277   -1.000
 4312.00    0.84899   0.85391   -1.000
 4313.00    0.88400   0.91667   -1.000
 4314.00    0.93935   0.99704   -1.000
 4315.00    1.03127   1.08446   -1.000
 4316.00    1.11449   1.15611   -1.000
 4317.00    1.15262   1.18980   -1.000
 4318.00    1.15048   1.18646   -1.000
 4319.00    1.13170   1.16223   -1.000
 4320.00    1.10609   1.12576   -1.000
 4321.00    1.06898   1.07285   -1.000
 4322.00    1.01770   0.99952   -1.000
 4323.00    0.94604   0.91574   -1.000
 4324.00    0.86675   0.85607   -1.000
 4325.00    0.83543   0.85921   -1.000
 4326.00    0.89821   0.92853   -1.000
 4327.00    1.00763   1.02462   -1.000
 4328.00    1.08332   1.09699   -1.000
 4329.00    1.10115   1.12406   -1.000
 4330.00    1.09495   1.12477   -1.000
 4331.00    1.10181   1.12489   -1.000
 4332.00    1.12240   1.13484   -1.000
 4333.00    1.13342   1.14493   -1.000
 4334.00    1.13533   1.13817   -1.000
 4335.00    1.11476   1.09871   -1.000
 4336.00    1.04397   1.02230   -1.000
 4337.00    0.94919   0.92296   -1.000
 4338.00    0.86869   0.83292   -1.000
 4339.00    0.80269   0.78637   -1.000
 4340.00    0.78631   0.79703   -1.000
 4341.00    0.85396   0.85765   -1.000
 4342.00    0.94917   0.93891   -1.000
 4343.00    1.00899   1.00842  991.090
 4344.00    1.03999   1.05490   -1.000
 4345.00    1.06887   1.08549   -1.000
 4346.00    1.08659   1.11003   -1.000
 4347.00    1.09771   1.13252   -1.000
 4348.00    1.11661   1.13971   -1.000
 4349.00    1.11207   1.11079  899.223
 4350.00    1.04977   1.05118  952.593
 4351.00    0.97487   0.99794   -1.000
 4352.00    0.96515   0.98925   -1.000
 4353.00    1.00983   1.02630   -1.000
 4354.00    1.05812   1.07537   -1.000
 4355.00    1.09068   1.11017   -1.000
 4356.00    1.11319   1.12451   -1.000
 4357.00    1.11116   1.12025   -1.000
 4358.00    1.08577   1.10746   -1.000
 4359.00    1.07331   1.10709   -1.000
 4360.00    1.09670   1.12714   -1.000
 4361.00    1.13220   1.15512   -1.000
 4362.00    1.14330   1.17824   -1.000
 4363.00    1.14749   1.19309   -1.000
 4364.00    1.16124   1.19770   -1.000
 4365.00    1.16138   1.18355   -1.000
 4366.00    1.12393   1.14933   -1.000
 4367.00    1.08372   1.11491   -1.000
 4368.00    1.07369   1.09893   -1.000
 4369.00    1.08587   1.09728   -1.000
 4370.00    1.09228   1.09569   -1.000
 4371.00    1.09286   1.08234   -1.000
 4372.00    1.08122   1.05252   -1.000
 4373.00    1.03634   1.01318   -1.000
 4374.00    0.99675   0.98918   -1.000
 4375.00    0.99873   1.00251   -1.000
 4376.00    1.04475   1.04726  957.166
 4377.00    1.10074   1.09298   -1.000
 4378.00    1.11805   1.11173   -1.000
 4379.00    1.10973   1.09786   -1.000
 4380.00    1.08934   1.05100   -1.000
 4381.00    1.03791   0.96914   -1.000
 4382.00    0.92987   0.87510   -1.000
 4383.00    0.83485   0.81983   -1.000
 4384.00    0.83173   0.83584   -1.000
 4385.00    0.92241   0.90803   -1.000
 4386.00    1.01873   0.98235   -1.000
 4387.00    1.04859   1.01851   -1.000
 4388.00    1.04576   1.02140   -1.000
 4389.00    1.03376   1.01649   -1.000
 4390.00    1.03107   1.02197   -1.000
 4391.00    1.05313   1.03699   -1.000
 4392.00    1.07764   1.04955   -1.000
 4393.00    1.06814   1.05100   -1.000
 4394.00    1.04370   1.05218   -1.000
 4395.00    1.04957   1.07189   -1.000
 4396.00    1.10338   1.10352  906.310
 4397.00    1.13492   1.11957   -1.000
 4398.00    1.11584   1.10363   -1.000
 4399.00    1.07413   1.07233  930.985
 4400.00    1.04370   1.05512   -1.000
 4401.00    1.05915   1.05091   -1.000
 4402.00    1.07908   1.03604   -1.000
 4403.00    1.03831   0.99998   -1.000
 4404.00    0.97900   0.96513   -1.000
 4405.00    0.97457   0.96289   -1.000
 4406.00    1.01141   0.98861   -1.000
 4407.00    1.02479   1.01809   -1.000
 4408.00    1.03366   1.05003   -1.000
 4409.00    1.07725   1.09432   -1.000
 4410.00    1.12586   1.14411   -1.000
 4411.00    1.16465   1.17277   -1.000
 4412.00    1.17672   1.15953   -1.000
 4413.00    1.14249   1.11323   -1.000
 4414.00    1.07751   1.06142   -1.000
 4415.00    1.04163   1.03877  960.035
 4416.00    1.05063   1.06134   -1.000
 4417.00    1.09100   1.11018   -1.000
 4418.00    1.13886   1.15560   -1.000
 4419.00    1.17077   1.17633   -1.000
 4420.00    1.16116   1.16653   -1.000
 4421.00    1.12945   1.13960   -1.000
 4422.00    1.11015   1.12067   -1.000
 4423.00    1.11830   1.11951  894.216
 4424.00    1.12369   1.12730   -1.000
 4425.00    1.11873   1.13350   -1.000
 4426.00    1.11346   1.13744   -1.000
 4427.00    1.12218   1.14085   -1.000
 4428.00    1.12649   1.14017   -1.000
 4429.00    1.11402   1.13481   -1.000
 4430.00    1.11089   1.13129   -1.000
 4431.00    1.12539   1.13194   -1.000
 4432.00    1.13392   1.12177   -1.000
 4433.00    1.09404   1.09277  914.041
 4434.00    1.04158   1.06534   -1.000
 4435.00    1.03296   1.07007   -1.000
 4436.00    1.07983   1.11636   -1.000
 4437.00    1.15266   1.17634   -1.000
 4438.00    1.20149   1.21241   -1.000
 4439.00    1.20158   1.20553   -1.000
 4440.00    1.16168   1.16407  860.825
 4441.00    1.10691   1.11733   -1.000
 4442.00    1.06245   1.09495   -1.000
 4443.00    1.06174   1.11043   -1.000
 4444.00    1.10630   1.15236   -1.000
 4445.00    1.15591   1.19508   -1.000
 4446.00    1.17630   1.21704   -1.000
 4447.00    1.17422   1.21943   -1.000
 4448.00    1.17195   1.21601   -1.000
 4449.00    1.15821   1.21169   -1.000
 4450.00    1.14701   1.20417   -1.000
 4451.00    1.15727   1.19129   -1.000
 4452.00    1.14818   1.16678   -1.000
 4453.00    1.10472   1.12598   -1.000
 4454.00    1.05511   1.08255   -1.000
 4455.00    1.03562   1.06120   -1.000
 4456.00    1.05621   1.06465   -1.000
 4457.00    1.07533   1.07483  929.946
 4458.00    1.07321   1.07713   -1.000
 4459.00    1.06738   1.07126   -1.000
 4460.00    1.05585   1.06733   -1.000
 4461.00    1.04665   1.07644   -1.000
 4462.00    1.07000   1.10345   -1.000
 4463.00    1.11555   1.13763   -1.000
 4464.00    1.14107   1.16095   -1.000
 4465.00    1.14098   1.16687   -1.000
 4466.00    1.14011   1.16060   -1.000
 4467.00    1.12633   1.14922   -1.000
 4468.00    1.10426   1.13996   -1.000
 4469.00    1.09873   1.14222   -1.000
 4470.00    1.11587   1.16381   -1.000
 4471.00    1.15364   1.19942   -1.000
 4472.00    1.19523   1.23422   -1.000
 4473.00    1.22795   1.25838   -1.000
 4474.00    1.23683   1.27104   -1.000
 4475.00    1.23366   1.28144   -1.000
 4476.00    1.24561   1.29304   -1.000
 4477.00    1.25262   1.28993   -1.000
 4478.00    1.24008   1.25647   -1.000
 4479.00    1.19320   1.20083   -1.000
 4480.00    1.14052   1.15346   -1.000
 4481.00    1.11053   1.14176   -1.000
 4482.00    1.12615   1.17156   -1.000
 4483.00    1.17852   1.22570   -1.000
 4484.00    1.22431   1.27467   -1.000
 4485.00    1.24965   1.29738   -1.000
 4486.00    1.24582   1.28739   -1.000
 4487.00    1.21617   1.25171   -1.000
 4488.00    1.16968   1.21100   -1.000
 4489.00    1.14463   1.19109   -1.000
 4490.00    1.15990   1.20169   -1.000
 4491.00    1.19322   1.22501   -1.000
 4492.00    1.21151   1.23097   -1.000
 4493.00    1.19101   1.20963   -1.000
 4494.00    1.15414   1.18254   -1.000
 4495.00    1.13055   1.17594   -1.000
 4496.00    1.14556   1.19669   -1.000
 4497.00    1.18855   1.22972   -1.000
 4498.00    1.22238   1.25349   -1.000
 4499.00    1.23335   1.25833   -1.000
 4500.00    1.21703   1.25362   -1.000
 4501.00    1.21108   1.25969   -1.000
 4502.00    1.24598   1.28413   -1.000
 4503.00    1.29124   1.31559   -1.000
 4504.00    1.31284   1.33786   -1.000
 4505.00    1.30183   1.34157   -1.000
 4506.00    1.27436   1.33050   -1.000
 4507.00    1.26299   1.31787   -1.000
 4508.00    1.26273   1.31325   -1.000
 4509.00    1.27326   1.31543   -1.000
 4510.00    1.28211   1.31578   -1.000
 4511.00    1.26990   1.30489   -1.000
 4512.00    1.24416   1.28348   -1.000
 4513.00    1.22252   1.26284   -1.000
 4514.00    1.21593   1.25043   -1.000
 4515.00    1.22291   1.24621   -1.000
 4516.00    1.22340   1.24454   -1.000
 4517.00    1.20749   1.24217   -1.000
 4518.00    1.20105   1.24647   -1.000
 4519.00    1.22374   1.26076   -1.000
 4520.00    1.24863   1.27371   -1.000
 4521.00    1.24286   1.27273   -1.000
 4522.00    1.21227   1.25638   -1.000
 4523.00    1.18849   1.23345   -1.000
 4524.00    1.17934   1.20930   -1.000
 4525.00    1.15912   1.18056   -1.000
 4526.00    1.12347   1.14540   -1.000
 4527.00    1.09280   1.11110   -1.000
 4528.00    1.08103   1.09239   -1.000
 4529.00    1.09034   1.09691   -1.000
 4530.00    1.11064   1.11760   -1.000
 4531.00    1.13135   1.13856   -1.000
 4532.00    1.13589   1.14309   -1.000
 4533.00    1.10235   1.12971   -1.000
 4534.00    1.06564   1.11713   -1.000
 4535.00    1.08318   1.13200   -1.000
 4536.00    1.15207   1.17961   -1.000
 4537.00    1.22447   1.23145   -1.000
 4538.00    1.25565   1.25787  796.401
 4539.00    1.24066   1.25463   -1.000
 4540.00    1.21018   1.24077   -1.000
 4541.00    1.21351   1.23529   -1.000
 4542.00    1.22289   1.23826   -1.000
 4543.00    1.22717   1.23847   -1.000
 4544.00    0.83015   1.23011   -1.000
 4545.00   -2.72230   1.21875    0.000
 4546.00   -0.91491   1.20993    0.000
 4547.00    0.26422   1.19927   -1.000
 4548.00    0.73905   1.18477   -1.000
 4549.00    0.27131   1.17606   -1.000
 4550.00    1.04862   1.18120   -1.000
 4551.00    1.17722   1.19296   -1.000
 4552.00    1.16980   1.19521   -1.000
 4553.00    1.15106   1.18615   -1.000
 4554.00    1.14101   1.18040   -1.000
 4555.00    1.16025   1.19240   -1.000
 4556.00    1.20595   1.22450   -1.000
 4557.00    1.25691   1.26172   -1.000
 4558.00    1.27750   1.28770   -1.000
 4559.00    1.26863   1.29992   -1.000
 4560.00    1.26999   1.30163   -1.000
 4561.00    1.26937   1.29269   -1.000
 4562.00    1.23860   1.27104   -1.000
 4563.00    1.20830   1.24161   -1.000
 4564.00    1.18855   1.22089   -1.000
 4565.00    1.20387   1.22347   -1.000
 4566.00    1.23637   1.24836   -1.000
 4567.00    1.27007   1.27859   -1.000
 4568.00    1.28162   1.29333   -1.000
 4569.00    1.26600   1.28489   -1.000
 4570.00    1.23346   1.26287   -1.000
 4571.00    1.20173   1.24550   -1.000
 4572.00    1.21305   1.24753   -1.000
 4573.00    1.25270   1.26690   -1.000
 4574.00    1.26950   1.28623   -1.000
 4575.00    1.26764   1.29312   -1.000
 4576.00    1.26153   1.28775   -1.000
 4577.00    1.25416   1.27190   -1.000
 4578.00    1.23212   1.24579   -1.000
 4579.00    1.19517   1.21475   -1.000
 4580.00    1.17168   1.19096   -1.000
 4581.00    1.17660   1.18445   -1.000
 4582.00    1.19428   1.19179  837.325
 4583.00    1.20264   1.19987  831.506
 4584.00    1.19831   1.20211   -1.000
 4585.00    1.19056   1.20433   -1.000
 4586.00    1.20877   1.21795   -1.000
 4587.00    1.24236   1.24520  804.921
 4588.00    1.26892   1.27154  788.071
 4589.00    1.26930   1.28156   -1.000
 4590.00    1.24974   1.27210   -1.000
 4591.00    1.22652   1.25008   -1.000
 4592.00    1.20544   1.22820   -1.000
 4593.00    1.20550   1.21712   -1.000
 4594.00    1.21654   1.21483  822.003
 4595.00    1.22612   1.21471   -1.000
 4596.00    1.22900   1.21801   -1.000
 4597.00    1.23157   1.22492   -1.000
 4598.00    1.23436   1.23009   -1.000
 4599.00    1.22272   1.23019   -1.000
 4600.00    1.21182   1.22747   -1.000
 4601.00    1.20889   1.22685   -1.000
 4602.00    1.22285   1.22986   -1.000
 4603.00    1.23679   1.23279  808.547
 4604.00    1.23375   1.23475  810.534
 4605.00    1.23611   1.24181   -1.000
 4606.00    1.25042   1.26041   -1.000
 4607.00    1.27637   1.28855   -1.000
 4608.00    1.30446   1.31512   -1.000
 4609.00    1.31924   1.32810   -1.000
 4610.00    1.31209   1.32294   -1.000
 4611.00    1.29349   1.30681   -1.000
 4612.00    1.27951   1.29167   -1.000
 4613.00    1.27161   1.28594   -1.000
 4614.00    1.27882   1.29162   -1.000
 4615.00    1.29063   1.30122   -1.000
 4616.00    1.29542   1.30598   -1.000
 4617.00    1.28594   1.30430   -1.000
 4618.00    1.27641   1.29998   -1.000
 4619.00    1.27828   1.29936   -1.000
 4620.00    1.29131   1.30568   -1.000
 4621.00    1.31274   1.31493  761.768
 4622.00    1.31184   1.31927   -1.000
 4623.00    1.30835   1.31571   -1.000
 4624.00    1.30583   1.30931   -1.000
 4625.00    1.29329   1.30486   -1.000
 4626.00    1.29071   1.30344   -1.000
 4627.00    1.29160   1.30432   -1.000
 4628.00    1.28270   1.30557   -1.000
 4629.00    1.28033   1.30714   -1.000
 4630.00    1.28735   1.30952   -1.000
 4631.00    1.30298   1.30954   -1.000
 4632.00    1.29585   1.30325   -1.000
 4633.00    1.27632   1.29163   -1.000
 4634.00    1.26269   1.28020   -1.000
 4635.00    1.26477   1.27058   -1.000
 4636.00    1.25383   1.25928   -1.000
 4637.00    1.23697   1.24710   -1.000
 4638.00    1.23264   1.23884   -1.000
 4639.00    1.23478   1.23971   -1.000
 4640.00    1.25736   1.25252   -1.000
 4641.00    1.28961   1.27144   -1.000
 4642.00    1.30664   1.28315   -1.000
 4643.00    1.29991   1.27734   -1.000
 4644.00    1.27492   1.25444   -1.000
 4645.00    1.23913   1.22116   -1.000
 4646.00    1.20576   1.19135   -1.000
 4647.00    1.20238   1.18189   -1.000
 4648.00    1.22572   1.19684   -1.000
 4649.00    1.25555   1.22737   -1.000
 4650.00    1.27221   1.25900   -1.000
 4651.00    1.27350   1.27737   -1.000
 4652.00    1.27622   1.27700  783.566
 4653.00    1.26004   1.26162  793.623
 4654.00    1.23048   1.24170   -1.000
 4655.00    1.21741   1.23264   -1.000
 4656.00    1.22946   1.24547   -1.000
 4657.00    1.27181   1.27901   -1.000
 4658.00    1.32314   1.31858   -1.000
 4659.00    1.35214   1.34446   -1.000
 4660.00    1.35174   1.34467   -1.000
 4661.00    1.33400   1.32405   -1.000
 4662.00    1.30092   1.29614   -1.000
 4663.00    1.27617   1.27051   -1.000
 4664.00    1.27460   1.24362   -1.000
 4665.00    1.25276   1.20642   -1.000
 4666.00    1.19889   1.16489   -1.000
 4667.00    1.15104   1.13876   -1.000
 4668.00    1.15277   1.14633   -1.000
 4669.00    1.19163   1.18336   -1.000
 4670.00    1.24470   1.22482   -1.000
 4671.00    1.27806   1.25141   -1.000
 4672.00    1.28400   1.26093   -1.000
 4673.00    1.28251   1.26386   -1.000
 4674.00    1.28403   1.27151   -1.000
 4675.00    1.30200   1.28431   -1.000
 4676.00    1.32210   1.29040   -1.000
 4677.00    1.31375   1.27942   -1.000
 4678.00    1.28437   1.25536   -1.000
 4679.00    1.25964   1.22934   -1.000
 4680.00    1.23940   1.21256   -1.000
 4681.00    1.22805   1.21207   -1.000
 4682.00    1.24530   1.22646   -1.000
 4683.00    1.27867   1.24614   -1.000
 4684.00    1.29460   1.25995   -1.000
 4685.00    1.28885   1.26409   -1.000
 4686.00    1.28866   1.26111   -1.000
 4687.00    1.28084   1.25564   -1.000
 4688.00    1.28127   1.25074   -1.000
 4689.00    1.28112   1.24707   -1.000
 4690.00    1.27132   1.24431   -1.000
 4691.00    1.26913   1.24398   -1.000
 4692.00    1.28555   1.25040   -1.000
 4693.00    1.30523   1.26465   -1.000
 4694.00    1.33571   1.28085   -1.000
 4695.00    1.35211   1.28966   -1.000
 4696.00    1.34394   1.28300   -1.000
 4697.00    1.30413   1.25994   -1.000
 4698.00    1.26574   1.23111   -1.000
 4699.00    1.25265   1.21077   -1.000
 4700.00    1.26438   1.19954   -1.000
 4701.00    1.25363   1.18952   -1.000
 4702.00    1.23095   1.18343   -1.000
 4703.00    1.22560   1.18837   -1.000
 4704.00    1.25126   1.20222   -1.000
 4705.00    1.26960   1.21340   -1.000
 4706.00    1.24978   1.21211   -1.000
 4707.00    1.22467   1.20148   -1.000
 4708.00    1.21379   1.19410   -1.000
 4709.00    1.22133   1.20073   -1.000
 4710.00    1.26042   1.22037   -1.000
 4711.00    1.29575   1.24064   -1.000
 4712.00    1.30724   1.24718   -1.000
 4713.00    1.29322   1.23872   -1.000
 4714.00    1.26836   1.23261   -1.000
 4715.00    1.26990   1.24286   -1.000
 4716.00    1.29730   1.26698   -1.000
 4717.00    1.32265   1.29416   -1.000
 4718.00    1.32975   1.31537   -1.000
 4719.00    1.33429   1.32672   -1.000
 4720.00    1.33888   1.32785   -1.000
 4721.00    1.32649   1.32112   -1.000
 4722.00    1.31727   1.31445  759.145
 4723.00    1.32615   1.31610   -1.000
 4724.00    1.34113   1.31946   -1.000
 4725.00    1.33797   1.30884   -1.000
 4726.00    1.30425   1.27726   -1.000
 4727.00    1.25518   1.23450   -1.000
 4728.00    1.22892   1.20228   -1.000
 4729.00    1.23549   1.19401   -1.000
 4730.00    1.24874   1.20535   -1.000
 4731.00    1.25842   1.22478   -1.000
 4732.00    1.27417   1.24464   -1.000
 4733.00    1.28502   1.26066   -1.000
 4734.00    1.29213   1.26789   -1.000
 4735.00    1.29937   1.26566   -1.000
 4736.00    1.28412   1.26131   -1.000
 4737.00    1.28332   1.26381   -1.000
 4738.00    1.30139   1.27398   -1.000
 4739.00    1.29964   1.28275   -1.000
 4740.00    1.29167   1.28344   -1.000
 4741.00    1.29037   1.28235   -1.000
 4742.00    1.30159   1.28573   -1.000
 4743.00    1.31622   1.29018   -1.000
 4744.00    1.31244   1.29464   -1.000
 4745.00    1.31142   1.30210   -1.000
 4746.00    1.32202   1.31192   -1.000
 4747.00    1.33579   1.32129   -1.000
 4748.00    1.33790   1.32800   -1.000
 4749.00    1.33556   1.33163  748.752
 4750.00    1.33476   1.33186  749.198
 4751.00    1.32452   1.32618  754.992
 4752.00    1.30927   1.31353   -1.000
 4753.00    1.29864   1.29788  770.037
 4754.00    1.28992   1.28501   -1.000
 4755.00    1.29291   1.27919   -1.000
 4756.00    1.28738   1.28194   -1.000
 4757.00    1.27759   1.29104   -1.000
 4758.00    1.27672   1.30258   -1.000
 4759.00    1.28820   1.31098   -1.000
 4760.00    1.28997   1.30788   -1.000
 4761.00    1.26868   1.28970   -1.000
 4762.00    1.23687   1.26316   -1.000
 4763.00    1.22210   1.23976   -1.000
 4764.00    1.22112   1.22517   -1.000
 4765.00    1.22391   1.21866   -1.000
 4766.00    1.23297   1.22292   -1.000
 4767.00    1.25083   1.24263   -1.000
 4768.00    1.28069   1.27414   -1.000
 4769.00    1.29796   1.30318   -1.000
 4770.00    1.29454   1.31549   -1.000
 4771.00    1.28310   1.31243   -1.000
 4772.00    1.27181   1.31019   -1.000
 4773.00    1.28836   1.32065   -1.000
 4774.00    1.31739   1.33975   -1.000
 4775.00    1.32521   1.35466   -1.000
 4776.00    1.32358   1.36008   -1.000
 4777.00    1.31953   1.36013   -1.000
 4778.00    1.31065   1.35650   -1.000
 4779.00    1.29564   1.34819   -1.000
 4780.00    1.28848   1.33711   -1.000
 4781.00    1.28552   1.32557   -1.000
 4782.00    1.27905   1.31425   -1.000
 4783.00    1.26853   1.30438   -1.000
 4784.00    1.26974   1.29736   -1.000
 4785.00    1.26514   1.29070   -1.000
 4786.00    1.25211   1.28137   -1.000
 4787.00    1.24527   1.27418   -1.000
 4788.00    1.24703   1.27332   -1.000
 4789.00    1.25350   1.27674   -1.000
 4790.00    1.26137   1.28486   -1.000
 4791.00    1.27503   1.30099   -1.000
 4792.00    1.29680   1.32595   -1.000
 4793.00    1.32691   1.35593   -1.000
 4794.00    1.34963   1.38110   -1.000
 4795.00    1.35349   1.39131   -1.000
 4796.00    1.33887   1.38270   -1.000
 4797.00    1.31150   1.35740   -1.000
 4798.00    1.28751   1.32621   -1.000
 4799.00    1.27290   1.30713   -1.000
 4800.00    1.28575   1.31097   -1.000
 4801.00    1.31326   1.33289   -1.000
 4802.00    1.33189   1.35693   -1.000
 4803.00    1.32865   1.36498   -1.000
 4804.00    1.31014   1.35318   -1.000
 4805.00    1.29364   1.33291   -1.000
 4806.00    1.28226   1.31667   -1.000
 4807.00    1.28330   1.30937   -1.000
 4808.00    1.28669   1.31077   -1.000
 4809.00    1.29266   1.31926   -1.000
 4810.00    1.30488   1.33030   -1.000
 4811.00    1.31412   1.33887   -1.000
 4812.00    1.32073   1.34281   -1.000
 4813.00    1.32171   1.34439   -1.000
 4814.00    1.32508   1.34841   -1.000
 4815.00    1.32995   1.35773   -1.000
 4816.00    1.33862   1.37080   -1.000
 4817.00    1.34695   1.38362   -1.000
 4818.00    1.35227   1.39206   -1.000
 4819.00    1.35247   1.39470   -1.000
 4820.00    1.35239   1.39008   -1.000
 4821.00    1.33985   1.37232   -1.000
 4822.00    1.30386   1.34218   -1.000
 4823.00    1.28005   1.31446   -1.000
 4824.00    1.28402   1.30499   -1.000
 4825.00    1.30837   1.31629   -1.000
 4826.00    1.32871   1.33351   -1.000
 4827.00    1.32168   1.33965   -1.000
 4828.00    1.30562   1.33329   -1.000
 4829.00    1.29799   1.32222   -1.000
 4830.00    1.29881   1.31087   -1.000
 4831.00    1.28610   1.30089   -1.000
 4832.00    1.28452   1.29719   -1.000
 4833.00    1.30681   1.30441  765.222
 4834.00    1.32415   1.31980   -1.000
 4835.00    1.32833   1.33312   -1.000
 4836.00    1.32576   1.33681   -1.000
 4837.00    1.31921   1.33097   -1.000
 4838.00    1.30069   1.31736   -1.000
 4839.00    1.27744   1.30053   -1.000
 4840.00    1.27795   1.28888   -1.000
 4841.00    1.28083   1.28557   -1.000
 4842.00    1.28751   1.28667  776.692
 4843.00    1.29738   1.29204   -1.000
 4844.00    1.31068   1.30566   -1.000
 4845.00    1.33208   1.32274   -1.000
 4846.00    1.33816   1.32987   -1.000
 4847.00    1.30958   1.31995   -1.000
 4848.00    1.29073   1.30366   -1.000
 4849.00    1.29190   1.29825   -1.000
 4850.00    1.31133   1.30465   -1.000
 4851.00    1.31352   1.31118  761.313
 4852.00    1.30549   1.30746  765.994
 4853.00    1.29427   1.28712   -1.000
 4854.00    1.25510   1.25264  796.747
 4855.00    1.22055   1.22033  819.300
 4856.00    1.22528   1.20435   -1.000
 4857.00    1.23838   1.19540   -1.000
 4858.00    1.20288   1.16474   -1.000
 4859.00    1.10374   1.09113   -1.000
 4860.00    0.98531   0.99959   -1.000
 4861.00    0.94311   0.94450 1060.318
 4862.00    1.00996   0.95913   -1.000
 4863.00    1.11030   1.03070   -1.000
 4864.00    1.17818   1.11227   -1.000
 4865.00    1.22000   1.17319   -1.000
 4866.00    1.24554   1.21242   -1.000
 4867.00    1.25627   1.23530   -1.000
 4868.00    1.26141   1.24245   -1.000
 4869.00    1.24972   1.22967   -1.000
 4870.00    1.21409   1.19852   -1.000
 4871.00    1.18524   1.16703   -1.000
 4872.00    1.19735   1.16081   -1.000
 4873.00    1.23382   1.18648   -1.000
 4874.00    1.25489   1.22152   -1.000
 4875.00    1.26412   1.24566   -1.000
 4876.00    1.27094   1.25984   -1.000
 4877.00    1.27507   1.27503  784.273
 4878.00    1.29471   1.29563  772.376
 4879.00    1.30839   1.31240   -1.000
 4880.00    1.29564   1.31480   -1.000
 4881.00    1.27400   1.30332   -1.000
 4882.00    1.26708   1.28875   -1.000
 4883.00    1.27196   1.27769   -1.000
 4884.00    1.26460   1.26393  790.767
 4885.00    1.24466   1.24450  803.435
 4886.00    1.23862   1.23068   -1.000
 4887.00    1.24590   1.22820   -1.000
 4888.00    1.24737   1.22583   -1.000
 4889.00    1.22822   1.21176   -1.000
 4890.00    1.20099   1.19151   -1.000
 4891.00    1.21056   1.19030   -1.000
 4892.00    1.26313   1.22679   -1.000
 4893.00    1.32536   1.28971   -1.000
 4894.00    1.36463   1.35143   -1.000
 4895.00    1.39013   1.39147  719.357
 4896.00    1.39603   1.40553   -1.000
 4897.00    1.39262   1.39992   -1.000
 4898.00    1.36178   1.38249   -1.000
 4899.00    1.33007   1.36103   -1.000
 4900.00    1.31621   1.34402   -1.000
 4901.00    1.32358   1.33335   -1.000
 4902.00    1.32135   1.32440  756.801
 4903.00    1.30450   1.31890   -1.000
 4904.00    1.32016   1.32577   -1.000
 4905.00    1.34982   1.34597  740.842
 4906.00    1.35962   1.36160  735.501
 4907.00    1.34620   1.35397   -1.000
 4908.00    1.31351   1.32408   -1.000
 4909.00    1.27613   1.28713   -1.000
 4910.00    1.26090   1.26259  793.082
 4911.00    1.27907   1.26189   -1.000
 4912.00    1.30300   1.28137   -1.000
 4913.00    1.32087   1.30860   -1.000
 4914.00    1.33828   1.33250   -1.000
 4915.00    1.35002   1.34448   -1.000
 4916.00    1.34291   1.33228   -1.000
 4917.00    1.29580   1.28644   -1.000
 4918.00    1.22715   1.21715   -1.000
 4919.00    1.17143   1.15325   -1.000
 4920.00    1.15961   1.12587   -1.000
 4921.00    1.20063   1.14401   -1.000
 4922.00    1.24618   1.18424   -1.000
 4923.00    1.26393   1.21782   -1.000
 4924.00    1.26448   1.23771   -1.000
 4925.00    1.28140   1.25786   -1.000
 4926.00    1.31664   1.28791   -1.000
 4927.00    1.34018   1.31951   -1.000
 4928.00    1.35248   1.34486   -1.000
 4929.00    1.36168   1.36335  734.384
 4930.00    1.36993   1.36971  729.965
 4931.00    1.35572   1.35680  737.614
 4932.00    1.31875   1.32559   -1.000
 4933.00    1.27175   1.29098   -1.000
 4934.00    1.27012   1.27345  787.328
 4935.00    1.29445   1.27252   -1.000
 4936.00    1.29448   1.26565   -1.000
 4937.00    1.25583   1.24093   -1.000
 4938.00    1.22207   1.21469   -1.000
 4939.00    1.23435   1.21568   -1.000
 4940.00    1.27925   1.25162   -1.000
 4941.00    1.32162   1.30289   -1.000
 4942.00    1.34585   1.34324  743.024
 4943.00    1.35785   1.36036  736.460
 4944.00    1.35639   1.35862  737.253
 4945.00    1.34641   1.34947  742.717
 4946.00    1.34374   1.34565  744.193
 4947.00    1.35654   1.35284  737.170
 4948.00    1.37301   1.36697   -1.000
 4949.00    1.37672   1.37890  726.366
 4950.00    1.38264   1.38302  723.256
 4951.00    1.37496   1.37956   -1.000
 4952.00    1.36549   1.37129   -1.000
 4953.00    1.34958   1.36035   -1.000
 4954.00    1.33290   1.34050   -1.000
 4955.00    1.29745   1.29954  770.742
 4956.00    1.23234   1.23859   -1.000
 4957.00    1.18485   1.19011   -1.000
 4958.00    1.21162   1.19366   -1.000
 4959.00    1.28723   1.24621   -1.000
 4960.00    1.33215   1.30913   -1.000
 4961.00    1.34133   1.34866   -1.000
 4962.00    1.33453   1.35723   -1.000
 4963.00    1.32379   1.34574   -1.000
 4964.00    1.30809   1.32287   -1.000
 4965.00    1.28035   1.29579   -1.000
 4966.00    1.26427   1.27641   -1.000
 4967.00    1.26450   1.27041   -1.000
 4968.00    1.26833   1.27227   -1.000
 4969.00    1.27799   1.27872  782.482
 4970.00    1.29198   1.29112  774.008
 4971.00    1.30599   1.30946  765.703
 4972.00    1.32188   1.33035   -1.000
 4973.00    1.33436   1.34671   -1.000
 4974.00    1.33959   1.35302   -1.000
 4975.00    1.32981   1.34883   -1.000
 4976.00    1.31576   1.33466   -1.000
 4977.00    1.29795   1.31301   -1.000
 4978.00    1.27695   1.29089   -1.000
 4979.00    1.26156   1.27129   -1.000
 4980.00    1.24386   1.24803   -1.000
 4981.00    1.20329   1.21404   -1.000
 4982.00    1.16537   1.17426   -1.000
 4983.00    1.16653   1.15009   -1.000
 4984.00    1.18963   1.15740   -1.000
 4985.00    1.22443   1.19140   -1.000
 4986.00    1.26480   1.23609   -1.000
 4987.00    1.29671   1.27442   -1.000
 4988.00    1.29453   1.29251  772.482
 4989.00    1.27507   1.28828   -1.000
 4990.00    1.26224   1.27642   -1.000
 4991.00    1.26207   1.27146   -1.000
 4992.00    1.27385   1.27566  785.020
 4993.00    1.27906   1.28282   -1.000
 4994.00    1.27950   1.28914   -1.000
 4995.00    1.28635   1.29625   -1.000
 4996.00    1.29278   1.30165   -1.000
 4997.00    1.28451   1.29679   -1.000
 4998.00    1.26719   1.27773   -1.000
 4999.00    1.24172   1.24990   -1.000
 5000.00    1.22663   1.22550  815.245
 5001.00    1.22621   1.21384   -1.000
 5002.00    1.23838   1.21240   -1.000
 5003.00    1.24650   1.20941   -1.000
 5004.00    1.22802   1.19491   -1.000
 5005.00    1.19689   1.17396   -1.000
 5006.00    1.19093   1.16529   -1.000
 5007.00    1.22204   1.18415   -1.000
 5008.00    1.26083   1.22132   -1.000
 5009.00    1.27364   1.24875   -1.000
 5010.00    1.25621   1.24699   -1.000
 5011.00    1.21879   1.21745  820.486
 5012.00    1.17427   1.17804  851.594
 5013.00    1.14798   1.14895  871.097
 5014.00    1.15454   1.14262   -1.000
 5015.00    1.18139   1.15549   -1.000
 5016.00    1.20664   1.17125   -1.000
 5017.00    1.21111   1.17948   -1.000
 5018.00    1.21066   1.18376   -1.000
 5019.00    1.22510   1.19254   -1.000
 5020.00    1.23508   1.20324   -1.000
 5021.00    1.22911   1.20881   -1.000
 5022.00    1.22648   1.21299   -1.000
 5023.00    1.23387   1.22409   -1.000
 5024.00    1.24730   1.23979   -1.000
 5025.00    1.25558   1.24845   -1.000
 5026.00    1.24912   1.24448   -1.000
 5027.00    1.24315   1.23773   -1.000
 5028.00    1.25521   1.24217   -1.000
 5029.00    1.27979   1.25940   -1.000
 5030.00    1.29811   1.28276   -1.000
 5031.00    1.31968   1.30614   -1.000
 5032.00    1.33487   1.32361   -1.000
 5033.00    1.33210   1.32572   -1.000
 5034.00    1.28925   1.30488   -1.000
 5035.00    1.23946   1.26861   -1.000
 5036.00    1.22016   1.23859   -1.000
 5037.00    1.21640   1.22196   -1.000
 5038.00    1.20115   1.20129  832.536
 5039.00    1.15448   1.16349   -1.000
 5040.00    1.10909   1.12133   -1.000
 5041.00    1.11007   1.10857  900.847
 5042.00    1.16851   1.14411   -1.000
 5043.00    1.24632   1.21118   -1.000
 5044.00    1.29835   1.27815   -1.000
 5045.00    1.32535   1.32199  754.520
 5046.00    1.37921   1.33350   -1.000
 5047.00    1.33441   1.31368   -1.000
 5048.00    0.47191   1.27519   -1.000
 5049.00    0.67170   1.23862   -1.000
 5050.00    1.25996   1.21963   -1.000
 5051.00    1.23603   1.22119   -1.000
 5052.00    1.26533   1.23945   -1.000
 5053.00    1.29830   1.26921   -1.000
 5054.00    1.32206   1.30070   -1.000
 5055.00    1.33435   1.32253   -1.000
 5056.00    1.33836   1.33220   -1.000
 5057.00    1.33566   1.33536  748.696
 5058.00    1.33318   1.33839   -1.000
 5059.00    1.33382   1.34547   -1.000
 5060.00    1.34333   1.35606   -1.000
 5061.00    1.34219   1.36158   -1.000
 5062.00    1.32364   1.34940   -1.000
 5063.00    1.28526   1.31547   -1.000
 5064.00    1.24055   1.27249   -1.000
 5065.00    1.22753   1.24399   -1.000
 5066.00    1.24376   1.23895   -1.000
 5067.00    1.26308   1.24597   -1.000
 5068.00    1.26650   1.25557   -1.000
 5069.00    1.27264   1.26566   -1.000
 5070.00    1.28121   1.27230   -1.000
 5071.00    1.27014   1.27030  787.315
 5072.00    1.26016   1.26298  793.549
 5073.00    1.27696   1.25987   -1.000
 5074.00    1.28678   1.26407   -1.000
 5075.00    1.28816   1.27041   -1.000
 5076.00    1.28916   1.27109   -1.000
 5077.00    1.27616   1.25698   -1.000
 5078.00    1.23172   1.22250   -1.000
 5079.00    1.17485   1.17902   -1.000
 5080.00    1.16312   1.15539   -1.000
 5081.00    1.18977   1.16430   -1.000
 5082.00    1.21576   1.18869   -1.000
 5083.00    1.23190   1.21342   -1.000
 5084.00    1.25598   1.23735   -1.000
 5085.00    1.27779   1.25973   -1.000
 5086.00    1.28644   1.27595   -1.000
 5087.00    1.28790   1.28405   -1.000
 5088.00    1.29465   1.28849   -1.000
 5089.00    1.30422   1.29445   -1.000
 5090.00    1.31135   1.30314   -1.000
 5091.00    1.31816   1.31448  758.632
 5092.00    1.33397   1.32713   -1.000
 5093.00    1.34591   1.33567   -1.000
 5094.00    1.33265   1.33146  750.386
 5095.00    1.30463   1.30916   -1.000
 5096.00    1.27698   1.27207   -1.000
 5097.00    1.24655   1.23179   -1.000
 5098.00    1.22111   1.20306   -1.000
 5099.00    1.21818   1.20048   -1.000
 5100.00    1.25042   1.22634   -1.000
 5101.00    1.28806   1.26236   -1.000
 5102.00    1.29827   1.28513   -1.000
 5103.00    1.28984   1.28640  775.288
 5104.00    1.27259   1.27517  785.797
 5105.00    1.25672   1.25969  795.721
 5106.00    1.24154   1.24209  805.450
 5107.00    1.22611   1.22539  815.591
 5108.00    1.22877   1.21372   -1.000
 5109.00    1.23697   1.21163   -1.000
 5110.00    1.24596   1.22281   -1.000
 5111.00    1.26460   1.24564   -1.000
 5112.00    1.28015   1.27125   -1.000
 5113.00    1.29595   1.29021   -1.000
 5114.00    1.30756   1.30211   -1.000
 5115.00    1.31437   1.31234  760.818
 5116.00    1.32877   1.32371   -1.000
 5117.00    1.33984   1.33360   -1.000
 5118.00    1.33516   1.33554  748.975
 5119.00    1.31724   1.32477   -1.000
 5120.00    1.29756   1.30246   -1.000
 5121.00    1.27636   1.27275  783.475
 5122.00    1.24370   1.23952   -1.000
 5123.00    1.20693   1.21000  828.546
 5124.00    1.19993   1.19352   -1.000
 5125.00    1.21161   1.19213   -1.000
 5126.00    1.21729   1.19834   -1.000
 5127.00    1.22469   1.20338   -1.000
 5128.00    1.22247   1.20610   -1.000
 5129.00    1.22372   1.21096   -1.000
 5130.00    1.24067   1.22182   -1.000
 5131.00    1.26248   1.23753   -1.000
 5132.00    1.27225   1.25346   -1.000
 5133.00    1.28461   1.26713   -1.000
 5134.00    1.29598   1.27727   -1.000
 5135.00    1.29893   1.27959   -1.000
 5136.00    1.27458   1.26692   -1.000
 5137.00    1.24382   1.23950   -1.000
 5138.00    1.22479   1.21334   -1.000
 5139.00    1.22400   1.20312   -1.000
 5140.00    1.23575   1.20492   -1.000
 5141.00    1.22556   1.20579   -1.000
 5142.00    1.20530   1.20258  829.669
 5143.00    1.21376   1.20492   -1.000
 5144.00    1.23530   1.21472   -1.000
 5145.00    1.23871   1.21830   -1.000
 5146.00    1.22638   1.21081   -1.000
 5147.00    1.22382   1.20488   -1.000
 5148.00    1.24003   1.20885   -1.000
 5149.00    1.24658   1.21605   -1.000
 5150.00    1.23013   1.21496   -1.000
 5151.00    1.20764   1.20518  828.062
 5152.00    1.20048   1.19710   -1.000
 5153.00    1.20733   1.19825   -1.000
 5154.00    1.23180   1.21085   -1.000
 5155.00    1.26437   1.23434   -1.000
 5156.00    1.29736   1.26309   -1.000
 5157.00    1.32164   1.28748   -1.000
 5158.00    1.33067   1.30145   -1.000
 5159.00    1.33039   1.30475   -1.000
 5160.00    1.32571   1.29854   -1.000
 5161.00    1.31795   1.28428   -1.000
 5162.00    1.30284   1.26392   -1.000
 5163.00    1.28261   1.23419   -1.000
 5164.00    1.23383   1.18527   -1.000
 5165.00    1.13671   1.11000   -1.000
 5166.00    1.02759   1.02075   -1.000
 5167.00    0.96465   0.95959   -1.000
 5168.00    0.98911   0.95845   -1.000
 5169.00    1.05181   0.99729   -1.000
 5170.00    1.06346   1.01826   -1.000
 5171.00    0.99468   0.98829   -1.000
 5172.00    0.93085   0.94955   -1.000
 5173.00    0.97664   0.96464   -1.000
 5174.00    1.09982   1.04326   -1.000
 5175.00    1.19692   1.14084   -1.000
 5176.00    1.24054   1.20931   -1.000
 5177.00    1.25317   1.24025   -1.000
 5178.00    1.25513   1.24806   -1.000
 5179.00    1.24195   1.23792   -1.000
 5180.00    1.19819   1.19891  834.595
 5181.00    1.11480   1.11991   -1.000
 5182.00    0.99584   1.01943   -1.000
 5183.00    0.92531   0.94739   -1.000
 5184.00    0.97712   0.95371   -1.000
 5185.00    1.10483   1.03796   -1.000
 5186.00    1.20717   1.13975   -1.000
 5187.00    1.24254   1.20745   -1.000
 5188.00    1.25205   1.23619   -1.000
 5189.00    1.25698   1.23946   -1.000
 5190.00    1.24248   1.22168   -1.000
 5191.00    1.20258   1.18685   -1.000
 5192.00    1.17052   1.15610   -1.000
 5193.00    1.18194   1.15141   -1.000
 5194.00    1.20331   1.16656   -1.000
 5195.00    1.22116   1.18449   -1.000
 5196.00    1.23924   1.20327   -1.000
 5197.00    1.26518   1.22653   -1.000
 5198.00    1.28678   1.25142   -1.000
 5199.00    1.29672   1.27070   -1.000
 5200.00    1.29745   1.27899   -1.000
 5201.00    1.28634   1.27348   -1.000
 5202.00    1.26260   1.25295   -1.000
 5203.00    1.23396   1.21837   -1.000
 5204.00    1.19558   1.17637   -1.000
 5205.00    1.15991   1.13915   -1.000
 5206.00    1.15766   1.11635   -1.000
 5207.00    1.15131   1.10827   -1.000
 5208.00    1.14432   1.11126   -1.000
 5209.00    1.16280   1.12966   -1.000
 5210.00    1.20341   1.16924   -1.000
 5211.00    1.25450   1.22013   -1.000
 5212.00    1.30548   1.26249   -1.000
 5213.00    1.33156   1.27992   -1.000
 5214.00    1.31431   1.26908   -1.000
 5215.00    1.28287   1.24429   -1.000
 5216.00    1.26839   1.22843   -1.000
 5217.00    1.28066   1.23609   -1.000
 5218.00    1.31009   1.26171   -1.000
 5219.00    1.32966   1.29017   -1.000
 5220.00    1.33933   1.30931   -1.000
 5221.00    1.34444   1.31224   -1.000
 5222.00    1.32576   1.29613   -1.000
 5223.00    1.28493   1.26011   -1.000
 5224.00    1.23304   1.20628   -1.000
 5225.00    1.17731   1.14802   -1.000
 5226.00    1.14698   1.11152   -1.000
 5227.00    1.17558   1.11805   -1.000
 5228.00    1.24783   1.16511   -1.000
 5229.00    1.29963   1.22622   -1.000
 5230.00    1.32122   1.26652   -1.000
 5231.00    1.32193   1.26901   -1.000
 5232.00    1.29377   1.24473   -1.000
 5233.00    1.27135   1.22068   -1.000
 5234.00    1.27586   1.22091   -1.000
 5235.00    1.30763   1.24666   -1.000
 5236.00    1.33967   1.28273   -1.000
 5237.00    1.35374   1.31159   -1.000
 5238.00    1.35406   1.32474   -1.000
 5239.00    1.34942   1.32676   -1.000
 5240.00    1.35231   1.32447   -1.000
 5241.00    1.36074   1.32136   -1.000
 5242.00    1.35792   1.32057   -1.000
 5243.00    1.36111   1.32374   -1.000
 5244.00    1.36321   1.32464   -1.000
 5245.00    1.33429   1.31150   -1.000
 5246.00    1.29266   1.28240   -1.000
 5247.00    1.26400   1.25318   -1.000
 5248.00    1.26257   1.23650   -1.000
 5249.00    1.26020   1.22869   -1.000
 5250.00    1.25172   1.22646   -1.000
 5251.00    1.25872   1.23319   -1.000
 5252.00    1.27725   1.24499   -1.000
 5253.00    1.28961   1.25168   -1.000
 5254.00    1.28850   1.25318   -1.000
 5255.00    1.29857   1.26266   -1.000
 5256.00    1.33122   1.29085   -1.000
 5257.00    1.36853   1.32672   -1.000
 5258.00    1.37890   1.34747   -1.000
 5259.00    1.36441   1.34072   -1.000
 5260.00    1.32625   1.30620   -1.000
 5261.00    1.27087   1.25192   -1.000
 5262.00    1.21262   1.19080   -1.000
 5263.00    1.17311   1.13522   -1.000
 5264.00    1.15048   1.09690   -1.000
 5265.00    1.14874   1.08435   -1.000
 5266.00    1.17077   1.09351   -1.000
 5267.00    1.19199   1.10168   -1.000
 5268.00    1.16320   1.08642   -1.000
 5269.00    1.11661   1.06229   -1.000
 5270.00    1.14008   1.06713   -1.000
 5271.00    1.21652   1.11472   -1.000
 5272.00    1.26924   1.17643   -1.000
 5273.00    1.27940   1.21166   -1.000
 5274.00    1.27789   1.21830   -1.000
 5275.00    1.28120   1.22581   -1.000
 5276.00    1.30794   1.25395   -1.000
 5277.00    1.35578   1.29557   -1.000
 5278.00    1.37986   1.32439   -1.000
 5279.00    1.36915   1.32308   -1.000
 5280.00    1.33519   1.29713   -1.000
 5281.00    1.30113   1.26354   -1.000
 5282.00    1.27849   1.23751   -1.000
 5283.00    1.27341   1.23170   -1.000
 5284.00    1.30209   1.25439   -1.000
 5285.00    1.34418   1.29873   -1.000
 5286.00    1.38796   1.34103   -1.000
 5287.00    1.39604   1.36327   -1.000
 5288.00    1.38746   1.37053   -1.000
 5289.00    1.38830   1.37457   -1.000
 5290.00    1.39706   1.37780   -1.000
 5291.00    1.39961   1.37583   -1.000
 5292.00    1.39060   1.36709   -1.000
 5293.00    1.37721   1.35477   -1.000
 5294.00    1.35876   1.33643   -1.000
 5295.00    1.32141   1.30311   -1.000
 5296.00    1.27135   1.25726   -1.000
 5297.00    1.23923   1.21940   -1.000
 5298.00    1.25004   1.21142   -1.000
 5299.00    1.28435   1.23251   -1.000
 5300.00    1.30794   1.25927   -1.000
 5301.00    1.31516   1.27870   -1.000
 5302.00    1.33224   1.29927   -1.000
 5303.00    1.37073   1.32829   -1.000
 5304.00    1.39539   1.35805   -1.000
 5305.00    1.39739   1.37257   -1.000
 5306.00    1.38263   1.36878   -1.000
 5307.00    1.37089   1.36103   -1.000
 5308.00    1.38150   1.36245   -1.000
 5309.00    1.39654   1.37315   -1.000
 5310.00    1.40504   1.38223   -1.000
 5311.00    1.40289   1.38162   -1.000
 5312.00    1.39454   1.37366   -1.000
 5313.00    1.38872   1.36266   -1.000
 5314.00    1.37835   1.34949   -1.000
 5315.00    1.36455   1.33476   -1.000
 5316.00    1.35266   1.32262   -1.000
 5317.00    1.35313   1.31977   -1.000
 5318.00    1.36402   1.32592   -1.000
 5319.00    1.36947   1.33225   -1.000
 5320.00    1.36363   1.33193   -1.000
 5321.00    1.35376   1.32250   -1.000
 5322.00    1.33750   1.30353   -1.000
 5323.00    1.31384   1.28051   -1.000
 5324.00    1.30265   1.26166   -1.000
 5325.00    1.30411   1.24122   -1.000
 5326.00    1.26631   1.20257   -1.000
 5327.00    1.18600   1.14957   -1.000
 5328.00    1.15228   1.11687   -1.000
 5329.00    1.20513   1.13927   -1.000
 5330.00    1.28378   1.20458   -1.000
 5331.00    1.32342   1.26457   -1.000
 5332.00    1.33543   1.29638   -1.000
 5333.00    1.34836   1.31236   -1.000
 5334.00    1.36448   1.32686   -1.000
 5335.00    1.36957   1.33935   -1.000
 5336.00    1.35968   1.34179   -1.000
 5337.00    1.35100   1.33039   -1.000
 5338.00    1.33584   1.30564   -1.000
 5339.00    1.30132   1.27274   -1.000
 5340.00    1.27973   1.24816   -1.000
 5341.00    1.29300   1.25072   -1.000
 5342.00    1.33089   1.27681   -1.000
 5343.00    1.35406   1.30206   -1.000
 5344.00    1.35227   1.31095   -1.000
 5345.00    1.34287   1.30597   -1.000
 5346.00    1.33432   1.29589   -1.000
 5347.00    1.32798   1.28505   -1.000
 5348.00    1.31559   1.27586   -1.000
 5349.00    1.31320   1.27683   -1.000
 5350.00    1.33578   1.29412   -1.000
 5351.00    1.36838   1.31935   -1.000
 5352.00    1.38434   1.34111   -1.000
 5353.00    1.38781   1.35725   -1.000
 5354.00    1.39945   1.37212   -1.000
 5355.00    1.41816   1.38761   -1.000
 5356.00    1.42822   1.39834   -1.000
 5357.00    1.42599   1.40087   -1.000
 5358.00    1.42379   1.39734   -1.000
 5359.00    1.41834   1.38844   -1.000
 5360.00    1.40091   1.37321   -1.000
 5361.00    1.37721   1.35427   -1.000
 5362.00    1.35758   1.33596   -1.000
 5363.00    1.34895   1.32049   -1.000
 5364.00    1.34124   1.30854   -1.000
 5365.00    1.33318   1.30052   -1.000
 5366.00    1.33835   1.29694   -1.000
 5367.00    1.33798   1.29256   -1.000
 5368.00    1.32334   1.27510   -1.000
 5369.00    1.28950   1.24104   -1.000
 5370.00    1.25087   1.20744   -1.000
 5371.00    1.24996   1.20131   -1.000
 5372.00    1.30177   1.23492   -1.000
 5373.00    1.36569   1.29016   -1.000
 5374.00    1.39722   1.33766   -1.000
 5375.00    1.40579   1.36139   -1.000
 5376.00    1.40046   1.36412   -1.000
 5377.00    1.40032   1.35916   -1.000
 5378.00    1.39733   1.35453   -1.000
 5379.00    1.38881   1.34945   -1.000
 5380.00    1.37469   1.34012   -1.000
 5381.00    1.36131   1.32719   -1.000
 5382.00    1.35527   1.31729   -1.000
 5383.00    1.35680   1.31675   -1.000
 5384.00    1.36372   1.32557   -1.000
 5385.00    1.37929   1.33670   -1.000
 5386.00    1.38084   1.34152   -1.000
 5387.00    1.37391   1.33589   -1.000
 5388.00    1.36010   1.32086   -1.000
 5389.00    1.33888   1.30104   -1.000
 5390.00    1.32458   1.28338   -1.000
 5391.00    1.31946   1.27230   -1.000
 5392.00    1.31925   1.26717   -1.000
 5393.00    1.31486   1.26490   -1.000
 5394.00    1.30465   1.25910   -1.000
 5395.00    1.28694   1.24362   -1.000
 5396.00    1.26051   1.22359   -1.000
 5397.00    1.26199   1.21692   -1.000
 5398.00    1.30421   1.23336   -1.000
 5399.00    1.34244   1.26227   -1.000
 5400.00    1.34769   1.28702   -1.000
 5401.00    1.34442   1.29722   -1.000
 5402.00    1.33309   1.28635   -1.000
 5403.00    1.29093   1.25244   -1.000
 5404.00    1.25009   1.20740   -1.000
 5405.00    1.23355   1.17756   -1.000
 5406.00    1.24989   1.18156   -1.000
 5407.00    1.27806   1.20611   -1.000
 5408.00    1.28753   1.22495   -1.000
 5409.00    1.27433   1.23055   -1.000
 5410.00    1.28230   1.23843   -1.000
 5411.00    1.31991   1.26364   -1.000
 5412.00    1.35068   1.29510   -1.000
 5413.00    1.36330   1.31375   -1.000
 5414.00    1.36116   1.31960   -1.000
 5415.00    1.36065   1.32575   -1.000
 5416.00    1.37203   1.33832   -1.000
 5417.00    1.38054   1.34804   -1.000
 5418.00    1.37349   1.34476   -1.000
 5419.00    1.35926   1.33269   -1.000
 5420.00    1.35176   1.32249   -1.000
 5421.00    1.35854   1.31786   -1.000
 5422.00    1.36387   1.31252   -1.000
 5423.00    1.34259   1.30255   -1.000
 5424.00    1.33126   1.30002   -1.000
 5425.00    1.34816   1.31582   -1.000
 5426.00    1.37210   1.33643   -1.000
 5427.00    1.36495   1.33499   -1.000
 5428.00    1.32511   1.30299   -1.000
 5429.00    1.28348   1.26583   -1.000
 5430.00    1.28505   1.25251   -1.000
 5431.00    1.31086   1.26019   -1.000
 5432.00    1.30897   1.26513   -1.000
 5433.00    1.28875   1.25417   -1.000
 5434.00    1.27453   1.23933   -1.000
 5435.00    1.28114   1.24110   -1.000
 5436.00    1.30916   1.26639   -1.000
 5437.00    1.34726   1.30681   -1.000
 5438.00    1.37504   1.34615   -1.000
 5439.00    1.39366   1.37276   -1.000
 5440.00    1.40459   1.38506   -1.000
 5441.00    1.40610   1.38760   -1.000
 5442.00    1.40602   1.38293   -1.000
 5443.00    1.38978   1.36512   -1.000
 5444.00    1.35147   1.32808   -1.000
 5445.00    1.29592   1.27907   -1.000
 5446.00    1.25563   1.24257   -1.000
 5447.00    1.26989   1.24109   -1.000
 5448.00    1.31523   1.27275   -1.000
 5449.00    1.35218   1.31484   -1.000
 5450.00    1.36270   1.34226   -1.000
 5451.00    1.36137   1.34593   -1.000
 5452.00    1.34871   1.33015   -1.000
 5453.00    1.31598   1.29865   -1.000
 5454.00    1.27850   1.26046   -1.000
 5455.00    1.25227   1.23772   -1.000
 5456.00    1.27528   1.24989   -1.000
 5457.00    1.32364   1.29153   -1.000
 5458.00    1.35950   1.33226   -1.000
 5459.00    1.36427   1.34623   -1.000
 5460.00    1.34619   1.33261   -1.000
 5461.00    1.32042   1.30473   -1.000
 5462.00    1.30358   1.28037   -1.000
 5463.00    1.29748   1.27387   -1.000
 5464.00    1.31624   1.28634   -1.000
 5465.00    1.33143   1.30515   -1.000
 5466.00    1.33680   1.31892   -1.000
 5467.00    1.35292   1.32650   -1.000
 5468.00    1.35748   1.32843   -1.000
 5469.00    1.34295   1.32374   -1.000
 5470.00    1.32907   1.31445   -1.000
 5471.00    1.32535   1.30443   -1.000
 5472.00    1.31825   1.29464   -1.000
 5473.00    1.30419   1.28229   -1.000
 5474.00    1.28538   1.26292   -1.000
 5475.00    1.25746   1.23662   -1.000
 5476.00    1.23894   1.21533   -1.000
 5477.00    1.25356   1.21909   -1.000
 5478.00    1.29595   1.24795   -1.000
 5479.00    1.31916   1.27322   -1.000
 5480.00    1.30559   1.27483   -1.000
 5481.00    1.28917   1.26324   -1.000
 5482.00    1.29367   1.26337   -1.000
 5483.00    1.31878   1.28534   -1.000
 5484.00    1.34666   1.31342   -1.000
 5485.00    1.35671   1.32643   -1.000
 5486.00    1.34112   1.31795   -1.000
 5487.00    1.32158   1.30028   -1.000
 5488.00    1.31521   1.29044   -1.000
 5489.00    1.31564   1.29424   -1.000
 5490.00    1.32600   1.30548   -1.000
 5491.00    1.33569   1.31419   -1.000
 5492.00    1.34011   1.31589   -1.000
 5493.00    1.33631   1.31339   -1.000
 5494.00    1.33615   1.31182   -1.000
 5495.00    1.33640   1.31078   -1.000
 5496.00    1.32555   1.30675   -1.000
 5497.00    1.31642   1.30468   -1.000
 5498.00    1.32537   1.31129   -1.000
 5499.00    1.34133   1.31803   -1.000
 5500.00    1.32773   1.31176   -1.000
 5501.00    1.30565   1.29478   -1.000
 5502.00    1.30560   1.28135   -1.000
 5503.00    1.31775   1.27914   -1.000
 5504.00    1.31946   1.27916   -1.000
 5505.00    1.29956   1.27225   -1.000
 5506.00    1.28753   1.26514   -1.000
 5507.00    1.30212   1.26901   -1.000
 5508.00    1.32430   1.28333   -1.000
 5509.00    1.32817   1.29371   -1.000
 5510.00    1.31800   1.28723   -1.000
 5511.00    1.29075   1.26670   -1.000
 5512.00    1.27037   1.24554   -1.000
 5513.00    1.26018   1.23750   -1.000
 5514.00    1.27818   1.24635   -1.000
 5515.00    1.30160   1.26524   -1.000
 5516.00    1.32121   1.28698   -1.000
 5517.00    1.34713   1.30857   -1.000
 5518.00    1.36949   1.32790   -1.000
 5519.00    1.37077   1.34037   -1.000
 5520.00    1.36825   1.34276   -1.000
 5521.00    1.36549   1.33907   -1.000
 5522.00    1.36051   1.33569   -1.000
 5523.00    1.35849   1.33300   -1.000
 5524.00    1.34966   1.32534   -1.000
 5525.00    1.33046   1.30661   -1.000
 5526.00    1.29905   1.27798   -1.000
 5527.00    1.26596   1.25104   -1.000
 5528.00    1.26167   1.24272   -1.000
 5529.00    1.29324   1.25984   -1.000
 5530.00    1.32894   1.28928   -1.000
 5531.00    1.34433   1.31061   -1.000
 5532.00    1.33951   1.31436   -1.000
 5533.00    1.32607   1.30639   -1.000
 5534.00    1.32038   1.29709   -1.000
 5535.00    1.32607   1.29267   -1.000
 5536.00    1.33772   1.29470   -1.000
 5537.00    1.34007   1.30147   -1.000
 5538.00    1.34634   1.31141   -1.000
 5539.00    1.36044   1.32452   -1.000
 5540.00    1.37097   1.33643   -1.000
 5541.00    1.36905   1.33890   -1.000
 5542.00    1.35360   1.33019   -1.000
 5543.00    1.34017   1.31809   -1.000
 5544.00    1.33784   1.31132   -1.000
 5545.00    1.34232   1.31171   -1.000
 5546.00    1.34520   1.31770   -1.000
 5547.00    1.35439   1.32954   -1.000
 5548.00    1.36851   1.34506   -1.000
 5549.00    1.37976   1.35740   -1.000
 5550.00    1.38203   1.36163   -1.000
 5551.00    1.37356   1.35727   -1.000
 5552.00    1.36120   1.34580   -1.000
 5553.00    1.34531   1.33211   -1.000
 5554.00    1.33992   1.32392   -1.000
 5555.00    1.34278   1.32393   -1.000
 5556.00    1.34724   1.32771   -1.000
 5557.00    1.34928   1.33009   -1.000
 5558.00    1.35094   1.33037   -1.000
 5559.00    1.35237   1.33063   -1.000
 5560.00    1.34897   1.32926   -1.000
 5561.00    1.34163   1.32270   -1.000
 5562.00    1.32729   1.31227   -1.000
 5563.00    1.31864   1.30282   -1.000
 5564.00    1.31548   1.29738   -1.000
 5565.00    1.31287   1.29494   -1.000
 5566.00    1.31167   1.29301   -1.000
 5567.00    1.31489   1.29160   -1.000
 5568.00    1.31764   1.29206   -1.000
 5569.00    1.31302   1.29437   -1.000
 5570.00    1.31463   1.29612   -1.000
 5571.00    1.31430   1.29498   -1.000
 5572.00    1.31000   1.29276   -1.000
 5573.00    1.31681   1.29484   -1.000
 5574.00    1.33199   1.30399   -1.000
 5575.00    1.34283   1.31553   -1.000
 5576.00    1.36386   1.32274   -1.000
 5577.00    1.38717   1.32639   -1.000
 5578.00    1.35843   1.33055   -1.000
 5579.00    1.31036   1.33430   -1.000
 5580.00    1.30001   1.33503   -1.000
 5581.00    1.31835   1.33168   -1.000
 5582.00    1.33270   1.32557   -1.000
 5583.00    1.33425   1.31843   -1.000
 5584.00    1.32545   1.30521   -1.000
 5585.00    1.29402   1.27873   -1.000
 5586.00    1.26169   1.24283   -1.000
 5587.00    1.23444   1.21225   -1.000
 5588.00    1.22719   1.20150   -1.000
 5589.00    1.24450   1.21294   -1.000
 5590.00    1.26818   1.23622   -1.000
 5591.00    1.28555   1.25660   -1.000
 5592.00    1.28785   1.26592   -1.000
 5593.00    1.28170   1.26936   -1.000
 5594.00    1.29108   1.27841   -1.000
 5595.00    1.31124   1.29622   -1.000
 5596.00    1.32113   1.30937   -1.000
 5597.00    1.30604   1.30450  765.675
 5598.00    1.28244   1.28602  779.761
 5599.00    1.27010   1.26596   -1.000
 5600.00    1.27252   1.24973   -1.000
 5601.00    1.26419   1.23907   -1.000
 5602.00    1.25834   1.24067   -1.000
 5603.00    1.28259   1.26274   -1.000
 5604.00    1.32034   1.30166   -1.000
 5605.00    1.35036   1.33976   -1.000
 5606.00    1.36494   1.36275  732.631
 5607.00    1.36644   1.37017  731.828
 5608.00    1.36389   1.36931   -1.000
 5609.00    1.36104   1.36792   -1.000
 5610.00    1.36293   1.36996   -1.000
 5611.00    1.36755   1.37132  731.234
 5612.00    1.35972   1.36009  735.443
 5613.00    1.32962   1.32708  752.095
 5614.00    1.28264   1.27968  779.641
 5615.00    1.25547   1.24522   -1.000
 5616.00    1.27043   1.24454   -1.000
 5617.00    1.30394   1.26931   -1.000
 5618.00    1.32028   1.29521   -1.000
 5619.00    1.32169   1.30953   -1.000
 5620.00    1.32825   1.31808   -1.000
 5621.00    1.33496   1.32349   -1.000
 5622.00    1.32770   1.31676   -1.000
 5623.00    1.29939   1.29544   -1.000
 5624.00    1.27614   1.27286   -1.000
 5625.00    1.28521   1.26720   -1.000
 5626.00    1.30915   1.28322   -1.000
 5627.00    1.32775   1.30771   -1.000
 5628.00    1.34290   1.32899   -1.000
 5629.00    1.35221   1.34522   -1.000
 5630.00    1.35530   1.35533  737.847
 5631.00    1.36109   1.35702   -1.000
 5632.00    1.35875   1.35083   -1.000
 5633.00    1.34703   1.33962   -1.000
 5634.00    1.33765   1.32601   -1.000
 5635.00    1.32941   1.31169   -1.000
 5636.00    1.31946   1.29888   -1.000
 5637.00    1.31068   1.29201   -1.000
 5638.00    1.31166   1.29260   -1.000
 5639.00    1.31317   1.29484   -1.000
 5640.00    1.30792   1.29308   -1.000
 5641.00    1.30777   1.28930   -1.000
 5642.00    1.31377   1.28991   -1.000
 5643.00    1.31995   1.29683   -1.000
 5644.00    1.32150   1.30534   -1.000
 5645.00    1.33185   1.31197   -1.000
 5646.00    1.33475   1.31631   -1.000
 5647.00    1.33829   1.31681   -1.000
 5648.00    1.34008   1.31272   -1.000
 5649.00    1.33611   1.30851   -1.000
 5650.00    1.33671   1.31005   -1.000
 5651.00    1.34882   1.31699   -1.000
 5652.00    1.35134   1.32157   -1.000
 5653.00    1.34510   1.31732   -1.000
 5654.00    1.33368   1.30654   -1.000
 5655.00    1.32077   1.29246   -1.000
 5656.00    1.29415   1.27217   -1.000
 5657.00    1.25348   1.24622   -1.000
 5658.00    1.23594   1.22684   -1.000
 5659.00    1.25879   1.22816   -1.000
 5660.00    1.28787   1.24634   -1.000
 5661.00    1.28967   1.26168   -1.000
 5662.00    1.28692   1.26901   -1.000
 5663.00    1.30378   1.28060   -1.000
 5664.00    1.32292   1.29745   -1.000
 5665.00    1.32637   1.30718   -1.000
 5666.00    1.31787   1.30361   -1.000
 5667.00    1.31003   1.29342   -1.000
 5668.00    1.30926   1.28772   -1.000
 5669.00    1.31320   1.29099   -1.000
 5670.00    1.32243   1.30111   -1.000
 5671.00    1.33439   1.31572   -1.000
 5672.00    1.34816   1.33156   -1.000
 5673.00    1.36118   1.34263   -1.000
 5674.00    1.35901   1.34622   -1.000
 5675.00    1.35410   1.34566   -1.000
 5676.00    1.35964   1.34453   -1.000
 5677.00    1.36137   1.34245   -1.000
 5678.00    1.35322   1.33676   -1.000
 5679.00    1.34807   1.32721   -1.000
 5680.00    1.33974   1.31541   -1.000
 5681.00    1.32318   1.30129   -1.000
 5682.00    1.30768   1.28679   -1.000
 5683.00    1.30649   1.27959   -1.000
 5684.00    1.31542   1.28204   -1.000
 5685.00    1.32092   1.28529   -1.000
 5686.00    1.31305   1.28272   -1.000
 5687.00    1.29651   1.27838   -1.000
 5688.00    1.29395   1.28077   -1.000
 5689.00    1.31107   1.29304   -1.000
 5690.00    1.33695   1.30982   -1.000
 5691.00    1.34784   1.32396   -1.000
 5692.00    1.35613   1.33206   -1.000
 5693.00    1.35775   1.33385   -1.000
 5694.00    1.35559   1.33177   -1.000
 5695.00    1.35469   1.32843   -1.000
 5696.00    1.35040   1.32311   -1.000
 5697.00    1.33585   1.31386   -1.000
 5698.00    1.32030   1.30189   -1.000
 5699.00    1.30932   1.29038   -1.000
 5700.00    1.29491   1.28028   -1.000
 5701.00    1.29022   1.27364   -1.000
 5702.00    1.30200   1.27557   -1.000
 5703.00    1.31614   1.28392   -1.000
 5704.00    1.31778   1.28796   -1.000
 5705.00    1.30742   1.28014   -1.000
 5706.00    1.28788   1.26184   -1.000
 5707.00    1.26352   1.24115   -1.000
 5708.00    1.24476   1.22504   -1.000
 5709.00    1.23925   1.21639   -1.000
 5710.00    1.24345   1.21753   -1.000
 5711.00    1.25767   1.22974   -1.000
 5712.00    1.28598   1.25331   -1.000
 5713.00    1.31928   1.28355   -1.000
 5714.00    1.33785   1.30834   -1.000
 5715.00    1.34062   1.32168   -1.000
 5716.00    1.34352   1.32854   -1.000
 5717.00    1.34795   1.33394   -1.000
 5718.00    1.35495   1.33993   -1.000
 5719.00    1.36407   1.34730   -1.000
 5720.00    1.37006   1.35532   -1.000
 5721.00    1.37295   1.36258   -1.000
 5722.00    1.37495   1.36810   -1.000
 5723.00    1.37655   1.37030   -1.000
 5724.00    1.37253   1.36605   -1.000
 5725.00    1.35987   1.35418   -1.000
 5726.00    1.34531   1.34007   -1.000
 5727.00    1.33525   1.33307  748.926
 5728.00    1.34506   1.33616   -1.000
 5729.00    1.35299   1.34058   -1.000
 5730.00    1.34755   1.33842   -1.000
 5731.00    1.34042   1.33439   -1.000
 5732.00    1.34729   1.33767   -1.000
 5733.00    1.36161   1.34943   -1.000
 5734.00    1.36943   1.36044   -1.000
 5735.00    1.36684   1.36244   -1.000
 5736.00    1.36534   1.35731   -1.000
 5737.00    1.36079   1.35146   -1.000
 5738.00    1.36033   1.34876   -1.000
 5739.00    1.35697   1.34834   -1.000
 5740.00    1.35517   1.34713   -1.000
 5741.00    1.35190   1.34453   -1.000
 5742.00    1.35611   1.34357   -1.000
 5743.00    1.35695   1.34789   -1.000
 5744.00    1.36848   1.35589   -1.000
 5745.00    1.37527   1.35951   -1.000
 5746.00    1.36563   1.35301   -1.000
 5747.00    1.35144   1.34187   -1.000
 5748.00    1.34766   1.33839   -1.000
 5749.00    1.35746   1.34468   -1.000
 5750.00    1.36081   1.34811   -1.000
 5751.00    1.34804   1.33614   -1.000
 5752.00    1.33116   1.31130   -1.000
 5753.00    1.31848   1.29220   -1.000
 5754.00    1.32069   1.29485   -1.000
 5755.00    1.34007   1.31797   -1.000
 5756.00    1.36640   1.34577   -1.000
 5757.00    1.38120   1.36202   -1.000
 5758.00    1.37412   1.36095   -1.000
 5759.00    1.35753   1.34566   -1.000
 5760.00    1.33971   1.32414   -1.000
 5761.00    1.32151   1.30612   -1.000
 5762.00    1.31668   1.30100   -1.000
 5763.00    1.33392   1.31419   -1.000
 5764.00    1.35932   1.34042   -1.000
 5765.00    1.37482   1.36404   -1.000
 5766.00    1.37744   1.37526  725.984
 5767.00    1.37864   1.37699  725.350
 5768.00    1.38117   1.37423   -1.000
 5769.00    1.37755   1.36896   -1.000
 5770.00    1.37284   1.36247   -1.000
 5771.00    1.36477   1.35564   -1.000
 5772.00    1.35627   1.34880   -1.000
 5773.00    1.35365   1.34326   -1.000
 5774.00    1.35214   1.34097   -1.000
 5775.00    1.35562   1.34306   -1.000
 5776.00    1.36300   1.34734   -1.000
 5777.00    1.36339   1.34704   -1.000
 5778.00    1.35841   1.33502   -1.000
 5779.00    1.33671   1.31017   -1.000
 5780.00    1.30577   1.28093   -1.000
 5781.00    1.29095   1.25953   -1.000
 5782.00    1.29570   1.25197   -1.000
 5783.00    1.30085   1.25342   -1.000
 5784.00    1.30545   1.25651   -1.000
 5785.00    1.31028   1.26459   -1.000
 5786.00    1.32652   1.28386   -1.000
 5787.00    1.34463   1.30716   -1.000
 5788.00    1.35391   1.32210   -1.000
 5789.00    1.35089   1.32505   -1.000
 5790.00    1.34433   1.32151   -1.000
 5791.00    1.34755   1.32117   -1.000
 5792.00    1.35995   1.32993   -1.000
 5793.00    1.36888   1.34461   -1.000
 5794.00    1.37711   1.35641   -1.000
 5795.00    1.37704   1.35833   -1.000
 5796.00    1.36767   1.35002   -1.000
 5797.00    1.35902   1.34089   -1.000
 5798.00    1.36763   1.34286   -1.000
 5799.00    1.38662   1.35741   -1.000
 5800.00    1.40600   1.37456   -1.000
 5801.00    1.40706   1.38258   -1.000
 5802.00    1.39354   1.37673   -1.000
 5803.00    1.38311   1.36094   -1.000
 5804.00    1.37174   1.34518   -1.000
 5805.00    1.36639   1.33811   -1.000
 5806.00    1.37070   1.34046   -1.000
 5807.00    1.37603   1.34751   -1.000
 5808.00    1.37997   1.35497   -1.000
 5809.00    1.37951   1.36159   -1.000
 5810.00    1.38109   1.36714   -1.000
 5811.00    1.38685   1.36996   -1.000
 5812.00    1.39070   1.36772   -1.000
 5813.00    1.38703   1.35938   -1.000
 5814.00    1.37442   1.34689   -1.000
 5815.00    1.36898   1.33640   -1.000
 5816.00    1.37774   1.33638   -1.000
 5817.00    1.38744   1.34931   -1.000
 5818.00    1.39475   1.36696   -1.000
 5819.00    1.40162   1.37935   -1.000
 5820.00    1.40599   1.38306   -1.000
 5821.00    1.40280   1.38039   -1.000
 5822.00    1.39756   1.37571   -1.000
 5823.00    1.40117   1.37261   -1.000
 5824.00    1.40301   1.37221   -1.000
 5825.00    1.40577   1.37344   -1.000
 5826.00    1.40690   1.37510   -1.000
 5827.00    1.40631   1.37721   -1.000
 5828.00    1.40312   1.38010   -1.000
 5829.00    1.40680   1.38244   -1.000
 5830.00    1.40582   1.38229   -1.000
 5831.00    1.40822   1.37960   -1.000
 5832.00    1.40463   1.37526   -1.000
 5833.00    1.39439   1.36950   -1.000
 5834.00    1.39327   1.36428   -1.000
 5835.00    1.39874   1.36290   -1.000
 5836.00    1.40110   1.36443   -1.000
 5837.00    1.39558   1.36532   -1.000
 5838.00    1.39274   1.36692   -1.000
 5839.00    1.39824   1.37266   -1.000
 5840.00    1.40938   1.38088   -1.000
 5841.00    1.41621   1.38668   -1.000
 5842.00    1.41488   1.38710   -1.000
 5843.00    1.40967   1.38214   -1.000
 5844.00    1.40417   1.37295   -1.000
 5845.00    1.39422   1.36122   -1.000
 5846.00    1.38776   1.35002   -1.000
 5847.00    1.38084   1.34351   -1.000
 5848.00    1.38363   1.34358   -1.000
 5849.00    1.38065   1.34618   -1.000
 5850.00    1.37209   1.34331   -1.000
 5851.00    1.36353   1.33163   -1.000
 5852.00    1.34941   1.31710   -1.000
 5853.00    1.34411   1.30802   -1.000
 5854.00    1.34222   1.30503   -1.000
 5855.00    1.34087   1.29938   -1.000
 5856.00    1.32535   1.28557   -1.000
 5857.00    1.31366   1.27240   -1.000
 5858.00    1.32577   1.27313   -1.000
 5859.00    1.34339   1.28878   -1.000
 5860.00    1.35360   1.30762   -1.000
 5861.00    1.35723   1.31983   -1.000
 5862.00    1.36339   1.32558   -1.000
 5863.00    1.36461   1.32870   -1.000
 5864.00    1.36015   1.32946   -1.000
 5865.00    1.35536   1.32579   -1.000
 5866.00    1.34844   1.32069   -1.000
 5867.00    1.35102   1.32247   -1.000
 5868.00    1.36553   1.33348   -1.000
 5869.00    1.37666   1.34595   -1.000
 5870.00    1.38194   1.35232   -1.000
 5871.00    1.38146   1.35181   -1.000
 5872.00    1.37726   1.34856   -1.000
 5873.00    1.37767   1.34657   -1.000
 5874.00    1.37999   1.34638   -1.000
 5875.00    1.37501   1.34570   -1.000
 5876.00    1.36893   1.34147   -1.000
 5877.00    1.36755   1.33256   -1.000
 5878.00    1.35548   1.32076   -1.000
 5879.00    1.34729   1.30985   -1.000
 5880.00    1.34832   1.30378   -1.000
 5881.00    1.35268   1.30339   -1.000
 5882.00    1.35188   1.30436   -1.000
 5883.00    1.34535   1.30291   -1.000
 5884.00    1.34488   1.30117   -1.000
 5885.00    1.33960   1.29686   -1.000
 5886.00    1.32194   1.27398   -1.000
 5887.00    1.27186   1.21635   -1.000
 5888.00    1.18858   1.13114   -1.000
 5889.00    1.11872   1.05811   -1.000
 5890.00    1.10454   1.03974   -1.000
 5891.00    1.14146   1.07785   -1.000
 5892.00    1.19176   1.12984   -1.000
 5893.00    1.21097   1.15008   -1.000
 5894.00    1.19219   1.12998   -1.000
 5895.00    1.15637   1.09959   -1.000
 5896.00    1.16632   1.10137   -1.000
 5897.00    1.20458   1.14568   -1.000
 5898.00    1.25073   1.20194   -1.000
 5899.00    1.28541   1.24388   -1.000
 5900.00    1.31371   1.27059   -1.000
 5901.00    1.33705   1.28772   -1.000
 5902.00    1.34165   1.29708   -1.000
 5903.00    1.34261   1.30057   -1.000
 5904.00    1.34275   1.30090   -1.000
 5905.00    1.34026   1.30103   -1.000
 5906.00    1.34144   1.30411   -1.000
 5907.00    1.34421   1.31033   -1.000
 5908.00    1.34750   1.31614   -1.000
 5909.00    1.34156   1.31960   -1.000
 5910.00    1.34025   1.32082   -1.000
 5911.00    1.33884   1.31721   -1.000
 5912.00    1.33322   1.30562   -1.000
 5913.00    1.31186   1.28849   -1.000
 5914.00    1.30395   1.27465   -1.000
 5915.00    1.30811   1.27188   -1.000
 5916.00    1.31652   1.27978   -1.000
 5917.00    1.32061   1.29268   -1.000
 5918.00    1.32648   1.30481   -1.000
 5919.00    1.32913   1.31227   -1.000
 5920.00    1.33455   1.31420   -1.000
 5921.00    1.33308   1.31266   -1.000
 5922.00    1.33184   1.31192   -1.000
 5923.00    1.33836   1.31470   -1.000
 5924.00    1.34218   1.31977   -1.000
 5925.00    1.34440   1.32405   -1.000
 5926.00    1.34519   1.32432   -1.000
 5927.00    1.34208   1.31824   -1.000
 5928.00    1.33124   1.30731   -1.000
 5929.00    1.32094   1.29852   -1.000
 5930.00    1.32408   1.29950   -1.000
 5931.00    1.33899   1.30824   -1.000
 5932.00    1.34373   1.31320   -1.000
 5933.00    1.33140   1.30874   -1.000
 5934.00    1.32269   1.30196   -1.000
 5935.00    1.32178   1.30286   -1.000
 5936.00    1.33181   1.31257   -1.000
 5937.00    1.34348   1.32300   -1.000
 5938.00    1.34741   1.32653   -1.000
 5939.00    1.34101   1.32100   -1.000
 5940.00    1.32591   1.30953   -1.000
 5941.00    1.31999   1.29965   -1.000
 5942.00    1.32204   1.29850   -1.000
 5943.00    1.33088   1.30599   -1.000
 5944.00    1.33855   1.31561   -1.000
 5945.00    1.34341   1.32064   -1.000
 5946.00    1.33813   1.31688   -1.000
 5947.00    1.32502   1.30585   -1.000
 5948.00    1.31092   1.29610   -1.000
 5949.00    1.30995   1.29526   -1.000
 5950.00    1.31799   1.29960   -1.000
 5951.00    1.32237   1.30015   -1.000
 5952.00    1.31759   1.29716   -1.000
 5953.00    1.31973   1.29723   -1.000
 5954.00    1.32224   1.30034   -1.000
 5955.00    1.32148   1.30045   -1.000
 5956.00    1.31520   1.29663   -1.000
 5957.00    1.31411   1.29587   -1.000
 5958.00    1.32031   1.30340   -1.000
 5959.00    1.33735   1.31597   -1.000
 5960.00    1.34958   1.32734   -1.000
 5961.00    1.35371   1.33385   -1.000
 5962.00    1.35475   1.33481   -1.000
 5963.00    1.35086   1.33129   -1.000
 5964.00    1.34275   1.32516   -1.000
 5965.00    1.33891   1.31988   -1.000
 5966.00    1.33386   1.31970   -1.000
 5967.00    1.33840   1.32474   -1.000
 5968.00    1.34974   1.33077   -1.000
 5969.00    1.35159   1.33556   -1.000
 5970.00    1.35169   1.33935   -1.000
 5971.00    1.35519   1.34128   -1.000
 5972.00    1.35632   1.33948   -1.000
 5973.00    1.34746   1.33237   -1.000
 5974.00    1.33648   1.31941   -1.000
 5975.00    1.32648   1.30369   -1.000
 5976.00    1.31718   1.29227   -1.000
 5977.00    1.31188   1.29067   -1.000
 5978.00    1.31978   1.29861   -1.000
 5979.00    1.33178   1.31067   -1.000
 5980.00    1.33564   1.31857   -1.000
 5981.00    1.33120   1.31523   -1.000
 5982.00    1.31924   1.30048   -1.000
 5983.00    1.30779   1.28322   -1.000
 5984.00    1.30223   1.27523   -1.000
 5985.00    1.30869   1.28115   -1.000
 5986.00    1.32387   1.29443   -1.000
 5987.00    1.33057   1.30640   -1.000
 5988.00    1.33465   1.31397   -1.000
 5989.00    1.34165   1.31671   -1.000
 5990.00    1.33796   1.31548   -1.000
 5991.00    1.33496   1.31543   -1.000
 5992.00    1.34327   1.32167   -1.000
 5993.00    1.35515   1.33040   -1.000
 5994.00    1.35755   1.33286   -1.000
 5995.00    1.34611   1.32566   -1.000
 5996.00    1.33714   1.31345   -1.000
 5997.00    1.33183   1.30457   -1.000
 5998.00    1.32949   1.30406   -1.000
 5999.00    1.33270   1.30941   -1.000
 6000.00    1.33063   1.31330   -1.000
 6001.00    1.32169   1.31135   -1.000
 6002.00    1.31813   1.30599   -1.000
 6003.00    1.31929   1.30338   -1.000
 6004.00    1.32336   1.30381   -1.000
 6005.00    1.32159   1.29948   -1.000
 6006.00    1.31075   1.28710   -1.000
 6007.00    1.29719   1.27544   -1.000
 6008.00    1.29970   1.27681   -1.000
 6009.00    1.31700   1.29191   -1.000
 6010.00    1.33015   1.30597   -1.000
 6011.00    1.32718   1.30687   -1.000
 6012.00    1.31575   1.29878   -1.000
 6013.00    1.30964   1.29236   -1.000
 6014.00    1.31839   1.29163   -1.000
 6015.00    1.31706   1.29265   -1.000
 6016.00    1.31054   1.29211   -1.000
 6017.00    1.30865   1.29089   -1.000
 6018.00    1.31299   1.28794   -1.000
 6019.00    1.30751   1.28154   -1.000
 6020.00    1.29870   1.27623   -1.000
 6021.00    1.30608   1.27740   -1.000
 6022.00    1.31530   1.28400   -1.000
 6023.00    1.31703   1.29252   -1.000
 6024.00    1.31872   1.30169   -1.000
 6025.00    1.32780   1.31047   -1.000
 6026.00    1.33084   1.31708   -1.000
 6027.00    1.34031   1.32257   -1.000
 6028.00    1.34552   1.32883   -1.000
 6029.00    1.34681   1.33401   -1.000
 6030.00    1.34616   1.33694   -1.000
 6031.00    1.34257   1.33986  744.842
 6032.00    1.34606   1.34376  742.910
 6033.00    1.35255   1.34714   -1.000
 6034.00    1.35545   1.34934   -1.000
 6035.00    1.35564   1.35045   -1.000
 6036.00    1.35861   1.34976   -1.000
 6037.00    1.35634   1.34655   -1.000
 6038.00    1.34764   1.34114   -1.000
 6039.00    1.34596   1.33549   -1.000
 6040.00    1.34122   1.33219   -1.000
 6041.00    1.34544   1.33230   -1.000
 6042.00    1.34682   1.33574   -1.000
 6043.00    1.35478   1.34204   -1.000
 6044.00    1.36618   1.34877   -1.000
 6045.00    1.36329   1.35322   -1.000
 6046.00    1.36341   1.35549   -1.000
 6047.00    1.36603   1.35697   -1.000
 6048.00    1.36400   1.35797   -1.000
 6049.00    1.35873   1.35808  735.983
 6050.00    1.35608   1.35644  737.420
 6051.00    1.35510   1.35182  737.954
 6052.00    1.35223   1.34433   -1.000
 6053.00    1.34624   1.33570   -1.000
 6054.00    1.34246   1.32752   -1.000
 6055.00    1.33437   1.32143   -1.000
 6056.00    1.33104   1.32018   -1.000
 6057.00    1.33425   1.32485   -1.000
 6058.00    1.34205   1.33242   -1.000
 6059.00    1.34882   1.33838   -1.000
 6060.00    1.34582   1.33909   -1.000
 6061.00    1.34276   1.33250   -1.000
 6062.00    1.32103   1.31878  756.987
 6063.00    1.29489   1.30212   -1.000
 6064.00    1.35125   1.29119   -1.000
 6065.00    0.76919   1.29462   -1.000
 6066.00    0.45395   1.31265   -1.000
 6067.00    1.14962   1.33532   -1.000
 6068.00    1.34559   1.35155   -1.000
 6069.00    1.34329   1.35899   -1.000
 6070.00    1.38572   1.36156   -1.000
 6071.00    1.40070   1.36086   -1.000
 6072.00    1.36384   1.35641   -1.000
 6073.00    1.35874   1.35340   -1.000
 6074.00    1.35799   1.35338   -1.000
 6075.00    1.35280   1.34923  739.209
 6076.00    1.34549   1.33805   -1.000
 6077.00    1.33776   1.32464   -1.000
 6078.00    1.32697   1.31535   -1.000
 6079.00    1.31934   1.31143   -1.000
 6080.00    1.31972   1.30850   -1.000
 6081.00    1.31826   1.30467   -1.000
 6082.00    1.31409   1.30275   -1.000
 6083.00    1.31487   1.30364   -1.000
 6084.00    1.31586   1.30549   -1.000
 6085.00    1.31732   1.30812   -1.000
 6086.00    1.32155   1.31207   -1.000
 6087.00    1.32709   1.31485   -1.000
 6088.00    1.32320   1.31240   -1.000
 6089.00    1.31453   1.30495   -1.000
 6090.00    1.30946   1.29835   -1.000
 6091.00    1.31102   1.29752   -1.000
 6092.00    1.32061   1.30264   -1.000
 6093.00    1.32675   1.31147   -1.000
 6094.00    1.33454   1.32037   -1.000
 6095.00    1.34003   1.32557   -1.000
 6096.00    1.33862   1.32733   -1.000
 6097.00    1.33496   1.32947   -1.000
 6098.00    1.33454   1.33154  749.322
 6099.00    1.33449   1.32551   -1.000
 6100.00    1.31627   1.30396   -1.000
 6101.00    1.28247   1.27252   -1.000
 6102.00    1.26414   1.25236   -1.000
 6103.00    1.27751   1.25828   -1.000
 6104.00    1.30420   1.28196   -1.000
 6105.00    1.32308   1.30419   -1.000
 6106.00    1.32551   1.31530   -1.000
 6107.00    1.31931   1.31926  757.974
 6108.00    1.31651   1.32258   -1.000
 6109.00    1.31756   1.32544   -1.000
 6110.00    1.32071   1.32569   -1.000
 6111.00    1.32698   1.32561  753.592
 6112.00    1.32632   1.32864  753.965
 6113.00    1.33462   1.33305  749.278
 6114.00    1.33707   1.33375  747.901
 6115.00    1.33075   1.33025  751.453
 6116.00    1.32158   1.32685   -1.000
 6117.00    1.32085   1.32323  757.088
 6118.00    1.31361   1.31321  761.263
 6119.00    1.29299   1.29431  773.399
 6120.00    1.27697   1.27242   -1.000
 6121.00    1.26548   1.25844   -1.000
 6122.00    1.26603   1.26155   -1.000
 6123.00    1.28999   1.27912   -1.000
 6124.00    1.30569   1.29636   -1.000
 6125.00    1.30382   1.30277  766.974
 6126.00    1.29536   1.30039   -1.000
 6127.00    1.29853   1.29711  770.103
 6128.00    1.30133   1.29956  768.447
 6129.00    1.31326   1.30932   -1.000
 6130.00    1.32587   1.32202   -1.000
 6131.00    1.32715   1.33070  753.492
 6132.00    1.32403   1.32927   -1.000
 6133.00    1.31016   1.31197  763.268
 6134.00    1.27875   1.27629  782.015
 6135.00    1.24084   1.23224   -1.000
 6136.00    1.21133   1.20410   -1.000
 6137.00    1.21161   1.20968  825.349
 6138.00    1.24741   1.24073   -1.000
 6139.00    1.28376   1.27035   -1.000
 6140.00    1.29481   1.28153   -1.000
 6141.00    1.29054   1.28304   -1.000
 6142.00    1.28874   1.29080  775.955
 6143.00    1.30416   1.30577  766.774
 6144.00    1.32006   1.31797  757.541
 6145.00    1.31997   1.32102  757.592
 6146.00    1.31299   1.31601  761.623
 6147.00    1.30445   1.30702  766.606
 6148.00    1.29492   1.29803  772.250
 6149.00    1.28770   1.29254   -1.000
 6150.00    1.28868   1.29289  775.991
 6151.00    1.29402   1.29755  772.788
 6152.00    1.30373   1.30088  767.032
 6153.00    1.30408   1.29807   -1.000
 6154.00    1.29132   1.29092  774.402
 6155.00    1.28564   1.28541  777.820
 6156.00    1.28546   1.28345  777.934
 6157.00    1.27932   1.28066  781.664
 6158.00    1.26470   1.26856  790.702
 6159.00    1.23951   1.24001  806.768
 6160.00    1.20103   1.19944  832.621
 6161.00    1.16764   1.16568  856.428
 6162.00    1.15981   1.15785  862.213
 6163.00    1.18114   1.17727   -1.000
 6164.00    1.21664   1.20873   -1.000
 6165.00    1.23290   1.23413  811.094
 6166.00    1.23653   1.24346   -1.000
 6167.00    1.23223   1.23555  811.535
 6168.00    1.21448   1.21889  823.399
 6169.00    1.20315   1.21011   -1.000
 6170.00    1.21523   1.22021   -1.000
 6171.00    1.24121   1.24231  805.664
 6172.00    1.25740   1.26074  795.294
 6173.00    1.25346   1.26942   -1.000
 6174.00    1.25294   1.27197   -1.000
 6175.00    1.25661   1.27258   -1.000
 6176.00    1.25880   1.27420   -1.000
 6177.00    1.26242   1.27858   -1.000
 6178.00    1.26914   1.28413   -1.000
 6179.00    1.27340   1.28855   -1.000
 6180.00    1.27745   1.29310   -1.000
 6181.00    1.28376   1.29888   -1.000
 6182.00    1.28651   1.30288   -1.000
 6183.00    1.28306   1.30189   -1.000
 6184.00    1.27836   1.29512   -1.000
 6185.00    1.26730   1.28381   -1.000
 6186.00    1.25307   1.27132   -1.000
 6187.00    1.24046   1.26047   -1.000
 6188.00    1.22890   1.24895   -1.000
 6189.00    1.22053   1.23332   -1.000
 6190.00    1.20339   1.21903   -1.000
 6191.00    1.19733   1.21859   -1.000
 6192.00    1.21406   1.23625   -1.000
 6193.00    1.24745   1.26213   -1.000
 6194.00    1.26588   1.28299   -1.000
 6195.00    1.27197   1.29348   -1.000
 6196.00    1.27315   1.29372   -1.000
 6197.00    1.26328   1.28439   -1.000
 6198.00    1.24788   1.26996   -1.000
 6199.00    1.23868   1.26113   -1.000
 6200.00    1.24158   1.26563   -1.000
 6201.00    1.25599   1.27965   -1.000
 6202.00    1.27224   1.29359   -1.000
 6203.00    1.27364   1.30153   -1.000
 6204.00    1.27327   1.30414   -1.000
 6205.00    1.27589   1.30533   -1.000
 6206.00    1.27549   1.30715   -1.000
 6207.00    1.26975   1.30803   -1.000
 6208.00    1.27089   1.30556   -1.000
 6209.00    1.26412   1.29851   -1.000
 6210.00    1.25175   1.28625   -1.000
 6211.00    1.24252   1.26770   -1.000
 6212.00    1.22992   1.24485   -1.000
 6213.00    1.21032   1.22558   -1.000
 6214.00    1.19952   1.21756   -1.000
 6215.00    1.19766   1.22154   -1.000
 6216.00    1.21666   1.23032   -1.000
 6217.00    1.22025   1.23475   -1.000
 6218.00    1.20881   1.23170   -1.000
 6219.00    1.21606   1.22723   -1.000
 6220.00    1.22544   1.22939  816.032
 6221.00    1.21498   1.23818   -1.000
 6222.00    1.11763   1.24745   -1.000
 6223.00    1.17885   1.25325   -1.000
 6224.00    1.23550   1.25646   -1.000
 6225.00    1.22964   1.25814   -1.000
 6226.00    1.22974   1.25561   -1.000
 6227.00    1.22163   1.24395   -1.000
 6228.00    1.20371   1.22184   -1.000
 6229.00    1.18364   1.19698   -1.000
 6230.00    1.16954   1.18378   -1.000
 6231.00    1.17769   1.19042   -1.000
 6232.00    1.19638   1.21291   -1.000
 6233.00    1.22019   1.24003   -1.000
 6234.00    1.23968   1.26072   -1.000
 6235.00    1.24316   1.26767   -1.000
 6236.00    1.23294   1.26081   -1.000
 6237.00    1.22018   1.24632   -1.000
 6238.00    1.20797   1.23131   -1.000
 6239.00    1.19508   1.22047   -1.000
 6240.00    1.19144   1.21456   -1.000
 6241.00    1.19254   1.20946   -1.000
 6242.00    1.18223   1.20191   -1.000
 6243.00    1.17491   1.19477   -1.000
 6244.00    1.17695   1.19307   -1.000
 6245.00    1.18540   1.19960   -1.000
 6246.00    1.19783   1.21472   -1.000
 6247.00    1.21378   1.23361   -1.000
 6248.00    1.22602   1.24709   -1.000
 6249.00    1.22553   1.24754   -1.000
 6250.00    1.21254   1.23367   -1.000
 6251.00    1.18894   1.21209   -1.000
 6252.00    1.17586   1.19413   -1.000
 6253.00    1.16864   1.18573   -1.000
 6254.00    1.16602   1.18323   -1.000
 6255.00    1.16697   1.17959   -1.000
 6256.00    1.15464   1.17344   -1.000
 6257.00    1.14475   1.17096   -1.000
 6258.00    1.15192   1.17882   -1.000
 6259.00    1.17117   1.19707   -1.000
 6260.00    1.18878   1.21967   -1.000
 6261.00    1.20488   1.23975   -1.000
 6262.00    1.22430   1.25174   -1.000
 6263.00    1.22838   1.25335   -1.000
 6264.00    1.21660   1.24910   -1.000
 6265.00    1.20912   1.24727   -1.000
 6266.00    1.21650   1.25061   -1.000
 6267.00    1.22567   1.25365   -1.000
 6268.00    1.21933   1.25227   -1.000
 6269.00    1.21319   1.24982   -1.000
 6270.00    1.21593   1.25107   -1.000
 6271.00    1.22037   1.25581   -1.000
 6272.00    1.22302   1.25945   -1.000
 6273.00    1.21893   1.25799   -1.000
 6274.00    1.20940   1.25106   -1.000
 6275.00    1.19967   1.24059   -1.000
 6276.00    1.17931   1.22732   -1.000
 6277.00    1.14869   1.21223   -1.000
 6278.00    1.12967   1.19753   -1.000
 6279.00    1.12433   1.18825   -1.000
 6280.00    1.13006   1.18957   -1.000
 6281.00    1.14996   1.20189   -1.000
 6282.00    1.17017   1.22026   -1.000
 6283.00    1.18818   1.23817   -1.000
 6284.00    1.20212   1.25216   -1.000
 6285.00    1.21152   1.26290   -1.000
 6286.00    1.22294   1.27153   -1.000
 6287.00    1.23112   1.27663   -1.000
 6288.00    1.23274   1.27506   -1.000
 6289.00    1.22503   1.26678   -1.000
 6290.00    1.21428   1.25606   -1.000
 6291.00    1.20554   1.24823   -1.000
 6292.00    1.20410   1.24529   -1.000
 6293.00    1.20283   1.24424   -1.000
 6294.00    1.20056   1.23962   -1.000
 6295.00    1.19030   1.22974   -1.000
 6296.00    1.18284   1.21978   -1.000
 6297.00    1.18184   1.21552   -1.000
 6298.00    1.18400   1.21564   -1.000
 6299.00    1.18942   1.21388   -1.000
 6300.00    1.19474   1.20853   -1.000
 6301.00    1.18251   1.20614   -1.000
 6302.00    1.16892   1.21286   -1.000
 6303.00    1.18200   1.22661   -1.000
 6304.00    1.20190   1.24169   -1.000
 6305.00    1.21611   1.25520   -1.000
 6306.00    1.22605   1.26667   -1.000
 6307.00    1.23750   1.27357   -1.000
 6308.00    1.23820   1.27316   -1.000
 6309.00    1.23192   1.26671   -1.000
 6310.00    1.22327   1.25880   -1.000
 6311.00    1.21913   1.25226   -1.000
 6312.00    1.21400   1.24586   -1.000
 6313.00    1.21342   1.23699   -1.000
 6314.00    1.20082   1.22660   -1.000
 6315.00    1.19765   1.21871   -1.000
 6316.00    1.19900   1.21414   -1.000
 6317.00    1.20013   1.21290   -1.000
 6318.00    1.19806   1.21817   -1.000
 6319.00    1.20335   1.23060   -1.000
 6320.00    1.21938   1.24419   -1.000
 6321.00    1.23089   1.25485   -1.000
 6322.00    1.23473   1.26408   -1.000
 6323.00    1.23891   1.27308   -1.000
 6324.00    1.24602   1.27983   -1.000
 6325.00    1.24952   1.28242   -1.000
 6326.00    1.24982   1.28182   -1.000
 6327.00    1.25695   1.28084   -1.000
 6328.00    1.25465   1.28033   -1.000
 6329.00    1.25395   1.28013   -1.000
 6330.00    1.25305   1.28199   -1.000
 6331.00    1.25836   1.28525   -1.000
 6332.00    1.26002   1.28335   -1.000
 6333.00    1.25594   1.27059   -1.000
 6334.00    1.25291   1.25082  798.140
 6335.00    1.22084   1.23583   -1.000
 6336.00    1.22175   1.23429   -1.000
 6337.00    1.23336   1.24444   -1.000
 6338.00    1.24619   1.25917   -1.000
 6339.00    1.26022   1.27236   -1.000
 6340.00    1.26538   1.27917   -1.000
 6341.00    1.27176   1.27683   -1.000
 6342.00    1.26984   1.26837  787.500
 6343.00    1.25717   1.26195   -1.000
 6344.00    1.25674   1.26375   -1.000
 6345.00    1.26072   1.27282   -1.000
 6346.00    1.26797   1.28397   -1.000
 6347.00    1.27717   1.29374   -1.000
 6348.00    1.28149   1.30095   -1.000
 6349.00    1.28063   1.30497   -1.000
 6350.00    1.28390   1.30525   -1.000
 6351.00    1.28216   1.30084   -1.000
 6352.00    1.27616   1.29136   -1.000
 6353.00    1.27034   1.27900   -1.000
 6354.00    1.25474   1.26886   -1.000
 6355.00    1.24455   1.26290   -1.000
 6356.00    1.24517   1.25686   -1.000
 6357.00    1.24104   1.24728   -1.000
 6358.00    1.22574   1.23700   -1.000
 6359.00    1.22174   1.22971   -1.000
 6360.00    1.22776   1.22516  814.493
 6361.00    1.23147   1.22300   -1.000
 6362.00    1.23231   1.22511   -1.000
 6363.00    1.23701   1.23279   -1.000
 6364.00    1.24568   1.24471  802.776
 6365.00    1.25360   1.25836   -1.000
 6366.00    1.26021   1.27103   -1.000
 6367.00    1.26847   1.28030   -1.000
 6368.00    1.27702   1.28479   -1.000
 6369.00    1.27970   1.28672   -1.000
 6370.00    1.27835   1.28995   -1.000
 6371.00    1.28335   1.29575   -1.000
 6372.00    1.28848   1.30189   -1.000
 6373.00    1.28408   1.30528   -1.000
 6374.00    1.28346   1.30492   -1.000
 6375.00    1.28044   1.30172   -1.000
 6376.00    1.27549   1.29645   -1.000
 6377.00    1.26884   1.28980   -1.000
 6378.00    1.25998   1.28382   -1.000
 6379.00    1.25565   1.28040   -1.000
 6380.00    1.25522   1.28024   -1.000
 6381.00    1.25257   1.28262   -1.000
 6382.00    1.25323   1.28533   -1.000
 6383.00    1.25694   1.28701   -1.000
 6384.00    1.24999   1.28881   -1.000
 6385.00    1.24759   1.29200   -1.000
 6386.00    1.24904   1.29550   -1.000
 6387.00    1.24465   1.29746   -1.000
 6388.00    1.24071   1.29689   -1.000
 6389.00    1.22977   1.29198   -1.000
 6390.00    1.22032   1.28001   -1.000
 6391.00    1.20599   1.26199   -1.000
 6392.00    1.18734   1.24678   -1.000
 6393.00    1.17824   1.24569   -1.000
 6394.00    1.18328   1.26065   -1.000
 6395.00    1.20271   1.27929   -1.000
 6396.00    1.20293   1.28694   -1.000
 6397.00    1.19466   1.27710   -1.000
 6398.00    1.17570   1.25641   -1.000
 6399.00    1.14831   1.24204   -1.000
 6400.00    1.14175   1.24769   -1.000
 6401.00    1.15567   1.27031   -1.000
 6402.00    1.17508   1.29375   -1.000
 6403.00    1.17953   1.30593   -1.000
 6404.00    1.17542   1.30441   -1.000
 6405.00    1.16878   1.29323   -1.000
 6406.00    1.15098   1.27966   -1.000
 6407.00    1.13332   1.27176   -1.000
 6408.00    1.12255   1.27109   -1.000
 6409.00    1.11832   1.27169   -1.000
 6410.00    1.11245   1.26996   -1.000
 6411.00    1.10305   1.26926   -1.000
 6412.00    1.09738   1.27218   -1.000
 6413.00    1.09616   1.27719   -1.000
 6414.00    1.09521   1.28192   -1.000
 6415.00    1.08878   1.28492   -1.000
 6416.00    1.08104   1.28402   -1.000
 6417.00    1.07191   1.27672   -1.000
 6418.00    1.05890   1.26330   -1.000
 6419.00    1.03678   1.25040   -1.000
 6420.00    1.01763   1.24765   -1.000
 6421.00    1.01393   1.25951   -1.000
 6422.00    1.01763   1.27915   -1.000
 6423.00    1.02375   1.29571   -1.000
 6424.00    1.02626   1.30531   -1.000
 6425.00    1.01834   1.31030   -1.000
 6426.00    1.00590   1.31102   -1.000
 6427.00    0.99736   1.30365   -1.000
 6428.00    0.98464   1.28628   -1.000
