###################################################################
## OUTPUT of StarlightChains_v04.for    [Cid@UFSC - 01/Apr/2007] ##
###################################################################

## Some input info
NGC1904_a_1.cxt                          [arq_obs]
Base.BC03.S                              [arq_base]
NGC1904_a_1.msk                          [arq_masks]
StCv04.C11.config                        [arq_config]
  150                                    [N_base]
    0                                    [N_YAV_components = # of components with extra extinction!]
    0                                    [i_FitPowerLaw (1/0 = Yes/No)]
-9.99                                    [alpha_PowerLaw]
CCM                                      [red_law_option]
 1.458241                                [q_norm = A(l_norm)/A(V)]

## (Re)Sampling Parameters
 3359.00                                 [l_ini (A)]
 6428.00                                 [l_fin (A)]
    1.00                                 [dl    (A)]     (OBS: dl_cushion =    50.00 A)

## Normalization info
 4020.00                                 [l_norm (A) - for base]
 4010.00                                 [llow_norm (A) - window for f_obs]
 4060.00                                 [lupp_norm (A) - window for f_obs]
1.460937E-14                             [fobs_norm (in input units)]

## S/N
 4730.00                                 [llow_SN (A) - window for S/N]
 4780.00                                 [lupp_SN (A) - window for S/N]
 130.069                                 [S/N in S/N window]
 127.140                                 [S/N in norm. window]
 564.433                                 [S/N_err in S/N window]
 551.723                                 [S/N_err in norm. window]
  1.0000                                 [fscale_chi2]

## etc...
  2147483646                             [idum_orig]
  3067                                   [NOl_eff]
   375                                   [Nl_eff]
  2692    NSIGMA                         [Ntot_cliped & clip_method]
  4353930                                [Nglobal_steps]
   7                                     [N_chains]
  15                                     [NEX0s_base = N_base in EX0s-fits]
 0   0   1      254   2.0   1.168E+03    [Clip-Bug, RC-Crash & Burn-In warning-flags, n_censored_weights, wei_nsig_threshold & wei_limit]
   189    189.159    189.151      0.008  [idt_all, wdt_TotTime, wdt_UsrTime & wdt_SysTime (sec)]

## Synthesis Results - Best model ##

 2.70639E+00                             [chi2/Nl_eff]
     0.38377                             [adev (%)]

   102.65570                             [sum-of-x (%)]
 1.65072E-14                             [Flux_tot (units of input spectrum!)]
 1.47467E-10                             [Mini_tot (???)]
 7.76387E-11                             [Mcor_tot (???)]

 -19.70                                  [v0_min  (km/s)]
  70.58                                  [vd_min  (km/s)]
 0.0714                                  [AV_min  (mag)]
 0.0000                                  [YAV_min (mag)]

# j     x_j(%)      Mini_j(%)     Mcor_j(%)     age_j(yr)     Z_j      (L/M)_j    YAV?  Mstars   component_j        a/Fe...       SSP_chi2r SSP_adev(%)   SSP_AV   SSP_x(%)
  1      0.0000     0.0000E+00    0.0000E+00    1.000000E+06  0.00010  8.160E-03    0   1.0000   age020_m22            0.0000     7.7812E+03    15.7010   3.5506    77.7447
  2     21.4872     4.9233E-02    9.3514E-02    3.160000E+06  0.00010  4.759E-02    0   1.0000   age045_m22            0.0000     8.9280E+02     5.4837   1.4205    97.6137
  3      0.0000     0.0000E+00    0.0000E+00    5.010000E+06  0.00010  1.932E-02    0   0.9582   age055_m22            0.0000     6.7222E+03    14.6267   1.8389    83.7109
  4      0.0000     0.0000E+00    0.0000E+00    6.610000E+06  0.00010  9.973E-03    0   0.9297   age061_m22            0.0000     7.5506E+03    15.5331   3.5071    80.4481
  5      0.0000     0.0000E+00    0.0000E+00    8.710000E+06  0.00010  7.690E-03    0   0.9030   age067_m22            0.0000     7.1078E+03    15.1093   3.4952    80.8855
  6      0.0000     0.0000E+00    0.0000E+00    1.000000E+07  0.00010  6.375E-03    0   0.8902   age070_m22            0.0000     6.7080E+03    14.6896   3.5085    81.0258
  7      0.0000     0.0000E+00    0.0000E+00    1.445000E+07  0.00010  4.874E-03    0   0.8589   age078_m22            0.0000     4.8778E+03    12.7670   3.3052    83.9541
  8      0.0000     0.0000E+00    0.0000E+00    2.512000E+07  0.00010  4.103E-03    0   0.8174   age090_m22            0.0000     2.0067E+03     8.8108   2.8499    90.5351
  9      0.0000     0.0000E+00    0.0000E+00    4.000000E+07  0.00010  3.654E-03    0   0.7830   age104_m22            0.0000     1.2039E+03     6.3215   2.5063    95.5567
 10      0.0000     0.0000E+00    0.0000E+00    5.500000E+07  0.00010  3.093E-03    0   0.7597   age110_m22            0.0000     1.1852E+03     5.5724   2.3807    97.2775
 11      0.0000     0.0000E+00    0.0000E+00    1.015200E+08  0.00010  2.431E-03    0   0.7138   age116_m22            0.0000     1.7318E+03     5.6929   2.0075   100.3722
 12      0.0000     0.0000E+00    0.0000E+00    1.609000E+08  0.00010  1.319E-03    0   0.6775   age120_m22            0.0000     1.7994E+03     5.2333   1.5123   102.6404
 13      0.0000     0.0000E+00    0.0000E+00    2.861200E+08  0.00010  1.075E-03    0   0.6412   age125_m22            0.0000     5.4994E+03     9.2429   1.4987   107.0252
 14      0.0000     0.0000E+00    0.0000E+00    5.088000E+08  0.00010  7.183E-04    0   0.6083   age130_m22            0.0000     6.9591E+03    10.7353   1.2314   109.1707
 15      0.0000     0.0000E+00    0.0000E+00    9.047900E+08  0.00010  4.524E-04    0   0.5785   age135_m22            0.0000     7.0498E+03    10.8112   1.0222   110.5353
 16      0.0000     0.0000E+00    0.0000E+00    1.278050E+09  0.00010  3.018E-04    0   0.5588   age138_m22            0.0000     2.9415E+03     7.0202   0.5239   108.2243
 17      0.0000     0.0000E+00    0.0000E+00    1.434000E+09  0.00010  2.691E-04    0   0.5532   age139_m22            0.0000     2.2599E+03     6.1907   0.3724   107.5782
 18      0.0000     0.0000E+00    0.0000E+00    2.500000E+09  0.00010  1.582E-04    0   0.5296   age150_m22            0.0000     1.8553E+03     5.4852   0.2848   108.0065
 19      0.0050     5.4435E-03    5.2835E-03    4.250000E+09  0.00010  1.007E-04    0   0.5110   age158_m22            0.0000     7.5849E+02     3.5164   0.1547   106.1152
 20      0.0452     7.1692E-02    6.7882E-02    6.250000E+09  0.00010  6.869E-05    0   0.4985   age166_m22            0.0000     1.7375E+02     1.7841   0.1195   103.1299
 21      0.0000     0.0000E+00    0.0000E+00    7.500000E+09  0.00010  5.873E-05    0   0.4931   age171_m22            0.0000     1.5855E+02     1.8529   0.1190   102.4509
 22      0.0000     0.0000E+00    0.0000E+00    1.000000E+10  0.00010  4.481E-05    0   0.4854   age181_m22            0.0000     1.4024E+02     1.7399   0.0796   102.0838
 23      0.0000     0.0000E+00    0.0000E+00    1.300000E+10  0.00010  3.489E-05    0   0.4791   age193_m22            0.0000     9.9975E+01     1.4870   0.0206   101.5409
 24      0.0179     6.4289E-02    5.8198E-02    1.500000E+10  0.00010  3.035E-05    0   0.4766   age201_m22            0.0000     8.3669E+01     1.3857  -0.0184   101.3315
 25      0.0000     0.0000E+00    0.0000E+00    1.800000E+10  0.00010  2.510E-05    0   0.4735   age213_m22            0.0000     6.2776E+01     1.2498  -0.0854   100.6744
 26      0.0000     0.0000E+00    0.0000E+00    1.000000E+06  0.00040  8.458E-03    0   1.0000   age020_m32            0.0000     7.6022E+03    15.5215   3.5647    78.3682
 27      0.0000     0.0000E+00    0.0000E+00    3.160000E+06  0.00040  3.973E-02    0   1.0000   age045_m32            0.0000     2.3102E+03     9.2320   2.7516    90.5616
 28      0.0000     0.0000E+00    0.0000E+00    5.010000E+06  0.00040  1.935E-02    0   0.9532   age055_m32            0.0000     5.5821E+03    13.7667   3.0348    84.2848
 29      0.0000     0.0000E+00    0.0000E+00    6.610000E+06  0.00040  1.204E-02    0   0.9243   age061_m32            0.0000     6.2317E+03    14.2901   3.3541    82.4619
 30      0.0000     0.0000E+00    0.0000E+00    8.710000E+06  0.00040  9.433E-03    0   0.9001   age067_m32            0.0000     5.5172E+03    13.5223   3.3185    83.3854
 31      0.0000     0.0000E+00    0.0000E+00    1.000000E+07  0.00040  8.053E-03    0   0.8877   age070_m32            0.0000     5.2529E+03    13.2286   3.2787    83.8552
 32      0.0000     0.0000E+00    0.0000E+00    1.445000E+07  0.00040  7.027E-03    0   0.8578   age078_m32            0.0000     3.0205E+03    10.5718   2.7251    89.0114
 33      0.0000     0.0000E+00    0.0000E+00    2.512000E+07  0.00040  4.707E-03    0   0.8166   age090_m32            0.0000     1.7332E+03     8.3437   2.3953    93.0472
 34      0.0000     0.0000E+00    0.0000E+00    4.000000E+07  0.00040  3.714E-03    0   0.7827   age104_m32            0.0000     1.1626E+03     6.3571   2.1596    96.6522
 35      0.0000     0.0000E+00    0.0000E+00    5.500000E+07  0.00040  2.982E-03    0   0.7593   age110_m32            0.0000     1.1786E+03     5.7796   2.0806    98.0033
 36      0.0000     0.0000E+00    0.0000E+00    1.015200E+08  0.00040  2.188E-03    0   0.7143   age116_m32            0.0000     2.6041E+03     6.3462   1.7466   103.0187
 37      0.0000     0.0000E+00    0.0000E+00    1.609000E+08  0.00040  1.690E-03    0   0.6856   age120_m32            0.0000     4.2673E+03     8.0138   1.5046   105.9820
 38      0.0000     0.0000E+00    0.0000E+00    2.861200E+08  0.00040  1.152E-03    0   0.6509   age125_m32            0.0000     5.8595E+03     9.6669   1.2379   108.3389
 39      0.0000     0.0000E+00    0.0000E+00    5.088000E+08  0.00040  7.331E-04    0   0.6182   age130_m32            0.0000     6.4410E+03    10.3772   1.0501   109.3577
 40      0.4830     1.3299E-01    1.4878E-01    9.047900E+08  0.00040  3.960E-04    0   0.5890   age135_m32            0.0000     3.0464E+03     7.3524   0.5965   107.8068
 41      0.2028     7.7491E-02    8.3705E-02    1.278050E+09  0.00040  2.854E-04    0   0.5687   age138_m32            0.0000     2.2231E+03     6.0219   0.3396   109.1975
 42      0.0000     0.0000E+00    0.0000E+00    1.434000E+09  0.00040  2.531E-04    0   0.5632   age139_m32            0.0000     2.1500E+03     5.9355   0.2802   109.1288
 43     16.1724     1.1851E+01    1.2124E+01    2.500000E+09  0.00040  1.488E-04    0   0.5386   age150_m32            0.0000     1.2457E+03     4.6007   0.0256   107.4229
 44     28.8475     3.4635E+01    3.4203E+01    4.250000E+09  0.00040  9.082E-05    0   0.5199   age158_m32            0.0000     1.2188E+02     1.4678  -0.0405   103.6355
 45      0.0574     9.8459E-02    9.4928E-02    6.250000E+09  0.00040  6.362E-05    0   0.5076   age166_m32            0.0000     1.6184E+02     1.8585  -0.0424    99.6938
 46      3.7101     7.6490E+00    7.3035E+00    7.500000E+09  0.00040  5.289E-05    0   0.5027   age171_m32            0.0000     2.5356E+02     2.2118  -0.0784    98.4165
 47      6.0634     1.6646E+01    1.5644E+01    1.000000E+10  0.00040  3.972E-05    0   0.4948   age181_m32            0.0000     3.3254E+02     2.3494  -0.1467    97.1092
 48      0.0000     0.0000E+00    0.0000E+00    1.300000E+10  0.00040  3.283E-05    0   0.4870   age193_m32            0.0000     6.4325E+01     1.0294  -0.2106   100.0055
 49      0.0000     0.0000E+00    0.0000E+00    1.500000E+10  0.00040  2.925E-05    0   0.4854   age201_m32            0.0000     2.9969E+01     0.8447  -0.2399   101.6986
 50      0.0000     0.0000E+00    0.0000E+00    1.800000E+10  0.00040  2.469E-05    0   0.4819   age213_m32            0.0000     4.2983E+01     1.0474  -0.2869   102.2512
 51      0.0000     0.0000E+00    0.0000E+00    1.000000E+06  0.00400  1.114E-02    0   1.0000   age020_m42            0.0000     7.3247E+03    15.1971   3.4870    78.8752
 52      0.0000     0.0000E+00    0.0000E+00    3.160000E+06  0.00400  4.073E-02    0   0.9999   age045_m42            0.0000     1.4136E+03     7.2081   2.4227    93.4005
 53      0.0000     0.0000E+00    0.0000E+00    5.010000E+06  0.00400  2.534E-02    0   0.9488   age055_m42            0.0000     3.6643E+03    11.2215   2.8781    86.8504
 54      0.0000     0.0000E+00    0.0000E+00    6.610000E+06  0.00400  2.583E-02    0   0.9220   age061_m42            0.0000     1.1442E+03     6.6178   2.2217    94.2906
 55      0.0000     0.0000E+00    0.0000E+00    8.710000E+06  0.00400  1.706E-02    0   0.8983   age067_m42            0.0000     2.0601E+03     8.9393   2.0783    91.8729
 56      0.0000     0.0000E+00    0.0000E+00    1.000000E+07  0.00400  1.271E-02    0   0.8862   age070_m42            0.0000     3.0718E+03    10.7627   2.0851    90.0564
 57      0.0000     0.0000E+00    0.0000E+00    1.445000E+07  0.00400  7.666E-03    0   0.8571   age078_m42            0.0000     4.2276E+03    12.1164   2.5012    86.9656
 58      0.0000     0.0000E+00    0.0000E+00    2.512000E+07  0.00400  5.070E-03    0   0.8174   age090_m42            0.0000     2.6018E+03     9.8411   1.9372    91.7724
 59      0.0000     0.0000E+00    0.0000E+00    4.000000E+07  0.00400  3.505E-03    0   0.7851   age104_m42            0.0000     1.5065E+03     7.3724   1.5786    95.0419
 60      0.0000     0.0000E+00    0.0000E+00    5.500000E+07  0.00400  3.059E-03    0   0.7629   age110_m42            0.0000     9.1837E+02     4.3572   1.5707   100.3471
 61      0.0000     0.0000E+00    0.0000E+00    1.015200E+08  0.00400  2.268E-03    0   0.7207   age116_m42            0.0000     3.5727E+03     7.2201   1.4022   106.5906
 62      0.0000     0.0000E+00    0.0000E+00    1.609000E+08  0.00400  1.720E-03    0   0.6930   age120_m42            0.0000     3.9639E+03     7.8005   1.2387   108.6171
 63      0.0000     0.0000E+00    0.0000E+00    2.861200E+08  0.00400  1.079E-03    0   0.6613   age125_m42            0.0000     4.1041E+03     8.3478   0.8768   108.8573
 64      0.0000     0.0000E+00    0.0000E+00    5.088000E+08  0.00400  6.261E-04    0   0.6313   age130_m42            0.0000     4.8786E+03     8.8973   0.6786   111.8727
 65      0.0000     0.0000E+00    0.0000E+00    9.047900E+08  0.00400  3.535E-04    0   0.6024   age135_m42            0.0000     2.4179E+03     6.6960   0.2815   111.9672
 66      0.0000     0.0000E+00    0.0000E+00    1.278050E+09  0.00400  2.677E-04    0   0.5837   age138_m42            0.0000     9.5219E+02     6.0090  -0.4432   108.9361
 67      0.0000     0.0000E+00    0.0000E+00    1.434000E+09  0.00400  1.910E-04    0   0.5716   age139_m42            0.0000     1.0222E+03     5.7097  -0.2750   110.2100
 68     21.2936     2.3649E+01    2.4540E+01    2.500000E+09  0.00400  9.818E-05    0   0.5463   age150_m42            0.0000     8.6950E+02     5.3585  -0.5298   104.8614
 69      0.0000     0.0000E+00    0.0000E+00    4.250000E+09  0.00400  5.491E-05    0   0.5269   age158_m42            0.0000     1.3764E+03     5.8108  -0.6324   101.5316
 70      0.0000     0.0000E+00    0.0000E+00    6.250000E+09  0.00400  3.857E-05    0   0.5151   age166_m42            0.0000     2.0561E+03     6.7702  -0.7687   100.0756
 71      0.0000     0.0000E+00    0.0000E+00    7.500000E+09  0.00400  3.243E-05    0   0.5110   age171_m42            0.0000     2.5165E+03     7.3910  -0.8565    99.4801
 72      0.0000     0.0000E+00    0.0000E+00    1.000000E+10  0.00400  2.424E-05    0   0.5028   age181_m42            0.0000     3.2105E+03     8.2316  -0.9435    98.7499
 73      0.0000     0.0000E+00    0.0000E+00    1.300000E+10  0.00400  1.883E-05    0   0.4927   age193_m42            0.0000     3.7855E+03     8.8751  -0.9826    98.2654
 74      0.0000     0.0000E+00    0.0000E+00    1.500000E+10  0.00400  1.685E-05    0   0.4919   age201_m42            0.0000     3.6235E+03     8.6547  -0.9761    98.2811
 75      0.0000     0.0000E+00    0.0000E+00    1.800000E+10  0.00400  1.452E-05    0   0.4874   age213_m42            0.0000     3.3204E+03     8.2903  -0.9571    98.5330
 76      0.0000     0.0000E+00    0.0000E+00    1.000000E+06  0.00800  1.286E-02    0   1.0000   age020_m52            0.0000     6.4167E+03    14.2146   3.4596    80.6679
 77      0.0000     0.0000E+00    0.0000E+00    3.160000E+06  0.00800  3.147E-02    0   0.9966   age045_m52            0.0000     6.1643E+03    14.0290   3.3637    82.2530
 78      0.0000     0.0000E+00    0.0000E+00    5.010000E+06  0.00800  2.664E-02    0   0.9443   age055_m52            0.0000     4.4150E+03    11.9650   3.0074    85.8297
 79      0.0000     0.0000E+00    0.0000E+00    6.610000E+06  0.00800  2.151E-02    0   0.9177   age061_m52            0.0000     2.6594E+03     9.0945   1.6571    91.9934
 80      0.0000     0.0000E+00    0.0000E+00    8.710000E+06  0.00800  1.628E-02    0   0.8948   age067_m52            0.0000     2.4967E+03     9.4450   2.0326    92.2487
 81      0.0000     0.0000E+00    0.0000E+00    1.000000E+07  0.00800  1.215E-02    0   0.8827   age070_m52            0.0000     3.1892E+03    10.6517   2.3857    90.3458
 82      0.0000     0.0000E+00    0.0000E+00    1.445000E+07  0.00800  8.739E-03    0   0.8552   age078_m52            0.0000     2.5603E+03     9.6809   2.4131    91.8668
 83      0.0000     0.0000E+00    0.0000E+00    2.512000E+07  0.00800  5.676E-03    0   0.8162   age090_m52            0.0000     1.7079E+03     7.7347   1.9755    96.6995
 84      0.0000     0.0000E+00    0.0000E+00    4.000000E+07  0.00800  3.939E-03    0   0.7841   age104_m52            0.0000     1.4422E+03     6.1002   1.7869    99.4650
 85      0.0000     0.0000E+00    0.0000E+00    5.500000E+07  0.00800  3.155E-03    0   0.7627   age110_m52            0.0000     1.5739E+03     5.3213   1.7311   101.5170
 86      0.0000     0.0000E+00    0.0000E+00    1.015200E+08  0.00800  2.206E-03    0   0.7226   age116_m52            0.0000     2.5200E+03     5.8520   1.4858   106.1060
 87      0.0000     0.0000E+00    0.0000E+00    1.609000E+08  0.00800  1.596E-03    0   0.6963   age120_m52            0.0000     3.1594E+03     6.7426   1.2438   108.0020
 88      0.0000     0.0000E+00    0.0000E+00    2.861200E+08  0.00800  1.002E-03    0   0.6665   age125_m52            0.0000     5.2529E+03     9.6210   0.8796   111.4918
 89      0.0000     0.0000E+00    0.0000E+00    5.088000E+08  0.00800  5.759E-04    0   0.6377   age130_m52            0.0000     5.5436E+03    10.6476   0.4728   116.3049
 90      0.0000     0.0000E+00    0.0000E+00    9.047900E+08  0.00800  2.972E-04    0   0.6086   age135_m52            0.0000     2.6176E+03     8.4498  -0.0937   115.4451
 91      0.0000     0.0000E+00    0.0000E+00    1.278050E+09  0.00800  2.242E-04    0   0.5907   age138_m52            0.0000     1.5309E+03     7.3899  -0.6761   112.6849
 92      0.0598     3.9665E-02    4.3599E-02    1.434000E+09  0.00800  1.645E-04    0   0.5787   age139_m52            0.0000     1.1930E+03     6.5219  -0.5057   111.9024
 93      0.6397     9.0320E-01    9.4680E-01    2.500000E+09  0.00800  7.723E-05    0   0.5519   age150_m52            0.0000     1.9103E+03     7.5098  -0.8266   107.4448
 94      0.0000     0.0000E+00    0.0000E+00    4.250000E+09  0.00800  4.151E-05    0   0.5320   age158_m52            0.0000     2.3645E+03     7.6927  -0.8897   104.7607
 95      0.0000     0.0000E+00    0.0000E+00    6.250000E+09  0.00800  3.010E-05    0   0.5197   age166_m52            0.0000     3.6381E+03     9.1443  -1.0000   101.9382
 96      0.0000     0.0000E+00    0.0000E+00    7.500000E+09  0.00800  2.467E-05    0   0.5139   age171_m52            0.0000     4.0699E+03     9.6004  -1.0000   100.8962
 97      0.0000     0.0000E+00    0.0000E+00    1.000000E+10  0.00800  1.862E-05    0   0.5054   age181_m52            0.0000     5.6518E+03    11.1442  -1.0000    98.4372
 98      0.0000     0.0000E+00    0.0000E+00    1.300000E+10  0.00800  1.433E-05    0   0.4988   age193_m52            0.0000     7.4850E+03    12.9981  -1.0000    97.2908
 99      0.0000     0.0000E+00    0.0000E+00    1.500000E+10  0.00800  1.244E-05    0   0.4936   age201_m52            0.0000     8.1942E+03    13.6948  -1.0000    97.1376
100      0.0000     0.0000E+00    0.0000E+00    1.800000E+10  0.00800  1.070E-05    0   0.4888   age213_m52            0.0000     8.8582E+03    14.3428  -1.0000    96.3431
101      0.0000     0.0000E+00    0.0000E+00    1.000000E+06  0.02000  1.989E-02    0   1.0000   age020_m62            0.0000     7.3414E+03    15.0289   3.4413    79.7612
102      0.0000     0.0000E+00    0.0000E+00    3.160000E+06  0.02000  3.772E-02    0   0.9858   age045_m62            0.0000     6.7056E+03    14.5462   3.2838    82.0744
103      0.0000     0.0000E+00    0.0000E+00    5.010000E+06  0.02000  3.227E-02    0   0.9342   age055_m62            0.0000     2.4102E+03     9.4523   2.7036    90.0026
104      0.0000     0.0000E+00    0.0000E+00    6.610000E+06  0.02000  2.387E-02    0   0.9090   age061_m62            0.0000     3.8817E+03    11.8308   2.4730    88.8532
105      0.0000     0.0000E+00    0.0000E+00    8.710000E+06  0.02000  1.102E-02    0   0.8861   age067_m62            0.0000     1.0462E+04    18.7683   2.1345    83.0875
106      0.0000     0.0000E+00    0.0000E+00    1.000000E+07  0.02000  1.011E-02    0   0.8751   age070_m62            0.0000     7.3844E+03    15.8370   2.1354    85.9486
107      0.0000     0.0000E+00    0.0000E+00    1.445000E+07  0.02000  7.331E-03    0   0.8472   age078_m62            0.0000     5.3024E+03    13.4421   2.1345    87.8220
108      0.0000     0.0000E+00    0.0000E+00    2.512000E+07  0.02000  4.206E-03    0   0.8099   age090_m62            0.0000     5.5306E+03    13.4916   2.0377    87.3777
109      0.0000     0.0000E+00    0.0000E+00    4.000000E+07  0.02000  3.373E-03    0   0.7799   age104_m62            0.0000     1.5563E+03     7.4636   1.7621    96.9276
110      0.0000     0.0000E+00    0.0000E+00    5.500000E+07  0.02000  2.747E-03    0   0.7595   age110_m62            0.0000     1.4103E+03     5.5432   1.6554   100.8645
111      0.0000     0.0000E+00    0.0000E+00    1.015200E+08  0.02000  1.878E-03    0   0.7221   age116_m62            0.0000     3.1865E+03     6.6011   1.4561   106.4665
112      0.0000     0.0000E+00    0.0000E+00    1.609000E+08  0.02000  1.378E-03    0   0.6978   age120_m62            0.0000     4.8833E+03     8.4115   1.2630   109.5871
113      0.0000     0.0000E+00    0.0000E+00    2.861200E+08  0.02000  8.869E-04    0   0.6700   age125_m62            0.0000     7.9020E+03    11.1693   0.8277   114.6847
114      0.0000     0.0000E+00    0.0000E+00    5.088000E+08  0.02000  4.834E-04    0   0.6430   age130_m62            0.0000     6.3462E+03    11.2800   0.3170   118.2702
115      0.0000     0.0000E+00    0.0000E+00    9.047900E+08  0.02000  2.312E-04    0   0.6152   age135_m62            0.0000     2.2875E+03     8.0808  -0.2936   117.4638
116      0.0000     0.0000E+00    0.0000E+00    1.278050E+09  0.02000  1.387E-04    0   0.5927   age138_m62            0.0000     1.1766E+03     6.3614  -0.6389   111.8199
117      0.0000     0.0000E+00    0.0000E+00    1.434000E+09  0.02000  1.168E-04    0   0.5865   age139_m62            0.0000     1.2124E+03     6.3742  -0.6551   109.9588
118      0.0000     0.0000E+00    0.0000E+00    2.500000E+09  0.02000  5.505E-05    0   0.5610   age150_m62            0.0000     2.6464E+03     8.4291  -1.0000   106.0338
119      0.0000     0.0000E+00    0.0000E+00    4.250000E+09  0.02000  3.070E-05    0   0.5407   age158_m62            0.0000     6.0196E+03    12.0069  -1.0000   101.1430
120      0.0000     0.0000E+00    0.0000E+00    6.250000E+09  0.02000  2.104E-05    0   0.5277   age166_m62            0.0000     8.5087E+03    14.4574  -1.0000    99.1075
121      0.0000     0.0000E+00    0.0000E+00    7.500000E+09  0.02000  1.770E-05    0   0.5223   age171_m62            0.0000     1.0187E+04    15.9909  -1.0000    97.8001
122      0.0000     0.0000E+00    0.0000E+00    1.000000E+10  0.02000  1.297E-05    0   0.5121   age181_m62            0.0000     1.3918E+04    18.9217  -1.0000    95.0735
123      0.0000     0.0000E+00    0.0000E+00    1.300000E+10  0.02000  9.691E-06    0   0.5047   age193_m62            0.0000     1.6380E+04    20.5332  -1.0000    93.5937
124      0.0000     0.0000E+00    0.0000E+00    1.500000E+10  0.02000  8.360E-06    0   0.4999   age201_m62            0.0000     1.8587E+04    21.8706  -1.0000    92.2616
125      0.0000     0.0000E+00    0.0000E+00    1.800000E+10  0.02000  6.911E-06    0   0.4946   age213_m62            0.0000     2.1201E+04    23.3198  -1.0000    90.8127
126      0.0000     0.0000E+00    0.0000E+00    1.000000E+06  0.05000  2.651E-02    0   0.9998   age020_m72            0.0000     6.9163E+03    14.4355   3.4391    80.8085
127      0.0000     0.0000E+00    0.0000E+00    3.160000E+06  0.05000  4.817E-02    0   0.9577   age045_m72            0.0000     4.6715E+03    12.2272   3.1178    85.5746
128      0.0000     0.0000E+00    0.0000E+00    5.010000E+06  0.05000  3.101E-02    0   0.9147   age055_m72            0.0000     4.3307E+03    11.9339   2.7457    88.0950
129      0.0000     0.0000E+00    0.0000E+00    6.610000E+06  0.05000  1.472E-02    0   0.8877   age061_m72            0.0000     8.6537E+03    16.7407   2.3282    85.2306
130      0.0000     0.0000E+00    0.0000E+00    8.710000E+06  0.05000  1.050E-02    0   0.8638   age067_m72            0.0000     6.1766E+03    14.0303   2.7082    86.3225
131      0.0000     0.0000E+00    0.0000E+00    1.000000E+07  0.05000  8.954E-03    0   0.8524   age070_m72            0.0000     4.5944E+03    11.8889   2.9763    86.9003
132      0.0000     0.0000E+00    0.0000E+00    1.445000E+07  0.05000  6.392E-03    0   0.8262   age078_m72            0.0000     3.8715E+03    10.8998   2.9106    88.0390
133      0.0000     0.0000E+00    0.0000E+00    2.512000E+07  0.05000  4.207E-03    0   0.7902   age090_m72            0.0000     2.1057E+03     8.2856   2.4826    92.6999
134      0.0000     0.0000E+00    0.0000E+00    4.000000E+07  0.05000  3.198E-03    0   0.7618   age104_m72            0.0000     1.6611E+03     4.8039   1.8544   101.7045
135      0.0000     0.0000E+00    0.0000E+00    5.500000E+07  0.05000  2.593E-03    0   0.7432   age110_m72            0.0000     2.3374E+03     5.5560   1.7412   103.8760
136      0.0000     0.0000E+00    0.0000E+00    1.015200E+08  0.05000  1.716E-03    0   0.7092   age116_m72            0.0000     3.9134E+03     7.3624   1.5182   106.9481
137      0.0000     0.0000E+00    0.0000E+00    1.609000E+08  0.05000  1.218E-03    0   0.6876   age120_m72            0.0000     5.7987E+03     9.1990   1.2085   110.2833
138      0.0000     0.0000E+00    0.0000E+00    2.861200E+08  0.05000  7.047E-04    0   0.6618   age125_m72            0.0000     7.2673E+03    11.3550   0.5668   115.7348
139      0.0000     0.0000E+00    0.0000E+00    5.088000E+08  0.05000  3.590E-04    0   0.6356   age130_m72            0.0000     4.9698E+03    10.7595  -0.0877   119.7399
140      0.0000     0.0000E+00    0.0000E+00    9.047900E+08  0.05000  1.484E-04    0   0.6088   age135_m72            0.0000     1.9528E+03     8.0980  -0.7976   112.0107
141      3.5706     4.1266E+00    4.6433E+00    1.278050E+09  0.05000  9.435E-05    0   0.5924   age138_m72            0.0000     3.7983E+03    10.5360  -1.0000   105.5061
142      0.0000     0.0000E+00    0.0000E+00    1.434000E+09  0.05000  7.827E-05    0   0.5847   age139_m72            0.0000     3.8055E+03    10.3743  -1.0000   105.0266
143      0.0000     0.0000E+00    0.0000E+00    2.500000E+09  0.05000  3.759E-05    0   0.5583   age150_m72            0.0000     8.1923E+03    14.2865  -1.0000    98.6095
144      0.0000     0.0000E+00    0.0000E+00    4.250000E+09  0.05000  1.842E-05    0   0.5374   age158_m72            0.0000     1.4637E+04    19.5120  -1.0000    91.9490
145      0.0000     0.0000E+00    0.0000E+00    6.250000E+09  0.05000  1.207E-05    0   0.5242   age166_m72            0.0000     2.1445E+04    23.6665  -1.0000    86.6280
146      0.0000     0.0000E+00    0.0000E+00    7.500000E+09  0.05000  9.993E-06    0   0.5183   age171_m72            0.0000     2.2709E+04    24.3419  -1.0000    85.6279
147      0.0000     0.0000E+00    0.0000E+00    1.000000E+10  0.05000  7.291E-06    0   0.5081   age181_m72            0.0000     2.7197E+04    26.5047  -1.0000    82.7347
148      0.0000     0.0000E+00    0.0000E+00    1.300000E+10  0.05000  5.316E-06    0   0.5018   age193_m72            0.0000     3.4440E+04    29.4615  -1.0000    78.4057
149      0.0000     0.0000E+00    0.0000E+00    1.500000E+10  0.05000  4.497E-06    0   0.4972   age201_m72            0.0000     3.7687E+04    30.6278  -1.0000    76.8609
150      0.0000     0.0000E+00    0.0000E+00    1.800000E+10  0.05000  3.739E-06    0   0.4924   age213_m72            0.0000     4.2275E+04    32.1628  -1.0000    74.5386


## Synthesis Results - Average & Chains ##

# j      x_j: min, <> & last-chain-values for 1 ...  7 chains
  1      0.0000      0.0125      0.0000      0.0000      0.0000      0.0379      0.0000      0.0107      0.0655
  2     21.4872     20.9425     21.2445     20.9939     21.3413     21.3167     21.0913     21.2105     20.8807
  3      0.0000      0.0167      0.0000      0.0241      0.0677      0.0000      0.0000      0.0482      0.0324
  4      0.0000      0.0065      0.0339      0.0000      0.0000      0.0000      0.0000      0.0000      0.0000
  5      0.0000      0.0041      0.0000      0.0000      0.0304      0.0130      0.0000      0.0000      0.0000
  6      0.0000      0.0041      0.0000      0.0241      0.0000      0.0000      0.0000      0.0000      0.0000
  7      0.0000      0.0059      0.0266      0.0000      0.0000      0.0000      0.0000      0.0000      0.0013
  8      0.0000      0.0054      0.0000      0.0000      0.0000      0.0000      0.0000      0.0000      0.0000
  9      0.0000      0.0102      0.0000      0.0332      0.0000      0.0000      0.0000      0.0235      0.0302
 10      0.0000      0.0201      0.0000      0.0000      0.1410      0.0000      0.0857      0.0002      0.0000
 11      0.0000      0.0210      0.0000      0.0000      0.0123      0.0000      0.0000      0.0000      0.0000
 12      0.0000      0.0176      0.0000      0.0000      0.0000      0.0000      0.0755      0.1437      0.0000
 13      0.0000      0.0142      0.0000      0.0318      0.0000      0.0000      0.0000      0.0637      0.0000
 14      0.0000      0.0164      0.0000      0.0064      0.0000      0.0000      0.0000      0.0000      0.0000
 15      0.0000      0.0134      0.0000      0.0000      0.0044      0.0000      0.0000      0.0000      0.0000
 16      0.0000      0.0621      0.0000      0.0000      0.0000      0.0329      0.1305      0.0000      0.3421
 17      0.0000      0.0445      0.0000      0.0996      0.0000      0.0000      0.0580      0.0111      0.0001
 18      0.0000      0.0731      0.0000      0.0357      0.0000      0.1765      0.2363      0.0000      0.0390
 19      0.0050      0.1188      0.4922      0.0499      0.0000      0.1557      0.1378      0.0000      0.1206
 20      0.0452      0.1586      0.2560      0.1459      0.4516      0.3762      0.0000      0.2956      0.0000
 21      0.0000      0.1204      0.0000      0.2512      0.0543      0.0000      0.0000      0.0707      0.3432
 22      0.0000      0.1864      0.1484      0.2944      0.1215      0.0000      0.0430      0.5364      0.0894
 23      0.0000      0.1475      0.0000      0.0959      0.0260      0.0923      0.0753      0.0460      0.0000
 24      0.0179      0.1242      0.1918      0.0000      0.0000      0.0155      0.0000      0.2127      0.1886
 25      0.0000      0.1806      0.0000      0.2700      0.2893      0.3550      0.1814      0.1764      0.2660
 26      0.0000      0.0047      0.0000      0.0000      0.0052      0.0000      0.0029      0.0000      0.0000
 27      0.0000      0.0103      0.0000      0.0000      0.0000      0.0519      0.0114      0.0000      0.0000
 28      0.0000      0.0063      0.0000      0.0000      0.0000      0.0000      0.0000      0.0000      0.0000
 29      0.0000      0.0051      0.0000      0.0000      0.0000      0.0000      0.0000      0.0210      0.0354
 30      0.0000      0.0064      0.0000      0.0000      0.0000      0.0000      0.0000      0.0000      0.0000
 31      0.0000      0.0054      0.0000      0.0000      0.0000      0.0177      0.0150      0.0000      0.0000
 32      0.0000      0.0060      0.0000      0.0000      0.0000      0.0000      0.0000      0.0000      0.0000
 33      0.0000      0.0161      0.0000      0.0000      0.0000      0.0000      0.0000      0.0000      0.0000
 34      0.0000      0.0166      0.0000      0.0000      0.0096      0.0000      0.0054      0.0590      0.0000
 35      0.0000      0.0183      0.0000      0.0000      0.0000      0.0000      0.0000      0.0000      0.0000
 36      0.0000      0.0356      0.0000      0.0000      0.0305      0.0000      0.0000      0.0000      0.1888
 37      0.0000      0.0271      0.0000      0.0000      0.0006      0.0000      0.1268      0.0000      0.0227
 38      0.0000      0.0086      0.0000      0.0000      0.0000      0.0000      0.0000      0.0030      0.0000
 39      0.0000      0.0197      0.0000      0.0000      0.1167      0.0000      0.0000      0.0000      0.0000
 40      0.4830      0.3125      0.3590      0.2565      0.5477      0.3022      0.3113      0.2362      0.3262
 41      0.2028      0.1032      0.3148      0.0000      0.0047      0.1869      0.0000      0.0000      0.0107
 42      0.0000      0.0611      0.1631      0.0000      0.1884      0.0347      0.0000      0.1668      0.0000
 43     16.1724     15.8230     16.0597     15.8151     16.0279     16.5751     16.1567     16.0939     15.6473
 44     28.8475     27.7070     27.9038     28.0451     27.6204     27.9844     27.6993     27.8478     27.8906
 45      0.0574      0.5333      0.5974      0.5937      0.6111      0.2608      0.5782      0.5252      0.7471
 46      3.7101      3.4947      3.5611      3.5870      3.2700      3.7349      3.7700      3.3600      3.4365
 47      6.0634      5.1745      5.3053      5.2434      4.8939      4.9014      5.5049      5.1158      5.2178
 48      0.0000      0.2151      0.0677      0.2391      0.5402      0.0000      0.1296      0.0000      0.2269
 49      0.0000      0.1489      0.0572      0.0000      0.2978      0.1594      0.0090      0.2289      0.2168
 50      0.0000      0.0975      0.0463      0.0000      0.0499      0.0521      0.0129      0.2008      0.2817
 51      0.0000      0.0033      0.0000      0.0000      0.0121      0.0000      0.0000      0.0033      0.0000
 52      0.0000      0.0163      0.0000      0.0871      0.0084      0.0000      0.0534      0.0000      0.0000
 53      0.0000      0.0081      0.0000      0.0000      0.0000      0.0000      0.0000      0.0104      0.0000
 54      0.0000      0.0145      0.0000      0.0000      0.0000      0.0048      0.0000      0.0209      0.0000
 55      0.0000      0.0234      0.0000      0.0000      0.0000      0.0495      0.0000      0.0000      0.0000
 56      0.0000      0.0140      0.0000      0.0629      0.0000      0.0000      0.0773      0.0000      0.0000
 57      0.0000      0.0097      0.0069      0.0000      0.0000      0.0000      0.0234      0.0000      0.0000
 58      0.0000      0.0086      0.0000      0.0000      0.0000      0.0000      0.0000      0.0000      0.0000
 59      0.0000      0.0278      0.1392      0.0161      0.0000      0.0000      0.0000      0.0000      0.0000
 60      0.0000      0.0101      0.0667      0.0000      0.0000      0.0000      0.0000      0.0000      0.0000
 61      0.0000      0.0181      0.0000      0.0000      0.0000      0.0000      0.0000      0.0000      0.0000
 62      0.0000      0.0195      0.0089      0.0429      0.0000      0.0000      0.0000      0.0000      0.0000
 63      0.0000      0.0130      0.0000      0.0158      0.0000      0.0000      0.0000      0.0000      0.1049
 64      0.0000      0.0296      0.0129      0.0000      0.0596      0.0000      0.0000      0.0000      0.0417
 65      0.0000      0.0914      0.0533      0.1806      0.0184      0.1210      0.0000      0.0000      0.1933
 66      0.0000      0.1095      0.0000      0.0324      0.1781      0.1407      0.0000      0.1302      0.2908
 67      0.0000      0.1656      0.0000      0.4696      0.0405      0.0646      0.1283      0.0000      0.0989
 68     21.2936     20.1405     20.5770     20.4907     19.9401     20.2314     20.4327     20.4846     19.8249
 69      0.0000      0.1289      0.0000      0.0000      0.0000      0.1681      0.1394      0.2055      0.1870
 70      0.0000      0.1614      0.0178      0.0362      0.1683      0.0937      0.1484      0.0800      0.4719
 71      0.0000      0.0591      0.1866      0.0393      0.1390      0.0290      0.0575      0.0680      0.0912
 72      0.0000      0.0740      0.0000      0.1805      0.0486      0.1378      0.1398      0.0811      0.1368
 73      0.0000      0.0404      0.0000      0.1928      0.1064      0.0675      0.1399      0.0000      0.0000
 74      0.0000      0.0563      0.0841      0.0000      0.0269      0.2158      0.0000      0.0160      0.0000
 75      0.0000      0.0243      0.0000      0.0000      0.0000      0.0000      0.0000      0.0000      0.0189
 76      0.0000      0.0015      0.0000      0.0000      0.0000      0.0000      0.0000      0.0000      0.0000
 77      0.0000      0.0030      0.0000      0.0000      0.0000      0.0000      0.0000      0.0000      0.0000
 78      0.0000      0.0026      0.0000      0.0000      0.0000      0.0000      0.0000      0.0000      0.0116
 79      0.0000      0.0163      0.0000      0.0059      0.0688      0.0000      0.0000      0.0000      0.0003
 80      0.0000      0.0076      0.0000      0.0000      0.0068      0.0000      0.0000      0.0000      0.0000
 81      0.0000      0.0070      0.0000      0.0000      0.0000      0.0000      0.0000      0.0000      0.0000
 82      0.0000      0.0063      0.0000      0.0000      0.0000      0.0000      0.0000      0.0000      0.0000
 83      0.0000      0.0074      0.0000      0.0817      0.0007      0.0000      0.0025      0.0060      0.0000
 84      0.0000      0.0225      0.0000      0.0000      0.0000      0.0000      0.0000      0.0000      0.0000
 85      0.0000      0.0184      0.0000      0.0000      0.0000      0.0000      0.0000      0.0000      0.0000
 86      0.0000      0.0172      0.0000      0.0000      0.0000      0.0000      0.0182      0.0106      0.0127
 87      0.0000      0.0098      0.0000      0.0000      0.0000      0.0000      0.0000      0.0000      0.0000
 88      0.0000      0.0102      0.0000      0.1294      0.0000      0.0000      0.0000      0.0000      0.0000
 89      0.0000      0.0158      0.0696      0.0000      0.0000      0.0000      0.1222      0.0000      0.0000
 90      0.0000      0.0384      0.0000      0.0000      0.0345      0.0000      0.0000      0.1191      0.0210
 91      0.0000      0.0308      0.0000      0.0000      0.0000      0.0000      0.0000      0.0000      0.0000
 92      0.0598      0.1242      0.2007      0.1776      0.0480      0.1389      0.0110      0.0370      0.0091
 93      0.6397      0.1317      0.3591      0.2767      0.1791      0.2429      0.3035      0.1850      0.1320
 94      0.0000      0.0524      0.0318      0.0269      0.1253      0.0792      0.0712      0.0552      0.0679
 95      0.0000      0.0292      0.0000      0.1413      0.1273      0.0392      0.0315      0.0000      0.0000
 96      0.0000      0.0403      0.0913      0.0000      0.0000      0.0000      0.0000      0.0000      0.0850
 97      0.0000      0.0135      0.0000      0.0000      0.0000      0.0054      0.0000      0.0162      0.0921
 98      0.0000      0.0197      0.1009      0.0000      0.0000      0.0000      0.0000      0.0000      0.0000
 99      0.0000      0.0194      0.0000      0.0000      0.0216      0.0000      0.0000      0.0000      0.0000
100      0.0000      0.0210      0.0171      0.0000      0.1375      0.0000      0.0000      0.0000      0.0000
101      0.0000      0.0065      0.0000      0.0000      0.0000      0.0000      0.0481      0.0000      0.0000
102      0.0000      0.0025      0.0000      0.0000      0.0000      0.0000      0.0000      0.0000      0.0000
103      0.0000      0.0105      0.0194      0.0000      0.0000      0.0315      0.0045      0.0000      0.0000
104      0.0000      0.0135      0.0044      0.0000      0.0000      0.0000      0.0000      0.0615      0.0000
105      0.0000      0.0053      0.0000      0.0000      0.0000      0.0000      0.0287      0.0000      0.0000
106      0.0000      0.0077      0.0000      0.0000      0.0000      0.0000      0.0000      0.0000      0.0000
107      0.0000      0.0069      0.0000      0.0000      0.0000      0.0000      0.0000      0.0000      0.0000
108      0.0000      0.0073      0.0000      0.0000      0.0000      0.0000      0.0000      0.0000      0.0000
109      0.0000      0.0083      0.0000      0.0000      0.0000      0.0000      0.0000      0.0000      0.0000
110      0.0000      0.0097      0.0000      0.0000      0.0000      0.0000      0.0000      0.0000      0.0000
111      0.0000      0.0051      0.0000      0.0089      0.0000      0.0000      0.0483      0.0000      0.0000
112      0.0000      0.0053      0.0000      0.0000      0.0000      0.0000      0.0000      0.0000      0.0000
113      0.0000      0.0066      0.0000      0.0000      0.0000      0.0000      0.0033      0.0000      0.0000
114      0.0000      0.0217      0.0000      0.0000      0.0000      0.0173      0.0000      0.0104      0.0000
115      0.0000      0.0727      0.0000      0.0000      0.1259      0.0000      0.0825      0.1978      0.0000
116      0.0000      0.0736      0.0000      0.0000      0.1131      0.0000      0.0396      0.0000      0.0000
117      0.0000      0.0470      0.0000      0.0000      0.0000      0.0919      0.0000      0.0000      0.0000
118      0.0000      0.0224      0.0000      0.0000      0.0000      0.0000      0.0000      0.0000      0.0000
119      0.0000      0.0176      0.0000      0.0000      0.0000      0.0000      0.0000      0.0000      0.0000
120      0.0000      0.0054      0.0000      0.0000      0.0000      0.0000      0.0000      0.0000      0.0176
121      0.0000      0.0099      0.0000      0.0000      0.0000      0.0000      0.0000      0.0636      0.0000
122      0.0000      0.0041      0.0000      0.0000      0.0000      0.0000      0.0222      0.0000      0.0000
123      0.0000      0.0087      0.0000      0.0000      0.0000      0.0000      0.0000      0.0000      0.0000
124      0.0000      0.0038      0.0000      0.0000      0.0000      0.0000      0.0104      0.0000      0.0000
125      0.0000      0.0055      0.0000      0.0000      0.0051      0.0000      0.0000      0.0000      0.0000
126      0.0000      0.0058      0.0000      0.0000      0.0000      0.0000      0.0000      0.0000      0.0000
127      0.0000      0.0055      0.0000      0.0016      0.0000      0.0344      0.0000      0.0000      0.0000
128      0.0000      0.0028      0.0000      0.0000      0.0000      0.0000      0.0000      0.0000      0.0241
129      0.0000      0.0034      0.0263      0.0000      0.0000      0.0000      0.0000      0.0000      0.0000
130      0.0000      0.0026      0.0000      0.0000      0.0000      0.0013      0.0000      0.0000      0.0000
131      0.0000      0.0028      0.0000      0.0000      0.0000      0.0000      0.0000      0.0000      0.0000
132      0.0000      0.0052      0.0000      0.0000      0.0185      0.0000      0.0000      0.0000      0.0000
133      0.0000      0.0040      0.0000      0.0455      0.0151      0.0000      0.0000      0.0000      0.0337
134      0.0000      0.0157      0.0000      0.0000      0.0071      0.0000      0.0000      0.0257      0.0000
135      0.0000      0.0140      0.0000      0.0097      0.0000      0.0000      0.0000      0.0000      0.0000
136      0.0000      0.0057      0.0000      0.0099      0.0000      0.0000      0.0000      0.0000      0.0000
137      0.0000      0.0113      0.0000      0.0000      0.0000      0.0080      0.0404      0.0000      0.0000
138      0.0000      0.0164      0.0000      0.0000      0.0000      0.0000      0.0000      0.0000      0.0000
139      0.0000      0.0432      0.0070      0.0399      0.0316      0.0000      0.0820      0.0000      0.1278
140      0.0000      0.1837      0.0000      0.1101      0.1796      0.0098      0.0689      0.1879      0.0000
141      3.5706      3.5021      3.5991      3.4774      3.4622      3.4459      3.5036      3.5350      3.5716
142      0.0000      0.3230      0.1608      0.1232      0.4592      0.3089      0.3114      0.3644      0.3278
143      0.0000      0.0058      0.0000      0.0000      0.0000      0.0475      0.0000      0.0000      0.0000
144      0.0000      0.0018      0.0000      0.0000      0.0000      0.0206      0.0000      0.0000      0.0000
145      0.0000      0.0037      0.0000      0.0000      0.0000      0.0000      0.0000      0.0000      0.0000
146      0.0000      0.0013      0.0000      0.0000      0.0000      0.0000      0.0005      0.0000      0.0000
147      0.0000      0.0012      0.0000      0.0000      0.0000      0.0000      0.0000      0.0000      0.0000
148      0.0000      0.0006      0.0000      0.0000      0.0000      0.0000      0.0000      0.0000      0.0000
149      0.0000      0.0012      0.0000      0.0000      0.0000      0.0000      0.0000      0.0000      0.0000
150      0.0000      0.0005      0.0000      0.0000      0.0000      0.0000      0.0000      0.0000      0.0000

# j      m_j: min, <> & last-chain-values for 1 ...  7 chains
  1  0.0000E+00  3.0768E-04  0.0000E+00  0.0000E+00  0.0000E+00  9.4121E-04  0.0000E+00  2.6436E-04  1.5961E-03
  2  9.3514E-02  8.8524E-02  9.1024E-02  8.9265E-02  8.9710E-02  9.0747E-02  9.0156E-02  9.0238E-02  8.7226E-02
  3  0.0000E+00  1.6693E-04  0.0000E+00  2.4140E-04  6.7154E-04  0.0000E+00  0.0000E+00  4.8386E-04  3.1972E-04
  4  0.0000E+00  1.2221E-04  6.4399E-04  0.0000E+00  0.0000E+00  0.0000E+00  0.0000E+00  0.0000E+00  0.0000E+00
  5  0.0000E+00  9.6357E-05  0.0000E+00  0.0000E+00  7.1316E-04  3.0816E-04  0.0000E+00  0.0000E+00  0.0000E+00
  6  0.0000E+00  1.1638E-04  0.0000E+00  6.8134E-04  0.0000E+00  0.0000E+00  0.0000E+00  0.0000E+00  0.0000E+00
  7  0.0000E+00  2.0778E-04  9.5633E-04  0.0000E+00  0.0000E+00  0.0000E+00  0.0000E+00  0.0000E+00  4.4466E-05
  8  0.0000E+00  2.1602E-04  0.0000E+00  0.0000E+00  0.0000E+00  0.0000E+00  0.0000E+00  0.0000E+00  0.0000E+00
  9  0.0000E+00  4.3783E-04  0.0000E+00  1.4402E-03  0.0000E+00  0.0000E+00  0.0000E+00  1.0174E-03  1.2870E-03
 10  0.0000E+00  9.9180E-04  0.0000E+00  0.0000E+00  6.9283E-03  0.0000E+00  4.2816E-03  1.1172E-05  0.0000E+00
 11  0.0000E+00  1.2423E-03  0.0000E+00  0.0000E+00  7.2128E-04  0.0000E+00  0.0000E+00  0.0000E+00  0.0000E+00
 12  0.0000E+00  1.8228E-03  0.0000E+00  0.0000E+00  0.0000E+00  0.0000E+00  7.8907E-03  1.4946E-02  0.0000E+00
 13  0.0000E+00  1.6986E-03  0.0000E+00  3.8390E-03  0.0000E+00  0.0000E+00  0.0000E+00  7.6872E-03  0.0000E+00
 14  0.0000E+00  2.7950E-03  0.0000E+00  1.1030E-03  0.0000E+00  0.0000E+00  0.0000E+00  0.0000E+00  0.0000E+00
 15  0.0000E+00  3.4489E-03  0.0000E+00  0.0000E+00  1.1355E-03  0.0000E+00  0.0000E+00  0.0000E+00  0.0000E+00
 16  0.0000E+00  2.3113E-02  0.0000E+00  0.0000E+00  0.0000E+00  1.2325E-02  4.9143E-02  0.0000E+00  1.2593E-01
 17  0.0000E+00  1.8391E-02  0.0000E+00  4.1416E-02  0.0000E+00  0.0000E+00  2.4275E-02  4.6407E-03  2.4336E-05
 18  0.0000E+00  4.9213E-02  0.0000E+00  2.4157E-02  0.0000E+00  1.1973E-01  1.6089E-01  0.0000E+00  2.5977E-02
 19  5.2835E-03  1.2127E-01  5.0927E-01  5.1235E-02  0.0000E+00  1.6004E-01  1.4229E-01  0.0000E+00  1.2170E-01
 20  6.7882E-02  2.3154E-01  3.7880E-01  2.1432E-01  6.5559E-01  5.5307E-01  0.0000E+00  4.3432E-01  0.0000E+00
 21  0.0000E+00  2.0343E-01  0.0000E+00  4.2676E-01  9.1271E-02  0.0000E+00  0.0000E+00  1.2026E-01  5.7281E-01
 22  0.0000E+00  4.0612E-01  3.2768E-01  6.4524E-01  2.6339E-01  0.0000E+00  9.4770E-02  1.1765E+00  1.9258E-01
 23  0.0000E+00  4.0732E-01  0.0000E+00  2.6648E-01  7.1544E-02  2.5666E-01  2.1048E-01  1.2796E-01  0.0000E+00
 24  5.8198E-02  3.9238E-01  6.1407E-01  0.0000E+00  0.0000E+00  4.9308E-02  0.0000E+00  6.7627E-01  5.8885E-01
 25  0.0000E+00  6.8517E-01  0.0000E+00  1.0306E+00  1.0917E+00  1.3566E+00  6.9627E-01  6.7374E-01  9.9752E-01
 26  0.0000E+00  1.1156E-04  0.0000E+00  0.0000E+00  1.2351E-04  0.0000E+00  7.0515E-05  0.0000E+00  0.0000E+00
 27  0.0000E+00  5.1984E-05  0.0000E+00  0.0000E+00  0.0000E+00  2.6452E-04  5.8126E-05  0.0000E+00  0.0000E+00
 28  0.0000E+00  6.2049E-05  0.0000E+00  0.0000E+00  0.0000E+00  0.0000E+00  0.0000E+00  0.0000E+00  0.0000E+00
 29  0.0000E+00  7.9245E-05  0.0000E+00  0.0000E+00  0.0000E+00  0.0000E+00  0.0000E+00  3.2590E-04  5.4039E-04
 30  0.0000E+00  1.2215E-04  0.0000E+00  0.0000E+00  0.0000E+00  0.0000E+00  0.0000E+00  0.0000E+00  0.0000E+00
 31  0.0000E+00  1.1894E-04  0.0000E+00  0.0000E+00  0.0000E+00  3.9629E-04  3.3724E-04  0.0000E+00  0.0000E+00
 32  0.0000E+00  1.4819E-04  0.0000E+00  0.0000E+00  0.0000E+00  0.0000E+00  0.0000E+00  0.0000E+00  0.0000E+00
 33  0.0000E+00  5.6014E-04  0.0000E+00  0.0000E+00  0.0000E+00  0.0000E+00  0.0000E+00  0.0000E+00  0.0000E+00
 34  0.0000E+00  7.0308E-04  0.0000E+00  0.0000E+00  4.0432E-04  0.0000E+00  2.3032E-04  2.5187E-03  0.0000E+00
 35  0.0000E+00  9.3802E-04  0.0000E+00  0.0000E+00  0.0000E+00  0.0000E+00  0.0000E+00  0.0000E+00  0.0000E+00
 36  0.0000E+00  2.3351E-03  0.0000E+00  0.0000E+00  1.9923E-03  0.0000E+00  0.0000E+00  0.0000E+00  1.2253E-02
 37  0.0000E+00  2.2130E-03  0.0000E+00  0.0000E+00  5.1015E-05  0.0000E+00  1.0467E-02  0.0000E+00  1.8328E-03
 38  0.0000E+00  9.8222E-04  0.0000E+00  0.0000E+00  0.0000E+00  0.0000E+00  0.0000E+00  3.4055E-04  0.0000E+00
 39  0.0000E+00  3.3423E-03  0.0000E+00  0.0000E+00  1.9683E-02  0.0000E+00  0.0000E+00  0.0000E+00  0.0000E+00
 40  1.4878E-01  9.3495E-02  1.0887E-01  7.7184E-02  1.6296E-01  9.1067E-02  9.4186E-02  7.1127E-02  9.6467E-02
 41  8.3705E-02  4.1370E-02  1.2791E-01  0.0000E+00  1.8556E-03  7.5469E-02  0.0000E+00  0.0000E+00  4.2469E-03
 42  0.0000E+00  2.7361E-02  7.4020E-02  0.0000E+00  8.3865E-02  1.5625E-02  0.0000E+00  7.5146E-02  0.0000E+00
 43  1.2124E+01  1.1521E+01  1.1853E+01  1.1583E+01  1.1606E+01  1.2155E+01  1.1897E+01  1.1794E+01  1.1259E+01
 44  3.4203E+01  3.1906E+01  3.2571E+01  3.2486E+01  3.1630E+01  3.2455E+01  3.2256E+01  3.2276E+01  3.1740E+01
 45  9.4928E-02  8.5588E-01  9.7189E-01  9.5846E-01  9.7535E-01  4.2164E-01  9.3849E-01  8.4841E-01  1.1849E+00
 46  7.3035E+00  6.6818E+00  6.9016E+00  6.8988E+00  6.2176E+00  7.1918E+00  7.2893E+00  6.4659E+00  6.4934E+00
 47  1.5644E+01  1.2967E+01  1.3476E+01  1.3217E+01  1.2196E+01  1.2370E+01  1.3950E+01  1.2903E+01  1.2922E+01
 48  0.0000E+00  6.4183E-01  2.0466E-01  7.1779E-01  1.6029E+00  0.0000E+00  3.9112E-01  0.0000E+00  6.6902E-01
 49  0.0000E+00  4.9715E-01  1.9353E-01  0.0000E+00  9.8875E-01  5.3597E-01  3.0249E-02  7.6910E-01  7.1521E-01
 50  0.0000E+00  3.8281E-01  1.8419E-01  0.0000E+00  1.9502E-01  2.0613E-01  5.1337E-02  7.9367E-01  1.0929E+00
 51  0.0000E+00  6.0093E-05  0.0000E+00  0.0000E+00  2.1791E-04  0.0000E+00  0.0000E+00  5.9319E-05  0.0000E+00
 52  0.0000E+00  8.0418E-05  0.0000E+00  4.3264E-04  4.1267E-05  0.0000E+00  2.6643E-04  0.0000E+00  0.0000E+00
 53  0.0000E+00  6.1211E-05  0.0000E+00  0.0000E+00  0.0000E+00  0.0000E+00  0.0000E+00  7.8795E-05  0.0000E+00
 54  0.0000E+00  1.0411E-04  0.0000E+00  0.0000E+00  0.0000E+00  3.4703E-05  0.0000E+00  1.5134E-04  0.0000E+00
 55  0.0000E+00  2.4784E-04  0.0000E+00  0.0000E+00  0.0000E+00  5.2857E-04  0.0000E+00  0.0000E+00  0.0000E+00
 56  0.0000E+00  1.9577E-04  0.0000E+00  8.8753E-04  0.0000E+00  0.0000E+00  1.0958E-03  0.0000E+00  0.0000E+00
 57  0.0000E+00  2.1778E-04  1.5797E-04  0.0000E+00  0.0000E+00  0.0000E+00  5.3263E-04  0.0000E+00  0.0000E+00
 58  0.0000E+00  2.7803E-04  0.0000E+00  0.0000E+00  0.0000E+00  0.0000E+00  0.0000E+00  0.0000E+00  0.0000E+00
 59  0.0000E+00  1.2541E-03  6.3587E-03  7.3004E-04  0.0000E+00  0.0000E+00  0.0000E+00  0.0000E+00  0.0000E+00
 60  0.0000E+00  5.0851E-04  3.3921E-03  0.0000E+00  0.0000E+00  0.0000E+00  0.0000E+00  0.0000E+00  0.0000E+00
 61  0.0000E+00  1.1542E-03  0.0000E+00  0.0000E+00  0.0000E+00  0.0000E+00  0.0000E+00  0.0000E+00  0.0000E+00
 62  0.0000E+00  1.5805E-03  7.3064E-04  3.4982E-03  0.0000E+00  0.0000E+00  0.0000E+00  0.0000E+00  0.0000E+00
 63  0.0000E+00  1.6003E-03  0.0000E+00  1.9618E-03  0.0000E+00  0.0000E+00  0.0000E+00  0.0000E+00  1.2778E-02
 64  0.0000E+00  5.9958E-03  2.6430E-03  0.0000E+00  1.2025E-02  0.0000E+00  0.0000E+00  0.0000E+00  8.3673E-03
 65  0.0000E+00  3.1328E-02  1.8535E-02  6.2265E-02  6.2884E-03  4.1778E-02  0.0000E+00  0.0000E+00  6.5500E-02
 66  0.0000E+00  4.8048E-02  0.0000E+00  1.4295E-02  7.7667E-02  6.2140E-02  0.0000E+00  5.7492E-02  1.2605E-01
 67  0.0000E+00  9.9713E-02  0.0000E+00  2.8438E-01  2.4225E-02  3.9150E-02  7.8093E-02  0.0000E+00  5.8857E-02
 68  2.4540E+01  2.2544E+01  2.3346E+01  2.3071E+01  2.2196E+01  2.2807E+01  2.3128E+01  2.3078E+01  2.1930E+01
 69  0.0000E+00  2.4886E-01  0.0000E+00  0.0000E+00  0.0000E+00  3.2688E-01  2.7213E-01  3.9922E-01  3.5667E-01
 70  0.0000E+00  4.3366E-01  4.8496E-02  9.7945E-02  4.4968E-01  2.5346E-01  4.0315E-01  2.1626E-01  1.2528E+00
 71  0.0000E+00  1.8745E-01  5.9962E-01  1.2519E-01  4.3830E-01  9.2680E-02  1.8438E-01  2.1680E-01  2.8581E-01
 72  0.0000E+00  3.0883E-01  0.0000E+00  7.5752E-01  2.0162E-01  5.7899E-01  5.9006E-01  3.4059E-01  5.6427E-01
 73  0.0000E+00  2.1259E-01  0.0000E+00  1.0207E+00  5.5682E-01  3.5763E-01  7.4466E-01  0.0000E+00  0.0000E+00
 74  0.0000E+00  3.3073E-01  5.0061E-01  0.0000E+00  1.5694E-01  1.2764E+00  0.0000E+00  9.4404E-02  0.0000E+00
 75  0.0000E+00  1.6433E-01  0.0000E+00  0.0000E+00  0.0000E+00  0.0000E+00  0.0000E+00  0.0000E+00  1.2623E-01
 76  0.0000E+00  2.2734E-05  0.0000E+00  0.0000E+00  0.0000E+00  0.0000E+00  0.0000E+00  0.0000E+00  0.0000E+00
 77  0.0000E+00  1.9400E-05  0.0000E+00  0.0000E+00  0.0000E+00  0.0000E+00  0.0000E+00  0.0000E+00  0.0000E+00
 78  0.0000E+00  1.8352E-05  0.0000E+00  0.0000E+00  0.0000E+00  0.0000E+00  0.0000E+00  0.0000E+00  8.1484E-05
 79  0.0000E+00  1.3967E-04  0.0000E+00  5.0804E-05  5.8761E-04  0.0000E+00  0.0000E+00  0.0000E+00  2.3232E-06
 80  0.0000E+00  8.4336E-05  0.0000E+00  0.0000E+00  7.4340E-05  0.0000E+00  0.0000E+00  0.0000E+00  0.0000E+00
 81  0.0000E+00  1.0228E-04  0.0000E+00  0.0000E+00  0.0000E+00  0.0000E+00  0.0000E+00  0.0000E+00  0.0000E+00
 82  0.0000E+00  1.2458E-04  0.0000E+00  0.0000E+00  0.0000E+00  0.0000E+00  0.0000E+00  0.0000E+00  0.0000E+00
 83  0.0000E+00  2.1315E-04  0.0000E+00  2.3758E-03  2.1101E-05  0.0000E+00  7.2354E-05  1.7440E-04  0.0000E+00
 84  0.0000E+00  8.9978E-04  0.0000E+00  0.0000E+00  0.0000E+00  0.0000E+00  0.0000E+00  0.0000E+00  0.0000E+00
 85  0.0000E+00  8.9369E-04  0.0000E+00  0.0000E+00  0.0000E+00  0.0000E+00  0.0000E+00  0.0000E+00  0.0000E+00
 86  0.0000E+00  1.1302E-03  0.0000E+00  0.0000E+00  0.0000E+00  0.0000E+00  1.2127E-03  7.0347E-04  8.2554E-04
 87  0.0000E+00  8.5953E-04  0.0000E+00  0.0000E+00  0.0000E+00  0.0000E+00  0.0000E+00  0.0000E+00  0.0000E+00
 88  0.0000E+00  1.3605E-03  0.0000E+00  1.7421E-02  0.0000E+00  0.0000E+00  0.0000E+00  0.0000E+00  0.0000E+00
 89  0.0000E+00  3.5229E-03  1.5712E-02  0.0000E+00  0.0000E+00  0.0000E+00  2.7527E-02  0.0000E+00  0.0000E+00
 90  0.0000E+00  1.5809E-02  0.0000E+00  0.0000E+00  1.4127E-02  0.0000E+00  0.0000E+00  4.9382E-02  8.5540E-03
 91  0.0000E+00  1.6320E-02  0.0000E+00  0.0000E+00  0.0000E+00  0.0000E+00  0.0000E+00  0.0000E+00  0.0000E+00
 92  4.3599E-02  8.7899E-02  1.4396E-01  1.2640E-01  3.3792E-02  9.8975E-02  7.8859E-03  2.6383E-02  6.3872E-03
 93  9.4680E-01  1.8927E-01  5.2331E-01  4.0009E-01  2.5605E-01  3.5172E-01  4.4114E-01  2.6767E-01  1.8750E-01
 94  0.0000E+00  1.3501E-01  8.3096E-02  6.9808E-02  3.2132E-01  2.0553E-01  1.8560E-01  1.4319E-01  1.7305E-01
 95  0.0000E+00  1.0128E-01  0.0000E+00  4.9356E-01  4.3956E-01  1.3696E-01  1.1054E-01  0.0000E+00  0.0000E+00
 96  0.0000E+00  1.6886E-01  3.8773E-01  0.0000E+00  0.0000E+00  0.0000E+00  0.0000E+00  0.0000E+00  3.5192E-01
 97  0.0000E+00  7.3621E-02  0.0000E+00  0.0000E+00  0.0000E+00  2.9818E-02  0.0000E+00  8.9235E-02  4.9720E-01
 98  0.0000E+00  1.3761E-01  7.1637E-01  0.0000E+00  0.0000E+00  0.0000E+00  0.0000E+00  0.0000E+00  0.0000E+00
 99  0.0000E+00  1.5505E-01  0.0000E+00  0.0000E+00  1.7119E-01  0.0000E+00  0.0000E+00  0.0000E+00  0.0000E+00
100  0.0000E+00  1.9288E-01  1.5902E-01  0.0000E+00  1.2564E+00  0.0000E+00  0.0000E+00  0.0000E+00  0.0000E+00
101  0.0000E+00  6.5306E-05  0.0000E+00  0.0000E+00  0.0000E+00  0.0000E+00  4.9165E-04  0.0000E+00  0.0000E+00
102  0.0000E+00  1.3097E-05  0.0000E+00  0.0000E+00  0.0000E+00  0.0000E+00  0.0000E+00  0.0000E+00  0.0000E+00
103  0.0000E+00  6.0973E-05  1.1445E-04  0.0000E+00  0.0000E+00  1.8476E-04  2.6663E-05  0.0000E+00  0.0000E+00
104  0.0000E+00  1.0328E-04  3.4144E-05  0.0000E+00  0.0000E+00  0.0000E+00  0.0000E+00  4.7385E-04  0.0000E+00
105  0.0000E+00  8.5791E-05  0.0000E+00  0.0000E+00  0.0000E+00  0.0000E+00  4.6961E-04  0.0000E+00  0.0000E+00
106  0.0000E+00  1.3361E-04  0.0000E+00  0.0000E+00  0.0000E+00  0.0000E+00  0.0000E+00  0.0000E+00  0.0000E+00
107  0.0000E+00  1.5949E-04  0.0000E+00  0.0000E+00  0.0000E+00  0.0000E+00  0.0000E+00  0.0000E+00  0.0000E+00
108  0.0000E+00  2.8201E-04  0.0000E+00  0.0000E+00  0.0000E+00  0.0000E+00  0.0000E+00  0.0000E+00  0.0000E+00
109  0.0000E+00  3.8631E-04  0.0000E+00  0.0000E+00  0.0000E+00  0.0000E+00  0.0000E+00  0.0000E+00  0.0000E+00
110  0.0000E+00  5.4074E-04  0.0000E+00  0.0000E+00  0.0000E+00  0.0000E+00  0.0000E+00  0.0000E+00  0.0000E+00
111  0.0000E+00  3.9098E-04  0.0000E+00  6.9269E-04  0.0000E+00  0.0000E+00  3.7809E-03  0.0000E+00  0.0000E+00
112  0.0000E+00  5.3578E-04  0.0000E+00  0.0000E+00  0.0000E+00  0.0000E+00  0.0000E+00  0.0000E+00  0.0000E+00
113  0.0000E+00  9.9639E-04  0.0000E+00  0.0000E+00  0.0000E+00  0.0000E+00  5.0750E-04  0.0000E+00  0.0000E+00
114  0.0000E+00  5.7974E-03  0.0000E+00  0.0000E+00  0.0000E+00  4.6549E-03  0.0000E+00  2.7998E-03  0.0000E+00
115  0.0000E+00  3.8918E-02  0.0000E+00  0.0000E+00  6.7030E-02  0.0000E+00  4.4644E-02  1.0656E-01  0.0000E+00
116  0.0000E+00  6.3291E-02  0.0000E+00  0.0000E+00  9.6669E-02  0.0000E+00  3.4409E-02  0.0000E+00  0.0000E+00
117  0.0000E+00  4.7481E-02  0.0000E+00  0.0000E+00  0.0000E+00  9.3473E-02  0.0000E+00  0.0000E+00  0.0000E+00
118  0.0000E+00  4.5962E-02  0.0000E+00  0.0000E+00  0.0000E+00  0.0000E+00  0.0000E+00  0.0000E+00  0.0000E+00
119  0.0000E+00  6.2360E-02  0.0000E+00  0.0000E+00  0.0000E+00  0.0000E+00  0.0000E+00  0.0000E+00  0.0000E+00
120  0.0000E+00  2.7206E-02  0.0000E+00  0.0000E+00  0.0000E+00  0.0000E+00  0.0000E+00  0.0000E+00  8.7813E-02
121  0.0000E+00  5.8767E-02  0.0000E+00  0.0000E+00  0.0000E+00  0.0000E+00  0.0000E+00  3.8004E-01  0.0000E+00
122  0.0000E+00  3.2880E-02  0.0000E+00  0.0000E+00  0.0000E+00  0.0000E+00  1.7797E-01  0.0000E+00  0.0000E+00
123  0.0000E+00  9.1357E-02  0.0000E+00  0.0000E+00  0.0000E+00  0.0000E+00  0.0000E+00  0.0000E+00  0.0000E+00
124  0.0000E+00  4.5963E-02  0.0000E+00  0.0000E+00  0.0000E+00  0.0000E+00  1.2692E-01  0.0000E+00  0.0000E+00
125  0.0000E+00  7.8657E-02  0.0000E+00  0.0000E+00  7.2808E-02  0.0000E+00  0.0000E+00  0.0000E+00  0.0000E+00
126  0.0000E+00  4.4115E-05  0.0000E+00  0.0000E+00  0.0000E+00  0.0000E+00  0.0000E+00  0.0000E+00  0.0000E+00
127  0.0000E+00  2.1852E-05  0.0000E+00  6.6323E-06  0.0000E+00  1.3861E-04  0.0000E+00  0.0000E+00  0.0000E+00
128  0.0000E+00  1.6637E-05  0.0000E+00  0.0000E+00  0.0000E+00  0.0000E+00  0.0000E+00  0.0000E+00  1.4151E-04
129  0.0000E+00  4.1199E-05  3.2371E-04  0.0000E+00  0.0000E+00  0.0000E+00  0.0000E+00  0.0000E+00  0.0000E+00
130  0.0000E+00  4.3752E-05  0.0000E+00  0.0000E+00  0.0000E+00  2.1191E-05  0.0000E+00  0.0000E+00  0.0000E+00
131  0.0000E+00  5.3212E-05  0.0000E+00  0.0000E+00  0.0000E+00  0.0000E+00  0.0000E+00  0.0000E+00  0.0000E+00
132  0.0000E+00  1.3595E-04  0.0000E+00  0.0000E+00  4.7823E-04  0.0000E+00  0.0000E+00  0.0000E+00  0.0000E+00
133  0.0000E+00  1.5166E-04  0.0000E+00  1.7301E-03  5.6744E-04  0.0000E+00  0.0000E+00  0.0000E+00  1.2577E-03
134  0.0000E+00  7.5289E-04  0.0000E+00  0.0000E+00  3.3834E-04  0.0000E+00  0.0000E+00  1.2394E-03  0.0000E+00
135  0.0000E+00  8.0829E-04  0.0000E+00  5.6048E-04  0.0000E+00  0.0000E+00  0.0000E+00  0.0000E+00  0.0000E+00
136  0.0000E+00  4.7041E-04  0.0000E+00  8.3091E-04  0.0000E+00  0.0000E+00  0.0000E+00  0.0000E+00  9.6023E-07
137  0.0000E+00  1.2808E-03  0.0000E+00  0.0000E+00  0.0000E+00  9.1706E-04  4.6413E-03  0.0000E+00  0.0000E+00
138  0.0000E+00  3.0956E-03  0.0000E+00  0.0000E+00  0.0000E+00  0.0000E+00  0.0000E+00  0.0000E+00  0.0000E+00
139  0.0000E+00  1.5399E-02  2.5345E-03  1.4293E-02  1.1195E-02  0.0000E+00  2.9537E-02  0.0000E+00  4.4977E-02
140  0.0000E+00  1.5162E-01  0.0000E+00  9.1368E-02  1.4740E-01  8.1438E-03  5.7481E-02  1.5606E-01  0.0000E+00
141  4.6433E+00  4.4234E+00  4.6077E+00  4.4181E+00  4.3487E+00  4.3833E+00  4.4750E+00  4.4938E+00  4.4581E+00
142  0.0000E+00  4.8541E-01  2.4498E-01  1.8619E-01  6.8626E-01  4.6755E-01  4.7328E-01  5.5113E-01  4.8685E-01
143  0.0000E+00  1.7446E-02  0.0000E+00  0.0000E+00  0.0000E+00  1.4300E-01  0.0000E+00  0.0000E+00  0.0000E+00
144  0.0000E+00  1.0535E-02  0.0000E+00  0.0000E+00  0.0000E+00  1.2166E-01  0.0000E+00  0.0000E+00  0.0000E+00
145  0.0000E+00  3.2500E-02  0.0000E+00  0.0000E+00  0.0000E+00  0.0000E+00  0.0000E+00  0.0000E+00  0.0000E+00
146  0.0000E+00  1.3517E-02  0.0000E+00  0.0000E+00  0.0000E+00  0.0000E+00  5.4778E-03  0.0000E+00  0.0000E+00
147  0.0000E+00  1.7504E-02  0.0000E+00  0.0000E+00  0.0000E+00  0.0000E+00  0.0000E+00  0.0000E+00  0.0000E+00
148  0.0000E+00  1.0822E-02  0.0000E+00  0.0000E+00  0.0000E+00  0.0000E+00  0.0000E+00  0.0000E+00  0.0000E+00
149  0.0000E+00  2.6531E-02  0.0000E+00  0.0000E+00  0.0000E+00  0.0000E+00  0.0000E+00  0.0000E+00  0.0000E+00
150  0.0000E+00  1.2299E-02  0.0000E+00  0.0000E+00  0.0000E+00  0.0000E+00  0.0000E+00  0.0000E+00  0.0000E+00

# AV, chi2 & Mass for <> & i_chain = 1 ...  7 solutions
AV       0.0714      0.0735      0.0734      0.0729      0.0724      0.0723      0.0737      0.0719      0.0690
chi2 2.7064E+00  2.7767E+00  2.7370E+00  2.7421E+00  2.7478E+00  2.7414E+00  2.7504E+00  2.7430E+00  2.7422E+00
Mass 7.7639E-11  8.0157E-11  7.9073E-11  7.9624E-11  8.0490E-11  7.9466E-11  7.9289E-11  7.9475E-11  8.0621E-11
 -19.70                                  [v0_min (km/s) before EX0s...]
  70.58                                  [vd_min (km/s) before EX0s...]


## Synthetic spectrum (Best Model) ##l_obs f_obs f_syn wei
 3070    [Nl_obs]
 3359.00    0.27773   0.48594   -1.000
 3360.00    0.28337   0.47397   -1.000
 3361.00    0.28021   0.48426   -1.000
 3362.00    0.31403   0.51040   -1.000
 3363.00    0.33978   0.53917   -1.000
 3364.00    0.35171   0.55546   -1.000
 3365.00    0.36779   0.55407   -1.000
 3366.00    0.37499   0.54277   -1.000
 3367.00    0.36725   0.52962   -1.000
 3368.00    0.35529   0.51813   -1.000
 3369.00    0.34775   0.50725   -1.000
 3370.00    0.34895   0.49551   -1.000
 3371.00    0.33237   0.48806   -1.000
 3372.00    0.34175   0.49207   -1.000
 3373.00    0.34482   0.50924   -1.000
 3374.00    0.38619   0.53360   -1.000
 3375.00    0.40150   0.55603   -1.000
 3376.00    0.40941   0.56660   -1.000
 3377.00    0.42365   0.56164   -1.000
 3378.00    0.42570   0.54723   -1.000
 3379.00    0.42168   0.53523   -1.000
 3380.00    0.39395   0.53334   -1.000
 3381.00    0.41427   0.53996   -1.000
 3382.00    0.42031   0.54935   -1.000
 3383.00    0.42911   0.55760   -1.000
 3384.00    0.43819   0.56442   -1.000
 3385.00    0.44196   0.56880   -1.000
 3386.00    0.45619   0.56697   -1.000
 3387.00    0.44596   0.56114   -1.000
 3388.00    0.44449   0.55881   -1.000
 3389.00    0.47337   0.56201   -1.000
 3390.00    0.46808   0.56550   -1.000
 3391.00    0.45977   0.56358   -1.000
 3392.00    0.45294   0.55665   -1.000
 3393.00    0.44095   0.55397   -1.000
 3394.00    0.45846   0.56156   -1.000
 3395.00    0.47560   0.57657   -1.000
 3396.00    0.49850   0.59309   -1.000
 3397.00    0.48642   0.60621   -1.000
 3398.00    0.49283   0.61311   -1.000
 3399.00    0.50204   0.61157   -1.000
 3400.00    0.51175   0.60224   -1.000
 3401.00    0.49701   0.58707   -1.000
 3402.00    0.48288   0.57099   -1.000
 3403.00    0.48709   0.56125   -1.000
 3404.00    0.48476   0.55903   -1.000
 3405.00    0.48041   0.55998   -1.000
 3406.00    0.47802   0.55727   -1.000
 3407.00    0.47412   0.55041   -1.000
 3408.00    0.46455   0.54591   -1.000
 3409.00    0.46434   0.54947   -1.000
 3410.00    0.49415   0.55664   -1.000
 3411.00    0.50340   0.55845   -1.000
 3412.00    0.49171   0.55405   -1.000
 3413.00    0.49435   0.54911   -1.000
 3414.00    0.48815   0.55077   -1.000
 3415.00    0.48159   0.55971   -1.000
 3416.00    0.49694   0.57135   -1.000
 3417.00    0.49849   0.58283   -1.000
 3418.00    0.51209   0.59318   -1.000
 3419.00    0.52348   0.60100   -1.000
 3420.00    0.53793   0.60373   -1.000
 3421.00    0.53269   0.59869   -1.000
 3422.00    0.51748   0.58756   -1.000
 3423.00    0.52583   0.57707   -1.000
 3424.00    0.52479   0.57301   -1.000
 3425.00    0.52111   0.57557   -1.000
 3426.00    0.54230   0.58254   -1.000
 3427.00    0.54533   0.59453   -1.000
 3428.00    0.55040   0.61043   -1.000
 3429.00    0.56076   0.62251   -1.000
 3430.00    0.55232   0.62129   -1.000
 3431.00    0.55679   0.60665   -1.000
 3432.00    0.55301   0.59109   -1.000
 3433.00    0.54139   0.58669   -1.000
 3434.00    0.54351   0.59502   -1.000
 3435.00    0.55219   0.60569   -1.000
 3436.00    0.55807   0.60709   -1.000
 3437.00    0.54190   0.59737   -1.000
 3438.00    0.54132   0.58074   -1.000
 3439.00    0.50740   0.56099   -1.000
 3440.00    0.50337   0.54114   -1.000
 3441.00    0.49717   0.52606   -1.000
 3442.00    0.49832   0.52070   -1.000
 3443.00    0.49095   0.52523   -1.000
 3444.00    0.50564   0.53659   -1.000
 3445.00    0.51723   0.55271   -1.000
 3446.00    0.54476   0.57308   -1.000
 3447.00    0.55591   0.59447   -1.000
 3448.00    0.56638   0.61068   -1.000
 3449.00    0.56306   0.61427   -1.000
 3450.00    0.58017   0.60224   -1.000
 3451.00    0.57005   0.58271   -1.000
 3452.00    0.54778   0.56800   -1.000
 3453.00    0.55863   0.56468   -1.000
 3454.00    0.57089   0.57041 1167.538
 3455.00    0.57014   0.57800   -1.000
 3456.00    0.57972   0.58081 1167.538
 3457.00    0.58221   0.57666  151.677
 3458.00    0.57949   0.56772  150.068
 3459.00    0.56550   0.55719  149.109
 3460.00    0.55823   0.54895   -1.000
 3461.00    0.56465   0.54956   -1.000
 3462.00    0.56274   0.56044   -1.000
 3463.00    0.58489   0.57246   -1.000
 3464.00    0.59603   0.57691   -1.000
 3465.00    0.60356   0.57579   -1.000
 3466.00    0.58789   0.57761   -1.000
 3467.00    0.59577   0.58646   -1.000
 3468.00    0.59834   0.59908 1167.538
 3469.00    0.61032   0.60893 1167.538
 3470.00    0.62081   0.61089   -1.000
 3471.00    0.59878   0.60431   -1.000
 3472.00    0.58674   0.59102   -1.000
 3473.00    0.58431   0.57291  151.681
 3474.00    0.56788   0.55537  154.907
 3475.00    0.55912   0.54557  151.550
 3476.00    0.54919   0.54790 1167.538
 3477.00    0.56098   0.56055 1167.538
 3478.00    0.58207   0.57618   -1.000
 3479.00    0.59791   0.58960   -1.000
 3480.00    0.60931   0.59775   -1.000
 3481.00    0.61176   0.59834   -1.000
 3482.00    0.59789   0.59322   -1.000
 3483.00    0.59532   0.58832   -1.000
 3484.00    0.60585   0.59018   -1.000
 3485.00    0.62358   0.60009   -1.000
 3486.00    0.62056   0.60989   -1.000
 3487.00    0.62295   0.61013   -1.000
 3488.00    0.62568   0.59943   -1.000
 3489.00    0.60121   0.58385   -1.000
 3490.00    0.58784   0.57396   -1.000
 3491.00    0.57659   0.57531 1167.538
 3492.00    0.58882   0.58155   -1.000
 3493.00    0.59811   0.58300   -1.000
 3494.00    0.58681   0.57648   -1.000
 3495.00    0.58418   0.56569   -1.000
 3496.00    0.58270   0.55973   -1.000
 3497.00    0.57681   0.56503   -1.000
 3498.00    0.59882   0.57740   -1.000
 3499.00    0.61730   0.58785   -1.000
 3500.00    0.61044   0.59130   -1.000
 3501.00    0.61929   0.59178   -1.000
 3502.00    0.62418   0.59423   -1.000
 3503.00    0.63430   0.59619   -1.000
 3504.00    0.62180   0.59343   -1.000
 3505.00    0.61059   0.58694   -1.000
 3506.00    0.60727   0.58154   -1.000
 3507.00    0.62522   0.57927   -1.000
 3508.00    0.62670   0.57865   -1.000
 3509.00    0.61959   0.57728   -1.000
 3510.00    0.61642   0.57379   -1.000
 3511.00    0.59772   0.56890   -1.000
 3512.00    0.59578   0.56340   -1.000
 3513.00    0.59672   0.56019   -1.000
 3514.00    0.59492   0.56419   -1.000
 3515.00    0.60174   0.57787   -1.000
 3516.00    0.62422   0.59705   -1.000
 3517.00    0.63306   0.61088   -1.000
 3518.00    0.62077   0.61116   -1.000
 3519.00    0.61778   0.59921   -1.000
 3520.00    0.61565   0.58390   -1.000
 3521.00    0.60118   0.57217   -1.000
 3522.00    0.58139   0.56348  148.090
 3523.00    0.57903   0.55402   -1.000
 3524.00    0.56509   0.54405   -1.000
 3525.00    0.54889   0.54030   -1.000
 3526.00    0.55260   0.54837   -1.000
 3527.00    0.57256   0.56549   -1.000
 3528.00    0.59937   0.58484   -1.000
 3529.00    0.60396   0.59968   -1.000
 3530.00    0.61083   0.60695   -1.000
 3531.00    0.60245   0.60776   -1.000
 3532.00    0.59714   0.60379   -1.000
 3533.00    0.61282   0.59799   -1.000
 3534.00    0.61179   0.59481   -1.000
 3535.00    0.62450   0.59767   -1.000
 3536.00    0.62604   0.60675   -1.000
 3537.00    0.62647   0.61804   -1.000
 3538.00    0.62438   0.62718 1167.538
 3539.00    0.62128   0.63154   -1.000
 3540.00    0.62884   0.63086 1167.538
 3541.00    0.60200   0.62867   -1.000
 3542.00    0.60463   0.62945   -1.000
 3543.00    0.62878   0.63374   -1.000
 3544.00    0.63958   0.63714   -1.000
 3545.00    0.64554   0.63620   -1.000
 3546.00    0.64015   0.63258   -1.000
 3547.00    0.62437   0.62981   -1.000
 3548.00    0.63795   0.63004   -1.000
 3549.00    0.63085   0.63290 1167.538
 3550.00    0.62510   0.63603   -1.000
 3551.00    0.61387   0.63567   -1.000
 3552.00    0.61704   0.62960   -1.000
 3553.00    0.60111   0.62146   -1.000
 3554.00    0.59350   0.61703   -1.000
 3555.00    0.61264   0.61837   -1.000
 3556.00    0.61394   0.62363   -1.000
 3557.00    0.60426   0.62895   -1.000
 3558.00    0.60031   0.63092   -1.000
 3559.00    0.59851   0.63065   -1.000
 3560.00    0.61506   0.63170   -1.000
 3561.00    0.62512   0.63412   -1.000
 3562.00    0.61105   0.63248   -1.000
 3563.00    0.60512   0.62066  149.749
 3564.00    0.58873   0.60004  155.637
 3565.00    0.55664   0.58043   -1.000
 3566.00    0.54274   0.56982   -1.000
 3567.00    0.55826   0.56734  158.395
 3568.00    0.57052   0.56599  160.974
 3569.00    0.55531   0.56016  155.743
 3570.00    0.54096   0.55204  154.343
 3571.00    0.54147   0.54789   -1.000
 3572.00    0.54361   0.54951   -1.000
 3573.00    0.56403   0.55386   -1.000
 3574.00    0.55960   0.55913 1167.538
 3575.00    0.56687   0.56563 1167.538
 3576.00    0.57880   0.57272   -1.000
 3577.00    0.58007   0.57803  155.053
 3578.00    0.57655   0.57711  167.339
 3579.00    0.57991   0.56790  176.122
 3580.00    0.55607   0.55497  177.149
 3581.00    0.53823   0.54477  178.043
 3582.00    0.53536   0.54094  182.666
 3583.00    0.53679   0.53995  188.571
 3584.00    0.54025   0.53319  190.586
 3585.00    0.51761   0.51950  180.769
 3586.00    0.50995   0.50791  171.161
 3587.00    0.51605   0.50772  162.517
 3588.00    0.52410   0.52090  155.345
 3589.00    0.55130   0.54212   -1.000
 3590.00    0.56959   0.56317   -1.000
 3591.00    0.58692   0.57785   -1.000
 3592.00    0.58570   0.58507 1167.538
 3593.00    0.60284   0.58877   -1.000
 3594.00    0.59484   0.59449 1167.538
 3595.00    0.59207   0.60403   -1.000
 3596.00    0.60290   0.61419   -1.000
 3597.00    0.61413   0.62198   -1.000
 3598.00    0.61545   0.62670   -1.000
 3599.00    0.61437   0.62748   -1.000
 3600.00    0.62330   0.62148 1167.538
 3601.00    0.61041   0.60824 1167.538
 3602.00    0.58792   0.59334   -1.000
 3603.00    0.59145   0.58381   -1.000
 3604.00    0.58967   0.58273   -1.000
 3605.00    0.58169   0.58568   -1.000
 3606.00    0.58783   0.58603 1167.538
 3607.00    0.58761   0.58175   -1.000
 3608.00    0.57535   0.57547 1167.538
 3609.00    0.57435   0.57190   -1.000
 3610.00    0.57448   0.57312 1167.538
 3611.00    0.59659   0.57782   -1.000
 3612.00    0.59494   0.58398   -1.000
 3613.00    0.59069   0.59136 1167.538
 3614.00    0.59179   0.60181   -1.000
 3615.00    0.60572   0.61166   -1.000
 3616.00    0.60390   0.61113   -1.000
 3617.00    0.58551   0.59798  156.436
 3618.00    0.56841   0.58206   -1.000
 3619.00    0.56396   0.57640   -1.000
 3620.00    0.57495   0.58504   -1.000
 3621.00    0.59088   0.60022   -1.000
 3622.00    0.59644   0.61317   -1.000
 3623.00    0.61647   0.62222   -1.000
 3624.00    0.61740   0.63250   -1.000
 3625.00    0.62856   0.64797   -1.000
 3626.00    0.64114   0.66497   -1.000
 3627.00    0.64785   0.67353   -1.000
 3628.00    0.64955   0.66428   -1.000
 3629.00    0.61962   0.63798   -1.000
 3630.00    0.59069   0.60689   -1.000
 3631.00    0.56854   0.58680   -1.000
 3632.00    0.57594   0.58530   -1.000
 3633.00    0.58342   0.59687   -1.000
 3634.00    0.59000   0.60932   -1.000
 3635.00    0.60016   0.61599   -1.000
 3636.00    0.62206   0.62083 1103.829
 3637.00    0.63533   0.62962   -1.000
 3638.00    0.64113   0.64125 1071.221
 3639.00    0.64541   0.64964   -1.000
 3640.00    0.64302   0.64966   -1.000
 3641.00    0.61102   0.64067   -1.000
 3642.00    0.60529   0.62655   -1.000
 3643.00    0.60726   0.61335   -1.000
 3644.00    0.59761   0.60484   -1.000
 3645.00    0.59776   0.60040 1167.538
 3646.00    0.59728   0.59809 1167.538
 3647.00    0.58596   0.59744   -1.000
 3648.00    0.58527   0.59857   -1.000
 3649.00    0.59575   0.60188   -1.000
 3650.00    0.60033   0.60848   -1.000
 3651.00    0.61229   0.61896   -1.000
 3652.00    0.62977   0.63192 1058.929
 3653.00    0.63264   0.64445   -1.000
 3654.00    0.64403   0.65517   -1.000
 3655.00    0.64922   0.66433   -1.000
 3656.00    0.65139   0.67154   -1.000
 3657.00    0.66299   0.67553   -1.000
 3658.00    0.66089   0.67596   -1.000
 3659.00    0.65182   0.67336   -1.000
 3660.00    0.64728   0.66798   -1.000
 3661.00    0.63815   0.66070   -1.000
 3662.00    0.63753   0.65380   -1.000
 3663.00    0.64231   0.65004   -1.000
 3664.00    0.65162   0.65045 1054.263
 3665.00    0.64473   0.65265   -1.000
 3666.00    0.65022   0.65306 1089.065
 3667.00    0.65115   0.64962 1113.217
 3668.00    0.63060   0.64399   -1.000
 3669.00    0.61260   0.64105   -1.000
 3670.00    0.61999   0.64381   -1.000
 3671.00    0.63345   0.65145   -1.000
 3672.00    0.63883   0.65942   -1.000
 3673.00    0.64180   0.66272   -1.000
 3674.00    0.63925   0.65979   -1.000
 3675.00    0.63981   0.65118   -1.000
 3676.00    0.63129   0.63848   -1.000
 3677.00    0.61813   0.62538   -1.000
 3678.00    0.61061   0.61687   -1.000
 3679.00    0.61241   0.61585   -1.000
 3680.00    0.61603   0.62039   -1.000
 3681.00    0.62176   0.62645   -1.000
 3682.00    0.62360   0.63049   -1.000
 3683.00    0.62157   0.62983   -1.000
 3684.00    0.62950   0.62343   -1.000
 3685.00    0.61900   0.61370   -1.000
 3686.00    0.59212   0.60792   -1.000
 3687.00    0.58846   0.61354   -1.000
 3688.00    0.60137   0.63074   -1.000
 3689.00    0.63640   0.65043   -1.000
 3690.00    0.64931   0.66295   -1.000
 3691.00    0.63722   0.66657   -1.000
 3692.00    0.65836   0.66650   -1.000
 3693.00    0.66325   0.66731   -1.000
 3694.00    0.64819   0.66820   -1.000
 3695.00    0.65870   0.66608   -1.000
 3696.00    0.66031   0.66191 1001.171
 3697.00    0.65889   0.66394   -1.000
 3698.00    0.67654   0.67868  968.011
 3699.00    0.69016   0.70014   -1.000
 3700.00    0.69227   0.71212   -1.000
 3701.00    0.68294   0.70029   -1.000
 3702.00    0.66377   0.66569 1167.538
 3703.00    0.61220   0.62397   -1.000
 3704.00    0.58074   0.59374   -1.000
 3705.00    0.56635   0.58562   -1.000
 3706.00    0.59112   0.59654   -1.000
 3707.00    0.61832   0.61419   -1.000
 3708.00    0.62417   0.62558 1141.967
 3709.00    0.62588   0.62462 1088.231
 3710.00    0.61725   0.61630 1027.243
 3711.00    0.61766   0.61300   -1.000
 3712.00    0.62489   0.62486  959.864
 3713.00    0.65563   0.65278  960.636
 3714.00    0.69094   0.68725   -1.000
 3715.00    0.71444   0.71495 1039.723
 3716.00    0.71883   0.72761   -1.000
 3717.00    0.71320   0.72059   -1.000
 3718.00    0.68290   0.68925   -1.000
 3719.00    0.62138   0.63664  168.908
 3720.00    0.57023   0.58134   -1.000
 3721.00    0.54225   0.54814   -1.000
 3722.00    0.54917   0.55101 1107.213
 3723.00    0.59166   0.58792   -1.000
 3724.00    0.65698   0.64060   -1.000
 3725.00    0.69050   0.68295   -1.000
 3726.00    0.69718   0.70421   -1.000
 3727.00    0.70001   0.71292   -1.000
 3728.00    0.69685   0.71852   -1.000
 3729.00    0.69905   0.71946   -1.000
 3730.00    0.69469   0.70487   -1.000
 3731.00    0.66126   0.66545  149.644
 3732.00    0.61022   0.60676  166.257
 3733.00    0.54140   0.54820  170.356
 3734.00    0.50056   0.51028  160.604
 3735.00    0.50874   0.50656  167.081
 3736.00    0.54073   0.53741   -1.000
 3737.00    0.58603   0.59039   -1.000
 3738.00    0.64578   0.65009   -1.000
 3739.00    0.68837   0.70200   -1.000
 3740.00    0.71119   0.73345   -1.000
 3741.00    0.72316   0.74049   -1.000
 3742.00    0.70904   0.72899   -1.000
 3743.00    0.69499   0.70817   -1.000
 3744.00    0.68081   0.68341  655.989
 3745.00    0.65686   0.65538  150.905
 3746.00    0.62201   0.62206  159.620
 3747.00    0.58638   0.58271  183.861
 3748.00    0.53545   0.54358   -1.000
 3749.00    0.51441   0.51958   -1.000
 3750.00    0.53093   0.52639   -1.000
 3751.00    0.57345   0.56668   -1.000
 3752.00    0.63423   0.62685   -1.000
 3753.00    0.68807   0.68710  989.639
 3754.00    0.72705   0.73171   -1.000
 3755.00    0.75620   0.75248   -1.000
 3756.00    0.75906   0.74737   -1.000
 3757.00    0.71800   0.72418   -1.000
 3758.00    0.68194   0.70000   -1.000
 3759.00    0.67993   0.68906   -1.000
 3760.00    0.70759   0.69344   -1.000
 3761.00    0.73984   0.70643   -1.000
 3762.00    0.74122   0.71952   -1.000
 3763.00    0.74546   0.72627   -1.000
 3764.00    0.74634   0.72335   -1.000
 3765.00    0.72896   0.71036   -1.000
 3766.00    0.70380   0.68794   -1.000
 3767.00    0.66582   0.65633   -1.000
 3768.00    0.63721   0.61895   -1.000
 3769.00    0.60544   0.58515   -1.000
 3770.00    0.58162   0.56954   -1.000
 3771.00    0.59952   0.58318   -1.000
 3772.00    0.64222   0.62106   -1.000
 3773.00    0.68809   0.66495   -1.000
 3774.00    0.71573   0.69981   -1.000
 3775.00    0.72478   0.72397 1014.131
 3776.00    0.74853   0.74485   -1.000
 3777.00    0.77414   0.76906   -1.000
 3778.00    0.79042   0.79601   -1.000
 3779.00    0.80515   0.82107   -1.000
 3780.00    0.83739   0.83990  933.714
 3781.00    0.85999   0.84968   -1.000
 3782.00    0.85567   0.85078   -1.000
 3783.00    0.83653   0.84553   -1.000
 3784.00    0.82630   0.83420   -1.000
 3785.00    0.81744   0.81581 1142.116
 3786.00    0.79859   0.79286   -1.000
 3787.00    0.78147   0.77232   -1.000
 3788.00    0.78002   0.76084   -1.000
 3789.00    0.77187   0.75838   -1.000
 3790.00    0.77366   0.75858   -1.000
 3791.00    0.76715   0.75350   -1.000
 3792.00    0.74734   0.73751   -1.000
 3793.00    0.71491   0.70858   -1.000
 3794.00    0.67208   0.66817   -1.000
 3795.00    0.63361   0.62115   -1.000
 3796.00    0.59045   0.57442   -1.000
 3797.00    0.55148   0.53983   -1.000
 3798.00    0.54826   0.53433   -1.000
 3799.00    0.58150   0.56707   -1.000
 3800.00    0.64170   0.62780   -1.000
 3801.00    0.69543   0.69383 1043.515
 3802.00    0.74849   0.74653 1041.714
 3803.00    0.77123   0.77955   -1.000
 3804.00    0.78875   0.79489   -1.000
 3805.00    0.79924   0.79774 1112.094
 3806.00    0.79904   0.79832 1079.329
 3807.00    0.80478   0.80700 1042.276
 3808.00    0.81644   0.82573   -1.000
 3809.00    0.84373   0.84681 1064.121
 3810.00    0.84686   0.85774   -1.000
 3811.00    0.83338   0.84898   -1.000
 3812.00    0.82599   0.82224   -1.000
 3813.00    0.81259   0.79090   -1.000
 3814.00    0.79001   0.77091   -1.000
 3815.00    0.78296   0.77050   -1.000
 3816.00    0.79335   0.78423   -1.000
 3817.00    0.82061   0.79712   -1.000
 3818.00    0.82366   0.79601   -1.000
 3819.00    0.79706   0.78099   -1.000
 3820.00    0.76556   0.76573 1167.538
 3821.00    0.76953   0.76182   -1.000
 3822.00    0.79115   0.76414   -1.000
 3823.00    0.77869   0.75696   -1.000
 3824.00    0.74826   0.73583  157.706
 3825.00    0.72110   0.71224  156.029
 3826.00    0.70555   0.69637  153.470
 3827.00    0.70084   0.68776  151.777
 3828.00    0.70119   0.68069   -1.000
 3829.00    0.69710   0.66998   -1.000
 3830.00    0.67607   0.65071   -1.000
 3831.00    0.64046   0.61869   -1.000
 3832.00    0.59466   0.57410   -1.000
 3833.00    0.55314   0.52634   -1.000
 3834.00    0.52707   0.49133   -1.000
 3835.00    0.51524   0.47992   -1.000
 3836.00    0.53180   0.49290   -1.000
 3837.00    0.56564   0.52335   -1.000
 3838.00    0.59603   0.56138   -1.000
 3839.00    0.63383   0.60109   -1.000
 3840.00    0.66683   0.64256   -1.000
 3841.00    0.70400   0.68584   -1.000
 3842.00    0.74433   0.72792   -1.000
 3843.00    0.77116   0.76376   -1.000
 3844.00    0.79056   0.78989 1167.538
 3845.00    0.81077   0.80798   -1.000
 3846.00    0.82639   0.82155   -1.000
 3847.00    0.82990   0.83028 1167.538
 3848.00    0.82608   0.83186   -1.000
 3849.00    0.81738   0.82931   -1.000
 3850.00    0.81440   0.83106   -1.000
 3851.00    0.82647   0.84188   -1.000
 3852.00    0.84263   0.85621   -1.000
 3853.00    0.84803   0.86381   -1.000
 3854.00    0.84947   0.86029   -1.000
 3855.00    0.84854   0.84887  511.898
 3856.00    0.83311   0.83524  148.282
 3857.00    0.81969   0.82273  155.081
 3858.00    0.80228   0.81346  185.572
 3859.00    0.78993   0.81240   -1.000
 3860.00    0.80221   0.82335   -1.000
 3861.00    0.83122   0.84226   -1.000
 3862.00    0.86076   0.85909 1167.538
 3863.00    0.87583   0.86683   -1.000
 3864.00    0.87774   0.86650   -1.000
 3865.00    0.86873   0.86381   -1.000
 3866.00    0.85816   0.86404   -1.000
 3867.00    0.85172   0.86790   -1.000
 3868.00    0.85315   0.86984   -1.000
 3869.00    0.84243   0.86244   -1.000
 3870.00    0.82170   0.84371   -1.000
 3871.00    0.79619   0.81967   -1.000
 3872.00    0.77632   0.80168   -1.000
 3873.00    0.78473   0.79907   -1.000
 3874.00    0.80918   0.80921 1167.538
 3875.00    0.83068   0.81744   -1.000
 3876.00    0.82732   0.81086   -1.000
 3877.00    0.79517   0.79216   -1.000
 3878.00    0.76479   0.77572   -1.000
 3879.00    0.75285   0.77061   -1.000
 3880.00    0.75546   0.77153   -1.000
 3881.00    0.74963   0.76759   -1.000
 3882.00    0.74108   0.75502   -1.000
 3883.00    0.73088   0.73518   -1.000
 3884.00    0.72667   0.70595   -1.000
 3885.00    0.70253   0.66344   -1.000
 3886.00    0.64909   0.61091   -1.000
 3887.00    0.59825   0.56202   -1.000
 3888.00    0.56601   0.53427   -1.000
 3889.00    0.56921   0.53963   -1.000
 3890.00    0.61101   0.57755   -1.000
 3891.00    0.66642   0.63215   -1.000
 3892.00    0.71787   0.68138   -1.000
 3893.00    0.73651   0.71380   -1.000
 3894.00    0.74063   0.73312   -1.000
 3895.00    0.76512   0.74878   -1.000
 3896.00    0.78793   0.76541   -1.000
 3897.00    0.79854   0.78007   -1.000
 3898.00    0.80408   0.78897   -1.000
 3899.00    0.81020   0.79490   -1.000
 3900.00    0.82458   0.80400   -1.000
 3901.00    0.84222   0.81559   -1.000
 3902.00    0.84900   0.82314   -1.000
 3903.00    0.83856   0.82286   -1.000
 3904.00    0.83496   0.81823   -1.000
 3905.00    0.82924   0.81728   -1.000
 3906.00    0.82424   0.82734  931.144
 3907.00    0.84922   0.85047  913.083
 3908.00    0.87752   0.87943  905.003
 3909.00    0.89508   0.90288   -1.000
 3910.00    0.91235   0.91477  895.655
 3911.00    0.91644   0.91522  908.543
 3912.00    0.90919   0.90665  928.270
 3913.00    0.90302   0.89357   -1.000
 3914.00    0.88491   0.88277  959.790
 3915.00    0.88035   0.87821  976.300
 3916.00    0.89501   0.87715   -1.000
 3917.00    0.88807   0.87432   -1.000
 3918.00    0.86860   0.86749 1098.691
 3919.00    0.85700   0.85898 1112.638
 3920.00    0.84876   0.85297   -1.000
 3921.00    0.85159   0.85162 1085.740
 3922.00    0.85283   0.85387 1105.875
 3923.00    0.85053   0.85576   -1.000
 3924.00    0.84757   0.85160   -1.000
 3925.00    0.83544   0.83588  497.933
 3926.00    0.81441   0.80653  169.818
 3927.00    0.77337   0.76522  199.066
 3928.00    0.71194   0.71422  233.482
 3929.00    0.65623   0.65381  275.730
 3930.00    0.58576   0.58144  317.558
 3931.00    0.50293   0.49893  335.684
 3932.00    0.43389   0.42197   -1.000
 3933.00    0.39007   0.37801   -1.000
 3934.00    0.40407   0.38808   -1.000
 3935.00    0.47468   0.44772   -1.000
 3936.00    0.56364   0.53226   -1.000
 3937.00    0.64317   0.61850   -1.000
 3938.00    0.70525   0.69297   -1.000
 3939.00    0.75133   0.74971   -1.000
 3940.00    0.78708   0.78749 1167.538
 3941.00    0.81038   0.80817   -1.000
 3942.00    0.81587   0.81730 1161.189
 3943.00    0.81044   0.82279   -1.000
 3944.00    0.81249   0.83062   -1.000
 3945.00    0.83679   0.84208   -1.000
 3946.00    0.86156   0.85299   -1.000
 3947.00    0.87342   0.85830   -1.000
 3948.00    0.87216   0.85785   -1.000
 3949.00    0.87897   0.85516   -1.000
 3950.00    0.88466   0.85282   -1.000
 3951.00    0.88013   0.85201   -1.000
 3952.00    0.86593   0.85455   -1.000
 3953.00    0.87440   0.85956   -1.000
 3954.00    0.87961   0.86114   -1.000
 3955.00    0.87637   0.85481   -1.000
 3956.00    0.85747   0.84373   -1.000
 3957.00    0.84924   0.83514   -1.000
 3958.00    0.84916   0.82953   -1.000
 3959.00    0.84099   0.81792   -1.000
 3960.00    0.81253   0.79297   -1.000
 3961.00    0.77133   0.75672   -1.000
 3962.00    0.72486   0.71618  160.325
 3963.00    0.68517   0.67320  190.533
 3964.00    0.63650   0.62010   -1.000
 3965.00    0.56725   0.54865   -1.000
 3966.00    0.46778   0.46111  295.378
 3967.00    0.37395   0.37582  264.249
 3968.00    0.31596   0.32022  217.306
 3969.00    0.31651   0.31389  179.486
 3970.00    0.36636   0.35684  206.772
 3971.00    0.45405   0.43219   -1.000
 3972.00    0.54720   0.51695   -1.000
 3973.00    0.62122   0.59514   -1.000
 3974.00    0.67687   0.66133   -1.000
 3975.00    0.73948   0.71570   -1.000
 3976.00    0.78550   0.75982   -1.000
 3977.00    0.81369   0.79601   -1.000
 3978.00    0.84008   0.82604   -1.000
 3979.00    0.86216   0.84785   -1.000
 3980.00    0.87940   0.85856   -1.000
 3981.00    0.87974   0.86083   -1.000
 3982.00    0.88173   0.86291   -1.000
 3983.00    0.88679   0.87164   -1.000
 3984.00    0.91429   0.88614   -1.000
 3985.00    0.92316   0.90034   -1.000
 3986.00    0.92904   0.91079   -1.000
 3987.00    0.94361   0.91955   -1.000
 3988.00    0.94935   0.92800   -1.000
 3989.00    0.95157   0.93536   -1.000
 3990.00    0.95088   0.94284   -1.000
 3991.00    0.96609   0.95206   -1.000
 3992.00    0.97698   0.96145   -1.000
 3993.00    0.98725   0.96600   -1.000
 3994.00    0.97655   0.96137   -1.000
 3995.00    0.95394   0.94826   -1.000
 3996.00    0.94134   0.93392   -1.000
 3997.00    0.93710   0.92785   -1.000
 3998.00    0.94337   0.93393   -1.000
 3999.00    0.96439   0.94803   -1.000
 4000.00    0.98732   0.96225   -1.000
 4001.00    0.99511   0.97005   -1.000
 4002.00    0.99144   0.96854   -1.000
 4003.00    0.99611   0.95832   -1.000
 4004.00    0.97562   0.94343   -1.000
 4005.00    0.94922   0.93391   -1.000
 4006.00    0.94480   0.93897   -1.000
 4007.00    0.96501   0.95661   -1.000
 4008.00    0.98357   0.97603   -1.000
 4009.00    0.99474   0.98840   -1.000
 4010.00    0.99681   0.99239   -1.000
 4011.00    0.99443   0.99115  715.126
 4012.00    0.98862   0.98895  708.082
 4013.00    0.99622   0.98948   -1.000
 4014.00    1.00205   0.99344   -1.000
 4015.00    1.00938   0.99892   -1.000
 4016.00    1.01050   1.00423   -1.000
 4017.00    1.00408   1.00966   -1.000
 4018.00    1.00461   1.01585   -1.000
 4019.00    1.01541   1.02107   -1.000
 4020.00    1.02415   1.02180  719.243
 4021.00    1.01035   1.01639   -1.000
 4022.00    1.00019   1.00672   -1.000
 4023.00    0.99499   0.99670  701.605
 4024.00    0.98251   0.99176   -1.000
 4025.00    0.98792   0.99643   -1.000
 4026.00    1.00709   1.00812  685.324
 4027.00    1.01443   1.01590  719.887
 4028.00    1.01084   1.01079  764.289
 4029.00    0.99442   0.99375  789.000
 4030.00    0.96751   0.97310   -1.000
 4031.00    0.95210   0.95844   -1.000
 4032.00    0.94905   0.95486   -1.000
 4033.00    0.94815   0.96183   -1.000
 4034.00    0.96205   0.97705   -1.000
 4035.00    0.98948   0.99815   -1.000
 4036.00    1.01448   1.02141   -1.000
 4037.00    1.02819   1.03975   -1.000
 4038.00    1.03560   1.04655   -1.000
 4039.00    1.02397   1.04258   -1.000
 4040.00    1.01297   1.03448   -1.000
 4041.00    1.01228   1.02633   -1.000
 4042.00    1.01252   1.01458  827.247
 4043.00    0.99841   0.99316   -1.000
 4044.00    0.96104   0.96628   -1.000
 4045.00    0.92880   0.94926   -1.000
 4046.00    0.93165   0.95454   -1.000
 4047.00    0.96631   0.97879   -1.000
 4048.00    0.99629   1.00593   -1.000
 4049.00    1.00860   1.02309   -1.000
 4050.00    1.01059   1.02837   -1.000
 4051.00    1.00857   1.02465   -1.000
 4052.00    1.00697   1.01500   -1.000
 4053.00    1.00245   1.00438  738.933
 4054.00    0.98758   0.99754   -1.000
 4055.00    0.98914   0.99508   -1.000
 4056.00    0.99722   0.99543  731.893
 4057.00    0.99123   0.99910   -1.000
 4058.00    0.99159   1.00757   -1.000
 4059.00    1.00000   1.01619   -1.000
 4060.00    1.00646   1.01484   -1.000
 4061.00    1.00033   0.99963  814.883
 4062.00    0.97099   0.97681   -1.000
 4063.00    0.94643   0.95696   -1.000
 4064.00    0.94802   0.94794  739.404
 4065.00    0.96133   0.95057   -1.000
 4066.00    0.97160   0.95951   -1.000
 4067.00    0.97464   0.96889   -1.000
 4068.00    0.98830   0.97447   -1.000
 4069.00    1.00019   0.97191   -1.000
 4070.00    0.98684   0.96040   -1.000
 4071.00    0.96561   0.94764   -1.000
 4072.00    0.96567   0.94351   -1.000
 4073.00    0.97683   0.94742   -1.000
 4074.00    0.97953   0.94756   -1.000
 4075.00    0.96293   0.93456   -1.000
 4076.00    0.94105   0.91311   -1.000
 4077.00    0.92481   0.89858   -1.000
 4078.00    0.92667   0.90363   -1.000
 4079.00    0.95300   0.92668   -1.000
 4080.00    0.97815   0.95272   -1.000
 4081.00    0.98257   0.96719   -1.000
 4082.00    0.98132   0.96645   -1.000
 4083.00    0.97804   0.95670   -1.000
 4084.00    0.96358   0.94743   -1.000
 4085.00    0.95916   0.94569   -1.000
 4086.00    0.97004   0.95283   -1.000
 4087.00    0.98270   0.96422   -1.000
 4088.00    0.98495   0.97260   -1.000
 4089.00    0.98317   0.97311   -1.000
 4090.00    0.97229   0.96659   -1.000
 4091.00    0.95776   0.95695  689.002
 4092.00    0.95079   0.94509   -1.000
 4093.00    0.94343   0.92970   -1.000
 4094.00    0.93146   0.90978   -1.000
 4095.00    0.90153   0.88530   -1.000
 4096.00    0.86479   0.85675   -1.000
 4097.00    0.84708   0.82252   -1.000
 4098.00    0.82862   0.77881   -1.000
 4099.00    0.77970   0.72356   -1.000
 4100.00    0.70450   0.66633   -1.000
 4101.00    0.64272   0.62965   -1.000
 4102.00    0.64422   0.63419   -1.000
 4103.00    0.69997   0.68008   -1.000
 4104.00    0.77206   0.74563   -1.000
 4105.00    0.83424   0.80471   -1.000
 4106.00    0.86826   0.84475   -1.000
 4107.00    0.88247   0.86751   -1.000
 4108.00    0.89601   0.87990   -1.000
 4109.00    0.90568   0.88870   -1.000
 4110.00    0.91319   0.89874   -1.000
 4111.00    0.92468   0.91235   -1.000
 4112.00    0.93919   0.92910   -1.000
 4113.00    0.95234   0.94707   -1.000
 4114.00    0.95938   0.96338  703.734
 4115.00    0.96555   0.97377   -1.000
 4116.00    0.96709   0.97495   -1.000
 4117.00    0.96402   0.96812   -1.000
 4118.00    0.95789   0.95888  733.845
 4119.00    0.94969   0.95340  729.323
 4120.00    0.95618   0.95373  727.112
 4121.00    0.96246   0.95715   -1.000
 4122.00    0.96368   0.96150  708.058
 4123.00    0.97274   0.96784   -1.000
 4124.00    0.97939   0.97572  722.292
 4125.00    0.98646   0.98054   -1.000
 4126.00    0.98628   0.97858   -1.000
 4127.00    0.97141   0.97186  745.294
 4128.00    0.96611   0.96576  760.040
 4129.00    0.97001   0.96197   -1.000
 4130.00    0.96775   0.95711   -1.000
 4131.00    0.95217   0.94997  791.720
 4132.00    0.94164   0.94608   -1.000
 4133.00    0.94735   0.95217   -1.000
 4134.00    0.95362   0.96814   -1.000
 4135.00    0.96516   0.98803   -1.000
 4136.00    0.98406   1.00629   -1.000
 4137.00    1.00742   1.02089   -1.000
 4138.00    1.01806   1.03145   -1.000
 4139.00    1.01097   1.03505   -1.000
 4140.00    1.00414   1.02706   -1.000
 4141.00    0.98936   1.00748   -1.000
 4142.00    0.96120   0.98377   -1.000
 4143.00    0.93770   0.96841   -1.000
 4144.00    0.94498   0.97011   -1.000
 4145.00    0.96934   0.98501   -1.000
 4146.00    0.98170   1.00035   -1.000
 4147.00    0.98963   1.00707   -1.000
 4148.00    0.98861   1.00628   -1.000
 4149.00    1.00879   1.00432  764.077
 4150.00    1.09145   1.00449   -1.000
 4151.00    1.07043   1.00445   -1.000
 4152.00    0.90678   1.00060   -1.000
 4153.00    0.88167   0.99330   -1.000
 4154.00    0.97341   0.98692   -1.000
 4155.00    0.98441   0.98605  752.194
 4156.00    0.96500   0.99179   -1.000
 4157.00    0.97511   1.00190   -1.000
 4158.00    0.98534   1.01232   -1.000
 4159.00    0.99455   1.01917   -1.000
 4160.00    0.99746   1.02158   -1.000
 4161.00    1.00185   1.02221   -1.000
 4162.00    1.00360   1.02432   -1.000
 4163.00    1.00184   1.02860   -1.000
 4164.00    1.00137   1.03277   -1.000
 4165.00    1.00166   1.03338   -1.000
 4166.00    0.99748   1.02962   -1.000
 4167.00    0.99706   1.02457   -1.000
 4168.00    0.99906   1.01969   -1.000
 4169.00    0.99531   1.01074   -1.000
 4170.00    0.98265   0.99220   -1.000
 4171.00    0.96323   0.96623  830.917
 4172.00    0.93466   0.94475   -1.000
 4173.00    0.92123   0.93939   -1.000
 4174.00    0.93410   0.95067   -1.000
 4175.00    0.95212   0.96678   -1.000
 4176.00    0.95852   0.97543   -1.000
 4177.00    0.96179   0.97614   -1.000
 4178.00    0.96664   0.97742   -1.000
 4179.00    0.96891   0.98442   -1.000
 4180.00    0.97391   0.99271   -1.000
 4181.00    0.97166   0.99610   -1.000
 4182.00    0.96872   0.99633   -1.000
 4183.00    0.96807   0.99821   -1.000
 4184.00    0.96967   1.00089   -1.000
 4185.00    0.97144   0.99985   -1.000
 4186.00    0.96441   0.99399   -1.000
 4187.00    0.95698   0.98853   -1.000
 4188.00    0.95701   0.98884   -1.000
 4189.00    0.96143   0.99363   -1.000
 4190.00    0.96759   0.99863   -1.000
 4191.00    0.97367   1.00316   -1.000
 4192.00    0.98487   1.00814   -1.000
 4193.00    0.99768   1.01117   -1.000
 4194.00    0.99403   1.00704   -1.000
 4195.00    0.97645   0.99376   -1.000
 4196.00    0.96507   0.97552   -1.000
 4197.00    0.95211   0.95863   -1.000
 4198.00    0.94095   0.94771   -1.000
 4199.00    0.93962   0.94458   -1.000
 4200.00    0.94536   0.94696  777.743
 4201.00    0.95001   0.95064  768.063
 4202.00    0.94341   0.95494   -1.000
 4203.00    0.94484   0.96198   -1.000
 4204.00    0.95816   0.97164   -1.000
 4205.00    0.95951   0.98222   -1.000
 4206.00    0.96095   0.99253   -1.000
 4207.00    0.96641   1.00044   -1.000
 4208.00    0.97360   1.00412   -1.000
 4209.00    0.97479   1.00526   -1.000
 4210.00    0.97395   1.00745   -1.000
 4211.00    0.97747   1.01133   -1.000
 4212.00    0.98387   1.01228   -1.000
 4213.00    0.98436   1.00452   -1.000
 4214.00    0.96839   0.98931   -1.000
 4215.00    0.94285   0.97588   -1.000
 4216.00    0.93651   0.97390   -1.000
 4217.00    0.95069   0.98486   -1.000
 4218.00    0.96542   1.00098   -1.000
 4219.00    0.97339   1.01362   -1.000
 4220.00    0.97567   1.01890   -1.000
 4221.00    0.97814   1.01485   -1.000
 4222.00    0.96991   0.99887   -1.000
 4223.00    0.95216   0.96995   -1.000
 4224.00    0.92593   0.93311   -1.000
 4225.00    0.88731   0.90055   -1.000
 4226.00    0.86224   0.88752   -1.000
 4227.00    0.87169   0.90378   -1.000
 4228.00    0.90977   0.94283   -1.000
 4229.00    0.95870   0.98296   -1.000
 4230.00    0.98428   1.00436   -1.000
 4231.00    0.97842   1.00334   -1.000
 4232.00    0.96423   0.98955   -1.000
 4233.00    0.94741   0.97505   -1.000
 4234.00    0.94207   0.96713   -1.000
 4235.00    0.94403   0.96599   -1.000
 4236.00    0.93685   0.96851   -1.000
 4237.00    0.93266   0.97370   -1.000
 4238.00    0.94462   0.98179   -1.000
 4239.00    0.95769   0.99174   -1.000
 4240.00    0.96810   1.00166   -1.000
 4241.00    0.97133   1.00963   -1.000
 4242.00    0.96713   1.01469   -1.000
 4243.00    0.96270   1.01615   -1.000
 4244.00    0.97331   1.01220   -1.000
 4245.00    0.97440   1.00099   -1.000
 4246.00    0.94802   0.98472   -1.000
 4247.00    0.92677   0.97021   -1.000
 4248.00    0.92696   0.96270   -1.000
 4249.00    0.93136   0.96212   -1.000
 4250.00    0.93155   0.96687   -1.000
 4251.00    0.93392   0.97521   -1.000
 4252.00    0.94544   0.98272   -1.000
 4253.00    0.95205   0.98575   -1.000
 4254.00    0.94933   0.98670   -1.000
 4255.00    0.95037   0.98987   -1.000
 4256.00    0.96263   0.99355   -1.000
 4257.00    0.96952   0.99101   -1.000
 4258.00    0.95579   0.97991   -1.000
 4259.00    0.93488   0.96756   -1.000
 4260.00    0.93131   0.96443   -1.000
 4261.00    0.93189   0.97522   -1.000
 4262.00    0.95189   0.99535   -1.000
 4263.00    0.97790   1.01475   -1.000
 4264.00    0.98556   1.02541   -1.000
 4265.00    0.98281   1.02626   -1.000
 4266.00    0.97646   1.02041   -1.000
 4267.00    0.97150   1.00969   -1.000
 4268.00    0.96120   0.99365   -1.000
 4269.00    0.95216   0.97226   -1.000
 4270.00    0.93039   0.94874   -1.000
 4271.00    0.90001   0.93029   -1.000
 4272.00    0.89192   0.92369   -1.000
 4273.00    0.90532   0.92972   -1.000
 4274.00    0.92015   0.94458   -1.000
 4275.00    0.93209   0.96483   -1.000
 4276.00    0.94991   0.98666   -1.000
 4277.00    0.97012   1.00317   -1.000
 4278.00    0.97280   1.00835   -1.000
 4279.00    0.95462   1.00262   -1.000
 4280.00    0.94203   0.99212   -1.000
 4281.00    0.93694   0.98352   -1.000
 4282.00    0.93236   0.97930   -1.000
 4283.00    0.93517   0.97776   -1.000
 4284.00    0.94087   0.97556   -1.000
 4285.00    0.93504   0.96894   -1.000
 4286.00    0.92287   0.95552   -1.000
 4287.00    0.91066   0.93613   -1.000
 4288.00    0.89341   0.91485   -1.000
 4289.00    0.87629   0.89967   -1.000
 4290.00    0.86508   0.89885   -1.000
 4291.00    0.87962   0.91154   -1.000
 4292.00    0.90481   0.92604   -1.000
 4293.00    0.91272   0.93142   -1.000
 4294.00    0.91337   0.92795   -1.000
 4295.00    0.91114   0.92131   -1.000
 4296.00    0.90636   0.91140   -1.000
 4297.00    0.88871   0.89384   -1.000
 4298.00    0.85453   0.86852   -1.000
 4299.00    0.82472   0.84244   -1.000
 4300.00    0.81999   0.82493   -1.000
 4301.00    0.82611   0.82039   -1.000
 4302.00    0.82550   0.82691  912.376
 4303.00    0.82811   0.83972   -1.000
 4304.00    0.83378   0.85167   -1.000
 4305.00    0.83712   0.85474   -1.000
 4306.00    0.83155   0.84731   -1.000
 4307.00    0.81725   0.83677   -1.000
 4308.00    0.80836   0.83339   -1.000
 4309.00    0.81497   0.84179   -1.000
 4310.00    0.82719   0.85719   -1.000
 4311.00    0.83878   0.87059   -1.000
 4312.00    0.84882   0.87872   -1.000
 4313.00    0.86138   0.88804   -1.000
 4314.00    0.88535   0.90773   -1.000
 4315.00    0.91706   0.93946   -1.000
 4316.00    0.94669   0.97374   -1.000
 4317.00    0.97001   0.99747   -1.000
 4318.00    0.97802   1.00475   -1.000
 4319.00    0.97416   0.99883   -1.000
 4320.00    0.96509   0.98613   -1.000
 4321.00    0.95222   0.97012   -1.000
 4322.00    0.93510   0.94975   -1.000
 4323.00    0.91375   0.92432   -1.000
 4324.00    0.88349   0.90032   -1.000
 4325.00    0.86229   0.89099   -1.000
 4326.00    0.87326   0.90362   -1.000
 4327.00    0.90350   0.92909   -1.000
 4328.00    0.92960   0.94999   -1.000
 4329.00    0.94175   0.95717   -1.000
 4330.00    0.94225   0.95463   -1.000
 4331.00    0.93272   0.95039   -1.000
 4332.00    0.92012   0.94631   -1.000
 4333.00    0.91239   0.93804   -1.000
 4334.00    0.90526   0.91980   -1.000
 4335.00    0.88939   0.88644  782.139
 4336.00    0.85285   0.83502   -1.000
 4337.00    0.79853   0.76961   -1.000
 4338.00    0.73708   0.70398   -1.000
 4339.00    0.67485   0.65658   -1.000
 4340.00    0.63453   0.64352   -1.000
 4341.00    0.65382   0.67092   -1.000
 4342.00    0.72090   0.72735   -1.000
 4343.00    0.78397   0.78961   -1.000
 4344.00    0.82919   0.84123   -1.000
 4345.00    0.86536   0.88032   -1.000
 4346.00    0.89112   0.91083   -1.000
 4347.00    0.90384   0.93296   -1.000
 4348.00    0.91551   0.94257   -1.000
 4349.00    0.92615   0.93672   -1.000
 4350.00    0.91954   0.92043  722.018
 4351.00    0.89876   0.90705   -1.000
 4352.00    0.88790   0.90869   -1.000
 4353.00    0.90648   0.92661   -1.000
 4354.00    0.93569   0.95165   -1.000
 4355.00    0.95188   0.97272   -1.000
 4356.00    0.96104   0.98429   -1.000
 4357.00    0.96110   0.98727   -1.000
 4358.00    0.95455   0.98663   -1.000
 4359.00    0.95532   0.98842   -1.000
 4360.00    0.96339   0.99563   -1.000
 4361.00    0.97626   1.00627   -1.000
 4362.00    0.98636   1.01631   -1.000
 4363.00    0.98705   1.02301   -1.000
 4364.00    0.98786   1.02446   -1.000
 4365.00    0.98858   1.01907   -1.000
 4366.00    0.97831   1.00755   -1.000
 4367.00    0.96618   0.99439   -1.000
 4368.00    0.96292   0.98484   -1.000
 4369.00    0.96732   0.98052   -1.000
 4370.00    0.97215   0.97862   -1.000
 4371.00    0.97464   0.97404  700.748
 4372.00    0.97093   0.96285   -1.000
 4373.00    0.95638   0.94665   -1.000
 4374.00    0.93660   0.93441  664.241
 4375.00    0.92601   0.93655   -1.000
 4376.00    0.93859   0.95417   -1.000
 4377.00    0.95842   0.97687   -1.000
 4378.00    0.97427   0.99224   -1.000
 4379.00    0.97944   0.99408   -1.000
 4380.00    0.97788   0.98098  807.523
 4381.00    0.97055   0.95336   -1.000
 4382.00    0.93593   0.91728   -1.000
 4383.00    0.89337   0.88765   -1.000
 4384.00    0.88264   0.87950  689.192
 4385.00    0.90500   0.89468   -1.000
 4386.00    0.93256   0.92068   -1.000
 4387.00    0.95532   0.94280   -1.000
 4388.00    0.96356   0.95487   -1.000
 4389.00    0.95823   0.95904  668.636
 4390.00    0.95609   0.96035  664.087
 4391.00    0.96355   0.96169  674.827
 4392.00    0.97049   0.96064   -1.000
 4393.00    0.96601   0.95422   -1.000
 4394.00    0.95445   0.94699   -1.000
 4395.00    0.94981   0.94793  633.184
 4396.00    0.95635   0.95757  650.893
 4397.00    0.97286   0.96564   -1.000
 4398.00    0.98176   0.96398   -1.000
 4399.00    0.96690   0.95621   -1.000
 4400.00    0.95691   0.95204   -1.000
 4401.00    0.96181   0.95478   -1.000
 4402.00    0.96741   0.95808   -1.000
 4403.00    0.96512   0.95593   -1.000
 4404.00    0.94900   0.95086  699.651
 4405.00    0.94242   0.94919   -1.000
 4406.00    0.95476   0.95246  674.583
 4407.00    0.95895   0.95772  646.297
 4408.00    0.95885   0.96436   -1.000
 4409.00    0.97013   0.97504  608.469
 4410.00    0.98789   0.98885  614.711
 4411.00    1.00355   0.99883   -1.000
 4412.00    1.00900   0.99778   -1.000
 4413.00    1.00027   0.98366   -1.000
 4414.00    0.97527   0.96168   -1.000
 4415.00    0.95284   0.94294   -1.000
 4416.00    0.94821   0.93783   -1.000
 4417.00    0.95358   0.94909  611.150
 4418.00    0.97181   0.97071  622.449
 4419.00    0.99428   0.99156  636.488
 4420.00    1.00479   1.00228  639.306
 4421.00    1.00310   1.00225  635.480
 4422.00    0.99265   0.99852   -1.000
 4423.00    0.98700   0.99673   -1.000
 4424.00    0.99432   0.99625  637.228
 4425.00    0.99118   0.99483  633.603
 4426.00    0.97837   0.99332   -1.000
 4427.00    0.97860   0.99394   -1.000
 4428.00    0.98733   0.99664   -1.000
 4429.00    0.98969   0.99945   -1.000
 4430.00    0.99233   1.00088   -1.000
 4431.00    0.99165   1.00004   -1.000
 4432.00    0.99027   0.99550   -1.000
 4433.00    0.98246   0.98673   -1.000
 4434.00    0.96170   0.97806   -1.000
 4435.00    0.95361   0.97793   -1.000
 4436.00    0.97211   0.99076   -1.000
 4437.00    0.99643   1.01074   -1.000
 4438.00    1.01032   1.02564   -1.000
 4439.00    1.01289   1.02587   -1.000
 4440.00    1.00538   1.01015   -1.000
 4441.00    0.99118   0.98595   -1.000
 4442.00    0.96761   0.96588  628.875
 4443.00    0.95016   0.96110   -1.000
 4444.00    0.95511   0.97385   -1.000
 4445.00    0.97512   0.99512   -1.000
 4446.00    0.99198   1.01244   -1.000
 4447.00    0.99583   1.01997   -1.000
 4448.00    0.99637   1.01990   -1.000
 4449.00    0.99625   1.01679   -1.000
 4450.00    0.99239   1.01393   -1.000
 4451.00    0.99337   1.01153   -1.000
 4452.00    0.99460   1.00602   -1.000
 4453.00    0.98387   0.99444   -1.000
 4454.00    0.96476   0.98057   -1.000
 4455.00    0.95298   0.97280   -1.000
 4456.00    0.95841   0.97458   -1.000
 4457.00    0.96769   0.98088   -1.000
 4458.00    0.97347   0.98500   -1.000
 4459.00    0.97456   0.98515   -1.000
 4460.00    0.97071   0.98406   -1.000
 4461.00    0.96655   0.98538   -1.000
 4462.00    0.96754   0.99040   -1.000
 4463.00    0.97904   0.99690   -1.000
 4464.00    0.99245   1.00122   -1.000
 4465.00    0.99381   1.00072   -1.000
 4466.00    0.99033   0.99435  646.967
 4467.00    0.98278   0.98405  642.909
 4468.00    0.97089   0.97590   -1.000
 4469.00    0.96401   0.97671   -1.000
 4470.00    0.97106   0.98811   -1.000
 4471.00    0.98687   1.00547   -1.000
 4472.00    1.00303   1.02221   -1.000
 4473.00    1.01401   1.03407   -1.000
 4474.00    1.01485   1.04025   -1.000
 4475.00    1.01605   1.04244   -1.000
 4476.00    1.01441   1.04255   -1.000
 4477.00    1.01511   1.03963   -1.000
 4478.00    1.02121   1.02996   -1.000
 4479.00    1.01674   1.01232  636.550
 4480.00    1.00162   0.99314   -1.000
 4481.00    0.98406   0.98352  591.689
 4482.00    0.97380   0.98994   -1.000
 4483.00    0.98157   1.00870   -1.000
 4484.00    1.00432   1.02942   -1.000
 4485.00    1.01677   1.04232   -1.000
 4486.00    1.01719   1.04281   -1.000
 4487.00    1.01603   1.03242   -1.000
 4488.00    1.00540   1.01839   -1.000
 4489.00    0.99096   1.00972   -1.000
 4490.00    0.98921   1.01076   -1.000
 4491.00    1.00018   1.01805   -1.000
 4492.00    1.00667   1.02393   -1.000
 4493.00    1.00178   1.02396   -1.000
 4494.00    0.99318   1.02074   -1.000
 4495.00    0.99086   1.01972   -1.000
 4496.00    0.99629   1.02281   -1.000
 4497.00    1.00399   1.02740   -1.000
 4498.00    1.01215   1.02913   -1.000
 4499.00    1.01678   1.02547   -1.000
 4500.00    1.00449   1.01972   -1.000
 4501.00    0.99320   1.01965   -1.000
 4502.00    1.00158   1.02945   -1.000
 4503.00    1.01990   1.04462   -1.000
 4504.00    1.03343   1.05656   -1.000
 4505.00    1.03363   1.05994   -1.000
 4506.00    1.02653   1.05564   -1.000
 4507.00    1.02480   1.04895   -1.000
 4508.00    1.02476   1.04569   -1.000
 4509.00    1.02557   1.04756   -1.000
 4510.00    1.02893   1.05092   -1.000
 4511.00    1.02924   1.05117   -1.000
 4512.00    1.02756   1.04699   -1.000
 4513.00    1.02680   1.04001   -1.000
 4514.00    1.01992   1.03285   -1.000
 4515.00    1.01181   1.02802   -1.000
 4516.00    1.01181   1.02585   -1.000
 4517.00    1.01122   1.02399   -1.000
 4518.00    1.00536   1.02096   -1.000
 4519.00    1.00375   1.01818   -1.000
 4520.00    1.01351   1.01679  594.476
 4521.00    1.01614   1.01496  602.152
 4522.00    1.00255   1.01102   -1.000
 4523.00    0.99179   1.00651   -1.000
 4524.00    0.99196   1.00322   -1.000
 4525.00    0.99539   0.99949  656.078
 4526.00    0.98843   0.99227  655.752
 4527.00    0.97584   0.98192   -1.000
 4528.00    0.96921   0.97306  634.560
 4529.00    0.96522   0.97053   -1.000
 4530.00    0.96566   0.97385   -1.000
 4531.00    0.97110   0.97643   -1.000
 4532.00    0.97479   0.97209  662.160
 4533.00    0.96797   0.96296   -1.000
 4534.00    0.95276   0.95890   -1.000
 4535.00    0.95007   0.96782   -1.000
 4536.00    0.96614   0.98822   -1.000
 4537.00    1.02841   1.01103   -1.000
 4538.00    0.85905   1.02663   -1.000
 4539.00    0.27821   1.03106   -1.000
 4540.00   -0.04040   1.02764    0.000
 4541.00    0.17558   1.02302   -1.000
 4542.00    0.58067   1.02098   -1.000
 4543.00    0.44555   1.02032   -1.000
 4544.00    0.70232   1.01851   -1.000
 4545.00    1.00582   1.01528   -1.000
 4546.00    0.99734   1.01024   -1.000
 4547.00    0.99653   1.00061  414.038
 4548.00    0.97972   0.98618   -1.000
 4549.00    0.96260   0.97441   -1.000
 4550.00    0.96163   0.97371   -1.000
 4551.00    0.97677   0.98195  622.205
 4552.00    0.98714   0.98770  618.165
 4553.00    0.98351   0.98447  599.883
 4554.00    0.97561   0.97804  576.158
 4555.00    0.97329   0.97854  561.304
 4556.00    0.98288   0.98962   -1.000
 4557.00    0.99642   1.00617   -1.000
 4558.00    1.01060   1.02100   -1.000
 4559.00    1.01839   1.03130   -1.000
 4560.00    1.02530   1.03684   -1.000
 4561.00    1.02878   1.03566   -1.000
 4562.00    1.01797   1.02667   -1.000
 4563.00    1.00224   1.01465   -1.000
 4564.00    0.99445   1.00797   -1.000
 4565.00    1.00087   1.01103   -1.000
 4566.00    1.01348   1.02080   -1.000
 4567.00    1.02914   1.03037  571.683
 4568.00    1.02888   1.03392  586.787
 4569.00    1.02129   1.02917   -1.000
 4570.00    1.01274   1.01800  575.854
 4571.00    0.99791   1.00704   -1.000
 4572.00    0.99104   1.00463   -1.000
 4573.00    1.00664   1.01250   -1.000
 4574.00    1.01965   1.02296  566.776
 4575.00    1.02578   1.02810  574.251
 4576.00    1.02764   1.02728  589.048
 4577.00    1.02157   1.02313  603.380
 4578.00    1.01378   1.01616  606.496
 4579.00    1.01028   1.00626  599.981
 4580.00    1.00350   0.99537   -1.000
 4581.00    0.99742   0.98590   -1.000
 4582.00    0.99659   0.97912   -1.000
 4583.00    0.99266   0.97677   -1.000
 4584.00    0.99192   0.98063   -1.000
 4585.00    0.99563   0.98912   -1.000
 4586.00    1.00369   0.99801   -1.000
 4587.00    1.00823   1.00435  566.702
 4588.00    1.00880   1.00751  576.714
 4589.00    1.00879   1.00804  587.129
 4590.00    1.00782   1.00694  591.011
 4591.00    1.00977   1.00534  587.658
 4592.00    1.00508   1.00473  582.784
 4593.00    0.99860   1.00646   -1.000
 4594.00    1.00446   1.01053   -1.000
 4595.00    1.01096   1.01563  577.674
 4596.00    1.01481   1.02019   -1.000
 4597.00    1.02066   1.02262  585.941
 4598.00    1.01738   1.02184  588.808
 4599.00    1.01124   1.01805   -1.000
 4600.00    1.01249   1.01291  578.486
 4601.00    1.01200   1.00882  576.938
 4602.00    1.00724   1.00754  576.775
 4603.00    1.00743   1.00906  572.207
 4604.00    1.01355   1.01217  562.430
 4605.00    1.02259   1.01586   -1.000
 4606.00    1.02833   1.02016   -1.000
 4607.00    1.02465   1.02525  541.900
 4608.00    1.02858   1.03033  547.890
 4609.00    1.03480   1.03359  554.586
 4610.00    1.02782   1.03359  558.997
 4611.00    1.02440   1.03083   -1.000
 4612.00    1.02507   1.02760  553.877
 4613.00    1.02902   1.02563  550.723
 4614.00    1.02732   1.02436  552.543
 4615.00    1.02153   1.02215  556.649
 4616.00    1.01816   1.01844  557.648
 4617.00    1.01648   1.01426  553.763
 4618.00    1.01662   1.01137   -1.000
 4619.00    1.01896   1.01179   -1.000
 4620.00    1.02094   1.01657  544.017
 4621.00    1.02590   1.02404  545.213
 4622.00    1.03067   1.03030  548.960
 4623.00    1.02629   1.03248   -1.000
 4624.00    1.02435   1.03098   -1.000
 4625.00    1.02125   1.02795   -1.000
 4626.00    1.02176   1.02459  556.091
 4627.00    1.02423   1.02070  554.509
 4628.00    1.01896   1.01683  549.141
 4629.00    1.01376   1.01541  548.717
 4630.00    1.01216   1.01815   -1.000
 4631.00    1.02236   1.02274  562.076
 4632.00    1.02648   1.02467  563.634
 4633.00    1.02227   1.02241  566.469
 4634.00    1.02371   1.01875  573.196
 4635.00    1.02378   1.01689   -1.000
 4636.00    1.02119   1.01700  577.338
 4637.00    1.01889   1.01776  570.235
 4638.00    1.01743   1.01925  557.357
 4639.00    1.02268   1.02260  547.766
 4640.00    1.03013   1.02789  547.084
 4641.00    1.03491   1.03339  555.007
 4642.00    1.03392   1.03650  569.215
 4643.00    1.03093   1.03541  585.228
 4644.00    1.02853   1.02988  591.956
 4645.00    1.02127   1.02112  585.126
 4646.00    1.00916   1.01183  572.167
 4647.00    1.00519   1.00626  562.564
 4648.00    1.01226   1.00743  559.639
 4649.00    1.01866   1.01396  558.664
 4650.00    1.02247   1.02139  562.928
 4651.00    1.02173   1.02591  574.246
 4652.00    1.01629   1.02591   -1.000
 4653.00    1.00889   1.02180   -1.000
 4654.00    1.00241   1.01566   -1.000
 4655.00    1.00314   1.01059   -1.000
 4656.00    1.00451   1.01007  530.797
 4657.00    1.00919   1.01648   -1.000
 4658.00    1.02278   1.02869  531.661
 4659.00    1.03447   1.04095   -1.000
 4660.00    1.04300   1.04692  554.622
 4661.00    1.04119   1.04485  558.726
 4662.00    1.03163   1.03764   -1.000
 4663.00    1.03218   1.02870  585.371
 4664.00    1.03118   1.01877   -1.000
 4665.00    1.02714   1.00649   -1.000
 4666.00    1.01310   0.99231   -1.000
 4667.00    0.98842   0.98084   -1.000
 4668.00    0.97988   0.97752  562.366
 4669.00    0.99030   0.98340   -1.000
 4670.00    1.00819   0.99488   -1.000
 4671.00    1.01623   1.00692   -1.000
 4672.00    1.02320   1.01606   -1.000
 4673.00    1.03253   1.02183   -1.000
 4674.00    1.02602   1.02601  541.164
 4675.00    1.02258   1.02947   -1.000
 4676.00    1.03119   1.03041  561.957
 4677.00    1.03485   1.02654   -1.000
 4678.00    1.02768   1.01854   -1.000
 4679.00    1.01735   1.00981   -1.000
 4680.00    1.01173   1.00346   -1.000
 4681.00    1.00601   1.00105  552.549
 4682.00    1.00678   1.00273  551.974
 4683.00    1.02427   1.00710   -1.000
 4684.00    1.03474   1.01171   -1.000
 4685.00    1.02835   1.01467   -1.000
 4686.00    1.02499   1.01579   -1.000
 4687.00    1.02990   1.01597   -1.000
 4688.00    1.03347   1.01579   -1.000
 4689.00    1.02600   1.01500   -1.000
 4690.00    1.02302   1.01343   -1.000
 4691.00    1.02922   1.01215   -1.000
 4692.00    1.03172   1.01274   -1.000
 4693.00    1.02926   1.01520   -1.000
 4694.00    1.03655   1.01792   -1.000
 4695.00    1.04668   1.01921   -1.000
 4696.00    1.04192   1.01737   -1.000
 4697.00    1.03067   1.01149   -1.000
 4698.00    1.02392   1.00324   -1.000
 4699.00    1.02203   0.99555   -1.000
 4700.00    1.02255   0.98938   -1.000
 4701.00    1.01877   0.98391   -1.000
 4702.00    1.00680   0.97955   -1.000
 4703.00    1.00159   0.97864   -1.000
 4704.00    1.00526   0.98202   -1.000
 4705.00    1.00781   0.98619   -1.000
 4706.00    1.00600   0.98646   -1.000
 4707.00    1.00538   0.98244   -1.000
 4708.00    1.00215   0.97878   -1.000
 4709.00    1.00133   0.98021   -1.000
 4710.00    1.00919   0.98686   -1.000
 4711.00    1.02396   0.99452   -1.000
 4712.00    1.03331   0.99864   -1.000
 4713.00    1.03374   0.99815   -1.000
 4714.00    1.02929   0.99634   -1.000
 4715.00    1.01917   0.99763   -1.000
 4716.00    1.01913   1.00304   -1.000
 4717.00    1.02592   1.00965   -1.000
 4718.00    1.03352   1.01439   -1.000
 4719.00    1.03839   1.01658   -1.000
 4720.00    1.03483   1.01695   -1.000
 4721.00    1.03457   1.01648   -1.000
 4722.00    1.03895   1.01650   -1.000
 4723.00    1.03910   1.01792   -1.000
 4724.00    1.03251   1.01965   -1.000
 4725.00    1.02901   1.01896   -1.000
 4726.00    1.03031   1.01408   -1.000
 4727.00    1.02501   1.00594   -1.000
 4728.00    1.02184   0.99742   -1.000
 4729.00    1.02189   0.99096   -1.000
 4730.00    1.02235   0.98738   -1.000
 4731.00    1.01698   0.98726   -1.000
 4732.00    1.01418   0.99080   -1.000
 4733.00    1.01663   0.99576   -1.000
 4734.00    1.01808   0.99874   -1.000
 4735.00    1.02125   0.99857   -1.000
 4736.00    1.01915   0.99702   -1.000
 4737.00    1.01888   0.99654   -1.000
 4738.00    1.02678   0.99782   -1.000
 4739.00    1.03099   0.99973   -1.000
 4740.00    1.02796   1.00134   -1.000
 4741.00    1.01953   1.00304   -1.000
 4742.00    1.02373   1.00558   -1.000
 4743.00    1.03708   1.00872   -1.000
 4744.00    1.03294   1.01158   -1.000
 4745.00    1.02920   1.01393   -1.000
 4746.00    1.03037   1.01647   -1.000
 4747.00    1.02922   1.01974   -1.000
 4748.00    1.03093   1.02332   -1.000
 4749.00    1.03102   1.02634  542.336
 4750.00    1.02693   1.02820  547.323
 4751.00    1.02584   1.02807  551.254
 4752.00    1.02777   1.02526  551.412
 4753.00    1.02738   1.02057   -1.000
 4754.00    1.02658   1.01611   -1.000
 4755.00    1.02391   1.01383   -1.000
 4756.00    1.02167   1.01433   -1.000
 4757.00    1.02573   1.01661   -1.000
 4758.00    1.02741   1.01893   -1.000
 4759.00    1.02280   1.01944  571.848
 4760.00    1.02594   1.01613   -1.000
 4761.00    1.02535   1.00783   -1.000
 4762.00    1.00939   0.99638   -1.000
 4763.00    0.99728   0.98644   -1.000
 4764.00    0.99918   0.98218   -1.000
 4765.00    1.00790   0.98454   -1.000
 4766.00    1.01460   0.99177   -1.000
 4767.00    1.01610   1.00149   -1.000
 4768.00    1.01996   1.01139   -1.000
 4769.00    1.02563   1.01871   -1.000
 4770.00    1.02688   1.02123   -1.000
 4771.00    1.02429   1.01971  544.117
 4772.00    1.02172   1.01785  538.488
 4773.00    1.02424   1.01894   -1.000
 4774.00    1.02350   1.02290  539.475
 4775.00    1.02544   1.02694  542.580
 4776.00    1.03216   1.02861  548.147
 4777.00    1.03389   1.02707   -1.000
 4778.00    1.02936   1.02263   -1.000
 4779.00    1.02211   1.01723   -1.000
 4780.00    1.01667   1.01401  560.379
 4781.00    1.01750   1.01389  561.244
 4782.00    1.02189   1.01440   -1.000
 4783.00    1.02470   1.01325   -1.000
 4784.00    1.02222   1.01051   -1.000
 4785.00    1.01993   1.00708   -1.000
 4786.00    1.01290   1.00382   -1.000
 4787.00    1.00613   1.00201  565.764
 4788.00    1.00571   1.00240  560.373
 4789.00    1.00944   1.00469  551.853
 4790.00    1.00943   1.00867  540.175
 4791.00    1.01913   1.01449  530.249
 4792.00    1.01964   1.02176  526.777
 4793.00    1.02470   1.02929  530.601
 4794.00    1.03300   1.03506  540.272
 4795.00    1.03322   1.03675  550.660
 4796.00    1.03008   1.03348  558.032
 4797.00    1.02271   1.02685  555.563
 4798.00    1.01838   1.02027  545.486
 4799.00    1.01268   1.01717  536.868
 4800.00    1.01848   1.01894  535.882
 4801.00    1.02761   1.02364  541.818
 4802.00    1.02312   1.02687  548.926
 4803.00    1.01824   1.02492   -1.000
 4804.00    1.01684   1.01844  555.287
 4805.00    1.01575   1.01215  554.084
 4806.00    1.01820   1.00998   -1.000
 4807.00    1.02010   1.01196   -1.000
 4808.00    1.02211   1.01564   -1.000
 4809.00    1.02557   1.01871   -1.000
 4810.00    1.02438   1.02020  539.140
 4811.00    1.02202   1.02095  538.015
 4812.00    1.02241   1.02268  536.196
 4813.00    1.02578   1.02607  533.099
 4814.00    1.03283   1.03002  529.761
 4815.00    1.03312   1.03316  527.376
 4816.00    1.02929   1.03510  526.798
 4817.00    1.03223   1.03597  526.803
 4818.00    1.03461   1.03572  530.505
 4819.00    1.03212   1.03424  542.687
 4820.00    1.03069   1.03092  554.025
 4821.00    1.02484   1.02420  555.286
 4822.00    1.01739   1.01363  547.051
 4823.00    1.01347   1.00254   -1.000
 4824.00    1.00891   0.99656   -1.000
 4825.00    1.01451   0.99823   -1.000
 4826.00    1.02178   1.00419   -1.000
 4827.00    1.02502   1.00894   -1.000
 4828.00    1.02250   1.00989   -1.000
 4829.00    1.01651   1.00809   -1.000
 4830.00    1.01836   1.00544   -1.000
 4831.00    1.01621   1.00279   -1.000
 4832.00    1.01835   1.00085   -1.000
 4833.00    1.01794   1.00040   -1.000
 4834.00    1.02783   1.00111   -1.000
 4835.00    1.02969   1.00173   -1.000
 4836.00    1.02226   1.00144   -1.000
 4837.00    1.01777   1.00006   -1.000
 4838.00    1.01424   0.99732   -1.000
 4839.00    1.00985   0.99341   -1.000
 4840.00    1.00319   0.98983   -1.000
 4841.00    1.00336   0.98795   -1.000
 4842.00    1.00492   0.98754   -1.000
 4843.00    1.00636   0.98760   -1.000
 4844.00    1.00725   0.98777   -1.000
 4845.00    1.00969   0.98764   -1.000
 4846.00    1.01111   0.98550   -1.000
 4847.00    1.00759   0.98019   -1.000
 4848.00    0.99141   0.97390   -1.000
 4849.00    0.98819   0.97014   -1.000
 4850.00    0.99012   0.96916   -1.000
 4851.00    0.98372   0.96753   -1.000
 4852.00    0.98165   0.96125   -1.000
 4853.00    0.97415   0.94807   -1.000
 4854.00    0.96325   0.92896   -1.000
 4855.00    0.94529   0.90834   -1.000
 4856.00    0.93398   0.88929   -1.000
 4857.00    0.92601   0.86742   -1.000
 4858.00    0.89356   0.83178   -1.000
 4859.00    0.83192   0.77648   -1.000
 4860.00    0.74646   0.71427   -1.000
 4861.00    0.68917   0.67440   -1.000
 4862.00    0.70774   0.68003   -1.000
 4863.00    0.77794   0.72648   -1.000
 4864.00    0.84546   0.78719   -1.000
 4865.00    0.88805   0.83933   -1.000
 4866.00    0.91865   0.87676   -1.000
 4867.00    0.93708   0.90228   -1.000
 4868.00    0.94997   0.91785   -1.000
 4869.00    0.96075   0.92315   -1.000
 4870.00    0.95258   0.91962   -1.000
 4871.00    0.93967   0.91376   -1.000
 4872.00    0.93702   0.91399   -1.000
 4873.00    0.94986   0.92328   -1.000
 4874.00    0.97285   0.93673   -1.000
 4875.00    0.97671   0.94751   -1.000
 4876.00    0.97699   0.95362   -1.000
 4877.00    0.97951   0.95823   -1.000
 4878.00    0.98157   0.96510   -1.000
 4879.00    0.99268   0.97438   -1.000
 4880.00    0.99723   0.98221   -1.000
 4881.00    1.00229   0.98439   -1.000
 4882.00    1.00468   0.98084   -1.000
 4883.00    1.00058   0.97549   -1.000
 4884.00    0.99652   0.97192   -1.000
 4885.00    0.99351   0.97095   -1.000
 4886.00    0.99033   0.97136   -1.000
 4887.00    0.99102   0.97114   -1.000
 4888.00    0.99169   0.96799   -1.000
 4889.00    0.99143   0.96092   -1.000
 4890.00    0.97429   0.95311   -1.000
 4891.00    0.95830   0.95184   -1.000
 4892.00    0.97670   0.96253   -1.000
 4893.00    1.00303   0.98242   -1.000
 4894.00    1.02226   1.00284   -1.000
 4895.00    1.02842   1.01717   -1.000
 4896.00    1.03076   1.02397   -1.000
 4897.00    1.03539   1.02436   -1.000
 4898.00    1.03216   1.01984   -1.000
 4899.00    1.01854   1.01280   -1.000
 4900.00    1.01537   1.00657   -1.000
 4901.00    1.01234   1.00304   -1.000
 4902.00    1.00508   1.00127  530.157
 4903.00    1.00705   1.00070   -1.000
 4904.00    1.00623   1.00326  528.179
 4905.00    1.00802   1.00948  539.728
 4906.00    1.01905   1.01527  555.052
 4907.00    1.03008   1.01562   -1.000
 4908.00    1.02690   1.00936   -1.000
 4909.00    1.01421   0.99923   -1.000
 4910.00    1.00429   0.98991   -1.000
 4911.00    1.00546   0.98612   -1.000
 4912.00    1.00640   0.98958   -1.000
 4913.00    1.01132   0.99778   -1.000
 4914.00    1.01871   1.00619   -1.000
 4915.00    1.01716   1.01032   -1.000
 4916.00    1.01599   1.00612   -1.000
 4917.00    1.01185   0.99147   -1.000
 4918.00    0.99000   0.96908   -1.000
 4919.00    0.96601   0.94671   -1.000
 4920.00    0.96070   0.93283   -1.000
 4921.00    0.96128   0.93064   -1.000
 4922.00    0.96933   0.93593   -1.000
 4923.00    0.97792   0.94285   -1.000
 4924.00    0.98194   0.95104   -1.000
 4925.00    0.98874   0.96345   -1.000
 4926.00    1.00120   0.97942   -1.000
 4927.00    1.02008   0.99455   -1.000
 4928.00    1.02128   1.00565   -1.000
 4929.00    1.02506   1.01189   -1.000
 4930.00    1.02357   1.01252   -1.000
 4931.00    1.02417   1.00618   -1.000
 4932.00    1.01306   0.99323   -1.000
 4933.00    0.99684   0.97865   -1.000
 4934.00    0.98551   0.96999   -1.000
 4935.00    0.99110   0.96992   -1.000
 4936.00    1.00169   0.97254   -1.000
 4937.00    0.99790   0.97086   -1.000
 4938.00    0.98545   0.96593   -1.000
 4939.00    0.97705   0.96518   -1.000
 4940.00    0.98492   0.97336   -1.000
 4941.00    1.00393   0.98805   -1.000
 4942.00    1.01381   1.00257   -1.000
 4943.00    1.01724   1.01166   -1.000
 4944.00    1.01836   1.01432  526.078
 4945.00    1.01912   1.01286   -1.000
 4946.00    1.01764   1.01094   -1.000
 4947.00    1.01745   1.01141   -1.000
 4948.00    1.01190   1.01443  517.656
 4949.00    1.02042   1.01772  521.125
 4950.00    1.01714   1.01901  526.827
 4951.00    1.01958   1.01793  533.359
 4952.00    1.02420   1.01549   -1.000
 4953.00    1.01880   1.01194   -1.000
 4954.00    1.01919   1.00497   -1.000
 4955.00    1.00741   0.99084   -1.000
 4956.00    0.98345   0.97033   -1.000
 4957.00    0.96778   0.95320   -1.000
 4958.00    0.96264   0.95142   -1.000
 4959.00    0.98003   0.96640   -1.000
 4960.00    1.00665   0.98777   -1.000
 4961.00    1.01433   1.00437   -1.000
 4962.00    1.01365   1.01222  554.445
 4963.00    1.01705   1.01270  562.342
 4964.00    1.01758   1.00806   -1.000
 4965.00    1.00980   1.00066   -1.000
 4966.00    1.00084   0.99360   -1.000
 4967.00    0.99981   0.98935   -1.000
 4968.00    1.00255   0.98833   -1.000
 4969.00    1.00486   0.99006   -1.000
 4970.00    1.00780   0.99402   -1.000
 4971.00    1.00207   0.99917  532.180
 4972.00    1.00612   1.00420  535.120
 4973.00    1.01701   1.00806   -1.000
 4974.00    1.01669   1.00995   -1.000
 4975.00    1.01232   1.00935  556.474
 4976.00    1.01324   1.00630   -1.000
 4977.00    1.01674   1.00139   -1.000
 4978.00    1.01512   0.99561   -1.000
 4979.00    1.00667   0.98862   -1.000
 4980.00    0.99424   0.97819   -1.000
 4981.00    0.97545   0.96342   -1.000
 4982.00    0.95820   0.94785   -1.000
 4983.00    0.95229   0.93809   -1.000
 4984.00    0.96006   0.93879   -1.000
 4985.00    0.96727   0.94926   -1.000
 4986.00    0.98401   0.96462   -1.000
 4987.00    1.00149   0.97884   -1.000
 4988.00    1.00260   0.98681   -1.000
 4989.00    0.99908   0.98662   -1.000
 4990.00    0.98999   0.98108   -1.000
 4991.00    0.98448   0.97559   -1.000
 4992.00    0.98671   0.97384   -1.000
 4993.00    0.99130   0.97604   -1.000
 4994.00    0.99323   0.98064   -1.000
 4995.00    0.99219   0.98591   -1.000
 4996.00    1.00036   0.98932   -1.000
 4997.00    1.00795   0.98768   -1.000
 4998.00    0.99897   0.97916   -1.000
 4999.00    0.98619   0.96613   -1.000
 5000.00    0.98360   0.95531   -1.000
 5001.00    0.98589   0.95196   -1.000
 5002.00    0.98459   0.95448   -1.000
 5003.00    0.98541   0.95671   -1.000
 5004.00    0.98723   0.95378   -1.000
 5005.00    0.97914   0.94637   -1.000
 5006.00    0.96417   0.94092   -1.000
 5007.00    0.96208   0.94360   -1.000
 5008.00    0.97867   0.95329   -1.000
 5009.00    0.99404   0.96236   -1.000
 5010.00    0.99438   0.96385   -1.000
 5011.00    0.98572   0.95645   -1.000
 5012.00    0.97337   0.94445   -1.000
 5013.00    0.95826   0.93439   -1.000
 5014.00    0.95020   0.93060   -1.000
 5015.00    0.95218   0.93200   -1.000
 5016.00    0.95927   0.93332   -1.000
 5017.00    0.96538   0.93119   -1.000
 5018.00    0.95824   0.92887   -1.000
 5019.00    0.95578   0.93232   -1.000
 5020.00    0.98047   0.94182   -1.000
 5021.00    0.98360   0.95194   -1.000
 5022.00    0.98071   0.95922   -1.000
 5023.00    0.98357   0.96494   -1.000
 5024.00    0.98518   0.97071   -1.000
 5025.00    0.98679   0.97513   -1.000
 5026.00    0.99141   0.97632   -1.000
 5027.00    0.99666   0.97518   -1.000
 5028.00    0.99365   0.97428   -1.000
 5029.00    0.99315   0.97509   -1.000
 5030.00    0.99831   0.97782   -1.000
 5031.00    1.00023   0.98245   -1.000
 5032.00    0.99210   0.98751   -1.000
 5033.00    0.99784   0.98929   -1.000
 5034.00    0.99123   0.98497   -1.000
 5035.00    0.98611   0.97614   -1.000
 5036.00    0.97761   0.96742   -1.000
 5037.00    0.97455   0.96070   -1.000
 5038.00    0.97862   0.95264   -1.000
 5039.00    0.98574   0.93982   -1.000
 5040.00    0.37645   0.92569   -1.000
 5041.00    0.03027   0.91953   -1.000
 5042.00   -0.01610   0.92766    0.000
 5043.00    0.47589   0.94715   -1.000
 5044.00    0.93685   0.96905   -1.000
 5045.00    1.00165   0.98559  165.142
 5046.00    1.00665   0.99319   -1.000
 5047.00    1.01144   0.99126   -1.000
 5048.00    1.00082   0.98157   -1.000
 5049.00    0.98756   0.96820   -1.000
 5050.00    0.97666   0.95610   -1.000
 5051.00    0.96977   0.94985   -1.000
 5052.00    0.97714   0.95294   -1.000
 5053.00    0.99150   0.96484   -1.000
 5054.00    1.00356   0.97941   -1.000
 5055.00    1.01309   0.99018   -1.000
 5056.00    1.01435   0.99585   -1.000
 5057.00    1.01366   0.99875   -1.000
 5058.00    1.00905   1.00088   -1.000
 5059.00    1.00266   1.00269  537.414
 5060.00    1.00742   1.00371  552.489
 5061.00    1.00997   1.00290   -1.000
 5062.00    1.01085   0.99858   -1.000
 5063.00    1.01112   0.98987   -1.000
 5064.00    0.99587   0.97899   -1.000
 5065.00    0.98683   0.97051   -1.000
 5066.00    0.98786   0.96714   -1.000
 5067.00    0.98844   0.96754   -1.000
 5068.00    0.99002   0.96901   -1.000
 5069.00    0.99224   0.97038   -1.000
 5070.00    1.00087   0.97131   -1.000
 5071.00    1.00018   0.97092   -1.000
 5072.00    0.99858   0.96907   -1.000
 5073.00    0.99795   0.96729   -1.000
 5074.00    1.00650   0.96694   -1.000
 5075.00    1.00400   0.96744   -1.000
 5076.00    0.99669   0.96631   -1.000
 5077.00    0.99569   0.96073   -1.000
 5078.00    0.98175   0.95040   -1.000
 5079.00    0.96503   0.93968   -1.000
 5080.00    0.95379   0.93455   -1.000
 5081.00    0.95753   0.93666   -1.000
 5082.00    0.97071   0.94286   -1.000
 5083.00    0.97194   0.95018   -1.000
 5084.00    0.97877   0.95809   -1.000
 5085.00    0.99275   0.96605   -1.000
 5086.00    1.00729   0.97241   -1.000
 5087.00    1.02439   0.97639   -1.000
 5088.00    1.01360   0.97901   -1.000
 5089.00    1.00806   0.98158   -1.000
 5090.00    1.01334   0.98453   -1.000
 5091.00    1.01109   0.98775   -1.000
 5092.00    1.01242   0.99101   -1.000
 5093.00    1.01259   0.99333   -1.000
 5094.00    1.01209   0.99265   -1.000
 5095.00    1.01367   0.98718   -1.000
 5096.00    1.00447   0.97706   -1.000
 5097.00    0.99345   0.96496   -1.000
 5098.00    0.98163   0.95528   -1.000
 5099.00    0.97753   0.95217   -1.000
 5100.00    0.99595   0.95680   -1.000
 5101.00    1.00168   0.96592   -1.000
 5102.00    0.99630   0.97425   -1.000
 5103.00    1.00550   0.97820   -1.000
 5104.00    1.01102   0.97700   -1.000
 5105.00    1.00294   0.97131   -1.000
 5106.00    0.99330   0.96259   -1.000
 5107.00    0.97528   0.95392   -1.000
 5108.00    0.96956   0.94879   -1.000
 5109.00    0.96830   0.94880   -1.000
 5110.00    0.97447   0.95358   -1.000
 5111.00    0.98491   0.96185   -1.000
 5112.00    1.00190   0.97141   -1.000
 5113.00    1.00452   0.97963   -1.000
 5114.00    1.01271   0.98526   -1.000
 5115.00    1.01834   0.98901   -1.000
 5116.00    1.01253   0.99203   -1.000
 5117.00    1.01560   0.99419   -1.000
 5118.00    1.01963   0.99413   -1.000
 5119.00    1.02015   0.99081   -1.000
 5120.00    1.01331   0.98435   -1.000
 5121.00    1.00257   0.97560   -1.000
 5122.00    0.99892   0.96577   -1.000
 5123.00    0.98453   0.95670   -1.000
 5124.00    0.97617   0.95061   -1.000
 5125.00    0.97772   0.94823   -1.000
 5126.00    0.98353   0.94774   -1.000
 5127.00    0.98580   0.94697   -1.000
 5128.00    0.97515   0.94599   -1.000
 5129.00    0.98111   0.94669   -1.000
 5130.00    0.98430   0.95021   -1.000
 5131.00    0.99183   0.95554   -1.000
 5132.00    0.99014   0.96078   -1.000
 5133.00    0.99148   0.96500   -1.000
 5134.00    0.99671   0.96781   -1.000
 5135.00    0.99937   0.96803   -1.000
 5136.00    0.99823   0.96423   -1.000
 5137.00    0.98393   0.95674   -1.000
 5138.00    0.97095   0.94842   -1.000
 5139.00    0.96311   0.94293   -1.000
 5140.00    0.96834   0.94173   -1.000
 5141.00    0.97718   0.94323   -1.000
 5142.00    0.96971   0.94550   -1.000
 5143.00    0.97128   0.94852   -1.000
 5144.00    0.98049   0.95242   -1.000
 5145.00    0.98907   0.95544   -1.000
 5146.00    0.99881   0.95611   -1.000
 5147.00    0.99827   0.95534   -1.000
 5148.00    0.99461   0.95462   -1.000
 5149.00    0.98931   0.95338   -1.000
 5150.00    0.97993   0.95009   -1.000
 5151.00    0.97481   0.94520   -1.000
 5152.00    0.97136   0.94129   -1.000
 5153.00    0.97651   0.94085   -1.000
 5154.00    0.98867   0.94494   -1.000
 5155.00    0.99812   0.95319   -1.000
 5156.00    1.00405   0.96343   -1.000
 5157.00    1.00840   0.97252   -1.000
 5158.00    1.01588   0.97831   -1.000
 5159.00    1.01372   0.98040   -1.000
 5160.00    1.00983   0.97934   -1.000
 5161.00    1.00199   0.97579   -1.000
 5162.00    1.00478   0.97001   -1.000
 5163.00    1.00622   0.96042   -1.000
 5164.00    0.99494   0.94266   -1.000
 5165.00    0.96799   0.91295   -1.000
 5166.00    0.93164   0.87522   -1.000
 5167.00    0.89304   0.84316   -1.000
 5168.00    0.88315   0.83022   -1.000
 5169.00    0.89845   0.83594   -1.000
 5170.00    0.92400   0.84570   -1.000
 5171.00    0.92512   0.84739   -1.000
 5172.00    0.90451   0.84580   -1.000
 5173.00    0.89570   0.85584   -1.000
 5174.00    0.92595   0.88337   -1.000
 5175.00    0.97029   0.91821   -1.000
 5176.00    1.00464   0.94629   -1.000
 5177.00    1.01845   0.96210   -1.000
 5178.00    1.01891   0.96750   -1.000
 5179.00    1.01063   0.96411   -1.000
 5180.00    1.00607   0.94984   -1.000
 5181.00    0.99944   0.92259   -1.000
 5182.00    0.96544   0.88760   -1.000
 5183.00    0.92396   0.85965   -1.000
 5184.00    0.90617   0.85404   -1.000
 5185.00    0.92939   0.87243   -1.000
 5186.00    0.96780   0.90075   -1.000
 5187.00    0.98558   0.92296   -1.000
 5188.00    0.98384   0.93368   -1.000
 5189.00    0.97670   0.93605   -1.000
 5190.00    0.98037   0.93331   -1.000
 5191.00    0.96926   0.92721   -1.000
 5192.00    0.96092   0.92126   -1.000
 5193.00    0.96522   0.91942   -1.000
 5194.00    0.97269   0.92202   -1.000
 5195.00    0.97487   0.92651   -1.000
 5196.00    0.97427   0.93149   -1.000
 5197.00    0.98834   0.93766   -1.000
 5198.00    0.98520   0.94544   -1.000
 5199.00    0.98934   0.95317   -1.000
 5200.00    0.99111   0.95786   -1.000
 5201.00    0.99113   0.95689   -1.000
 5202.00    0.98968   0.94914   -1.000
 5203.00    0.97499   0.93564   -1.000
 5204.00    0.95267   0.91993   -1.000
 5205.00    0.94361   0.90706   -1.000
 5206.00    0.94418   0.90030   -1.000
 5207.00    0.95386   0.89918   -1.000
 5208.00    0.95725   0.90190   -1.000
 5209.00    0.95280   0.90882   -1.000
 5210.00    0.95774   0.92118   -1.000
 5211.00    0.98530   0.93720   -1.000
 5212.00    1.00214   0.95165   -1.000
 5213.00    1.00994   0.95911   -1.000
 5214.00    0.99804   0.95760   -1.000
 5215.00    0.98558   0.95043   -1.000
 5216.00    0.97995   0.94461   -1.000
 5217.00    0.98160   0.94583   -1.000
 5218.00    0.99068   0.95435   -1.000
 5219.00    1.00263   0.96568   -1.000
 5220.00    1.01286   0.97481   -1.000
 5221.00    1.01382   0.97886   -1.000
 5222.00    1.00768   0.97641   -1.000
 5223.00    1.01042   0.96606   -1.000
 5224.00    0.99797   0.94704   -1.000
 5225.00    0.96663   0.92259   -1.000
 5226.00    0.93947   0.90224   -1.000
 5227.00    0.92523   0.89673   -1.000
 5228.00    0.94013   0.90829   -1.000
 5229.00    0.97307   0.92765   -1.000
 5230.00    0.99489   0.94222   -1.000
 5231.00    0.99828   0.94568   -1.000
 5232.00    0.99940   0.94026   -1.000
 5233.00    0.98657   0.93338   -1.000
 5234.00    0.98086   0.93229   -1.000
 5235.00    0.98688   0.93937   -1.000
 5236.00    0.99547   0.95119   -1.000
 5237.00    1.00579   0.96240   -1.000
 5238.00    1.00469   0.96976   -1.000
 5239.00    1.00985   0.97318   -1.000
 5240.00    1.00745   0.97423   -1.000
 5241.00    1.01417   0.97429   -1.000
 5242.00    1.01222   0.97434   -1.000
 5243.00    1.01190   0.97486   -1.000
 5244.00    1.01207   0.97500   -1.000
 5245.00    1.01034   0.97261   -1.000
 5246.00    1.00198   0.96664   -1.000
 5247.00    0.99321   0.95889   -1.000
 5248.00    0.98647   0.95221   -1.000
 5249.00    0.98147   0.94796   -1.000
 5250.00    0.97472   0.94625   -1.000
 5251.00    0.97790   0.94697   -1.000
 5252.00    0.99496   0.94913   -1.000
 5253.00    0.99154   0.95099   -1.000
 5254.00    0.97907   0.95232   -1.000
 5255.00    0.98570   0.95535   -1.000
 5256.00    0.99275   0.96187   -1.000
 5257.00    1.00759   0.97011   -1.000
 5258.00    1.01240   0.97546   -1.000
 5259.00    1.01149   0.97370   -1.000
 5260.00    1.00799   0.96327   -1.000
 5261.00    0.98974   0.94580   -1.000
 5262.00    0.96817   0.92529   -1.000
 5263.00    0.95224   0.90644   -1.000
 5264.00    0.93800   0.89311   -1.000
 5265.00    0.93262   0.88724   -1.000
 5266.00    0.94168   0.88706   -1.000
 5267.00    0.95034   0.88686   -1.000
 5268.00    0.94261   0.88178   -1.000
 5269.00    0.92399   0.87463   -1.000
 5270.00    0.91011   0.87458   -1.000
 5271.00    0.92769   0.88655   -1.000
 5272.00    0.95799   0.90443   -1.000
 5273.00    0.96891   0.91821   -1.000
 5274.00    0.97821   0.92478   -1.000
 5275.00    0.97408   0.92897   -1.000
 5276.00    0.98116   0.93661   -1.000
 5277.00    0.99455   0.94830   -1.000
 5278.00    1.00399   0.95899   -1.000
 5279.00    1.00261   0.96290   -1.000
 5280.00    1.00759   0.95852   -1.000
 5281.00    0.98785   0.94898   -1.000
 5282.00    0.97697   0.93951   -1.000
 5283.00    0.97833   0.93530   -1.000
 5284.00    0.97727   0.93972   -1.000
 5285.00    0.98926   0.95192   -1.000
 5286.00    0.99878   0.96651   -1.000
 5287.00    1.00729   0.97766   -1.000
 5288.00    1.01079   0.98348   -1.000
 5289.00    1.00859   0.98567   -1.000
 5290.00    1.00833   0.98602   -1.000
 5291.00    1.01233   0.98508   -1.000
 5292.00    1.00905   0.98317   -1.000
 5293.00    1.01084   0.98030   -1.000
 5294.00    1.00657   0.97535   -1.000
 5295.00    0.99992   0.96686   -1.000
 5296.00    0.99137   0.95546   -1.000
 5297.00    0.98028   0.94498   -1.000
 5298.00    0.96843   0.94003   -1.000
 5299.00    0.97759   0.94184   -1.000
 5300.00    0.98689   0.94744   -1.000
 5301.00    0.98841   0.95340   -1.000
 5302.00    0.99332   0.95905   -1.000
 5303.00    0.99631   0.96513   -1.000
 5304.00    1.00123   0.97079   -1.000
 5305.00    1.00245   0.97394   -1.000
 5306.00    0.99548   0.97410   -1.000
 5307.00    0.99490   0.97334   -1.000
 5308.00    0.99963   0.97417   -1.000
 5309.00    1.00133   0.97703   -1.000
 5310.00    1.00651   0.98014   -1.000
 5311.00    1.01322   0.98137   -1.000
 5312.00    1.01040   0.97972   -1.000
 5313.00    1.00829   0.97499   -1.000
 5314.00    1.00818   0.96736   -1.000
 5315.00    0.99692   0.95835   -1.000
 5316.00    0.98679   0.95157   -1.000
 5317.00    0.98174   0.95079   -1.000
 5318.00    0.98433   0.95620   -1.000
 5319.00    0.99564   0.96357   -1.000
 5320.00    1.00208   0.96769   -1.000
 5321.00    0.99957   0.96584   -1.000
 5322.00    0.98658   0.95854   -1.000
 5323.00    0.97956   0.94855   -1.000
 5324.00    0.97603   0.93859   -1.000
 5325.00    0.97206   0.92838   -1.000
 5326.00    0.97184   0.91528   -1.000
 5327.00    0.94930   0.90026   -1.000
 5328.00    0.91654   0.89139   -1.000
 5329.00    0.92229   0.89678   -1.000
 5330.00    0.95535   0.91474   -1.000
 5331.00    0.98190   0.93484   -1.000
 5332.00    0.98206   0.94845   -1.000
 5333.00    0.98368   0.95463   -1.000
 5334.00    0.99128   0.95645   -1.000
 5335.00    0.98886   0.95602   -1.000
 5336.00    0.99065   0.95392   -1.000
 5337.00    0.99314   0.95033   -1.000
 5338.00    0.99362   0.94511   -1.000
 5339.00    0.98384   0.93885   -1.000
 5340.00    0.96713   0.93437   -1.000
 5341.00    0.97030   0.93530   -1.000
 5342.00    0.97669   0.94190   -1.000
 5343.00    0.97669   0.94980   -1.000
 5344.00    0.97669   0.95413   -1.000
 5345.00    0.97702   0.95360   -1.000
 5346.00    0.98299   0.95026   -1.000
 5347.00    0.98299   0.94678   -1.000
 5348.00    0.98299   0.94498   -1.000
 5349.00    0.98305   0.94602   -1.000
 5350.00    0.98443   0.95028   -1.000
 5351.00    0.98995   0.95653   -1.000
 5352.00    1.00103   0.96263   -1.000
 5353.00    1.00071   0.96754   -1.000
 5354.00    0.99931   0.97185   -1.000
 5355.00    1.00759   0.97605   -1.000
 5356.00    1.01065   0.97953   -1.000
 5357.00    1.01087   0.98132   -1.000
 5358.00    1.00743   0.98110   -1.000
 5359.00    1.00690   0.97876   -1.000
 5360.00    1.01100   0.97403   -1.000
 5361.00    1.00515   0.96707   -1.000
 5362.00    0.99806   0.95911   -1.000
 5363.00    0.99806   0.95205   -1.000
 5364.00    0.99806   0.94734   -1.000
 5365.00    0.99806   0.94527   -1.000
 5366.00    0.99473   0.94466   -1.000
 5367.00    0.94638   0.94300  509.906
 5368.00    0.94638   0.93775   -1.000
 5369.00    0.94638   0.92850   -1.000
 5370.00    0.94638   0.91876   -1.000
 5371.00    0.94687   0.91484   -1.000
 5372.00    0.95556   0.92117   -1.000
 5373.00    0.98357   0.93578   -1.000
 5374.00    0.99714   0.95177   -1.000
 5375.00    0.99546   0.96310   -1.000
 5376.00    1.00196   0.96828   -1.000
 5377.00    1.00744   0.96896   -1.000
 5378.00    1.00284   0.96682   -1.000
 5379.00    0.99272   0.96267   -1.000
 5380.00    0.99267   0.95741   -1.000
 5381.00    0.99430   0.95257   -1.000
 5382.00    0.98895   0.94983   -1.000
 5383.00    0.97862   0.95020   -1.000
 5384.00    0.98279   0.95371   -1.000
 5385.00    0.98944   0.95902   -1.000
 5386.00    0.99774   0.96369   -1.000
 5387.00    0.99734   0.96541   -1.000
 5388.00    0.99928   0.96341   -1.000
 5389.00    0.99916   0.95860   -1.000
 5390.00    0.99543   0.95266   -1.000
 5391.00    0.99361   0.94705   -1.000
 5392.00    0.98791   0.94252   -1.000
 5393.00    0.98174   0.93899   -1.000
 5394.00    0.97880   0.93506   -1.000
 5395.00    0.97690   0.92906   -1.000
 5396.00    0.96609   0.92199   -1.000
 5397.00    0.95605   0.91829   -1.000
 5398.00    0.96448   0.92152   -1.000
 5399.00    0.97635   0.93004   -1.000
 5400.00    0.98231   0.93845   -1.000
 5401.00    0.98594   0.94188   -1.000
 5402.00    0.98467   0.93811   -1.000
 5403.00    0.97452   0.92773   -1.000
 5404.00    0.96318   0.91484   -1.000
 5405.00    0.95572   0.90596   -1.000
 5406.00    0.95816   0.90534   -1.000
 5407.00    0.96114   0.91105   -1.000
 5408.00    0.96946   0.91721   -1.000
 5409.00    0.97069   0.92059   -1.000
 5410.00    0.96460   0.92331   -1.000
 5411.00    0.97292   0.92839   -1.000
 5412.00    0.97383   0.93493   -1.000
 5413.00    0.98040   0.93977   -1.000
 5414.00    0.98856   0.94203   -1.000
 5415.00    0.98160   0.94380   -1.000
 5416.00    0.98203   0.94676   -1.000
 5417.00    0.98811   0.95013   -1.000
 5418.00    0.98752   0.95224   -1.000
 5419.00    0.98325   0.95261   -1.000
 5420.00    0.98218   0.95169   -1.000
 5421.00    0.98692   0.94950   -1.000
 5422.00    0.98453   0.94577   -1.000
 5423.00    0.97918   0.94144   -1.000
 5424.00    0.97611   0.93913   -1.000
 5425.00    0.97380   0.94082   -1.000
 5426.00    0.98288   0.94445   -1.000
 5427.00    0.98821   0.94476   -1.000
 5428.00    0.97905   0.93910   -1.000
 5429.00    0.96380   0.93115   -1.000
 5430.00    0.96041   0.92673   -1.000
 5431.00    0.96657   0.92681   -1.000
 5432.00    0.97085   0.92723   -1.000
 5433.00    0.96436   0.92498   -1.000
 5434.00    0.95400   0.92249   -1.000
 5435.00    0.94782   0.92464   -1.000
 5436.00    0.96135   0.93311   -1.000
 5437.00    0.97837   0.94501   -1.000
 5438.00    0.98157   0.95595   -1.000
 5439.00    0.98157   0.96330   -1.000
 5440.00    0.98282   0.96700   -1.000
 5441.00    0.99324   0.96789   -1.000
 5442.00    0.99324   0.96576   -1.000
 5443.00    0.99211   0.95915   -1.000
 5444.00    0.98107   0.94719   -1.000
 5445.00    0.96482   0.93227   -1.000
 5446.00    0.94786   0.92050   -1.000
 5447.00    0.94560   0.91801   -1.000
 5448.00    0.95563   0.92580   -1.000
 5449.00    0.97579   0.93872   -1.000
 5450.00    0.98876   0.94983   -1.000
 5451.00    0.99259   0.95478   -1.000
 5452.00    0.99061   0.95233   -1.000
 5453.00    0.98219   0.94342   -1.000
 5454.00    0.96576   0.93167   -1.000
 5455.00    0.94861   0.92345   -1.000
 5456.00    0.94235   0.92444   -1.000
 5457.00    0.96503   0.93442   -1.000
 5458.00    0.98125   0.94710   -1.000
 5459.00    0.98553   0.95549   -1.000
 5460.00    0.98000   0.95673   -1.000
 5461.00    0.97716   0.95222   -1.000
 5462.00    0.98088   0.94567   -1.000
 5463.00    0.97524   0.94124   -1.000
 5464.00    0.97216   0.94125   -1.000
 5465.00    0.98176   0.94483   -1.000
 5466.00    0.98305   0.94936   -1.000
 5467.00    0.98558   0.95302   -1.000
 5468.00    0.98754   0.95548   -1.000
 5469.00    0.98804   0.95666   -1.000
 5470.00    0.98388   0.95610   -1.000
 5471.00    0.98045   0.95360   -1.000
 5472.00    0.98094   0.94941   -1.000
 5473.00    0.97675   0.94343   -1.000
 5474.00    0.97022   0.93521   -1.000
 5475.00    0.96617   0.92552   -1.000
 5476.00    0.95625   0.91793   -1.000
 5477.00    0.94544   0.91686   -1.000
 5478.00    0.94955   0.92290   -1.000
 5479.00    0.96667   0.93150   -1.000
 5480.00    0.97780   0.93754   -1.000
 5481.00    0.97787   0.94019   -1.000
 5482.00    0.97469   0.94217   -1.000
 5483.00    0.97289   0.94569   -1.000
 5484.00    0.97257   0.95016   -1.000
 5485.00    0.97372   0.95312   -1.000
 5486.00    0.98011   0.95293   -1.000
 5487.00    0.98095   0.95034   -1.000
 5488.00    0.97349   0.94768   -1.000
 5489.00    0.97265   0.94675   -1.000
 5490.00    0.97652   0.94771   -1.000
 5491.00    0.97871   0.94949   -1.000
 5492.00    0.98052   0.95087   -1.000
 5493.00    0.98159   0.95111   -1.000
 5494.00    0.98601   0.94984   -1.000
 5495.00    0.97887   0.94691   -1.000
 5496.00    0.96960   0.94298   -1.000
 5497.00    0.96311   0.93992   -1.000
 5498.00    0.96021   0.93906   -1.000
 5499.00    0.96636   0.93916   -1.000
 5500.00    0.96676   0.93783   -1.000
 5501.00    0.96026   0.93503   -1.000
 5502.00    0.96103   0.93327   -1.000
 5503.00    0.96682   0.93372   -1.000
 5504.00    0.97165   0.93413   -1.000
 5505.00    0.97219   0.93217   -1.000
 5506.00    0.96271   0.92901   -1.000
 5507.00    0.95342   0.92813   -1.000
 5508.00    0.96004   0.93087   -1.000
 5509.00    0.96855   0.93475   -1.000
 5510.00    0.97914   0.93632   -1.000
 5511.00    0.97644   0.93461   -1.000
 5512.00    0.96545   0.93150   -1.000
 5513.00    0.95735   0.92974   -1.000
 5514.00    0.96167   0.93100   -1.000
 5515.00    0.96970   0.93516   -1.000
 5516.00    0.97558   0.94091   -1.000
 5517.00    0.97875   0.94672   -1.000
 5518.00    0.98091   0.95136   -1.000
 5519.00    0.98476   0.95399   -1.000
 5520.00    0.98378   0.95466   -1.000
 5521.00    0.98117   0.95419   -1.000
 5522.00    0.98243   0.95320   -1.000
 5523.00    0.98188   0.95103   -1.000
 5524.00    0.97706   0.94596   -1.000
 5525.00    0.97115   0.93685   -1.000
 5526.00    0.95976   0.92519   -1.000
 5527.00    0.94527   0.91542   -1.000
 5528.00    0.93936   0.91240   -1.000
 5529.00    0.94504   0.91764   -1.000
 5530.00    0.95675   0.92758   -1.000
 5531.00    0.96631   0.93618   -1.000
 5532.00    0.97216   0.93940   -1.000
 5533.00    0.97193   0.93768   -1.000
 5534.00    0.96712   0.93468   -1.000
 5535.00    0.96045   0.93414   -1.000
 5536.00    0.96586   0.93709   -1.000
 5537.00    0.97280   0.94179   -1.000
 5538.00    0.96926   0.94607   -1.000
 5539.00    0.97376   0.94906   -1.000
 5540.00    0.97460   0.95064   -1.000
 5541.00    0.97345   0.95055   -1.000
 5542.00    0.97835   0.94871   -1.000
 5543.00    0.97497   0.94610   -1.000
 5544.00    0.97507   0.94433   -1.000
 5545.00    0.97521   0.94438   -1.000
 5546.00    0.97418   0.94614   -1.000
 5547.00    0.97355   0.94909   -1.000
 5548.00    0.97645   0.95251   -1.000
 5549.00    0.98365   0.95527   -1.000
 5550.00    0.98005   0.95630   -1.000
 5551.00    0.97681   0.95541   -1.000
 5552.00    0.97524   0.95333   -1.000
 5553.00    0.96872   0.95106   -1.000
 5554.00    0.96647   0.94951   -1.000
 5555.00    0.96629   0.94918   -1.000
 5556.00    0.97252   0.94980   -1.000
 5557.00    0.97365   0.95067   -1.000
 5558.00    0.97406   0.95130   -1.000
 5559.00    0.96858   0.95140   -1.000
 5560.00    0.97113   0.95046   -1.000
 5561.00    0.97322   0.94820   -1.000
 5562.00    0.96630   0.94516   -1.000
 5563.00    0.96358   0.94248   -1.000
 5564.00    0.96464   0.94068   -1.000
 5565.00    0.96345   0.93936   -1.000
 5566.00    0.95749   0.93792   -1.000
 5567.00    0.95770   0.93616   -1.000
 5568.00    0.96053   0.93429   -1.000
 5569.00    0.96852   0.93261   -1.000
 5570.00    1.00587   0.93102   -1.000
 5571.00    1.11103   0.92918   -1.000
 5572.00    1.23385   0.92767   -1.000
 5573.00    1.11130   0.92783   -1.000
 5574.00    0.77733   0.93003   -1.000
 5575.00    0.62059   0.93318   -1.000
 5576.00    0.73425   0.93623   -1.000
 5577.00    0.90773   0.93893   -1.000
 5578.00    0.94914   0.94122   -1.000
 5579.00    0.96353   0.94259   -1.000
 5580.00    0.96404   0.94267   -1.000
 5581.00    0.95757   0.94192   -1.000
 5582.00    0.96052   0.94103   -1.000
 5583.00    0.96307   0.93938   -1.000
 5584.00    0.96261   0.93493   -1.000
 5585.00    0.96347   0.92628   -1.000
 5586.00    0.94775   0.91490   -1.000
 5587.00    0.93357   0.90487   -1.000
 5588.00    0.92667   0.90008   -1.000
 5589.00    0.92522   0.90180   -1.000
 5590.00    0.93211   0.90816   -1.000
 5591.00    0.94442   0.91539   -1.000
 5592.00    0.94938   0.92028   -1.000
 5593.00    0.95090   0.92242   -1.000
 5594.00    0.94584   0.92383   -1.000
 5595.00    0.94522   0.92584   -1.000
 5596.00    0.95348   0.92726   -1.000
 5597.00    0.95565   0.92626   -1.000
 5598.00    0.94992   0.92305   -1.000
 5599.00    0.94244   0.91911   -1.000
 5600.00    0.94027   0.91529   -1.000
 5601.00    0.94244   0.91263   -1.000
 5602.00    0.93511   0.91346   -1.000
 5603.00    0.93625   0.91949   -1.000
 5604.00    0.94929   0.92955   -1.000
 5605.00    0.96567   0.94016   -1.000
 5606.00    0.96822   0.94820   -1.000
 5607.00    0.96523   0.95279   -1.000
 5608.00    0.96569   0.95488   -1.000
 5609.00    0.96671   0.95583   -1.000
 5610.00    0.96910   0.95610   -1.000
 5611.00    0.96992   0.95471   -1.000
 5612.00    0.97002   0.94963   -1.000
 5613.00    0.96853   0.93985   -1.000
 5614.00    0.95361   0.92789   -1.000
 5615.00    0.93622   0.91937   -1.000
 5616.00    0.93516   0.91868   -1.000
 5617.00    0.94510   0.92481   -1.000
 5618.00    0.95641   0.93291   -1.000
 5619.00    0.96869   0.93905   -1.000
 5620.00    0.97396   0.94230   -1.000
 5621.00    0.96757   0.94294   -1.000
 5622.00    0.96464   0.94098   -1.000
 5623.00    0.96058   0.93704   -1.000
 5624.00    0.95081   0.93334   -1.000
 5625.00    0.95203   0.93244   -1.000
 5626.00    0.95633   0.93500   -1.000
 5627.00    0.95777   0.93952   -1.000
 5628.00    0.96240   0.94402   -1.000
 5629.00    0.96930   0.94741   -1.000
 5630.00    0.97259   0.94938   -1.000
 5631.00    0.96702   0.94988   -1.000
 5632.00    0.96741   0.94905   -1.000
 5633.00    0.97179   0.94723   -1.000
 5634.00    0.96445   0.94484   -1.000
 5635.00    0.96377   0.94217   -1.000
 5636.00    0.96030   0.93955   -1.000
 5637.00    0.95579   0.93741   -1.000
 5638.00    0.96221   0.93587   -1.000
 5639.00    0.96282   0.93462   -1.000
 5640.00    0.95479   0.93348   -1.000
 5641.00    0.95180   0.93294   -1.000
 5642.00    0.95585   0.93362   -1.000
 5643.00    0.95980   0.93540   -1.000
 5644.00    0.95904   0.93754   -1.000
 5645.00    0.96258   0.93940   -1.000
 5646.00    0.96777   0.94063   -1.000
 5647.00    0.96419   0.94108   -1.000
 5648.00    0.96559   0.94083   -1.000
 5649.00    0.96437   0.94028   -1.000
 5650.00    0.96165   0.93996   -1.000
 5651.00    0.96136   0.93997   -1.000
 5652.00    0.96473   0.93971   -1.000
 5653.00    0.96296   0.93835   -1.000
 5654.00    0.95942   0.93509   -1.000
 5655.00    0.95546   0.92912   -1.000
 5656.00    0.94815   0.92048   -1.000
 5657.00    0.94244   0.91162   -1.000
 5658.00    0.93554   0.90666   -1.000
 5659.00    0.93552   0.90766   -1.000
 5660.00    0.94325   0.91253   -1.000
 5661.00    0.95106   0.91772   -1.000
 5662.00    0.95141   0.92208   -1.000
 5663.00    0.94644   0.92646   -1.000
 5664.00    0.95267   0.93065   -1.000
 5665.00    0.95964   0.93282   -1.000
 5666.00    0.95767   0.93198   -1.000
 5667.00    0.95695   0.92961   -1.000
 5668.00    0.95390   0.92822   -1.000
 5669.00    0.95281   0.92916   -1.000
 5670.00    0.95826   0.93206   -1.000
 5671.00    0.95939   0.93567   -1.000
 5672.00    0.96237   0.93881   -1.000
 5673.00    0.97034   0.94084   -1.000
 5674.00    0.96961   0.94179   -1.000
 5675.00    0.96082   0.94218   -1.000
 5676.00    0.96083   0.94242   -1.000
 5677.00    0.96075   0.94232   -1.000
 5678.00    0.96037   0.94126   -1.000
 5679.00    0.95584   0.93879   -1.000
 5680.00    0.95377   0.93475   -1.000
 5681.00    0.95415   0.92952   -1.000
 5682.00    0.94596   0.92430   -1.000
 5683.00    0.93982   0.92081   -1.000
 5684.00    0.94325   0.91999   -1.000
 5685.00    0.93762   0.92101   -1.000
 5686.00    0.93400   0.92211   -1.000
 5687.00    0.92867   0.92239   -1.000
 5688.00    0.93557   0.92257   -1.000
 5689.00    0.94263   0.92396   -1.000
 5690.00    0.94423   0.92701   -1.000
 5691.00    0.95514   0.93094   -1.000
 5692.00    0.95841   0.93446   -1.000
 5693.00    0.95565   0.93684   -1.000
 5694.00    0.95468   0.93807   -1.000
 5695.00    0.95509   0.93838   -1.000
 5696.00    0.95860   0.93782   -1.000
 5697.00    0.95619   0.93610   -1.000
 5698.00    0.95445   0.93308   -1.000
 5699.00    0.95295   0.92924   -1.000
 5700.00    0.95229   0.92570   -1.000
 5701.00    0.94712   0.92369   -1.000
 5702.00    0.94369   0.92372   -1.000
 5703.00    0.94750   0.92494   -1.000
 5704.00    0.94855   0.92551   -1.000
 5705.00    0.94964   0.92386   -1.000
 5706.00    0.94983   0.91965   -1.000
 5707.00    0.94129   0.91360   -1.000
 5708.00    0.93143   0.90720   -1.000
 5709.00    0.92668   0.90254   -1.000
 5710.00    0.92108   0.90157   -1.000
 5711.00    0.92335   0.90497   -1.000
 5712.00    0.93433   0.91157   -1.000
 5713.00    0.94127   0.91906   -1.000
 5714.00    0.94936   0.92530   -1.000
 5715.00    0.95120   0.92949   -1.000
 5716.00    0.94844   0.93211   -1.000
 5717.00    0.94920   0.93405   -1.000
 5718.00    0.94837   0.93592   -1.000
 5719.00    0.95429   0.93789   -1.000
 5720.00    0.95821   0.93975   -1.000
 5721.00    0.96048   0.94119   -1.000
 5722.00    0.96121   0.94205   -1.000
 5723.00    0.96223   0.94219   -1.000
 5724.00    0.95411   0.94129   -1.000
 5725.00    0.95446   0.93920   -1.000
 5726.00    0.95834   0.93648   -1.000
 5727.00    0.95692   0.93422   -1.000
 5728.00    0.95626   0.93316   -1.000
 5729.00    0.95512   0.93312   -1.000
 5730.00    0.95108   0.93346   -1.000
 5731.00    0.95335   0.93391   -1.000
 5732.00    0.95275   0.93487   -1.000
 5733.00    0.95600   0.93658   -1.000
 5734.00    0.95422   0.93845   -1.000
 5735.00    0.95616   0.93960   -1.000
 5736.00    0.95404   0.93982   -1.000
 5737.00    0.95411   0.93958   -1.000
 5738.00    0.95334   0.93931   -1.000
 5739.00    0.95213   0.93914   -1.000
 5740.00    0.95243   0.93885   -1.000
 5741.00    0.95359   0.93833   -1.000
 5742.00    0.95253   0.93789   -1.000
 5743.00    0.95278   0.93792   -1.000
 5744.00    0.95379   0.93822   -1.000
 5745.00    0.95195   0.93808   -1.000
 5746.00    0.95060   0.93719   -1.000
 5747.00    0.94965   0.93616   -1.000
 5748.00    0.94831   0.93584   -1.000
 5749.00    0.94722   0.93599   -1.000
 5750.00    0.94747   0.93520   -1.000
 5751.00    0.95209   0.93240   -1.000
 5752.00    0.95225   0.92833   -1.000
 5753.00    0.94631   0.92537   -1.000
 5754.00    0.94315   0.92554   -1.000
 5755.00    0.94657   0.92895   -1.000
 5756.00    0.94666   0.93386   -1.000
 5757.00    0.94637   0.93804   -1.000
 5758.00    0.94955   0.93986   -1.000
 5759.00    0.95285   0.93876   -1.000
 5760.00    0.95528   0.93534   -1.000
 5761.00    0.95509   0.93134   -1.000
 5762.00    0.94724   0.92912   -1.000
 5763.00    0.93931   0.93024   -1.000
 5764.00    0.94219   0.93413   -1.000
 5765.00    0.94687   0.93852   -1.000
 5766.00    0.94914   0.94139   -1.000
 5767.00    0.95326   0.94224   -1.000
 5768.00    0.95721   0.94168   -1.000
 5769.00    0.95607   0.94046   -1.000
 5770.00    0.95814   0.93897   -1.000
 5771.00    0.96214   0.93736   -1.000
 5772.00    0.96087   0.93564   -1.000
 5773.00    0.95245   0.93390   -1.000
 5774.00    0.94785   0.93249   -1.000
 5775.00    0.94789   0.93181   -1.000
 5776.00    0.95019   0.93158   -1.000
 5777.00    0.95345   0.93065   -1.000
 5778.00    0.95015   0.92806   -1.000
 5779.00    0.94834   0.92390   -1.000
 5780.00    0.95044   0.91936   -1.000
 5781.00    0.94859   0.91587   -1.000
 5782.00    0.94670   0.91425   -1.000
 5783.00    0.94521   0.91436   -1.000
 5784.00    0.94871   0.91555   -1.000
 5785.00    0.95344   0.91739   -1.000
 5786.00    0.95112   0.91979   -1.000
 5787.00    0.94955   0.92242   -1.000
 5788.00    0.94869   0.92455   -1.000
 5789.00    0.94861   0.92555   -1.000
 5790.00    0.95037   0.92564   -1.000
 5791.00    0.95393   0.92598   -1.000
 5792.00    0.94759   0.92755   -1.000
 5793.00    0.94511   0.93025   -1.000
 5794.00    0.94957   0.93295   -1.000
 5795.00    0.95894   0.93437   -1.000
 5796.00    0.96110   0.93412   -1.000
 5797.00    0.95631   0.93319   -1.000
 5798.00    0.95596   0.93310   -1.000
 5799.00    0.95588   0.93437   -1.000
 5800.00    0.95877   0.93626   -1.000
 5801.00    0.96090   0.93761   -1.000
 5802.00    0.96120   0.93765   -1.000
 5803.00    0.96156   0.93642   -1.000
 5804.00    0.96136   0.93478   -1.000
 5805.00    0.95854   0.93380   -1.000
 5806.00    0.95356   0.93402   -1.000
 5807.00    0.95004   0.93508   -1.000
 5808.00    0.95537   0.93634   -1.000
 5809.00    0.96260   0.93746   -1.000
 5810.00    0.96249   0.93842   -1.000
 5811.00    0.95950   0.93902   -1.000
 5812.00    0.96017   0.93884   -1.000
 5813.00    0.96014   0.93760   -1.000
 5814.00    0.95568   0.93565   -1.000
 5815.00    0.95472   0.93405   -1.000
 5816.00    0.95984   0.93390   -1.000
 5817.00    0.96131   0.93543   -1.000
 5818.00    0.95735   0.93775   -1.000
 5819.00    0.95854   0.93970   -1.000
 5820.00    0.96484   0.94078   -1.000
 5821.00    0.96670   0.94121   -1.000
 5822.00    0.96226   0.94137   -1.000
 5823.00    0.95855   0.94139   -1.000
 5824.00    0.95748   0.94133   -1.000
 5825.00    0.96254   0.94135   -1.000
 5826.00    0.96020   0.94161   -1.000
 5827.00    0.96173   0.94212   -1.000
 5828.00    0.96799   0.94266   -1.000
 5829.00    0.96724   0.94291   -1.000
 5830.00    0.96670   0.94268   -1.000
 5831.00    0.96602   0.94199   -1.000
 5832.00    0.96315   0.94086   -1.000
 5833.00    0.96385   0.93954   -1.000
 5834.00    0.96509   0.93852   -1.000
 5835.00    0.96248   0.93828   -1.000
 5836.00    0.96317   0.93890   -1.000
 5837.00    0.95801   0.94006   -1.000
 5838.00    0.95983   0.94130   -1.000
 5839.00    0.96272   0.94227   -1.000
 5840.00    0.96437   0.94270   -1.000
 5841.00    0.96183   0.94243   -1.000
 5842.00    0.95469   0.94138   -1.000
 5843.00    0.96083   0.93974   -1.000
 5844.00    0.96318   0.93777   -1.000
 5845.00    0.96217   0.93579   -1.000
 5846.00    0.96117   0.93417   -1.000
 5847.00    0.96186   0.93322   -1.000
 5848.00    0.96188   0.93272   -1.000
 5849.00    0.96068   0.93188   -1.000
 5850.00    0.95932   0.92975   -1.000
 5851.00    0.96134   0.92601   -1.000
 5852.00    0.95395   0.92152   -1.000
 5853.00    0.94373   0.91769   -1.000
 5854.00    0.94164   0.91484   -1.000
 5855.00    0.94612   0.91188   -1.000
 5856.00    0.94929   0.90821   -1.000
 5857.00    0.94301   0.90528   -1.000
 5858.00    0.94046   0.90523   -1.000
 5859.00    0.94684   0.90839   -1.000
 5860.00    0.95185   0.91310   -1.000
 5861.00    0.95455   0.91745   -1.000
 5862.00    0.95395   0.92069   -1.000
 5863.00    0.95242   0.92271   -1.000
 5864.00    0.94789   0.92330   -1.000
 5865.00    0.94648   0.92256   -1.000
 5866.00    0.94748   0.92151   -1.000
 5867.00    0.94659   0.92152   -1.000
 5868.00    0.94594   0.92309   -1.000
 5869.00    0.94701   0.92559   -1.000
 5870.00    0.95204   0.92774   -1.000
 5871.00    0.95867   0.92859   -1.000
 5872.00    0.95927   0.92800   -1.000
 5873.00    0.95341   0.92647   -1.000
 5874.00    0.95127   0.92462   -1.000
 5875.00    0.95191   0.92294   -1.000
 5876.00    0.95161   0.92152   -1.000
 5877.00    0.94906   0.92003   -1.000
 5878.00    0.94481   0.91813   -1.000
 5879.00    0.94309   0.91593   -1.000
 5880.00    0.94985   0.91367   -1.000
 5881.00    0.95115   0.91123   -1.000
 5882.00    0.95102   0.90831   -1.000
 5883.00    0.95707   0.90499   -1.000
 5884.00    0.95633   0.90132   -1.000
 5885.00    0.92732   0.89587   -1.000
 5886.00    0.87662   0.88489   -1.000
 5887.00    0.83315   0.86527   -1.000
 5888.00    0.83312   0.83993   -1.000
 5889.00    0.85847   0.81903   -1.000
 5890.00    0.87334   0.81217   -1.000
 5891.00    0.86781   0.81922   -1.000
 5892.00    0.85225   0.83044   -1.000
 5893.00    0.84753   0.83525   -1.000
 5894.00    0.85716   0.83113   -1.000
 5895.00    0.86834   0.82514   -1.000
 5896.00    0.87228   0.82632   -1.000
 5897.00    0.88475   0.83726   -1.000
 5898.00    0.90107   0.85356   -1.000
 5899.00    0.92153   0.86953   -1.000
 5900.00    0.93608   0.88236   -1.000
 5901.00    0.94113   0.89178   -1.000
 5902.00    0.94180   0.89828   -1.000
 5903.00    0.93976   0.90241   -1.000
 5904.00    0.93772   0.90485   -1.000
 5905.00    0.93551   0.90638   -1.000
 5906.00    0.93240   0.90755   -1.000
 5907.00    0.93657   0.90864   -1.000
 5908.00    0.93717   0.90967   -1.000
 5909.00    0.93740   0.91039   -1.000
 5910.00    0.94239   0.91029   -1.000
 5911.00    0.94288   0.90884   -1.000
 5912.00    0.93288   0.90578   -1.000
 5913.00    0.92590   0.90177   -1.000
 5914.00    0.92319   0.89824   -1.000
 5915.00    0.92024   0.89643   -1.000
 5916.00    0.92046   0.89671   -1.000
 5917.00    0.92313   0.89866   -1.000
 5918.00    0.92882   0.90140   -1.000
 5919.00    0.93187   0.90387   -1.000
 5920.00    0.93176   0.90545   -1.000
 5921.00    0.93098   0.90615   -1.000
 5922.00    0.93085   0.90649   -1.000
 5923.00    0.93564   0.90715   -1.000
 5924.00    0.94184   0.90840   -1.000
 5925.00    0.94117   0.90980   -1.000
 5926.00    0.93508   0.91048   -1.000
 5927.00    0.93450   0.90966   -1.000
 5928.00    0.93705   0.90750   -1.000
 5929.00    0.93585   0.90534   -1.000
 5930.00    0.93172   0.90457   -1.000
 5931.00    0.92845   0.90530   -1.000
 5932.00    0.93083   0.90642   -1.000
 5933.00    0.93206   0.90685   -1.000
 5934.00    0.92789   0.90675   -1.000
 5935.00    0.91975   0.90698   -1.000
 5936.00    0.91638   0.90780   -1.000
 5937.00    0.91862   0.90842   -1.000
 5938.00    0.91977   0.90789   -1.000
 5939.00    0.92216   0.90609   -1.000
 5940.00    0.92325   0.90382   -1.000
 5941.00    0.92210   0.90210   -1.000
 5942.00    0.91729   0.90150   -1.000
 5943.00    0.92034   0.90211   -1.000
 5944.00    0.92335   0.90327   -1.000
 5945.00    0.92241   0.90392   -1.000
 5946.00    0.92582   0.90339   -1.000
 5947.00    0.92996   0.90209   -1.000
 5948.00    0.93186   0.90131   -1.000
 5949.00    0.92778   0.90172   -1.000
 5950.00    0.92083   0.90278   -1.000
 5951.00    0.92343   0.90355   -1.000
 5952.00    0.92543   0.90370   -1.000
 5953.00    0.92221   0.90351   -1.000
 5954.00    0.92465   0.90297   -1.000
 5955.00    0.92552   0.90209   -1.000
 5956.00    0.92485   0.90137   -1.000
 5957.00    0.92549   0.90163   -1.000
 5958.00    0.92956   0.90323   -1.000
 5959.00    0.92821   0.90569   -1.000
 5960.00    0.92838   0.90818   -1.000
 5961.00    0.92800   0.90998   -1.000
 5962.00    0.92492   0.91062   -1.000
 5963.00    0.92110   0.90999   -1.000
 5964.00    0.92103   0.90848   -1.000
 5965.00    0.92287   0.90687   -1.000
 5966.00    0.92343   0.90596   -1.000
 5967.00    0.92900   0.90603   -1.000
 5968.00    0.93079   0.90686   -1.000
 5969.00    0.93358   0.90811   -1.000
 5970.00    0.93603   0.90939   -1.000
 5971.00    0.93028   0.91024   -1.000
 5972.00    0.92565   0.91028   -1.000
 5973.00    0.92358   0.90923   -1.000
 5974.00    0.92153   0.90700   -1.000
 5975.00    0.92186   0.90413   -1.000
 5976.00    0.92340   0.90170   -1.000
 5977.00    0.92315   0.90075   -1.000
 5978.00    0.92331   0.90160   -1.000
 5979.00    0.92449   0.90349   -1.000
 5980.00    0.92455   0.90495   -1.000
 5981.00    0.92415   0.90469   -1.000
 5982.00    0.92186   0.90256   -1.000
 5983.00    0.92203   0.89969   -1.000
 5984.00    0.92246   0.89775   -1.000
 5985.00    0.91987   0.89764   -1.000
 5986.00    0.91836   0.89905   -1.000
 5987.00    0.91778   0.90097   -1.000
 5988.00    0.91834   0.90244   -1.000
 5989.00    0.92273   0.90299   -1.000
 5990.00    0.92555   0.90307   -1.000
 5991.00    0.92494   0.90363   -1.000
 5992.00    0.92445   0.90526   -1.000
 5993.00    0.92227   0.90739   -1.000
 5994.00    0.91885   0.90869   -1.000
 5995.00    0.92046   0.90845   -1.000
 5996.00    0.92351   0.90705   -1.000
 5997.00    0.91836   0.90560   -1.000
 5998.00    0.91503   0.90485   -1.000
 5999.00    0.92000   0.90463   -1.000
 6000.00    0.92154   0.90425   -1.000
 6001.00    0.91676   0.90333   -1.000
 6002.00    0.91509   0.90211   -1.000
 6003.00    0.91505   0.90108   -1.000
 6004.00    0.91215   0.90011   -1.000
 6005.00    0.91433   0.89855   -1.000
 6006.00    0.91554   0.89626   -1.000
 6007.00    0.91384   0.89429   -1.000
 6008.00    0.91403   0.89413   -1.000
 6009.00    0.91548   0.89603   -1.000
 6010.00    0.91443   0.89851   -1.000
 6011.00    0.91155   0.89992   -1.000
 6012.00    0.91286   0.89999   -1.000
 6013.00    0.91541   0.89958   -1.000
 6014.00    0.91469   0.89938   -1.000
 6015.00    0.91261   0.89921   -1.000
 6016.00    0.91098   0.89870   -1.000
 6017.00    0.91019   0.89762   -1.000
 6018.00    0.91324   0.89602   -1.000
 6019.00    0.91413   0.89426   -1.000
 6020.00    0.91042   0.89290   -1.000
 6021.00    0.90736   0.89237   -1.000
 6022.00    0.91039   0.89268   -1.000
 6023.00    0.91024   0.89381   -1.000
 6024.00    0.90685   0.89579   -1.000
 6025.00    0.90820   0.89827   -1.000
 6026.00    0.91084   0.90072   -1.000
 6027.00    0.90879   0.90282   -1.000
 6028.00    0.91267   0.90451   -1.000
 6029.00    0.91671   0.90580   -1.000
 6030.00    0.91785   0.90675   -1.000
 6031.00    0.92128   0.90740   -1.000
 6032.00    0.92049   0.90792   -1.000
 6033.00    0.91839   0.90853   -1.000
 6034.00    0.91260   0.90924  526.781
 6035.00    0.91340   0.90963  528.961
 6036.00    0.91744   0.90922   -1.000
 6037.00    0.91801   0.90793   -1.000
 6038.00    0.91352   0.90601   -1.000
 6039.00    0.90930   0.90373   -1.000
 6040.00    0.90990   0.90129   -1.000
 6041.00    0.90740   0.89856   -1.000
 6042.00    0.90776   0.89638   -1.000
 6043.00    0.91124   0.89674   -1.000
 6044.00    0.91205   0.89972   -1.000
 6045.00    0.90649   0.90353  523.239
 6046.00    0.90415   0.90642  524.815
 6047.00    0.91041   0.90779  525.548
 6048.00    0.91293   0.90783   -1.000
 6049.00    0.91224   0.90717   -1.000
 6050.00    0.91354   0.90641   -1.000
 6051.00    0.91169   0.90566   -1.000
 6052.00    0.91058   0.90475   -1.000
 6053.00    0.90774   0.90340  534.671
 6054.00    0.91227   0.90171   -1.000
 6055.00    0.92074   0.90021   -1.000
 6056.00    0.93569   0.89949   -1.000
 6057.00    0.73121   0.89972   -1.000
 6058.00    0.34394   0.90060   -1.000
 6059.00    0.43066   0.90151   -1.000
 6060.00    0.80813   0.90163   -1.000
 6061.00    0.92471   0.90021   -1.000
 6062.00    0.94282   0.89697   -1.000
 6063.00    0.73852   0.89265   -1.000
 6064.00    0.40680   0.88899   -1.000
 6065.00    0.62012   0.88805   -1.000
 6066.00    0.91538   0.89048   -1.000
 6067.00    0.88949   0.89484  511.573
 6068.00    0.89790   0.89915  514.939
 6069.00    0.90328   0.90226  523.297
 6070.00    0.90486   0.90411  524.483
 6071.00    0.89737   0.90523   -1.000
 6072.00    0.89649   0.90596   -1.000
 6073.00    0.90076   0.90619  530.939
 6074.00    0.89884   0.90562   -1.000
 6075.00    0.89593   0.90411   -1.000
 6076.00    0.89680   0.90192  539.933
 6077.00    0.90044   0.89962  540.131
 6078.00    0.89898   0.89781  541.254
 6079.00    0.89770   0.89671  542.012
 6080.00    0.89761   0.89589  541.649
 6081.00    0.89435   0.89486  541.149
 6082.00    0.89520   0.89368  540.014
 6083.00    0.89694   0.89285  538.034
 6084.00    0.89520   0.89274  537.598
 6085.00    0.89337   0.89338  540.111
 6086.00    0.89234   0.89454  542.977
 6087.00    0.89155   0.89562  543.772
 6088.00    0.89363   0.89601  541.545
 6089.00    0.89701   0.89546  538.295
 6090.00    0.89726   0.89438  535.489
 6091.00    0.89613   0.89367  532.809
 6092.00    0.89472   0.89391  531.937
 6093.00    0.89317   0.89510  532.928
 6094.00    0.89244   0.89682  533.769
 6095.00    0.89046   0.89858   -1.000
 6096.00    0.88980   0.90010   -1.000
 6097.00    0.89060   0.90087   -1.000
 6098.00    0.88751   0.90002   -1.000
 6099.00    0.88616   0.89653   -1.000
 6100.00    0.88743   0.89017  552.111
 6101.00    0.88231   0.88253  542.478
 6102.00    0.87407   0.87701  538.001
 6103.00    0.87169   0.87634  538.715
 6104.00    0.87285   0.88027   -1.000
 6105.00    0.87910   0.88614   -1.000
 6106.00    0.88524   0.89153  540.107
 6107.00    0.88617   0.89546   -1.000
 6108.00    0.88611   0.89807   -1.000
 6109.00    0.88293   0.89947   -1.000
 6110.00    0.88171   0.89970   -1.000
 6111.00    0.88030   0.89914   -1.000
 6112.00    0.88530   0.89853   -1.000
 6113.00    0.89144   0.89829   -1.000
 6114.00    0.88736   0.89837   -1.000
 6115.00    0.88296   0.89841   -1.000
 6116.00    0.88410   0.89797   -1.000
 6117.00    0.88477   0.89631   -1.000
 6118.00    0.88072   0.89227   -1.000
 6119.00    0.87640   0.88578   -1.000
 6120.00    0.87346   0.87792  548.991
 6121.00    0.87147   0.87143  546.037
 6122.00    0.86624   0.86969  548.194
 6123.00    0.86470   0.87305   -1.000
 6124.00    0.87205   0.87902   -1.000
 6125.00    0.87623   0.88443   -1.000
 6126.00    0.87807   0.88728   -1.000
 6127.00    0.87884   0.88765   -1.000
 6128.00    0.87933   0.88759   -1.000
 6129.00    0.87877   0.88930   -1.000
 6130.00    0.87730   0.89256   -1.000
 6131.00    0.88055   0.89558   -1.000
 6132.00    0.88265   0.89622   -1.000
 6133.00    0.87853   0.89253   -1.000
 6134.00    0.87004   0.88390   -1.000
 6135.00    0.86150   0.87233   -1.000
 6136.00    0.85208   0.86255   -1.000
 6137.00    0.84194   0.85853   -1.000
 6138.00    0.84284   0.85995   -1.000
 6139.00    0.85054   0.86308   -1.000
 6140.00    0.85183   0.86571   -1.000
 6141.00    0.85061   0.86878   -1.000
 6142.00    0.85380   0.87360   -1.000
 6143.00    0.86088   0.87952   -1.000
 6144.00    0.86770   0.88427   -1.000
 6145.00    0.87265   0.88625   -1.000
 6146.00    0.87265   0.88555   -1.000
 6147.00    0.86825   0.88344   -1.000
 6148.00    0.86468   0.88152   -1.000
 6149.00    0.86478   0.88087   -1.000
 6150.00    0.86735   0.88160   -1.000
 6151.00    0.86984   0.88308   -1.000
 6152.00    0.87104   0.88424   -1.000
 6153.00    0.87192   0.88417   -1.000
 6154.00    0.87079   0.88287   -1.000
 6155.00    0.86893   0.88104   -1.000
 6156.00    0.86491   0.87917   -1.000
 6157.00    0.86170   0.87694   -1.000
 6158.00    0.86277   0.87297   -1.000
 6159.00    0.85941   0.86563   -1.000
 6160.00    0.85411   0.85522  593.948
 6161.00    0.84719   0.84529  581.565
 6162.00    0.84231   0.84026  576.985
 6163.00    0.84154   0.84169  577.210
 6164.00    0.84417   0.84735  582.540
 6165.00    0.85319   0.85349  589.493
 6166.00    0.85965   0.85728  589.077
 6167.00    0.85823   0.85778  579.805
 6168.00    0.85429   0.85612  570.120
 6169.00    0.85125   0.85508  567.537
 6170.00    0.84952   0.85677   -1.000
 6171.00    0.85092   0.86097   -1.000
 6172.00    0.85016   0.86607   -1.000
 6173.00    0.85345   0.87060   -1.000
 6174.00    0.85982   0.87396   -1.000
 6175.00    0.86310   0.87602   -1.000
 6176.00    0.86273   0.87716   -1.000
 6177.00    0.85984   0.87780   -1.000
 6178.00    0.86234   0.87815   -1.000
 6179.00    0.86395   0.87854   -1.000
 6180.00    0.86181   0.87927   -1.000
 6181.00    0.86289   0.88027   -1.000
 6182.00    0.86456   0.88112   -1.000
 6183.00    0.86894   0.88138   -1.000
 6184.00    0.86677   0.88084   -1.000
 6185.00    0.86490   0.87937   -1.000
 6186.00    0.86465   0.87699   -1.000
 6187.00    0.85979   0.87363   -1.000
 6188.00    0.85566   0.86901   -1.000
 6189.00    0.85066   0.86340   -1.000
 6190.00    0.84462   0.85851   -1.000
 6191.00    0.83675   0.85700   -1.000
 6192.00    0.83628   0.85991   -1.000
 6193.00    0.84437   0.86564   -1.000
 6194.00    0.85462   0.87164   -1.000
 6195.00    0.86004   0.87603   -1.000
 6196.00    0.86062   0.87808   -1.000
 6197.00    0.86164   0.87783   -1.000
 6198.00    0.85993   0.87610   -1.000
 6199.00    0.85475   0.87456   -1.000
 6200.00    0.85027   0.87466   -1.000
 6201.00    0.84973   0.87654   -1.000
 6202.00    0.85133   0.87935   -1.000
 6203.00    0.85487   0.88196   -1.000
 6204.00    0.85721   0.88377   -1.000
 6205.00    0.85523   0.88473   -1.000
 6206.00    0.85366   0.88507   -1.000
 6207.00    0.85476   0.88492   -1.000
 6208.00    0.85524   0.88418   -1.000
 6209.00    0.85443   0.88253   -1.000
 6210.00    0.85281   0.87972   -1.000
 6211.00    0.85021   0.87563   -1.000
 6212.00    0.84741   0.87083   -1.000
 6213.00    0.84287   0.86653   -1.000
 6214.00    0.83999   0.86377   -1.000
 6215.00    0.84182   0.86259   -1.000
 6216.00    0.84633   0.86219   -1.000
 6217.00    0.84806   0.86156   -1.000
 6218.00    0.84586   0.86067   -1.000
 6219.00    0.83873   0.86035   -1.000
 6220.00    0.83563   0.86135   -1.000
 6221.00    0.83881   0.86354   -1.000
 6222.00    0.84378   0.86581   -1.000
 6223.00    0.84636   0.86751   -1.000
 6224.00    0.84655   0.86843   -1.000
 6225.00    0.84773   0.86847   -1.000
 6226.00    0.84748   0.86718   -1.000
 6227.00    0.84334   0.86379   -1.000
 6228.00    0.83833   0.85821   -1.000
 6229.00    0.83327   0.85196   -1.000
 6230.00    0.82634   0.84763   -1.000
 6231.00    0.82405   0.84728   -1.000
 6232.00    0.82141   0.85088   -1.000
 6233.00    0.82105   0.85644   -1.000
 6234.00    0.82983   0.86125   -1.000
 6235.00    0.83777   0.86339   -1.000
 6236.00    0.83882   0.86262   -1.000
 6237.00    0.83564   0.86008   -1.000
 6238.00    0.83350   0.85740   -1.000
 6239.00    0.83446   0.85566   -1.000
 6240.00    0.83109   0.85474   -1.000
 6241.00    0.82849   0.85362   -1.000
 6242.00    0.82909   0.85134   -1.000
 6243.00    0.82609   0.84795   -1.000
 6244.00    0.82006   0.84448   -1.000
 6245.00    0.81815   0.84269   -1.000
 6246.00    0.81923   0.84392   -1.000
 6247.00    0.82098   0.84791   -1.000
 6248.00    0.82549   0.85267   -1.000
 6249.00    0.82947   0.85554   -1.000
 6250.00    0.82763   0.85483   -1.000
 6251.00    0.82325   0.85106   -1.000
 6252.00    0.81812   0.84640   -1.000
 6253.00    0.81138   0.84299   -1.000
 6254.00    0.80836   0.84155   -1.000
 6255.00    0.81019   0.84155   -1.000
 6256.00    0.81170   0.84212   -1.000
 6257.00    0.81045   0.84316   -1.000
 6258.00    0.81019   0.84508   -1.000
 6259.00    0.81221   0.84814   -1.000
 6260.00    0.81716   0.85193   -1.000
 6261.00    0.81846   0.85575   -1.000
 6262.00    0.81505   0.85873   -1.000
 6263.00    0.81685   0.86036   -1.000
 6264.00    0.81647   0.86095   -1.000
 6265.00    0.81489   0.86134   -1.000
 6266.00    0.82144   0.86194   -1.000
 6267.00    0.82517   0.86215   -1.000
 6268.00    0.82473   0.86140   -1.000
 6269.00    0.82313   0.85986   -1.000
 6270.00    0.81383   0.85824   -1.000
 6271.00    0.79946   0.85680   -1.000
 6272.00    0.78472   0.85486   -1.000
 6273.00    0.77311   0.85136   -1.000
 6274.00    0.77049   0.84593   -1.000
 6275.00    0.77663   0.83941   -1.000
 6276.00    0.78291   0.83316   -1.000
 6277.00    0.78741   0.82859   -1.000
 6278.00    0.79610   0.82634   -1.000
 6279.00    0.80231   0.82674   -1.000
 6280.00    0.80136   0.82980   -1.000
 6281.00    0.80374   0.83500   -1.000
 6282.00    0.80995   0.84131   -1.000
 6283.00    0.81201   0.84744   -1.000
 6284.00    0.80618   0.85233   -1.000
 6285.00    0.80381   0.85563   -1.000
 6286.00    0.80744   0.85744   -1.000
 6287.00    0.80910   0.85780   -1.000
 6288.00    0.80827   0.85671   -1.000
 6289.00    0.81100   0.85464   -1.000
 6290.00    0.82298   0.85248   -1.000
 6291.00    0.84954   0.85094  596.451
 6292.00    0.90088   0.85006   -1.000
 6293.00    0.97147   0.84928   -1.000
 6294.00    1.08098   0.84787   -1.000
 6295.00    1.17307   0.84561   -1.000
 6296.00    1.05817   0.84302   -1.000
 6297.00    0.81572   0.84081   -1.000
 6298.00    0.69456   0.83931   -1.000
 6299.00    0.73254   0.83823   -1.000
 6300.00    0.78840   0.83757   -1.000
 6301.00    0.79927   0.83817   -1.000
 6302.00    0.79609   0.84072   -1.000
 6303.00    0.79341   0.84478   -1.000
 6304.00    0.79367   0.84902   -1.000
 6305.00    0.79926   0.85233   -1.000
 6306.00    0.80474   0.85451   -1.000
 6307.00    0.81072   0.85573   -1.000
 6308.00    0.81394   0.85633   -1.000
 6309.00    0.81293   0.85643   -1.000
 6310.00    0.81063   0.85592   -1.000
 6311.00    0.81025   0.85478   -1.000
 6312.00    0.81113   0.85298   -1.000
 6313.00    0.80717   0.85066   -1.000
 6314.00    0.80431   0.84817   -1.000
 6315.00    0.80370   0.84580   -1.000
 6316.00    0.80491   0.84388   -1.000
 6317.00    0.80642   0.84303   -1.000
 6318.00    0.80810   0.84410   -1.000
 6319.00    0.80724   0.84694   -1.000
 6320.00    0.80582   0.85051   -1.000
 6321.00    0.80796   0.85391   -1.000
 6322.00    0.81029   0.85695   -1.000
 6323.00    0.80994   0.85965   -1.000
 6324.00    0.81270   0.86161   -1.000
 6325.00    0.81694   0.86253   -1.000
 6326.00    0.81956   0.86254   -1.000
 6327.00    0.82250   0.86203   -1.000
 6328.00    0.81689   0.86151   -1.000
 6329.00    0.81347   0.86126   -1.000
 6330.00    0.81673   0.86120   -1.000
 6331.00    0.81542   0.86076   -1.000
 6332.00    0.81512   0.85899   -1.000
 6333.00    0.81730   0.85541   -1.000
 6334.00    0.81469   0.85080   -1.000
 6335.00    0.81251   0.84726   -1.000
 6336.00    0.80526   0.84644   -1.000
 6337.00    0.80301   0.84832   -1.000
 6338.00    0.80752   0.85164   -1.000
 6339.00    0.81520   0.85497   -1.000
 6340.00    0.82031   0.85729   -1.000
 6341.00    0.81418   0.85816   -1.000
 6342.00    0.81650   0.85759   -1.000
 6343.00    0.81846   0.85603   -1.000
 6344.00    0.81830   0.85425   -1.000
 6345.00    0.81858   0.85315   -1.000
 6346.00    0.81905   0.85356   -1.000
 6347.00    0.81948   0.85574   -1.000
 6348.00    0.81999   0.85905   -1.000
 6349.00    0.82256   0.86224   -1.000
 6350.00    0.82366   0.86419   -1.000
 6351.00    0.82343   0.86437   -1.000
 6352.00    0.82037   0.86300   -1.000
 6353.00    0.81980   0.86086   -1.000
 6354.00    0.82687   0.85878   -1.000
 6355.00    0.84201   0.85710   -1.000
 6356.00    0.85984   0.85560  581.345
 6357.00    0.88028   0.85395   -1.000
 6358.00    0.91202   0.85225   -1.000
 6359.00    0.90347   0.85068   -1.000
 6360.00    0.83934   0.84929   -1.000
 6361.00    0.77838   0.84825   -1.000
 6362.00    0.77119   0.84798   -1.000
 6363.00    0.79109   0.84884   -1.000
 6364.00    0.80434   0.85059   -1.000
 6365.00    0.80634   0.85259   -1.000
 6366.00    0.81062   0.85424   -1.000
 6367.00    0.81115   0.85497   -1.000
 6368.00    0.80691   0.85457   -1.000
 6369.00    0.80014   0.85358   -1.000
 6370.00    0.80321   0.85291   -1.000
 6371.00    0.80444   0.85334   -1.000
 6372.00    0.79990   0.85489   -1.000
 6373.00    0.80059   0.85665   -1.000
 6374.00    0.79622   0.85767   -1.000
 6375.00    0.79340   0.85761   -1.000
 6376.00    0.78706   0.85667   -1.000
 6377.00    0.78756   0.85537   -1.000
 6378.00    0.79258   0.85402   -1.000
 6379.00    0.78984   0.85281   -1.000
 6380.00    0.78314   0.85185   -1.000
 6381.00    0.77888   0.85125   -1.000
 6382.00    0.77572   0.85110   -1.000
 6383.00    0.76955   0.85149   -1.000
 6384.00    0.76692   0.85239   -1.000
 6385.00    0.76910   0.85365   -1.000
 6386.00    0.76590   0.85488   -1.000
 6387.00    0.76259   0.85553   -1.000
 6388.00    0.75749   0.85523   -1.000
 6389.00    0.75353   0.85363   -1.000
 6390.00    0.74694   0.85050   -1.000
 6391.00    0.74210   0.84637   -1.000
 6392.00    0.73662   0.84277   -1.000
 6393.00    0.72970   0.84151   -1.000
 6394.00    0.72315   0.84298   -1.000
 6395.00    0.71877   0.84563   -1.000
 6396.00    0.72087   0.84709   -1.000
 6397.00    0.72385   0.84593   -1.000
 6398.00    0.71802   0.84293   -1.000
 6399.00    0.70539   0.84056   -1.000
 6400.00    0.69798   0.84092   -1.000
 6401.00    0.69720   0.84412   -1.000
 6402.00    0.69660   0.84841   -1.000
 6403.00    0.69566   0.85161   -1.000
 6404.00    0.69431   0.85230   -1.000
 6405.00    0.69036   0.85027   -1.000
 6406.00    0.68423   0.84668   -1.000
 6407.00    0.68051   0.84309   -1.000
 6408.00    0.67516   0.84125   -1.000
 6409.00    0.66885   0.84147   -1.000
 6410.00    0.66659   0.84246   -1.000
 6411.00    0.65706   0.84363   -1.000
 6412.00    0.64942   0.84466   -1.000
 6413.00    0.65110   0.84548   -1.000
 6414.00    0.64629   0.84603   -1.000
 6415.00    0.63905   0.84661   -1.000
 6416.00    0.63311   0.84698   -1.000
 6417.00    0.63022   0.84645   -1.000
 6418.00    0.62633   0.84474   -1.000
 6419.00    0.61452   0.84253   -1.000
 6420.00    0.60258   0.84144   -1.000
 6421.00    0.59220   0.84278   -1.000
 6422.00    0.58569   0.84634   -1.000
 6423.00    0.58510   0.85067   -1.000
 6424.00    0.58435   0.85447   -1.000
 6425.00    0.58081   0.85690   -1.000
 6426.00    0.57383   0.85744   -1.000
 6427.00    0.18851   0.85563   -1.000
 6428.00    0.00000   0.85153   -2.000
