###################################################################
## OUTPUT of StarlightChains_v04.for    [Cid@UFSC - 01/Apr/2007] ##
###################################################################

## Some input info
NGC1904_b_1.cxt                          [arq_obs]
Base.BC03.S                              [arq_base]
NGC1904_b_1.msk                          [arq_masks]
StCv04.C11.config                        [arq_config]
  150                                    [N_base]
    0                                    [N_YAV_components = # of components with extra extinction!]
    0                                    [i_FitPowerLaw (1/0 = Yes/No)]
-9.99                                    [alpha_PowerLaw]
CCM                                      [red_law_option]
 1.458241                                [q_norm = A(l_norm)/A(V)]

## (Re)Sampling Parameters
 3359.00                                 [l_ini (A)]
 6428.00                                 [l_fin (A)]
    1.00                                 [dl    (A)]     (OBS: dl_cushion =    50.00 A)

## Normalization info
 4020.00                                 [l_norm (A) - for base]
 4010.00                                 [llow_norm (A) - window for f_obs]
 4060.00                                 [lupp_norm (A) - window for f_obs]
3.423556E-14                             [fobs_norm (in input units)]

## S/N
 4730.00                                 [llow_SN (A) - window for S/N]
 4780.00                                 [lupp_SN (A) - window for S/N]
 126.287                                 [S/N in S/N window]
 125.997                                 [S/N in norm. window]
 129.607                                 [S/N_err in S/N window]
 129.310                                 [S/N_err in norm. window]
  1.0000                                 [fscale_chi2]

## etc...
  2147483645                             [idum_orig]
  3066                                   [NOl_eff]
  2184                                   [Nl_eff]
   882    NSIGMA                         [Ntot_cliped & clip_method]
  1303470                                [Nglobal_steps]
   7                                     [N_chains]
  15                                     [NEX0s_base = N_base in EX0s-fits]
 0   0   1      245   2.0   2.750E+02    [Clip-Bug, RC-Crash & Burn-In warning-flags, n_censored_weights, wei_nsig_threshold & wei_limit]
    61     61.413     61.409      0.004  [idt_all, wdt_TotTime, wdt_UsrTime & wdt_SysTime (sec)]

## Synthesis Results - Best model ##

 2.10096E+00                             [chi2/Nl_eff]
     1.13658                             [adev (%)]

   101.39396                             [sum-of-x (%)]
 4.04706E-14                             [Flux_tot (units of input spectrum!)]
 3.67578E-10                             [Mini_tot (???)]
 1.93207E-10                             [Mcor_tot (???)]

 -22.68                                  [v0_min  (km/s)]
  68.28                                  [vd_min  (km/s)]
 0.1143                                  [AV_min  (mag)]
 0.0000                                  [YAV_min (mag)]

# j     x_j(%)      Mini_j(%)     Mcor_j(%)     age_j(yr)     Z_j      (L/M)_j    YAV?  Mstars   component_j        a/Fe...       SSP_chi2r SSP_adev(%)   SSP_AV   SSP_x(%)
  1      0.0000     0.0000E+00    0.0000E+00    1.000000E+06  0.00010  8.160E-03    0   1.0000   age020_m22            0.0000     3.3428E+02    11.2385   3.4176    74.6259
  2     17.2295     3.9313E-02    7.4793E-02    3.160000E+06  0.00010  4.759E-02    0   1.0000   age045_m22            0.0000     3.8368E+01     4.2056   1.3666    95.6694
  3      0.0000     0.0000E+00    0.0000E+00    5.010000E+06  0.00010  1.932E-02    0   0.9582   age055_m22            0.0000     2.9470E+02    11.3399   1.7170    80.7369
  4      0.0000     0.0000E+00    0.0000E+00    6.610000E+06  0.00010  9.973E-03    0   0.9297   age061_m22            0.0000     3.2315E+02    11.4697   3.3769    77.3306
  5      0.0000     0.0000E+00    0.0000E+00    8.710000E+06  0.00010  7.690E-03    0   0.9030   age067_m22            0.0000     3.0609E+02    11.1593   3.3673    77.8150
  6      0.0000     0.0000E+00    0.0000E+00    1.000000E+07  0.00010  6.375E-03    0   0.8902   age070_m22            0.0000     2.9238E+02    10.8922   3.3792    78.0341
  7      0.0000     0.0000E+00    0.0000E+00    1.445000E+07  0.00010  4.874E-03    0   0.8589   age078_m22            0.0000     2.1549E+02     9.3856   3.1917    81.1567
  8      0.0000     0.0000E+00    0.0000E+00    2.512000E+07  0.00010  4.103E-03    0   0.8174   age090_m22            0.0000     8.6134E+01     6.1624   2.7671    88.3151
  9      0.0000     0.0000E+00    0.0000E+00    4.000000E+07  0.00010  3.654E-03    0   0.7830   age104_m22            0.0000     3.8757E+01     3.9017   2.4501    93.9289
 10      0.0000     0.0000E+00    0.0000E+00    5.500000E+07  0.00010  3.093E-03    0   0.7597   age110_m22            0.0000     3.3561E+01     3.2975   2.3414    95.8545
 11      0.0000     0.0000E+00    0.0000E+00    1.015200E+08  0.00010  2.431E-03    0   0.7138   age116_m22            0.0000     4.5890E+01     3.1418   1.9851    99.2809
 12      0.0000     0.0000E+00    0.0000E+00    1.609000E+08  0.00010  1.319E-03    0   0.6775   age120_m22            0.0000     4.4646E+01     3.0358   1.5086   101.6244
 13      0.0000     0.0000E+00    0.0000E+00    2.861200E+08  0.00010  1.075E-03    0   0.6412   age125_m22            0.0000     1.7110E+02     5.7630   1.5439   106.6893
 14      0.0000     0.0000E+00    0.0000E+00    5.088000E+08  0.00010  7.183E-04    0   0.6083   age130_m22            0.0000     2.2718E+02     7.0032   1.3045   108.9009
 15      0.0000     0.0000E+00    0.0000E+00    9.047900E+08  0.00010  4.524E-04    0   0.5785   age135_m22            0.0000     2.3423E+02     7.2541   1.1049   110.1966
 16      0.0000     0.0000E+00    0.0000E+00    1.278050E+09  0.00010  3.018E-04    0   0.5588   age138_m22            0.0000     9.0350E+01     4.4760   0.5888   107.4639
 17      0.0000     0.0000E+00    0.0000E+00    1.434000E+09  0.00010  2.691E-04    0   0.5532   age139_m22            0.0000     6.8431E+01     3.9466   0.4370   106.6708
 18      0.0000     0.0000E+00    0.0000E+00    2.500000E+09  0.00010  1.582E-04    0   0.5296   age150_m22            0.0000     5.3790E+01     3.4102   0.3308   107.0544
 19      0.0000     0.0000E+00    0.0000E+00    4.250000E+09  0.00010  1.007E-04    0   0.5110   age158_m22            0.0000     1.9421E+01     2.2389   0.1869   104.8181
 20      0.0000     0.0000E+00    0.0000E+00    6.250000E+09  0.00010  6.869E-05    0   0.4985   age166_m22            0.0000     4.3578E+00     1.3799   0.1381   101.4879
 21      0.0969     1.7921E-01    1.6812E-01    7.500000E+09  0.00010  5.873E-05    0   0.4931   age171_m22            0.0000     4.4581E+00     1.4441   0.1288   100.7915
 22      0.0000     0.0000E+00    0.0000E+00    1.000000E+10  0.00010  4.481E-05    0   0.4854   age181_m22            0.0000     4.1886E+00     1.4205   0.0906   100.4281
 23      0.0000     0.0000E+00    0.0000E+00    1.300000E+10  0.00010  3.489E-05    0   0.4791   age193_m22            0.0000     3.7833E+00     1.3809   0.0342    99.8554
 24      0.1064     3.8078E-01    3.4527E-01    1.500000E+10  0.00010  3.035E-05    0   0.4766   age201_m22            0.0000     3.7679E+00     1.3858  -0.0044    99.6272
 25      0.0000     0.0000E+00    0.0000E+00    1.800000E+10  0.00010  2.510E-05    0   0.4735   age213_m22            0.0000     4.4140E+00     1.4642  -0.0714    98.9168
 26      0.0000     0.0000E+00    0.0000E+00    1.000000E+06  0.00040  8.458E-03    0   1.0000   age020_m32            0.0000     3.2830E+02    11.2349   3.4309    75.2797
 27      0.0000     0.0000E+00    0.0000E+00    3.160000E+06  0.00040  3.973E-02    0   1.0000   age045_m32            0.0000     9.9903E+01     6.6471   2.6644    88.1962
 28      0.0000     0.0000E+00    0.0000E+00    5.010000E+06  0.00040  1.935E-02    0   0.9532   age055_m32            0.0000     2.4078E+02    10.2068   2.9165    81.4035
 29      0.0000     0.0000E+00    0.0000E+00    6.610000E+06  0.00040  1.204E-02    0   0.9243   age061_m32            0.0000     2.6858E+02    10.5107   3.2321    79.4664
 30      0.0000     0.0000E+00    0.0000E+00    8.710000E+06  0.00040  9.433E-03    0   0.9001   age067_m32            0.0000     2.4010E+02     9.9489   3.2012    80.4694
 31      0.0000     0.0000E+00    0.0000E+00    1.000000E+07  0.00040  8.053E-03    0   0.8877   age070_m32            0.0000     2.2897E+02     9.7165   3.1639    80.9803
 32      0.0000     0.0000E+00    0.0000E+00    1.445000E+07  0.00040  7.027E-03    0   0.8578   age078_m32            0.0000     1.3143E+02     7.6709   2.6305    86.6064
 33      0.0000     0.0000E+00    0.0000E+00    2.512000E+07  0.00040  4.707E-03    0   0.8166   age090_m32            0.0000     7.0933E+01     5.7711   2.3222    91.0792
 34      0.0000     0.0000E+00    0.0000E+00    4.000000E+07  0.00040  3.714E-03    0   0.7827   age104_m32            0.0000     3.7400E+01     3.9979   2.1057    95.0931
 35      0.0000     0.0000E+00    0.0000E+00    5.500000E+07  0.00040  2.982E-03    0   0.7593   age110_m32            0.0000     3.3084E+01     3.4572   2.0385    96.5949
 36      0.0000     0.0000E+00    0.0000E+00    1.015200E+08  0.00040  2.188E-03    0   0.7143   age116_m32            0.0000     7.2254E+01     3.5176   1.7494   102.1415
 37      0.0000     0.0000E+00    0.0000E+00    1.609000E+08  0.00040  1.690E-03    0   0.6856   age120_m32            0.0000     1.2862E+02     4.5964   1.5292   105.4656
 38      0.0000     0.0000E+00    0.0000E+00    2.861200E+08  0.00040  1.152E-03    0   0.6509   age125_m32            0.0000     1.8627E+02     6.1200   1.2926   108.0023
 39      0.0000     0.0000E+00    0.0000E+00    5.088000E+08  0.00040  7.331E-04    0   0.6182   age130_m32            0.0000     2.1098E+02     6.8122   1.1250   109.0129
 40      0.0000     0.0000E+00    0.0000E+00    9.047900E+08  0.00040  3.960E-04    0   0.5890   age135_m32            0.0000     9.6767E+01     4.9595   0.6783   106.9076
 41      0.0000     0.0000E+00    0.0000E+00    1.278050E+09  0.00040  2.854E-04    0   0.5687   age138_m32            0.0000     6.7606E+01     3.8565   0.3937   108.2430
 42      0.0000     0.0000E+00    0.0000E+00    1.434000E+09  0.00040  2.531E-04    0   0.5632   age139_m32            0.0000     6.4963E+01     3.7456   0.3325   108.1802
 43     20.6027     1.5035E+01    1.5406E+01    2.500000E+09  0.00040  1.488E-04    0   0.5386   age150_m32            0.0000     3.6481E+01     2.8784   0.0763   106.1985
 44     45.4419     5.4332E+01    5.3740E+01    4.250000E+09  0.00040  9.082E-05    0   0.5199   age158_m32            0.0000     3.7805E+00     1.2600  -0.0079   101.9681
 45      2.2562     3.8509E+00    3.7189E+00    6.250000E+09  0.00040  6.362E-05    0   0.5076   age166_m32            0.0000     1.1887E+01     2.0164  -0.0346    97.7345
 46      5.7143     1.1732E+01    1.1220E+01    7.500000E+09  0.00040  5.289E-05    0   0.5027   age171_m32            0.0000     1.6929E+01     2.2427  -0.0692    96.3951
 47      1.1040     3.0181E+00    2.8411E+00    1.000000E+10  0.00040  3.972E-05    0   0.4948   age181_m32            0.0000     2.1074E+01     2.3357  -0.1306    95.0553
 48      0.0064     2.1222E-02    1.9663E-02    1.300000E+10  0.00040  3.283E-05    0   0.4870   age193_m32            0.0000     7.3572E+00     1.6451  -0.1822    98.1441
 49      0.0000     0.0000E+00    0.0000E+00    1.500000E+10  0.00040  2.925E-05    0   0.4854   age201_m32            0.0000     3.9460E+00     1.4014  -0.2046    99.9459
 50      0.0000     0.0000E+00    0.0000E+00    1.800000E+10  0.00040  2.469E-05    0   0.4819   age213_m32            0.0000     3.8418E+00     1.4007  -0.2471   100.5578
 51      0.0000     0.0000E+00    0.0000E+00    1.000000E+06  0.00400  1.114E-02    0   1.0000   age020_m42            0.0000     3.1593E+02    10.9474   3.3600    75.7757
 52      0.0000     0.0000E+00    0.0000E+00    3.160000E+06  0.00400  4.073E-02    0   0.9999   age045_m42            0.0000     6.2198E+01     5.2872   2.3510    91.2966
 53      0.0000     0.0000E+00    0.0000E+00    5.010000E+06  0.00400  2.534E-02    0   0.9488   age055_m42            0.0000     1.5995E+02     8.1539   2.7813    84.1524
 54      0.0000     0.0000E+00    0.0000E+00    6.610000E+06  0.00400  2.583E-02    0   0.9220   age061_m42            0.0000     4.5188E+01     4.4918   2.1641    92.4290
 55      0.0000     0.0000E+00    0.0000E+00    8.710000E+06  0.00400  1.706E-02    0   0.8983   age067_m42            0.0000     9.0053E+01     6.5805   2.0052    89.8044
 56      0.0000     0.0000E+00    0.0000E+00    1.000000E+07  0.00400  1.271E-02    0   0.8862   age070_m42            0.0000     1.3774E+02     8.1968   2.0007    87.8564
 57      0.0000     0.0000E+00    0.0000E+00    1.445000E+07  0.00400  7.666E-03    0   0.8571   age078_m42            0.0000     1.8684E+02     8.9930   2.4109    84.4242
 58      0.0000     0.0000E+00    0.0000E+00    2.512000E+07  0.00400  5.070E-03    0   0.8174   age090_m42            0.0000     1.1849E+02     7.6312   1.8640    89.6511
 59      0.0000     0.0000E+00    0.0000E+00    4.000000E+07  0.00400  3.505E-03    0   0.7851   age104_m42            0.0000     7.0355E+01     5.9227   1.5343    93.1182
 60      0.0000     0.0000E+00    0.0000E+00    5.500000E+07  0.00400  3.059E-03    0   0.7629   age110_m42            0.0000     2.4178E+01     2.8753   1.5645    99.0969
 61      0.0000     0.0000E+00    0.0000E+00    1.015200E+08  0.00400  2.268E-03    0   0.7207   age116_m42            0.0000     1.0580E+02     4.3213   1.4443   106.0110
 62      0.0000     0.0000E+00    0.0000E+00    1.609000E+08  0.00400  1.720E-03    0   0.6930   age120_m42            0.0000     1.2310E+02     4.9684   1.2940   108.0365
 63      0.0000     0.0000E+00    0.0000E+00    2.861200E+08  0.00400  1.079E-03    0   0.6613   age125_m42            0.0000     1.2869E+02     5.1615   0.9409   108.4272
 64      0.0000     0.0000E+00    0.0000E+00    5.088000E+08  0.00400  6.261E-04    0   0.6313   age130_m42            0.0000     1.6034E+02     5.7592   0.7455   111.4998
 65      0.0000     0.0000E+00    0.0000E+00    9.047900E+08  0.00400  3.535E-04    0   0.6024   age135_m42            0.0000     8.1491E+01     4.3866   0.3555   111.0892
 66      0.0000     0.0000E+00    0.0000E+00    1.278050E+09  0.00400  2.677E-04    0   0.5837   age138_m42            0.0000     4.5167E+01     4.1948  -0.3169   107.5061
 67      0.0000     0.0000E+00    0.0000E+00    1.434000E+09  0.00400  1.910E-04    0   0.5716   age139_m42            0.0000     4.3251E+01     4.0717  -0.1552   108.7742
 68      2.6760     2.9597E+00    3.0761E+00    2.500000E+09  0.00400  9.818E-05    0   0.5463   age150_m42            0.0000     4.2672E+01     3.8498  -0.4062   102.8689
 69      0.0000     0.0000E+00    0.0000E+00    4.250000E+09  0.00400  5.491E-05    0   0.5269   age158_m42            0.0000     6.2043E+01     4.1006  -0.5200    99.5040
 70      0.0000     0.0000E+00    0.0000E+00    6.250000E+09  0.00400  3.857E-05    0   0.5151   age166_m42            0.0000     8.6751E+01     4.7062  -0.6417    97.9690
 71      0.0000     0.0000E+00    0.0000E+00    7.500000E+09  0.00400  3.243E-05    0   0.5110   age171_m42            0.0000     1.0343E+02     5.0783  -0.7175    97.3179
 72      0.0000     0.0000E+00    0.0000E+00    1.000000E+10  0.00400  2.424E-05    0   0.5028   age181_m42            0.0000     1.2832E+02     5.5555  -0.7938    96.5541
 73      0.0000     0.0000E+00    0.0000E+00    1.300000E+10  0.00400  1.883E-05    0   0.4927   age193_m42            0.0000     1.4925E+02     5.8989  -0.8304    96.0910
 74      0.0000     0.0000E+00    0.0000E+00    1.500000E+10  0.00400  1.685E-05    0   0.4919   age201_m42            0.0000     1.4367E+02     5.8139  -0.8273    96.1400
 75      0.0000     0.0000E+00    0.0000E+00    1.800000E+10  0.00400  1.452E-05    0   0.4874   age213_m42            0.0000     1.3343E+02     5.6501  -0.8139    96.4361
 76      0.0000     0.0000E+00    0.0000E+00    1.000000E+06  0.00800  1.286E-02    0   1.0000   age020_m52            0.0000     2.7802E+02    10.3735   3.3326    77.6174
 77      0.0000     0.0000E+00    0.0000E+00    3.160000E+06  0.00800  3.147E-02    0   0.9966   age045_m52            0.0000     2.6348E+02    10.2226   3.2454    79.1503
 78      0.0000     0.0000E+00    0.0000E+00    5.010000E+06  0.00800  2.664E-02    0   0.9443   age055_m52            0.0000     1.8935E+02     8.6610   2.9092    82.9342
 79      0.0000     0.0000E+00    0.0000E+00    6.610000E+06  0.00800  2.151E-02    0   0.9177   age061_m52            0.0000     1.2305E+02     7.3312   1.5922    89.5635
 80      0.0000     0.0000E+00    0.0000E+00    8.710000E+06  0.00800  1.628E-02    0   0.8948   age067_m52            0.0000     1.0813E+02     7.1512   1.9637    90.0357
 81      0.0000     0.0000E+00    0.0000E+00    1.000000E+07  0.00800  1.215E-02    0   0.8827   age070_m52            0.0000     1.3435E+02     7.8408   2.3104    87.9831
 82      0.0000     0.0000E+00    0.0000E+00    1.445000E+07  0.00800  8.739E-03    0   0.8552   age078_m52            0.0000     1.0387E+02     6.9010   2.3451    89.5889
 83      0.0000     0.0000E+00    0.0000E+00    2.512000E+07  0.00800  5.676E-03    0   0.8162   age090_m52            0.0000     5.9877E+01     5.4159   1.9276    95.0314
 84      0.0000     0.0000E+00    0.0000E+00    4.000000E+07  0.00800  3.939E-03    0   0.7841   age104_m52            0.0000     4.1159E+01     4.0051   1.7545    98.1546
 85      0.0000     0.0000E+00    0.0000E+00    5.500000E+07  0.00800  3.155E-03    0   0.7627   age110_m52            0.0000     4.0274E+01     3.1574   1.7147   100.4569
 86      0.0000     0.0000E+00    0.0000E+00    1.015200E+08  0.00800  2.206E-03    0   0.7226   age116_m52            0.0000     7.0912E+01     3.5029   1.5114   105.3666
 87      0.0000     0.0000E+00    0.0000E+00    1.609000E+08  0.00800  1.596E-03    0   0.6963   age120_m52            0.0000     9.4267E+01     4.2515   1.2898   107.4148
 88      0.0000     0.0000E+00    0.0000E+00    2.861200E+08  0.00800  1.002E-03    0   0.6665   age125_m52            0.0000     1.7445E+02     6.4842   0.9793   111.1073
 89      0.0000     0.0000E+00    0.0000E+00    5.088000E+08  0.00800  5.759E-04    0   0.6377   age130_m52            0.0000     1.9871E+02     7.4705   0.6225   115.5560
 90      0.0000     0.0000E+00    0.0000E+00    9.047900E+08  0.00800  2.972E-04    0   0.6086   age135_m52            0.0000     1.1024E+02     6.3060   0.0980   113.5849
 91      0.0000     0.0000E+00    0.0000E+00    1.278050E+09  0.00800  2.242E-04    0   0.5907   age138_m52            0.0000     7.5738E+01     5.4061  -0.4942   110.7020
 92      0.0000     0.0000E+00    0.0000E+00    1.434000E+09  0.00800  1.645E-04    0   0.5787   age139_m52            0.0000     5.9669E+01     4.8600  -0.3449   109.9856
 93      0.0000     0.0000E+00    0.0000E+00    2.500000E+09  0.00800  7.723E-05    0   0.5519   age150_m52            0.0000     8.7858E+01     5.2812  -0.6661   105.2335
 94      0.0000     6.9445E-05    7.0288E-05    4.250000E+09  0.00800  4.151E-05    0   0.5320   age158_m52            0.0000     1.0186E+02     5.3550  -0.7280   102.2971
 95      0.0000     0.0000E+00    0.0000E+00    6.250000E+09  0.00800  3.010E-05    0   0.5197   age166_m52            0.0000     1.4617E+02     6.1844  -0.9156   100.6322
 96      0.0000     0.0000E+00    0.0000E+00    7.500000E+09  0.00800  2.467E-05    0   0.5139   age171_m52            0.0000     1.5847E+02     6.4025  -0.9555   100.1862
 97      0.0000     0.0000E+00    0.0000E+00    1.000000E+10  0.00800  1.862E-05    0   0.5054   age181_m52            0.0000     2.0158E+02     6.6617  -1.0000    97.7796
 98      0.0000     0.0000E+00    0.0000E+00    1.300000E+10  0.00800  1.433E-05    0   0.4988   age193_m52            0.0000     2.6410E+02     7.3441  -1.0000    96.0046
 99      0.0023     1.9783E-02    1.8577E-02    1.500000E+10  0.00800  1.244E-05    0   0.4936   age201_m52            0.0000     2.9007E+02     7.6823  -1.0000    95.6873
100      0.0000     0.0000E+00    0.0000E+00    1.800000E+10  0.00800  1.070E-05    0   0.4888   age213_m52            0.0000     3.1332E+02     8.0478  -1.0000    94.6646
101      0.0000     0.0000E+00    0.0000E+00    1.000000E+06  0.02000  1.989E-02    0   1.0000   age020_m62            0.0000     3.1639E+02    10.9225   3.3208    76.5866
102      0.0000     0.0000E+00    0.0000E+00    3.160000E+06  0.02000  3.772E-02    0   0.9858   age045_m62            0.0000     2.8134E+02    10.4432   3.1793    78.8468
103      0.0000     0.0000E+00    0.0000E+00    5.010000E+06  0.02000  3.227E-02    0   0.9342   age055_m62            0.0000     1.0197E+02     6.5742   2.6260    87.5826
104      0.0000     0.0000E+00    0.0000E+00    6.610000E+06  0.02000  2.387E-02    0   0.9090   age061_m62            0.0000     1.6662E+02     8.7099   2.3880    86.3314
105      0.0000     0.0000E+00    0.0000E+00    8.710000E+06  0.02000  1.102E-02    0   0.8861   age067_m62            0.0000     4.5596E+02    14.6534   2.0445    80.1992
106      0.0000     0.0000E+00    0.0000E+00    1.000000E+07  0.02000  1.011E-02    0   0.8751   age070_m62            0.0000     3.2463E+02    12.3117   2.0504    83.2273
107      0.0000     0.0000E+00    0.0000E+00    1.445000E+07  0.02000  7.331E-03    0   0.8472   age078_m62            0.0000     2.3285E+02    10.2961   2.0568    85.2022
108      0.0000     0.0000E+00    0.0000E+00    2.512000E+07  0.02000  4.206E-03    0   0.8099   age090_m62            0.0000     2.4025E+02    10.3666   1.9719    84.6461
109      0.0000     0.0000E+00    0.0000E+00    4.000000E+07  0.02000  3.373E-03    0   0.7799   age104_m62            0.0000     5.7856E+01     5.3352   1.7348    95.1555
110      0.0000     0.0000E+00    0.0000E+00    5.500000E+07  0.02000  2.747E-03    0   0.7595   age110_m62            0.0000     3.7486E+01     3.6105   1.6498    99.6094
111      0.0000     0.0000E+00    0.0000E+00    1.015200E+08  0.02000  1.878E-03    0   0.7221   age116_m62            0.0000     8.6945E+01     3.8211   1.4849   105.9062
112      0.0000     0.0000E+00    0.0000E+00    1.609000E+08  0.02000  1.378E-03    0   0.6978   age120_m62            0.0000     1.4704E+02     5.1210   1.3155   109.3374
113      0.0000     0.0000E+00    0.0000E+00    2.861200E+08  0.02000  8.869E-04    0   0.6700   age125_m62            0.0000     2.6426E+02     7.5089   0.9254   114.7015
114      0.0000     0.0000E+00    0.0000E+00    5.088000E+08  0.02000  4.834E-04    0   0.6430   age130_m62            0.0000     2.3055E+02     8.0022   0.4853   117.3378
115      0.0000     0.0000E+00    0.0000E+00    9.047900E+08  0.02000  2.312E-04    0   0.6152   age135_m62            0.0000     9.7993E+01     6.0697  -0.1005   115.4801
116      0.0000     0.0000E+00    0.0000E+00    1.278050E+09  0.02000  1.387E-04    0   0.5927   age138_m62            0.0000     5.9872E+01     4.9551  -0.4624   109.6782
117      0.0000     0.0000E+00    0.0000E+00    1.434000E+09  0.02000  1.168E-04    0   0.5865   age139_m62            0.0000     6.1651E+01     4.9271  -0.4822   107.7491
118      0.0000     0.0000E+00    0.0000E+00    2.500000E+09  0.02000  5.505E-05    0   0.5610   age150_m62            0.0000     1.1840E+02     6.1254  -0.8412   104.0183
119      0.0000     0.0000E+00    0.0000E+00    4.250000E+09  0.02000  3.070E-05    0   0.5407   age158_m62            0.0000     2.1717E+02     7.2291  -1.0000   100.5275
120      0.0000     0.0000E+00    0.0000E+00    6.250000E+09  0.02000  2.104E-05    0   0.5277   age166_m62            0.0000     3.0557E+02     8.2816  -1.0000    97.4889
121      0.0000     0.0000E+00    0.0000E+00    7.500000E+09  0.02000  1.770E-05    0   0.5223   age171_m62            0.0000     3.6861E+02     9.2612  -1.0000    95.5129
122      0.0000     0.0000E+00    0.0000E+00    1.000000E+10  0.02000  1.297E-05    0   0.5121   age181_m62            0.0000     5.1561E+02    11.3513  -1.0000    91.6581
123      0.0000     0.0000E+00    0.0000E+00    1.300000E+10  0.02000  9.691E-06    0   0.5047   age193_m62            0.0000     6.1414E+02    12.5366  -1.0000    89.6526
124      0.0000     0.0000E+00    0.0000E+00    1.500000E+10  0.02000  8.360E-06    0   0.4999   age201_m62            0.0000     7.0224E+02    13.5233  -1.0000    87.9059
125      0.0000     0.0000E+00    0.0000E+00    1.800000E+10  0.02000  6.911E-06    0   0.4946   age213_m62            0.0000     8.0492E+02    14.5546  -1.0000    86.0914
126      0.0000     0.0000E+00    0.0000E+00    1.000000E+06  0.05000  2.651E-02    0   0.9998   age020_m72            0.0000     2.9776E+02    10.4262   3.3194    77.5611
127      0.0000     0.0000E+00    0.0000E+00    3.160000E+06  0.05000  4.817E-02    0   0.9577   age045_m72            0.0000     1.9954E+02     8.6756   3.0229    82.5132
128      0.0000     0.0000E+00    0.0000E+00    5.010000E+06  0.05000  3.101E-02    0   0.9147   age055_m72            0.0000     1.8360E+02     8.5922   2.6607    85.1600
129      0.0000     0.0000E+00    0.0000E+00    6.610000E+06  0.05000  1.472E-02    0   0.8877   age061_m72            0.0000     3.7369E+02    12.6504   2.2395    82.0690
130      0.0000     0.0000E+00    0.0000E+00    8.710000E+06  0.05000  1.050E-02    0   0.8638   age067_m72            0.0000     2.6602E+02    10.3329   2.6246    83.2636
131      0.0000     0.0000E+00    0.0000E+00    1.000000E+07  0.05000  8.954E-03    0   0.8524   age070_m72            0.0000     1.9914E+02     8.5267   2.8964    83.8876
132      0.0000     0.0000E+00    0.0000E+00    1.445000E+07  0.05000  6.392E-03    0   0.8262   age078_m72            0.0000     1.6825E+02     7.7916   2.8375    85.1749
133      0.0000     0.0000E+00    0.0000E+00    2.512000E+07  0.05000  4.207E-03    0   0.7902   age090_m72            0.0000     8.8700E+01     5.8557   2.4360    90.4052
134      0.0000     0.0000E+00    0.0000E+00    4.000000E+07  0.05000  3.198E-03    0   0.7618   age104_m72            0.0000     4.3833E+01     3.0694   1.8728   100.6804
135      0.0000     0.0000E+00    0.0000E+00    5.500000E+07  0.05000  2.593E-03    0   0.7432   age110_m72            0.0000     6.3808E+01     3.4702   1.7672   103.1068
136      0.0000     0.0000E+00    0.0000E+00    1.015200E+08  0.05000  1.716E-03    0   0.7092   age116_m72            0.0000     1.1418E+02     4.4376   1.5580   106.5394
137      0.0000     0.0000E+00    0.0000E+00    1.609000E+08  0.05000  1.218E-03    0   0.6876   age120_m72            0.0000     1.8349E+02     5.9475   1.2757   110.1744
138      0.0000     0.0000E+00    0.0000E+00    2.861200E+08  0.05000  7.047E-04    0   0.6618   age125_m72            0.0000     2.5683E+02     7.9893   0.7125   115.2828
139      0.0000     0.0000E+00    0.0000E+00    5.088000E+08  0.05000  3.590E-04    0   0.6356   age130_m72            0.0000     1.9819E+02     7.9291   0.1306   118.1310
140      0.0000     0.0000E+00    0.0000E+00    9.047900E+08  0.05000  1.484E-04    0   0.6088   age135_m72            0.0000     9.6492E+01     6.2188  -0.5724   109.5749
141      3.3403     3.8444E+00    4.3328E+00    1.278050E+09  0.05000  9.435E-05    0   0.5924   age138_m72            0.0000     1.5405E+02     7.3690  -0.9629   105.8445
142      2.3640     3.2797E+00    3.6483E+00    1.434000E+09  0.05000  7.827E-05    0   0.5847   age139_m72            0.0000     1.5645E+02     7.2411  -0.9440   104.9340
143      0.4530     1.3086E+00    1.3899E+00    2.500000E+09  0.05000  3.759E-05    0   0.5583   age150_m72            0.0000     2.9163E+02     8.2317  -1.0000    97.0801
144      0.0000     0.0000E+00    0.0000E+00    4.250000E+09  0.05000  1.842E-05    0   0.5374   age158_m72            0.0000     5.5197E+02    12.1910  -1.0000    88.0965
145      0.0000     0.0000E+00    0.0000E+00    6.250000E+09  0.05000  1.207E-05    0   0.5242   age166_m72            0.0000     8.3356E+02    15.3365  -1.0000    81.4264
146      0.0000     0.0000E+00    0.0000E+00    7.500000E+09  0.05000  9.993E-06    0   0.5183   age171_m72            0.0000     8.8744E+02    15.8879  -1.0000    80.2041
147      0.0000     0.0000E+00    0.0000E+00    1.000000E+10  0.05000  7.291E-06    0   0.5081   age181_m72            0.0000     1.0659E+03    17.4239  -1.0000    76.8977
148      0.0000     0.0000E+00    0.0000E+00    1.300000E+10  0.05000  5.316E-06    0   0.5018   age193_m72            0.0000     1.3548E+03    19.5356  -1.0000    72.0211
149      0.0000     0.0000E+00    0.0000E+00    1.500000E+10  0.05000  4.497E-06    0   0.4972   age201_m72            0.0000     1.4811E+03    20.3322  -1.0000    70.3336
150      0.0000     0.0000E+00    0.0000E+00    1.800000E+10  0.05000  3.739E-06    0   0.4924   age213_m72            0.0000     1.6594E+03    21.3605  -1.0000    67.7894


## Synthesis Results - Average & Chains ##

# j      x_j: min, <> & last-chain-values for 1 ...  7 chains
  1      0.0000      0.0008      0.0000      0.0000      0.0000      0.0000      0.0000      0.0000      0.0000
  2     17.2295     14.1802     14.6379     14.5809     14.5838     14.4739     14.9358     14.6146     14.5720
  3      0.0000      0.0054      0.0000      0.0000      0.0005      0.0124      0.0119      0.0000      0.0000
  4      0.0000      0.0010      0.0000      0.0000      0.0000      0.0000      0.0000      0.0000      0.0000
  5      0.0000      0.0002      0.0000      0.0000      0.0000      0.0000      0.0000      0.0000      0.0000
  6      0.0000      0.0004      0.0000      0.0000      0.0000      0.0000      0.0000      0.0000      0.0000
  7      0.0000      0.0022      0.0000      0.0000      0.0000      0.0000      0.0000      0.0000      0.0000
  8      0.0000      0.0040      0.0000      0.0000      0.0000      0.0000      0.0000      0.0000      0.0000
  9      0.0000      0.0248      0.0109      0.0000      0.0000      0.0000      0.0000      0.0438      0.0000
 10      0.0000      0.0167      0.0000      0.0000      0.0000      0.1070      0.0000      0.0000      0.0700
 11      0.0000      0.0631      0.1481      0.1277      0.0000      0.1194      0.0000      0.0612      0.1572
 12      0.0000      0.0201      0.0000      0.0803      0.0000      0.0000      0.0179      0.0149      0.0000
 13      0.0000      0.0202      0.0000      0.0000      0.0000      0.0360      0.0112      0.0000      0.0629
 14      0.0000      0.0141      0.0025      0.0881      0.0000      0.0000      0.0000      0.0000      0.0000
 15      0.0000      0.0165      0.0168      0.0000      0.0000      0.0000      0.0000      0.0000      0.0000
 16      0.0000      0.0177      0.0000      0.0000      0.1468      0.0000      0.0000      0.0000      0.0000
 17      0.0000      0.0277      0.0000      0.0000      0.0000      0.0000      0.0000      0.0000      0.0000
 18      0.0000      0.0403      0.0000      0.0000      0.0000      0.0000      0.0687      0.0000      0.0000
 19      0.0000      0.1209      0.0000      0.0000      0.1813      0.0328      0.0581      0.0000      0.0000
 20      0.0000      0.2086      0.3222      0.0976      0.0000      0.3721      0.0000      0.1559      0.0000
 21      0.0969      0.2224      0.2777      0.3741      0.1620      0.0000      0.0000      0.4141      0.7583
 22      0.0000      0.2122      0.2046      0.2696      0.0000      0.1977      0.0000      0.0000      0.0000
 23      0.0000      0.3875      0.1066      0.6442      0.0000      0.0000      0.2690      0.0723      0.0000
 24      0.1064      0.4129      0.7641      0.5531      0.5826      0.3134      0.1323      0.5716      0.7452
 25      0.0000      0.3347      0.0975      0.0458      0.3850      0.0980      0.3890      0.0042      0.1625
 26      0.0000      0.0010      0.0000      0.0000      0.0000      0.0000      0.0000      0.0000      0.0000
 27      0.0000      0.0057      0.0000      0.0000      0.0000      0.0000      0.0000      0.0000      0.0000
 28      0.0000      0.0019      0.0000      0.0000      0.0000      0.0000      0.0000      0.0000      0.0000
 29      0.0000      0.0009      0.0000      0.0000      0.0000      0.0000      0.0000      0.0000      0.0000
 30      0.0000      0.0016      0.0000      0.0000      0.0000      0.0000      0.0000      0.0000      0.0000
 31      0.0000      0.0007      0.0000      0.0000      0.0000      0.0000      0.0000      0.0000      0.0000
 32      0.0000      0.0017      0.0000      0.0000      0.0243      0.0000      0.0000      0.0000      0.0000
 33      0.0000      0.0074      0.0000      0.0000      0.0000      0.0000      0.0000      0.0000      0.0000
 34      0.0000      0.0247      0.0976      0.0000      0.0000      0.0000      0.0000      0.0000      0.0000
 35      0.0000      0.0176      0.0000      0.0000      0.0000      0.0883      0.0153      0.0000      0.0494
 36      0.0000      0.0361      0.0000      0.0000      0.0000      0.0000      0.0000      0.0122      0.0000
 37      0.0000      0.0278      0.0855      0.1498      0.0399      0.0000      0.0000      0.0000      0.0638
 38      0.0000      0.0169      0.0000      0.0000      0.0058      0.0565      0.0000      0.0000      0.0000
 39      0.0000      0.0319      0.1857      0.0000      0.0000      0.0092      0.0000      0.1072      0.0000
 40      0.0000      0.0401      0.0000      0.0000      0.0000      0.0000      0.0241      0.0000      0.0000
 41      0.0000      0.0715      0.0000      0.2044      0.0000      0.1706      0.0000      0.0000      0.0807
 42      0.0000      0.0917      0.0000      0.1824      0.0000      0.1375      0.0000      0.0520      0.0443
 43     20.6027     18.6865     19.6049     18.6477     18.6906     19.0258     19.3208     19.1252     18.8114
 44     45.4419     43.5804     43.2491     44.0092     44.1599     44.3901     44.2112     44.5219     44.0657
 45      2.2562      3.3634      3.5630      2.4192      3.4399      3.3545      3.8626      3.2701      3.8150
 46      5.7143      5.4640      5.4832      6.0722      5.4271      5.3754      4.8654      5.6821      5.3059
 47      1.1040      2.7502      2.4699      2.5892      2.8247      2.7840      2.7254      2.7468      2.3755
 48      0.0064      0.4786      0.4225      0.3058      0.2344      0.0000      0.0000      0.5675      0.3244
 49      0.0000      0.2257      0.0101      0.4897      0.0000      0.3814      0.6173      0.0764      0.0000
 50      0.0000      0.1069      0.1156      0.0000      0.0038      0.0156      0.0664      0.0954      0.0000
 51      0.0000      0.0008      0.0000      0.0000      0.0000      0.0000      0.0000      0.0000      0.0000
 52      0.0000      0.0123      0.0000      0.0000      0.0000      0.0000      0.0000      0.0000      0.0471
 53      0.0000      0.0019      0.0000      0.0012      0.0000      0.0000      0.0000      0.0000      0.0000
 54      0.0000      0.0260      0.0045      0.0000      0.0000      0.0000      0.0000      0.0000      0.0000
 55      0.0000      0.0102      0.0000      0.0000      0.0000      0.0000      0.0000      0.0000      0.0000
 56      0.0000      0.0038      0.0000      0.0000      0.0000      0.0000      0.0000      0.0000      0.0000
 57      0.0000      0.0027      0.0000      0.0000      0.0000      0.0000      0.0000      0.0000      0.0000
 58      0.0000      0.0056      0.0000      0.0000      0.0000      0.0000      0.0000      0.0617      0.0000
 59      0.0000      0.0057      0.0000      0.0000      0.0533      0.0131      0.0000      0.0194      0.0000
 60      0.0000      0.0106      0.0000      0.0000      0.0000      0.0000      0.0000      0.0000      0.0000
 61      0.0000      0.0560      0.0308      0.1037      0.0505      0.0000      0.0649      0.0625      0.0000
 62      0.0000      0.1448      0.0000      0.0000      0.2586      0.2888      0.3343      0.0000      0.1212
 63      0.0000      0.0453      0.0281      0.0000      0.0000      0.0000      0.0000      0.0300      0.0000
 64      0.0000      0.0953      0.0373      0.0946      0.1306      0.1045      0.0468      0.0000      0.0000
 65      0.0000      0.0918      0.0917      0.0177      0.0000      0.0000      0.0000      0.0465      0.0000
 66      0.0000      0.0250      0.0000      0.0248      0.0000      0.0684      0.0137      0.0000      0.0393
 67      0.0000      0.2106      0.0000      0.0931      0.6961      0.0000      0.0000      0.0526      0.2388
 68      2.6760      3.8971      3.8826      4.3908      4.1155      3.9119      3.9414      4.1033      4.0006
 69      0.0000      0.0416      0.1367      0.0000      0.2473      0.0000      0.0000      0.0000      0.0000
 70      0.0000      0.0402      0.0000      0.0354      0.0000      0.0000      0.0000      0.0000      0.0000
 71      0.0000      0.0830      0.0000      0.0000      0.0000      0.3159      0.0861      0.0114      0.0000
 72      0.0000      0.0238      0.0000      0.0000      0.0000      0.0000      0.2535      0.0000      0.0000
 73      0.0000      0.0294      0.0000      0.0000      0.0000      0.0000      0.0000      0.0000      0.0000
 74      0.0000      0.0187      0.0000      0.0000      0.0436      0.0000      0.0440      0.0000      0.0000
 75      0.0000      0.0186      0.0000      0.0000      0.0000      0.1442      0.0000      0.0110      0.0000
 76      0.0000      0.0010      0.0000      0.0000      0.0000      0.0000      0.0000      0.0000      0.0000
 77      0.0000      0.0012      0.0000      0.0000      0.0000      0.0000      0.0000      0.0000      0.0000
 78      0.0000      0.0037      0.0000      0.0000      0.0000      0.0000      0.0000      0.0000      0.0009
 79      0.0000      0.0100      0.1307      0.0000      0.0000      0.0109      0.0000      0.0000      0.0064
 80      0.0000      0.0039      0.0000      0.0000      0.0000      0.0000      0.0000      0.0000      0.0000
 81      0.0000      0.0033      0.0000      0.0000      0.0000      0.0000      0.0005      0.0000      0.0000
 82      0.0000      0.0048      0.0044      0.0007      0.0000      0.0000      0.0000      0.0000      0.0070
 83      0.0000      0.0101      0.0000      0.0000      0.0697      0.0000      0.0000      0.0000      0.0000
 84      0.0000      0.0101      0.0000      0.0000      0.0000      0.0000      0.0000      0.0000      0.0000
 85      0.0000      0.0154      0.0000      0.0000      0.0000      0.0000      0.0000      0.0000      0.0433
 86      0.0000      0.0538      0.0000      0.0112      0.0000      0.0000      0.0844      0.0000      0.0000
 87      0.0000      0.0241      0.0000      0.0000      0.0000      0.0000      0.0000      0.0009      0.0000
 88      0.0000      0.0218      0.0000      0.0224      0.0280      0.0000      0.0000      0.0000      0.0000
 89      0.0000      0.0418      0.1909      0.0186      0.0000      0.0000      0.1413      0.0000      0.1580
 90      0.0000      0.0120      0.0000      0.0000      0.0000      0.0000      0.0000      0.0000      0.0000
 91      0.0000      0.0119      0.0000      0.0722      0.0000      0.0305      0.0000      0.0000      0.0000
 92      0.0000      0.0273      0.0000      0.0000      0.0266      0.0000      0.0000      0.0000      0.0000
 93      0.0000      0.1086      0.4352      0.0829      0.0000      0.2553      0.0000      0.1858      0.2497
 94      0.0000      0.3548      0.4181      0.4366      0.2206      0.2424      0.4980      0.3400      0.0000
 95      0.0000      0.0867      0.1528      0.0341      0.0000      0.0000      0.0000      0.0000      0.3213
 96      0.0000      0.0369      0.0000      0.0000      0.0000      0.0000      0.0000      0.0000      0.0682
 97      0.0000      0.0807      0.0607      0.0130      0.0000      0.1171      0.1013      0.1319      0.2081
 98      0.0000      0.1535      0.1943      0.1448      0.1180      0.4150      0.1270      0.0000      0.0066
 99      0.0023      0.3222      0.4144      0.2728      0.4298      0.2944      0.2535      0.3087      0.2295
100      0.0000      0.1361      0.1009      0.2792      0.1331      0.1875      0.2012      0.0000      0.1711
101      0.0000      0.0005      0.0000      0.0000      0.0000      0.0000      0.0000      0.0000      0.0000
102      0.0000      0.0014      0.0000      0.0000      0.0000      0.0000      0.0000      0.0000      0.0000
103      0.0000      0.0043      0.0000      0.0000      0.0000      0.0000      0.0000      0.0000      0.0000
104      0.0000      0.0059      0.0000      0.0000      0.0000      0.0000      0.0000      0.0000      0.0000
105      0.0000      0.0012      0.0000      0.0000      0.0000      0.0000      0.0000      0.0000      0.0000
106      0.0000      0.0013      0.0000      0.0000      0.0000      0.0000      0.0000      0.0000      0.0000
107      0.0000      0.0023      0.0000      0.0000      0.0000      0.0000      0.0000      0.0000      0.0000
108      0.0000      0.0015      0.0000      0.0000      0.0000      0.0000      0.0000      0.0000      0.0000
109      0.0000      0.0038      0.0000      0.0043      0.0009      0.0000      0.0000      0.0000      0.0000
110      0.0000      0.0107      0.0000      0.0000      0.1809      0.0000      0.0000      0.0000      0.0000
111      0.0000      0.0190      0.0000      0.0000      0.0000      0.0000      0.0000      0.0000      0.0000
112      0.0000      0.0337      0.0000      0.0000      0.0068      0.0238      0.0000      0.0585      0.0607
113      0.0000      0.0155      0.0000      0.0000      0.0000      0.0000      0.0000      0.0041      0.0000
114      0.0000      0.0127      0.0172      0.0000      0.0000      0.0000      0.0000      0.0000      0.0000
115      0.0000      0.0297      0.0000      0.0000      0.0588      0.0000      0.0861      0.0000      0.0084
116      0.0000      0.0971      0.1545      0.0207      0.1752      0.0438      0.0000      0.0000      0.2578
117      0.0000      0.0989      0.0223      0.0127      0.3697      0.0000      0.0000      0.0000      0.0000
118      0.0000      0.1578      0.0833      0.2158      0.0291      0.1954      0.0625      0.0000      0.0242
119      0.0000      0.0523      0.0000      0.0000      0.0824      0.0000      0.1736      0.0626      0.0000
120      0.0000      0.0815      0.0000      0.1656      0.0000      0.0394      0.1713      0.0814      0.0000
121      0.0000      0.0428      0.0000      0.0707      0.0695      0.0000      0.0129      0.1248      0.0000
122      0.0000      0.0160      0.0000      0.0000      0.0129      0.0000      0.0000      0.0000      0.0000
123      0.0000      0.0148      0.0037      0.0000      0.0087      0.0029      0.0762      0.0000      0.0000
124      0.0000      0.0095      0.0676      0.0000      0.0000      0.0000      0.0000      0.0000      0.0000
125      0.0000      0.0215      0.0000      0.0000      0.0000      0.0000      0.0000      0.0000      0.0000
126      0.0000      0.0007      0.0000      0.0000      0.0000      0.0000      0.0000      0.0000      0.0000
127      0.0000      0.0018      0.0000      0.0000      0.0000      0.0000      0.0000      0.0000      0.0000
128      0.0000      0.0031      0.0000      0.0000      0.0000      0.0000      0.0000      0.0000      0.0000
129      0.0000      0.0011      0.0000      0.0000      0.0000      0.0000      0.0000      0.0000      0.0000
130      0.0000      0.0013      0.0000      0.0000      0.0000      0.0000      0.0000      0.0000      0.0000
131      0.0000      0.0017      0.0000      0.0000      0.0151      0.0000      0.0000      0.0000      0.0000
132      0.0000      0.0013      0.0000      0.0000      0.0000      0.0000      0.0000      0.0023      0.0000
133      0.0000      0.0019      0.0000      0.0000      0.0000      0.0000      0.0000      0.0000      0.0000
134      0.0000      0.0060      0.0000      0.0000      0.0000      0.0000      0.0000      0.0000      0.0000
135      0.0000      0.0081      0.0000      0.0000      0.0000      0.0000      0.0000      0.0000      0.1276
136      0.0000      0.0220      0.0047      0.0296      0.0000      0.1513      0.0261      0.0000      0.0153
137      0.0000      0.0171      0.0000      0.0000      0.0515      0.0000      0.2444      0.0000      0.0000
138      0.0000      0.0288      0.0000      0.0000      0.0000      0.0098      0.0126      0.2472      0.0000
139      0.0000      0.0381      0.0000      0.0000      0.0000      0.3057      0.0000      0.0000      0.0993
140      0.0000      0.0760      0.0000      0.0451      0.0565      0.0042      0.0000      0.0000      0.0212
141      3.3403      1.7393      1.7761      1.8605      1.7740      1.7102      2.0117      2.1422      2.3316
142      2.3640      0.5403      0.5682      0.5951      0.7526      0.7876      0.6297      0.5457      0.7629
143      0.4530      0.1482      0.1511      0.0000      0.1670      0.1315      0.0000      0.4657      0.1319
144      0.0000      0.0676      0.2523      0.1152      0.0000      0.0122      0.0000      0.0000      0.0581
145      0.0000      0.0130      0.0000      0.1071      0.0000      0.0000      0.0074      0.0000      0.0000
146      0.0000      0.0086      0.0000      0.0000      0.0000      0.0000      0.0000      0.0000      0.0000
147      0.0000      0.0239      0.0000      0.0000      0.0000      0.0097      0.0000      0.0000      0.0779
148      0.0000      0.0169      0.0496      0.0000      0.0000      0.0000      0.0000      0.0000      0.0000
149      0.0000      0.0043      0.0000      0.0000      0.0256      0.0000      0.0000      0.0000      0.0000
150      0.0000      0.0132      0.0000      0.0050      0.0000      0.0152      0.0620      0.0093      0.0000

# j      m_j: min, <> & last-chain-values for 1 ...  7 chains
  1  0.0000E+00  1.7100E-05  0.0000E+00  0.0000E+00  0.0000E+00  0.0000E+00  0.0000E+00  0.0000E+00  0.0000E+00
  2  7.4793E-02  5.2572E-02  5.4847E-02  5.4438E-02  5.6074E-02  5.4758E-02  5.5927E-02  5.6544E-02  5.6345E-02
  3  0.0000E+00  4.6815E-05  0.0000E+00  0.0000E+00  4.7913E-06  1.1030E-04  1.0487E-04  0.0000E+00  0.0000E+00
  4  0.0000E+00  1.6911E-05  0.0000E+00  0.0000E+00  0.0000E+00  0.0000E+00  0.0000E+00  0.0000E+00  0.0000E+00
  5  0.0000E+00  4.9100E-06  0.0000E+00  0.0000E+00  0.0000E+00  0.0000E+00  0.0000E+00  0.0000E+00  0.0000E+00
  6  0.0000E+00  9.0010E-06  0.0000E+00  0.0000E+00  0.0000E+00  0.0000E+00  0.0000E+00  0.0000E+00  0.0000E+00
  7  0.0000E+00  6.8634E-05  0.0000E+00  0.0000E+00  0.0000E+00  0.0000E+00  0.0000E+00  0.0000E+00  0.0000E+00
  8  0.0000E+00  1.4214E-04  0.0000E+00  0.0000E+00  0.0000E+00  0.0000E+00  0.0000E+00  0.0000E+00  0.0000E+00
  9  0.0000E+00  9.3580E-04  4.1619E-04  0.0000E+00  0.0000E+00  0.0000E+00  0.0000E+00  1.7275E-03  0.0000E+00
 10  0.0000E+00  7.2293E-04  0.0000E+00  0.0000E+00  0.0000E+00  4.7300E-03  0.0000E+00  0.0000E+00  3.1631E-03
 11  0.0000E+00  3.2697E-03  7.7534E-03  6.6635E-03  0.0000E+00  6.3116E-03  0.0000E+00  3.3086E-03  8.4952E-03
 12  0.0000E+00  1.8181E-03  0.0000E+00  7.3309E-03  0.0000E+00  0.0000E+00  1.6348E-03  1.4083E-03  0.0000E+00
 13  0.0000E+00  2.1206E-03  0.0000E+00  0.0000E+00  0.0000E+00  3.8670E-03  1.1865E-03  0.0000E+00  6.9059E-03
 14  0.0000E+00  2.1140E-03  3.7683E-04  1.3253E-02  0.0000E+00  0.0000E+00  0.0000E+00  0.0000E+00  0.0000E+00
 15  0.0000E+00  3.7160E-03  3.8399E-03  0.0000E+00  0.0000E+00  0.0000E+00  0.0000E+00  0.0000E+00  0.0000E+00
 16  0.0000E+00  5.7834E-03  0.0000E+00  0.0000E+00  4.9734E-02  0.0000E+00  0.0000E+00  0.0000E+00  0.0000E+00
 17  0.0000E+00  1.0057E-02  0.0000E+00  0.0000E+00  0.0000E+00  0.0000E+00  0.0000E+00  0.0000E+00  0.0000E+00
 18  0.0000E+00  2.3799E-02  0.0000E+00  0.0000E+00  0.0000E+00  0.0000E+00  4.0965E-02  0.0000E+00  0.0000E+00
 19  0.0000E+00  1.0824E-01  0.0000E+00  0.0000E+00  1.6833E-01  3.0001E-02  5.2546E-02  0.0000E+00  0.0000E+00
 20  0.0000E+00  2.6705E-01  4.1700E-01  1.2580E-01  0.0000E+00  4.8613E-01  0.0000E+00  2.0838E-01  0.0000E+00
 21  1.6812E-01  3.2950E-01  4.1582E-01  5.5807E-01  2.4895E-01  0.0000E+00  0.0000E+00  6.4018E-01  1.1715E+00
 22  0.0000E+00  4.0558E-01  3.9522E-01  5.1897E-01  0.0000E+00  3.8566E-01  0.0000E+00  0.0000E+00  0.0000E+00
 23  0.0000E+00  9.3890E-01  2.6101E-01  1.5717E+00  0.0000E+00  0.0000E+00  6.5832E-01  1.8277E-01  0.0000E+00
 24  3.4527E-01  1.1440E+00  2.1397E+00  1.5431E+00  1.6740E+00  8.8598E-01  3.7025E-01  1.6527E+00  2.1533E+00
 25  0.0000E+00  1.1140E+00  3.2782E-01  1.5360E-01  1.3291E+00  3.3286E-01  1.3076E+00  1.4561E-02  5.6400E-01
 26  0.0000E+00  2.1000E-05  0.0000E+00  0.0000E+00  0.0000E+00  0.0000E+00  0.0000E+00  0.0000E+00  0.0000E+00
 27  0.0000E+00  2.5479E-05  0.0000E+00  0.0000E+00  0.0000E+00  0.0000E+00  0.0000E+00  0.0000E+00  0.0000E+00
 28  0.0000E+00  1.6223E-05  0.0000E+00  0.0000E+00  0.0000E+00  0.0000E+00  0.0000E+00  0.0000E+00  0.0000E+00
 29  0.0000E+00  1.1545E-05  0.0000E+00  0.0000E+00  0.0000E+00  0.0000E+00  0.0000E+00  0.0000E+00  0.0000E+00
 30  0.0000E+00  2.7615E-05  0.0000E+00  0.0000E+00  0.0000E+00  0.0000E+00  0.0000E+00  0.0000E+00  0.0000E+00
 31  0.0000E+00  1.2916E-05  0.0000E+00  0.0000E+00  0.0000E+00  0.0000E+00  0.0000E+00  0.0000E+00  0.0000E+00
 32  0.0000E+00  3.6282E-05  0.0000E+00  0.0000E+00  5.4258E-04  0.0000E+00  0.0000E+00  0.0000E+00  0.0000E+00
 33  0.0000E+00  2.2723E-04  0.0000E+00  0.0000E+00  0.0000E+00  0.0000E+00  0.0000E+00  0.0000E+00  0.0000E+00
 34  0.0000E+00  9.1861E-04  3.6680E-03  0.0000E+00  0.0000E+00  0.0000E+00  0.0000E+00  0.0000E+00  0.0000E+00
 35  0.0000E+00  7.9176E-04  0.0000E+00  0.0000E+00  0.0000E+00  4.0494E-03  6.9554E-04  0.0000E+00  2.3136E-03
 36  0.0000E+00  2.0794E-03  0.0000E+00  0.0000E+00  0.0000E+00  0.0000E+00  0.0000E+00  7.3063E-04  0.0000E+00
 37  0.0000E+00  1.9916E-03  6.1878E-03  1.0798E-02  2.9653E-03  0.0000E+00  0.0000E+00  0.0000E+00  4.7645E-03
 38  0.0000E+00  1.6808E-03  0.0000E+00  0.0000E+00  6.0465E-04  5.7507E-03  0.0000E+00  0.0000E+00  0.0000E+00
 39  0.0000E+00  4.7509E-03  2.7922E-02  0.0000E+00  0.0000E+00  1.3941E-03  0.0000E+00  1.6649E-02  0.0000E+00
 40  0.0000E+00  1.0515E-02  0.0000E+00  0.0000E+00  0.0000E+00  0.0000E+00  6.3872E-03  0.0000E+00  0.0000E+00
 41  0.0000E+00  2.5128E-02  0.0000E+00  7.2381E-02  0.0000E+00  6.1198E-02  0.0000E+00  0.0000E+00  2.9585E-02
 42  0.0000E+00  3.5985E-02  0.0000E+00  7.2122E-02  0.0000E+00  5.5102E-02  0.0000E+00  2.1295E-02  1.8155E-02
 43  1.5406E+01  1.1934E+01  1.2654E+01  1.1993E+01  1.2379E+01  1.2399E+01  1.2462E+01  1.2746E+01  1.2530E+01
 44  5.3740E+01  4.4016E+01  4.4147E+01  4.4762E+01  4.6257E+01  4.5751E+01  4.5100E+01  4.6928E+01  4.6419E+01
 45  3.7189E+00  4.7347E+00  5.0691E+00  3.4295E+00  5.0220E+00  4.8187E+00  5.4917E+00  4.8041E+00  5.6012E+00
 46  1.1220E+01  9.1628E+00  9.2930E+00  1.0254E+01  9.4386E+00  9.1986E+00  8.2406E+00  9.9441E+00  9.2800E+00
 47  2.8411E+00  6.0446E+00  5.4865E+00  5.7308E+00  6.4386E+00  6.2440E+00  6.0500E+00  6.3003E+00  5.4454E+00
 48  1.9663E-02  1.2526E+00  1.1177E+00  8.0593E-01  6.3624E-01  0.0000E+00  0.0000E+00  1.5500E+00  8.8551E-01
 49  0.0000E+00  6.6076E-01  2.9940E-02  1.4438E+00  0.0000E+00  1.1396E+00  1.8255E+00  2.3342E-01  0.0000E+00
 50  0.0000E+00  3.6820E-01  4.0227E-01  0.0000E+00  1.3565E-02  5.4922E-02  2.3091E-01  3.4279E-01  0.0000E+00
 51  0.0000E+00  1.2366E-05  0.0000E+00  0.0000E+00  0.0000E+00  0.0000E+00  0.0000E+00  0.0000E+00  0.0000E+00
 52  0.0000E+00  5.3150E-05  0.0000E+00  0.0000E+00  0.0000E+00  0.0000E+00  0.0000E+00  0.0000E+00  2.1292E-04
 53  0.0000E+00  1.2260E-05  0.0000E+00  7.7642E-06  0.0000E+00  0.0000E+00  0.0000E+00  0.0000E+00  0.0000E+00
 54  0.0000E+00  1.6394E-04  2.8375E-05  0.0000E+00  0.0000E+00  0.0000E+00  0.0000E+00  0.0000E+00  0.0000E+00
 55  0.0000E+00  9.4372E-05  0.0000E+00  0.0000E+00  0.0000E+00  0.0000E+00  0.0000E+00  0.0000E+00  0.0000E+00
 56  0.0000E+00  4.6688E-05  0.0000E+00  0.0000E+00  0.0000E+00  0.0000E+00  0.0000E+00  0.0000E+00  0.0000E+00
 57  0.0000E+00  5.3761E-05  0.0000E+00  0.0000E+00  0.0000E+00  0.0000E+00  0.0000E+00  0.0000E+00  0.0000E+00
 58  0.0000E+00  1.6043E-04  0.0000E+00  0.0000E+00  0.0000E+00  0.0000E+00  0.0000E+00  1.8304E-03  0.0000E+00
 59  0.0000E+00  2.2567E-04  0.0000E+00  0.0000E+00  2.1845E-03  5.2923E-04  0.0000E+00  7.9814E-04  0.0000E+00
 60  0.0000E+00  4.6483E-04  0.0000E+00  0.0000E+00  0.0000E+00  0.0000E+00  0.0000E+00  0.0000E+00  0.0000E+00
 61  0.0000E+00  3.1411E-03  1.7454E-03  5.8529E-03  2.9360E-03  0.0000E+00  3.6725E-03  3.6592E-03  0.0000E+00
 62  0.0000E+00  1.0297E-02  0.0000E+00  0.0000E+00  1.9066E-02  2.0949E-02  2.3999E-02  0.0000E+00  8.9884E-03
 63  0.0000E+00  4.8985E-03  3.0729E-03  0.0000E+00  0.0000E+00  0.0000E+00  0.0000E+00  3.3851E-03  0.0000E+00
 64  0.0000E+00  1.6950E-02  6.7148E-03  1.6948E-02  2.4096E-02  1.8962E-02  8.4042E-03  0.0000E+00  0.0000E+00
 65  0.0000E+00  2.7603E-02  2.7861E-02  5.3596E-03  0.0000E+00  0.0000E+00  0.0000E+00  1.4591E-02  0.0000E+00
 66  0.0000E+00  9.6111E-03  0.0000E+00  9.6239E-03  0.0000E+00  2.6833E-02  5.3101E-03  0.0000E+00  1.5772E-02
 67  0.0000E+00  1.1122E-01  0.0000E+00  4.9480E-02  3.8120E-01  0.0000E+00  0.0000E+00  2.8974E-02  1.3151E-01
 68  3.0761E+00  3.8259E+00  3.8523E+00  4.3410E+00  4.1903E+00  3.9189E+00  3.9081E+00  4.2040E+00  4.0963E+00
 69  0.0000E+00  7.0399E-02  2.3384E-01  0.0000E+00  4.3414E-01  0.0000E+00  0.0000E+00  0.0000E+00  0.0000E+00
 70  0.0000E+00  9.4613E-02  0.0000E+00  8.4041E-02  0.0000E+00  0.0000E+00  0.0000E+00  0.0000E+00  0.0000E+00
 71  0.0000E+00  2.3077E-01  0.0000E+00  0.0000E+00  0.0000E+00  8.9632E-01  2.4173E-01  3.2965E-02  0.0000E+00
 72  0.0000E+00  8.7212E-02  0.0000E+00  0.0000E+00  0.0000E+00  0.0000E+00  9.3708E-01  0.0000E+00  0.0000E+00
 73  0.0000E+00  1.3565E-01  0.0000E+00  0.0000E+00  0.0000E+00  0.0000E+00  0.0000E+00  0.0000E+00  0.0000E+00
 74  0.0000E+00  9.6434E-02  0.0000E+00  0.0000E+00  2.3276E-01  0.0000E+00  2.2888E-01  0.0000E+00  0.0000E+00
 75  0.0000E+00  1.1036E-01  0.0000E+00  0.0000E+00  0.0000E+00  8.7152E-01  0.0000E+00  6.8038E-02  0.0000E+00
 76  0.0000E+00  1.4015E-05  0.0000E+00  0.0000E+00  0.0000E+00  0.0000E+00  0.0000E+00  0.0000E+00  0.0000E+00
 77  0.0000E+00  6.8213E-06  0.0000E+00  0.0000E+00  0.0000E+00  0.0000E+00  0.0000E+00  0.0000E+00  0.0000E+00
 78  0.0000E+00  2.3254E-05  0.0000E+00  0.0000E+00  0.0000E+00  0.0000E+00  0.0000E+00  0.0000E+00  5.7215E-06
 79  0.0000E+00  7.5381E-05  9.9422E-04  0.0000E+00  0.0000E+00  8.3570E-05  0.0000E+00  0.0000E+00  5.0062E-05
 80  0.0000E+00  3.7940E-05  0.0000E+00  0.0000E+00  0.0000E+00  0.0000E+00  0.0000E+00  0.0000E+00  0.0000E+00
 81  0.0000E+00  4.2616E-05  0.0000E+00  0.0000E+00  0.0000E+00  0.0000E+00  6.2168E-06  0.0000E+00  0.0000E+00
 82  0.0000E+00  8.3323E-05  7.7417E-05  1.2270E-05  0.0000E+00  0.0000E+00  0.0000E+00  0.0000E+00  1.2575E-04
 83  0.0000E+00  2.5530E-04  0.0000E+00  0.0000E+00  1.8337E-03  0.0000E+00  0.0000E+00  0.0000E+00  0.0000E+00
 84  0.0000E+00  3.5623E-04  0.0000E+00  0.0000E+00  0.0000E+00  0.0000E+00  0.0000E+00  0.0000E+00  0.0000E+00
 85  0.0000E+00  6.5507E-04  0.0000E+00  0.0000E+00  0.0000E+00  0.0000E+00  0.0000E+00  0.0000E+00  1.9243E-03
 86  0.0000E+00  3.1083E-03  0.0000E+00  6.5214E-04  0.0000E+00  0.0000E+00  4.9253E-03  0.0000E+00  0.0000E+00
 87  0.0000E+00  1.8551E-03  0.0000E+00  0.0000E+00  0.0000E+00  0.0000E+00  0.0000E+00  6.8357E-05  0.0000E+00
 88  0.0000E+00  2.5575E-03  0.0000E+00  2.6432E-03  3.4040E-03  0.0000E+00  0.0000E+00  0.0000E+00  0.0000E+00
 89  0.0000E+00  8.1651E-03  3.7701E-02  3.6602E-03  0.0000E+00  0.0000E+00  2.7882E-02  0.0000E+00  3.2203E-02
 90  0.0000E+00  4.3261E-03  0.0000E+00  0.0000E+00  0.0000E+00  0.0000E+00  0.0000E+00  0.0000E+00  0.0000E+00
 91  0.0000E+00  5.5243E-03  0.0000E+00  3.3785E-02  0.0000E+00  1.4488E-02  0.0000E+00  0.0000E+00  0.0000E+00
 92  0.0000E+00  1.6960E-02  0.0000E+00  0.0000E+00  1.7118E-02  0.0000E+00  0.0000E+00  0.0000E+00  0.0000E+00
 93  0.0000E+00  1.3688E-01  5.5460E-01  1.0523E-01  0.0000E+00  3.2846E-01  0.0000E+00  2.4444E-01  3.2831E-01
 94  7.0288E-05  8.0222E-01  9.5542E-01  9.9428E-01  5.1737E-01  5.5925E-01  1.1374E+00  8.0231E-01  0.0000E+00
 95  0.0000E+00  2.6426E-01  4.7048E-01  1.0472E-01  0.0000E+00  0.0000E+00  0.0000E+00  0.0000E+00  1.0209E+00
 96  0.0000E+00  1.3570E-01  0.0000E+00  0.0000E+00  0.0000E+00  0.0000E+00  0.0000E+00  0.0000E+00  2.6137E-01
 97  0.0000E+00  3.8634E-01  2.9383E-01  6.2833E-02  0.0000E+00  5.7216E-01  4.8983E-01  6.5907E-01  1.0394E+00
 98  0.0000E+00  9.4244E-01  1.2060E+00  8.9559E-01  7.5155E-01  2.6009E+00  7.8746E-01  0.0000E+00  4.2141E-02
 99  1.8577E-02  2.2554E+00  2.9318E+00  1.9229E+00  3.1206E+00  2.1029E+00  1.7922E+00  2.2553E+00  1.6758E+00
100  0.0000E+00  1.0971E+00  8.2183E-01  2.2661E+00  1.1126E+00  1.5421E+00  1.6377E+00  0.0000E+00  1.4385E+00
101  0.0000E+00  4.0213E-06  0.0000E+00  0.0000E+00  0.0000E+00  0.0000E+00  0.0000E+00  0.0000E+00  0.0000E+00
102  0.0000E+00  6.5488E-06  0.0000E+00  0.0000E+00  0.0000E+00  0.0000E+00  0.0000E+00  0.0000E+00  0.0000E+00
103  0.0000E+00  2.2211E-05  0.0000E+00  0.0000E+00  0.0000E+00  0.0000E+00  0.0000E+00  0.0000E+00  0.0000E+00
104  0.0000E+00  3.9344E-05  0.0000E+00  0.0000E+00  0.0000E+00  0.0000E+00  0.0000E+00  0.0000E+00  0.0000E+00
105  0.0000E+00  1.7395E-05  0.0000E+00  0.0000E+00  0.0000E+00  0.0000E+00  0.0000E+00  0.0000E+00  0.0000E+00
106  0.0000E+00  1.9244E-05  0.0000E+00  0.0000E+00  0.0000E+00  0.0000E+00  0.0000E+00  0.0000E+00  0.0000E+00
107  0.0000E+00  4.6811E-05  0.0000E+00  0.0000E+00  0.0000E+00  0.0000E+00  0.0000E+00  0.0000E+00  0.0000E+00
108  0.0000E+00  5.0517E-05  0.0000E+00  0.0000E+00  0.0000E+00  0.0000E+00  0.0000E+00  0.0000E+00  0.0000E+00
109  0.0000E+00  1.5594E-04  0.0000E+00  1.7688E-04  3.7367E-05  0.0000E+00  0.0000E+00  0.0000E+00  0.0000E+00
110  0.0000E+00  5.2272E-04  0.0000E+00  0.0000E+00  9.1531E-03  0.0000E+00  0.0000E+00  0.0000E+00  0.0000E+00
111  0.0000E+00  1.2883E-03  0.0000E+00  0.0000E+00  0.0000E+00  0.0000E+00  0.0000E+00  0.0000E+00  0.0000E+00
112  0.0000E+00  3.0118E-03  0.0000E+00  0.0000E+00  6.3298E-04  2.1743E-03  0.0000E+00  5.4542E-03  5.6530E-03
113  0.0000E+00  2.0616E-03  0.0000E+00  0.0000E+00  0.0000E+00  0.0000E+00  0.0000E+00  5.7472E-04  0.0000E+00
114  0.0000E+00  2.9756E-03  4.0743E-03  0.0000E+00  0.0000E+00  0.0000E+00  0.0000E+00  0.0000E+00  0.0000E+00
115  0.0000E+00  1.3962E-02  0.0000E+00  0.0000E+00  2.8628E-02  0.0000E+00  4.0822E-02  0.0000E+00  4.0946E-03
116  0.0000E+00  7.3217E-02  1.1776E-01  1.5725E-02  1.3697E-01  3.3718E-02  0.0000E+00  0.0000E+00  2.0271E-01
117  0.0000E+00  8.7646E-02  1.9956E-02  1.1310E-02  3.3966E-01  0.0000E+00  0.0000E+00  0.0000E+00  0.0000E+00
118  0.0000E+00  2.8376E-01  1.5139E-01  3.9079E-01  5.4210E-02  3.5860E-01  1.1350E-01  0.0000E+00  4.5375E-02
119  0.0000E+00  1.6256E-01  0.0000E+00  0.0000E+00  2.6565E-01  0.0000E+00  5.4500E-01  2.0291E-01  0.0000E+00
120  0.0000E+00  3.6072E-01  0.0000E+00  7.3791E-01  0.0000E+00  1.7785E-01  7.6577E-01  3.7598E-01  0.0000E+00
121  0.0000E+00  2.2296E-01  0.0000E+00  3.7068E-01  3.7528E-01  0.0000E+00  6.7584E-02  6.7808E-01  0.0000E+00
122  0.0000E+00  1.1131E-01  0.0000E+00  0.0000E+00  9.3501E-02  0.0000E+00  0.0000E+00  0.0000E+00  0.0000E+00
123  0.0000E+00  1.3573E-01  3.4060E-02  0.0000E+00  8.3057E-02  2.7218E-02  7.0680E-01  0.0000E+00  0.0000E+00
124  0.0000E+00  9.9842E-02  7.2075E-01  0.0000E+00  0.0000E+00  0.0000E+00  0.0000E+00  0.0000E+00  0.0000E+00
125  0.0000E+00  2.7203E-01  0.0000E+00  0.0000E+00  0.0000E+00  0.0000E+00  0.0000E+00  0.0000E+00  0.0000E+00
126  0.0000E+00  4.7947E-06  0.0000E+00  0.0000E+00  0.0000E+00  0.0000E+00  0.0000E+00  0.0000E+00  0.0000E+00
127  0.0000E+00  6.2709E-06  0.0000E+00  0.0000E+00  0.0000E+00  0.0000E+00  0.0000E+00  0.0000E+00  0.0000E+00
128  0.0000E+00  1.5921E-05  0.0000E+00  0.0000E+00  0.0000E+00  0.0000E+00  0.0000E+00  0.0000E+00  0.0000E+00
129  0.0000E+00  1.1857E-05  0.0000E+00  0.0000E+00  0.0000E+00  0.0000E+00  0.0000E+00  0.0000E+00  0.0000E+00
130  0.0000E+00  1.8490E-05  0.0000E+00  0.0000E+00  0.0000E+00  0.0000E+00  0.0000E+00  0.0000E+00  0.0000E+00
131  0.0000E+00  2.9366E-05  0.0000E+00  0.0000E+00  2.6292E-04  0.0000E+00  0.0000E+00  0.0000E+00  0.0000E+00
132  0.0000E+00  2.9127E-05  0.0000E+00  0.0000E+00  0.0000E+00  0.0000E+00  0.0000E+00  5.3792E-05  0.0000E+00
133  0.0000E+00  6.4036E-05  0.0000E+00  0.0000E+00  0.0000E+00  0.0000E+00  0.0000E+00  0.0000E+00  0.0000E+00
134  0.0000E+00  2.5135E-04  0.0000E+00  0.0000E+00  0.0000E+00  0.0000E+00  0.0000E+00  0.0000E+00  0.0000E+00
135  0.0000E+00  4.0708E-04  0.0000E+00  0.0000E+00  0.0000E+00  0.0000E+00  0.0000E+00  0.0000E+00  6.7296E-03
136  0.0000E+00  1.6024E-03  3.4640E-04  2.1749E-03  0.0000E+00  1.1261E-02  1.9214E-03  0.0000E+00  1.1661E-03
137  0.0000E+00  1.7009E-03  0.0000E+00  0.0000E+00  5.3242E-03  0.0000E+00  2.4585E-02  0.0000E+00  0.0000E+00
138  0.0000E+00  4.7727E-03  0.0000E+00  0.0000E+00  0.0000E+00  1.6570E-03  2.1124E-03  4.2750E-02  0.0000E+00
139  0.0000E+00  1.1894E-02  0.0000E+00  0.0000E+00  0.0000E+00  9.7459E-02  0.0000E+00  0.0000E+00  3.2363E-02
140  0.0000E+00  5.5031E-02  0.0000E+00  3.2856E-02  4.2423E-02  3.1288E-03  0.0000E+00  0.0000E+00  1.6022E-02
141  4.3328E+00  1.9268E+00  1.9885E+00  2.0756E+00  2.0381E+00  1.9333E+00  2.2508E+00  2.4766E+00  2.6938E+00
142  3.6483E+00  7.1211E-01  7.5692E-01  7.8983E-01  1.0288E+00  1.0593E+00  8.3829E-01  7.5066E-01  1.0487E+00
143  1.3899E+00  3.8843E-01  4.0015E-01  0.0000E+00  4.5388E-01  3.5163E-01  0.0000E+00  1.2737E+00  3.6059E-01
144  0.0000E+00  3.4784E-01  1.3128E+00  5.9729E-01  0.0000E+00  6.4113E-02  0.0000E+00  0.0000E+00  3.1172E-01
145  0.0000E+00  9.9649E-02  0.0000E+00  8.2621E-01  0.0000E+00  0.0000E+00  5.7306E-02  0.0000E+00  0.0000E+00
146  0.0000E+00  7.8526E-02  0.0000E+00  0.0000E+00  0.0000E+00  0.0000E+00  0.0000E+00  0.0000E+00  0.0000E+00
147  0.0000E+00  2.9370E-01  0.0000E+00  0.0000E+00  0.0000E+00  1.2115E-01  0.0000E+00  0.0000E+00  9.9876E-01
148  0.0000E+00  2.8132E-01  8.3413E-01  0.0000E+00  0.0000E+00  0.0000E+00  0.0000E+00  0.0000E+00  0.0000E+00
149  0.0000E+00  8.3090E-02  0.0000E+00  0.0000E+00  5.1830E-01  0.0000E+00  0.0000E+00  0.0000E+00  0.0000E+00
150  0.0000E+00  3.0565E-01  0.0000E+00  1.1678E-01  0.0000E+00  3.5961E-01  1.4545E+00  2.2440E-01  0.0000E+00

# AV, chi2 & Mass for <> & i_chain = 1 ...  7 solutions
AV       0.1143      0.0951      0.0955      0.0938      0.1001      0.0968      0.0976      0.0967      0.0988
chi2 2.1010E+00  2.1559E+00  2.1488E+00  2.1487E+00  2.1470E+00  2.1505E+00  2.1449E+00  2.1404E+00  2.1414E+00
Mass 1.9321E-10  2.2049E-10  2.1827E-10  2.1857E-10  2.1402E-10  2.1656E-10  2.1903E-10  2.1172E-10  2.1245E-10
 -22.68                                  [v0_min (km/s) before EX0s...]
  68.28                                  [vd_min (km/s) before EX0s...]


## Synthetic spectrum (Best Model) ##l_obs f_obs f_syn wei
 3070    [Nl_obs]
 3359.00    0.27357   0.45205   -1.000
 3360.00    0.27108   0.44353   -1.000
 3361.00    0.28301   0.45669   -1.000
 3362.00    0.29706   0.48287   -1.000
 3363.00    0.30788   0.50986   -1.000
 3364.00    0.32501   0.52385   -1.000
 3365.00    0.34501   0.52153   -1.000
 3366.00    0.34984   0.51249   -1.000
 3367.00    0.34951   0.50303   -1.000
 3368.00    0.34390   0.49365   -1.000
 3369.00    0.32811   0.48209   -1.000
 3370.00    0.32409   0.46786   -1.000
 3371.00    0.32998   0.45969   -1.000
 3372.00    0.33165   0.46523   -1.000
 3373.00    0.34024   0.48337   -1.000
 3374.00    0.36068   0.50644   -1.000
 3375.00    0.37980   0.52609   -1.000
 3376.00    0.39502   0.53472   -1.000
 3377.00    0.40492   0.53052   -1.000
 3378.00    0.40839   0.51907   -1.000
 3379.00    0.39926   0.51068   -1.000
 3380.00    0.39375   0.51072   -1.000
 3381.00    0.40198   0.51638   -1.000
 3382.00    0.40722   0.52308   -1.000
 3383.00    0.41106   0.52905   -1.000
 3384.00    0.41603   0.53421   -1.000
 3385.00    0.41694   0.53623   -1.000
 3386.00    0.42241   0.53119   -1.000
 3387.00    0.43248   0.52345   -1.000
 3388.00    0.43027   0.52200   -1.000
 3389.00    0.42466   0.52807   -1.000
 3390.00    0.43083   0.53500   -1.000
 3391.00    0.43374   0.53593   -1.000
 3392.00    0.43157   0.53027   -1.000
 3393.00    0.43180   0.52746   -1.000
 3394.00    0.43321   0.53360   -1.000
 3395.00    0.44313   0.54658   -1.000
 3396.00    0.45831   0.56133   -1.000
 3397.00    0.46696   0.57320   -1.000
 3398.00    0.47536   0.57962   -1.000
 3399.00    0.48219   0.57833   -1.000
 3400.00    0.47806   0.57005   -1.000
 3401.00    0.47835   0.55605   38.468
 3402.00    0.47823   0.54112   39.162
 3403.00    0.46629   0.53262   39.836
 3404.00    0.45670   0.53103   40.227
 3405.00    0.45489   0.53277   -1.000
 3406.00    0.45738   0.53094   41.082
 3407.00    0.45304   0.52470   41.035
 3408.00    0.44286   0.52002   -1.000
 3409.00    0.45350   0.52286   39.490
 3410.00    0.46567   0.52902   40.299
 3411.00    0.46185   0.52972   41.515
 3412.00    0.46013   0.52518   41.789
 3413.00    0.45852   0.52095   41.151
 3414.00    0.45502   0.52393   39.690
 3415.00    0.45896   0.53386   37.877
 3416.00    0.46715   0.54496   36.011
 3417.00    0.47783   0.55470   35.129
 3418.00    0.48926   0.56299   34.943
 3419.00    0.50065   0.56957   34.956
 3420.00    0.50313   0.57242   35.629
 3421.00    0.49686   0.56764   36.551
 3422.00    0.49163   0.55566   36.304
 3423.00    0.49374   0.54422   35.294
 3424.00    0.49043   0.54050   34.785
 3425.00    0.49028   0.54420   -1.000
 3426.00    0.49858   0.55169   -1.000
 3427.00    0.50454   0.56299   -1.000
 3428.00    0.51379   0.57754   -1.000
 3429.00    0.52336   0.58904   -1.000
 3430.00    0.52214   0.58791   -1.000
 3431.00    0.51902   0.57351   34.716
 3432.00    0.52008   0.55872   69.786
 3433.00    0.51427   0.55599   -1.000
 3434.00    0.51299   0.56664   -1.000
 3435.00    0.52212   0.57858   35.508
 3436.00    0.52408   0.57960   37.448
 3437.00    0.51825   0.56921   40.117
 3438.00    0.50704   0.55319   42.433
 3439.00    0.49650   0.53563   43.195
 3440.00    0.48202   0.51850   43.111
 3441.00    0.47001   0.50494   42.030
 3442.00    0.47172   0.49960   39.977
 3443.00    0.47789   0.50342   37.768
 3444.00    0.48288   0.51434   36.131
 3445.00    0.49135   0.53052   72.747
 3446.00    0.50238   0.55071   -1.000
 3447.00    0.51622   0.57087   -1.000
 3448.00    0.53201   0.58482   -1.000
 3449.00    0.53967   0.58565   -1.000
 3450.00    0.53497   0.57125   -1.000
 3451.00    0.53675   0.55154   -1.000
 3452.00    0.53748   0.53903  275.035
 3453.00    0.53079   0.53806  275.035
 3454.00    0.53324   0.54465   -1.000
 3455.00    0.54593   0.55180  275.035
 3456.00    0.55902   0.55446   55.664
 3457.00    0.55640   0.55144   34.978
 3458.00    0.54312   0.54417   35.038
 3459.00    0.53757   0.53486   73.046
 3460.00    0.54197   0.52690   -1.000
 3461.00    0.54461   0.52680   -1.000
 3462.00    0.54341   0.53615  275.035
 3463.00    0.54743   0.54669  275.035
 3464.00    0.55391   0.55026  275.035
 3465.00    0.55595   0.54858  275.035
 3466.00    0.55409   0.55050  275.035
 3467.00    0.56183   0.56001  275.035
 3468.00    0.57196   0.57356  275.035
 3469.00    0.57779   0.58410  275.035
 3470.00    0.57932   0.58629  275.035
 3471.00    0.57980   0.57981  275.035
 3472.00    0.57075   0.56661   55.164
 3473.00    0.55912   0.54896   35.769
 3474.00    0.54907   0.53327   35.832
 3475.00    0.53432   0.52578   75.484
 3476.00    0.52437   0.52943  275.035
 3477.00    0.53814   0.54203  275.035
 3478.00    0.55689   0.55656  275.035
 3479.00    0.57644   0.56892  275.035
 3480.00    0.58722   0.57675  275.035
 3481.00    0.58704   0.57742  275.035
 3482.00    0.57971   0.57271  275.035
 3483.00    0.57200   0.56810  275.035
 3484.00    0.57461   0.56940  275.035
 3485.00    0.58569   0.57788  275.035
 3486.00    0.59143   0.58597  275.035
 3487.00    0.59373   0.58566  275.035
 3488.00    0.59282   0.57609   -1.000
 3489.00    0.57591   0.56224   -1.000
 3490.00    0.55830   0.55348  275.035
 3491.00    0.54873   0.55531  275.035
 3492.00    0.54802   0.56172   -1.000
 3493.00    0.55644   0.56328  275.035
 3494.00    0.55532   0.55733  275.035
 3495.00    0.54993   0.54706  275.035
 3496.00    0.55184   0.54075  275.035
 3497.00    0.55378   0.54384  275.035
 3498.00    0.56396   0.55275  275.035
 3499.00    0.57883   0.56110   -1.000
 3500.00    0.58208   0.56400   -1.000
 3501.00    0.58194   0.56455   -1.000
 3502.00    0.59463   0.56696   -1.000
 3503.00    0.60297   0.56899   -1.000
 3504.00    0.59577   0.56727   -1.000
 3505.00    0.59364   0.56163   -1.000
 3506.00    0.59216   0.55583   -1.000
 3507.00    0.59145   0.55249   -1.000
 3508.00    0.59245   0.55168   -1.000
 3509.00    0.58654   0.55179   -1.000
 3510.00    0.57753   0.55015   -1.000
 3511.00    0.57072   0.54620   -1.000
 3512.00    0.56835   0.54105   -1.000
 3513.00    0.56523   0.53826   -1.000
 3514.00    0.56059   0.54227   -1.000
 3515.00    0.57199   0.55538   -1.000
 3516.00    0.59293   0.57374   -1.000
 3517.00    0.59987   0.58659   -1.000
 3518.00    0.59411   0.58587  275.035
 3519.00    0.58707   0.57350   -1.000
 3520.00    0.57781   0.55920   -1.000
 3521.00    0.56824   0.54916   52.055
 3522.00    0.55767   0.54232   35.472
 3523.00    0.55240   0.53473   35.791
 3524.00    0.54669   0.52610   81.702
 3525.00    0.53412   0.52286   -1.000
 3526.00    0.53042   0.52985  275.035
 3527.00    0.54188   0.54432  275.035
 3528.00    0.56257   0.56135  275.035
 3529.00    0.57454   0.57565  275.035
 3530.00    0.58736   0.58394  275.035
 3531.00    0.58759   0.58554  275.035
 3532.00    0.59171   0.58021  275.035
 3533.00    0.59744   0.57134   -1.000
 3534.00    0.59457   0.56583   -1.000
 3535.00    0.59163   0.56876   -1.000
 3536.00    0.59219   0.57988   -1.000
 3537.00    0.59170   0.59300  273.994
 3538.00    0.59537   0.60261  275.035
 3539.00    0.59714   0.60692   -1.000
 3540.00    0.59997   0.60651  275.035
 3541.00    0.59602   0.60453  275.035
 3542.00    0.59214   0.60514   -1.000
 3543.00    0.59923   0.60923   -1.000
 3544.00    0.60709   0.61235  275.035
 3545.00    0.60235   0.61131   -1.000
 3546.00    0.60076   0.60766  275.035
 3547.00    0.60065   0.60438  275.035
 3548.00    0.59428   0.60380  275.035
 3549.00    0.59435   0.60646   -1.000
 3550.00    0.59522   0.61068   -1.000
 3551.00    0.59044   0.61179   -1.000
 3552.00    0.58194   0.60619   -1.000
 3553.00    0.57756   0.59731   -1.000
 3554.00    0.57739   0.59219   -1.000
 3555.00    0.58051   0.59401   -1.000
 3556.00    0.58083   0.60101   -1.000
 3557.00    0.57377   0.60868   -1.000
 3558.00    0.57650   0.61238   -1.000
 3559.00    0.58143   0.61238   -1.000
 3560.00    0.58255   0.61201   -1.000
 3561.00    0.58418   0.61197   -1.000
 3562.00    0.58502   0.60833   50.360
 3563.00    0.58123   0.59696   35.982
 3564.00    0.57003   0.57937   36.194
 3565.00    0.54667   0.56257   35.914
 3566.00    0.53714   0.55326   36.662
 3567.00    0.53513   0.55144   37.539
 3568.00    0.53404   0.55111   36.960
 3569.00    0.52610   0.54654   35.454
 3570.00    0.52008   0.53812   86.337
 3571.00    0.52677   0.53184  275.035
 3572.00    0.53676   0.53118  275.035
 3573.00    0.54123   0.53443  275.035
 3574.00    0.54888   0.54021  275.035
 3575.00    0.55357   0.54809  275.035
 3576.00    0.55534   0.55642   51.446
 3577.00    0.55757   0.56296   38.117
 3578.00    0.56104   0.56382   40.533
 3579.00    0.55282   0.55676   41.425
 3580.00    0.53272   0.54524   41.620
 3581.00    0.52123   0.53504   42.388
 3582.00    0.52019   0.53068   43.688
 3583.00    0.52685   0.52973   44.573
 3584.00    0.52282   0.52339   43.196
 3585.00    0.51073   0.50926   40.915
 3586.00    0.50366   0.49610   38.873
 3587.00    0.50014   0.49453   35.861
 3588.00    0.50602   0.50702   88.097
 3589.00    0.52496   0.52734  275.035
 3590.00    0.54100   0.54635  275.035
 3591.00    0.55355   0.55854  275.035
 3592.00    0.56986   0.56420  275.035
 3593.00    0.57213   0.56772  275.035
 3594.00    0.57241   0.57392  274.101
 3595.00    0.57770   0.58352  266.683
 3596.00    0.58399   0.59272  261.514
 3597.00    0.59285   0.59874  262.387
 3598.00    0.59964   0.60169  272.122
 3599.00    0.60894   0.60173  275.035
 3600.00    0.60620   0.59630  275.035
 3601.00    0.58760   0.58487  275.035
 3602.00    0.58138   0.57273  275.035
 3603.00    0.57064   0.56603  275.035
 3604.00    0.56405   0.56678  275.035
 3605.00    0.56795   0.56966  275.035
 3606.00    0.57548   0.56912  275.035
 3607.00    0.57319   0.56493  275.035
 3608.00    0.56619   0.55998  275.035
 3609.00    0.55001   0.55716  275.035
 3610.00    0.54617   0.55748   -1.000
 3611.00    0.56243   0.56113  275.035
 3612.00    0.57233   0.56694  275.035
 3613.00    0.56945   0.57420  275.035
 3614.00    0.57839   0.58458  275.035
 3615.00    0.59043   0.59450  275.035
 3616.00    0.59146   0.59504   47.319
 3617.00    0.57723   0.58413   92.100
 3618.00    0.55567   0.56911   -1.000
 3619.00    0.54727   0.56222   -1.000
 3620.00    0.56386   0.56888  274.111
 3621.00    0.58150   0.58254  269.860
 3622.00    0.58984   0.59479  261.703
 3623.00    0.59582   0.60354  251.013
 3624.00    0.59895   0.61320   -1.000
 3625.00    0.61449   0.62743   -1.000
 3626.00    0.62989   0.64312   -1.000
 3627.00    0.63645   0.65079   -1.000
 3628.00    0.63220   0.64167   -1.000
 3629.00    0.61050   0.61721  275.035
 3630.00    0.57478   0.58910   -1.000
 3631.00    0.55726   0.57194   -1.000
 3632.00    0.56089   0.57208   -1.000
 3633.00    0.56867   0.58363   -1.000
 3634.00    0.58450   0.59465   -1.000
 3635.00    0.59503   0.59969  262.748
 3636.00    0.59849   0.60373  253.115
 3637.00    0.60723   0.61204  250.587
 3638.00    0.61810   0.62240  255.124
 3639.00    0.62783   0.62891  263.193
 3640.00    0.62471   0.62799  275.035
 3641.00    0.61680   0.61978  275.035
 3642.00    0.60603   0.60775  275.035
 3643.00    0.59304   0.59683  275.035
 3644.00    0.58595   0.58959  275.035
 3645.00    0.58478   0.58546  275.035
 3646.00    0.58270   0.58335  275.035
 3647.00    0.57816   0.58299  275.035
 3648.00    0.58164   0.58377  272.897
 3649.00    0.58532   0.58572  260.954
 3650.00    0.58791   0.59028  253.368
 3651.00    0.60076   0.59879  249.156
 3652.00    0.61015   0.61057  247.646
 3653.00    0.61352   0.62284  245.308
 3654.00    0.62053   0.63411   -1.000
 3655.00    0.63052   0.64368   -1.000
 3656.00    0.63263   0.65033   -1.000
 3657.00    0.62904   0.65331   -1.000
 3658.00    0.63493   0.65309   -1.000
 3659.00    0.63438   0.65048   -1.000
 3660.00    0.63644   0.64540  246.503
 3661.00    0.63459   0.63848  248.997
 3662.00    0.63186   0.63213  247.176
 3663.00    0.63155   0.62909  246.511
 3664.00    0.62826   0.63007  250.477
 3665.00    0.63120   0.63257  253.902
 3666.00    0.62843   0.63342  259.322
 3667.00    0.62199   0.63090   -1.000
 3668.00    0.61258   0.62599   -1.000
 3669.00    0.61479   0.62233  245.603
 3670.00    0.62042   0.62312  243.760
 3671.00    0.62668   0.62895  243.527
 3672.00    0.62983   0.63641  243.941
 3673.00    0.63480   0.64029  249.795
 3674.00    0.63283   0.63816  257.629
 3675.00    0.63361   0.63028  265.502
 3676.00    0.63052   0.61826  272.591
 3677.00    0.61512   0.60602  273.683
 3678.00    0.59789   0.59876  267.966
 3679.00    0.59781   0.59901  260.334
 3680.00    0.60337   0.60386  256.701
 3681.00    0.60544   0.60911  260.918
 3682.00    0.61237   0.61208  270.666
 3683.00    0.61081   0.61098  275.035
 3684.00    0.60960   0.60554  275.035
 3685.00    0.60004   0.59795  275.035
 3686.00    0.59453   0.59416  266.890
 3687.00    0.59436   0.60063  249.121
 3688.00    0.60435   0.61721   -1.000
 3689.00    0.62059   0.63460   -1.000
 3690.00    0.63318   0.64419  244.883
 3691.00    0.63459   0.64607   -1.000
 3692.00    0.63974   0.64589  248.983
 3693.00    0.64269   0.64760  246.990
 3694.00    0.64244   0.64972  244.141
 3695.00    0.63621   0.64844   -1.000
 3696.00    0.63055   0.64374   -1.000
 3697.00    0.63677   0.64399  227.064
 3698.00    0.64443   0.65679   -1.000
 3699.00    0.66671   0.67739  238.986
 3700.00    0.68017   0.69005  259.061
 3701.00    0.66616   0.67954   -1.000
 3702.00    0.64356   0.64670  275.035
 3703.00    0.60922   0.60716  275.035
 3704.00    0.57939   0.57923  275.035
 3705.00    0.57513   0.57282  275.035
 3706.00    0.58913   0.58452  275.035
 3707.00    0.60594   0.60244  271.982
 3708.00    0.61480   0.61349  259.590
 3709.00    0.61760   0.61111  245.411
 3710.00    0.61503   0.60022   -1.000
 3711.00    0.60275   0.59346  226.268
 3712.00    0.61310   0.60199  224.537
 3713.00    0.63936   0.62846  229.086
 3714.00    0.67663   0.66351  238.551
 3715.00    0.70244   0.69280  258.717
 3716.00    0.70071   0.70770  275.035
 3717.00    0.68999   0.70354   -1.000
 3718.00    0.66467   0.67564   44.123
 3719.00    0.61568   0.62590  114.584
 3720.00    0.56747   0.57129  275.035
 3721.00    0.53826   0.53722  266.921
 3722.00    0.55047   0.53870   -1.000
 3723.00    0.58844   0.57408   -1.000
 3724.00    0.63862   0.62556   -1.000
 3725.00    0.67342   0.66788  262.484
 3726.00    0.69247   0.69033  259.399
 3727.00    0.69212   0.69966  260.636
 3728.00    0.68559   0.70468   -1.000
 3729.00    0.68776   0.70518   -1.000
 3730.00    0.68096   0.69161   42.758
 3731.00    0.64737   0.65402   37.789
 3732.00    0.59633   0.59700   39.890
 3733.00    0.54626   0.53994   38.577
 3734.00    0.50584   0.50303   35.253
 3735.00    0.50235   0.49995  114.547
 3736.00    0.52402   0.53116  275.035
 3737.00    0.57151   0.58322  261.934
 3738.00    0.63039   0.64067  257.790
 3739.00    0.67655   0.69059   -1.000
 3740.00    0.70122   0.72114   -1.000
 3741.00    0.71580   0.72824   -1.000
 3742.00    0.70697   0.71760  275.035
 3743.00    0.69158   0.69843  275.035
 3744.00    0.66669   0.67542   42.972
 3745.00    0.63646   0.64899   36.859
 3746.00    0.60493   0.61707   37.657
 3747.00    0.56776   0.57924  129.316
 3748.00    0.53424   0.54099  275.035
 3749.00    0.50337   0.51522   -1.000
 3750.00    0.51236   0.51812  251.270
 3751.00    0.56280   0.55487  237.019
 3752.00    0.62097   0.61268  230.955
 3753.00    0.67244   0.67118  240.738
 3754.00    0.71579   0.71459  269.192
 3755.00    0.74448   0.73618  275.035
 3756.00    0.74036   0.73451  275.035
 3757.00    0.71612   0.71603  275.035
 3758.00    0.69674   0.69553  275.035
 3759.00    0.68695   0.68539  268.423
 3760.00    0.69654   0.68866  265.673
 3761.00    0.72024   0.70062   -1.000
 3762.00    0.73364   0.71251   -1.000
 3763.00    0.72787   0.71753  271.952
 3764.00    0.72061   0.71316  275.035
 3765.00    0.71601   0.69987   -1.000
 3766.00    0.70072   0.67793   -1.000
 3767.00    0.67346   0.64603   -1.000
 3768.00    0.63436   0.60724   -1.000
 3769.00    0.60944   0.57169   -1.000
 3770.00    0.58420   0.55456   -1.000
 3771.00    0.59338   0.56737   -1.000
 3772.00    0.63291   0.60519   -1.000
 3773.00    0.68066   0.65005   -1.000
 3774.00    0.70919   0.68587   -1.000
 3775.00    0.72458   0.70993   -1.000
 3776.00    0.74875   0.72995   -1.000
 3777.00    0.77264   0.75349   -1.000
 3778.00    0.79398   0.78008   -1.000
 3779.00    0.81316   0.80515  219.020
 3780.00    0.82420   0.82420  218.912
 3781.00    0.83497   0.83386  223.194
 3782.00    0.83887   0.83454  234.061
 3783.00    0.84049   0.82918  250.950
 3784.00    0.83375   0.81914   -1.000
 3785.00    0.81130   0.80374  270.801
 3786.00    0.79102   0.78418  271.392
 3787.00    0.78131   0.76562   -1.000
 3788.00    0.77409   0.75443   -1.000
 3789.00    0.76647   0.75108   -1.000
 3790.00    0.76829   0.74987   -1.000
 3791.00    0.75944   0.74377   -1.000
 3792.00    0.74045   0.72786   -1.000
 3793.00    0.70660   0.69970  275.035
 3794.00    0.67148   0.66003   -1.000
 3795.00    0.63161   0.61365   -1.000
 3796.00    0.59147   0.56756   -1.000
 3797.00    0.55913   0.53340   -1.000
 3798.00    0.54656   0.52723   -1.000
 3799.00    0.57725   0.55830   -1.000
 3800.00    0.62841   0.61736  245.633
 3801.00    0.68701   0.68180  243.671
 3802.00    0.73424   0.73305  246.705
 3803.00    0.76190   0.76527  255.364
 3804.00    0.78382   0.78122  261.071
 3805.00    0.79446   0.78613  255.845
 3806.00    0.79380   0.78922  246.240
 3807.00    0.79539   0.79878  242.533
 3808.00    0.81209   0.81626  246.285
 3809.00    0.82920   0.83556  258.493
 3810.00    0.84612   0.84616  274.370
 3811.00    0.84318   0.83915  275.035
 3812.00    0.82543   0.81583  275.035
 3813.00    0.80527   0.78855   -1.000
 3814.00    0.78137   0.77159  275.035
 3815.00    0.78514   0.77198   -1.000
 3816.00    0.80228   0.78485   -1.000
 3817.00    0.80304   0.79737  275.035
 3818.00    0.80878   0.79702  275.035
 3819.00    0.79300   0.78335  275.035
 3820.00    0.77399   0.76877  275.035
 3821.00    0.77328   0.76429  275.035
 3822.00    0.78607   0.76636   41.754
 3823.00    0.77591   0.75994   36.906
 3824.00    0.74729   0.74003   36.726
 3825.00    0.71712   0.71731   36.161
 3826.00    0.70345   0.70101   35.566
 3827.00    0.70652   0.69062   35.882
 3828.00    0.70065   0.68149   37.380
 3829.00    0.69211   0.66967   40.234
 3830.00    0.67579   0.65039   41.723
 3831.00    0.65109   0.61907   41.140
 3832.00    0.60549   0.57474   39.560
 3833.00    0.56006   0.52618   38.605
 3834.00    0.52191   0.49007   39.234
 3835.00    0.51009   0.47783   40.181
 3836.00    0.53348   0.49083   39.658
 3837.00    0.56466   0.52263   37.548
 3838.00    0.59460   0.56244   -1.000
 3839.00    0.62054   0.60257   -1.000
 3840.00    0.65693   0.64272   -1.000
 3841.00    0.70164   0.68359   -1.000
 3842.00    0.73634   0.72358   -1.000
 3843.00    0.77276   0.75868   -1.000
 3844.00    0.80086   0.78485   -1.000
 3845.00    0.81167   0.80315  275.035
 3846.00    0.81090   0.81694  275.035
 3847.00    0.81955   0.82637  275.035
 3848.00    0.82533   0.82914  275.035
 3849.00    0.81797   0.82737  275.035
 3850.00    0.81201   0.82945   -1.000
 3851.00    0.81572   0.84071   -1.000
 3852.00    0.84091   0.85599   -1.000
 3853.00    0.85251   0.86512   -1.000
 3854.00    0.84933   0.86299   -1.000
 3855.00    0.83747   0.85253   38.567
 3856.00    0.82438   0.83999   36.241
 3857.00    0.81643   0.82893   35.745
 3858.00    0.80559   0.82109  162.883
 3859.00    0.79055   0.82049   -1.000
 3860.00    0.79175   0.83007   -1.000
 3861.00    0.82705   0.84608   -1.000
 3862.00    0.86151   0.86010  275.035
 3863.00    0.87553   0.86668  275.035
 3864.00    0.86693   0.86649  275.035
 3865.00    0.86299   0.86441  275.035
 3866.00    0.86924   0.86532  275.035
 3867.00    0.86550   0.86960  275.035
 3868.00    0.86159   0.87199   38.707
 3869.00    0.84741   0.86560   -1.000
 3870.00    0.82118   0.84872   -1.000
 3871.00    0.79764   0.82613   -1.000
 3872.00    0.77651   0.80741   -1.000
 3873.00    0.78165   0.80151   -1.000
 3874.00    0.80997   0.80743  275.035
 3875.00    0.82777   0.81321   -1.000
 3876.00    0.81513   0.80663  275.035
 3877.00    0.78838   0.78910  275.035
 3878.00    0.76484   0.77336  275.035
 3879.00    0.75367   0.76812   -1.000
 3880.00    0.75797   0.76897  275.035
 3881.00    0.75487   0.76476  275.035
 3882.00    0.74444   0.75142  275.035
 3883.00    0.73503   0.73050  275.035
 3884.00    0.72368   0.70046   -1.000
 3885.00    0.68965   0.65810   -1.000
 3886.00    0.63834   0.60573   -1.000
 3887.00    0.59277   0.55634   -1.000
 3888.00    0.56164   0.52759   -1.000
 3889.00    0.56495   0.53145   -1.000
 3890.00    0.60651   0.56778   -1.000
 3891.00    0.66074   0.62127   -1.000
 3892.00    0.70991   0.67025   -1.000
 3893.00    0.72804   0.70314   -1.000
 3894.00    0.74497   0.72308   -1.000
 3895.00    0.76937   0.73912   -1.000
 3896.00    0.78214   0.75623   -1.000
 3897.00    0.80050   0.77222   -1.000
 3898.00    0.80317   0.78266   -1.000
 3899.00    0.79851   0.78903  229.195
 3900.00    0.82153   0.79778   -1.000
 3901.00    0.83446   0.80921   -1.000
 3902.00    0.84573   0.81755   -1.000
 3903.00    0.84263   0.81915   -1.000
 3904.00    0.83318   0.81649   -1.000
 3905.00    0.82080   0.81668  220.648
 3906.00    0.82750   0.82630  214.814
 3907.00    0.84890   0.84757  212.707
 3908.00    0.87948   0.87448  210.684
 3909.00    0.89472   0.89655  209.391
 3910.00    0.90744   0.90762  211.666
 3911.00    0.90921   0.90805  215.984
 3912.00    0.90364   0.90048  221.058
 3913.00    0.89532   0.88859  223.998
 3914.00    0.88447   0.87876  226.984
 3915.00    0.89175   0.87531   -1.000
 3916.00    0.88070   0.87540  243.668
 3917.00    0.87153   0.87353  255.340
 3918.00    0.86614   0.86776  260.961
 3919.00    0.85919   0.86080  258.970
 3920.00    0.85736   0.85613  254.264
 3921.00    0.85420   0.85483  255.948
 3922.00    0.85623   0.85624  268.291
 3923.00    0.86214   0.85762  275.035
 3924.00    0.85320   0.85437  275.035
 3925.00    0.83422   0.84079   40.942
 3926.00    0.81067   0.81415   44.471
 3927.00    0.77777   0.77597   52.037
 3928.00    0.73108   0.72802   61.559
 3929.00    0.67027   0.67048   72.069
 3930.00    0.59595   0.59940   79.063
 3931.00    0.51691   0.51516   76.284
 3932.00    0.44217   0.43498   66.488
 3933.00    0.40626   0.38855   55.073
 3934.00    0.41324   0.39840   45.226
 3935.00    0.47320   0.45984   37.972
 3936.00    0.57057   0.54614   -1.000
 3937.00    0.64551   0.63270   -1.000
 3938.00    0.71530   0.70605  275.035
 3939.00    0.76728   0.76039  275.035
 3940.00    0.79700   0.79601  275.035
 3941.00    0.80614   0.81561  275.035
 3942.00    0.81747   0.82441  254.590
 3943.00    0.82615   0.82979  239.503
 3944.00    0.82748   0.83684  236.504
 3945.00    0.85086   0.84668  234.771
 3946.00    0.87477   0.85624   -1.000
 3947.00    0.87295   0.86059  218.877
 3948.00    0.86413   0.85876  219.626
 3949.00    0.87082   0.85420   -1.000
 3950.00    0.87823   0.85041   -1.000
 3951.00    0.88087   0.84865   -1.000
 3952.00    0.87661   0.85027   -1.000
 3953.00    0.87608   0.85434   -1.000
 3954.00    0.88606   0.85545   -1.000
 3955.00    0.87138   0.84959   -1.000
 3956.00    0.85501   0.83886   -1.000
 3957.00    0.84912   0.82979   -1.000
 3958.00    0.85379   0.82395   -1.000
 3959.00    0.84949   0.81319   -1.000
 3960.00    0.81483   0.79035   -1.000
 3961.00    0.76923   0.75648   37.577
 3962.00    0.73209   0.71719   42.097
 3963.00    0.69432   0.67483   51.874
 3964.00    0.64325   0.62207   63.501
 3965.00    0.57169   0.55086   70.383
 3966.00    0.47564   0.46308   65.652
 3967.00    0.38001   0.37608   54.239
 3968.00    0.31862   0.31795   44.554
 3969.00    0.31245   0.30983   37.252
 3970.00    0.36476   0.35291   -1.000
 3971.00    0.45231   0.42966   -1.000
 3972.00    0.54833   0.51567   -1.000
 3973.00    0.62502   0.59348   -1.000
 3974.00    0.69207   0.65804   -1.000
 3975.00    0.74614   0.71009   -1.000
 3976.00    0.78088   0.75204   -1.000
 3977.00    0.81366   0.78615   -1.000
 3978.00    0.84460   0.81413   -1.000
 3979.00    0.87471   0.83454   -1.000
 3980.00    0.88192   0.84528   -1.000
 3981.00    0.88594   0.84905   -1.000
 3982.00    0.88774   0.85271   -1.000
 3983.00    0.89490   0.86209   -1.000
 3984.00    0.91600   0.87674   -1.000
 3985.00    0.92926   0.89109   -1.000
 3986.00    0.93177   0.90158   -1.000
 3987.00    0.93837   0.91019   -1.000
 3988.00    0.94641   0.91820   -1.000
 3989.00    0.95013   0.92474   -1.000
 3990.00    0.96251   0.93137   -1.000
 3991.00    0.96816   0.93987   -1.000
 3992.00    0.98191   0.94928   -1.000
 3993.00    0.98572   0.95503   -1.000
 3994.00    0.97530   0.95194   -1.000
 3995.00    0.95523   0.93994  185.310
 3996.00    0.94330   0.92605  176.691
 3997.00    0.93705   0.91991  170.723
 3998.00    0.94514   0.92537   -1.000
 3999.00    0.96831   0.93807   -1.000
 4000.00    0.98054   0.95046   -1.000
 4001.00    0.99518   0.95726   -1.000
 4002.00    0.99436   0.95661   -1.000
 4003.00    0.98686   0.94900   -1.000
 4004.00    0.96519   0.93752   -1.000
 4005.00    0.94578   0.93022  170.317
 4006.00    0.95914   0.93475   -1.000
 4007.00    0.96624   0.94992  166.348
 4008.00    0.98288   0.96688  165.819
 4009.00    0.99718   0.97769   -1.000
 4010.00    1.00000   0.98121   -1.000
 4011.00    0.99390   0.98007  166.651
 4012.00    1.00054   0.97770   -1.000
 4013.00    0.99403   0.97767  165.765
 4014.00    0.99769   0.98140  167.846
 4015.00    1.00613   0.98724   -1.000
 4016.00    1.00553   0.99308  164.302
 4017.00    1.00289   0.99863  164.785
 4018.00    1.00894   1.00441  167.285
 4019.00    1.01240   1.00913  168.221
 4020.00    1.01266   1.00960  169.330
 4021.00    1.00390   1.00423  170.658
 4022.00    0.99879   0.99503  166.233
 4023.00    0.99926   0.98597  160.222
 4024.00    0.99382   0.98177  157.071
 4025.00    0.99932   0.98616  158.670
 4026.00    1.01166   0.99675  165.454
 4027.00    1.01356   1.00401  177.015
 4028.00    1.00613   1.00018  184.298
 4029.00    0.99322   0.98587  186.308
 4030.00    0.97375   0.96805  183.762
 4031.00    0.95250   0.95537  177.585
 4032.00    0.96108   0.95234  168.675
 4033.00    0.96988   0.95834  160.364
 4034.00    0.97672   0.97151  154.843
 4035.00    0.99648   0.98993  154.456
 4036.00    1.02148   1.01017  157.892
 4037.00    1.03053   1.02614  161.669
 4038.00    1.03080   1.03223  163.350
 4039.00    1.02934   1.02911  164.213
 4040.00    1.01620   1.02210  172.557
 4041.00    1.00620   1.01483  189.811
 4042.00    1.00549   1.00446  204.021
 4043.00    0.99054   0.98590  194.714
 4044.00    0.96283   0.96239  175.517
 4045.00    0.93767   0.94649  165.154
 4046.00    0.94108   0.95003  160.641
 4047.00    0.97529   0.97134  158.929
 4048.00    1.00294   0.99579  160.195
 4049.00    1.01562   1.01129  164.733
 4050.00    1.01369   1.01608  168.964
 4051.00    1.02090   1.01320  171.505
 4052.00    1.01186   1.00546  172.827
 4053.00    0.99757   0.99672  174.007
 4054.00    0.99784   0.99066  175.756
 4055.00    0.99115   0.98818  173.429
 4056.00    0.98936   0.98837  167.046
 4057.00    0.98209   0.99161  163.996
 4058.00    0.99173   0.99909  167.285
 4059.00    1.00286   1.00656  179.961
 4060.00    1.01483   1.00528  191.978
 4061.00    1.00788   0.99182  188.274
 4062.00    0.97465   0.97147  178.899
 4063.00    0.95218   0.95335  174.662
 4064.00    0.95345   0.94437  169.878
 4065.00    0.96745   0.94595   -1.000
 4066.00    0.97881   0.95343   -1.000
 4067.00    0.97829   0.96052   -1.000
 4068.00    0.98776   0.96377   -1.000
 4069.00    0.99097   0.96070   -1.000
 4070.00    0.98534   0.95048   -1.000
 4071.00    0.97092   0.93898   -1.000
 4072.00    0.96267   0.93481   -1.000
 4073.00    0.97746   0.93826   -1.000
 4074.00    0.97591   0.93938   -1.000
 4075.00    0.96426   0.92871   -1.000
 4076.00    0.94146   0.90932   -1.000
 4077.00    0.92146   0.89499   -1.000
 4078.00    0.92851   0.89794   -1.000
 4079.00    0.95109   0.91773   -1.000
 4080.00    0.97461   0.94082   -1.000
 4081.00    0.98498   0.95403   -1.000
 4082.00    0.98325   0.95379   -1.000
 4083.00    0.97211   0.94510   -1.000
 4084.00    0.96087   0.93583   -1.000
 4085.00    0.95789   0.93230   -1.000
 4086.00    0.97216   0.93639   -1.000
 4087.00    0.97974   0.94469   -1.000
 4088.00    0.98367   0.95141   -1.000
 4089.00    0.98152   0.95212   -1.000
 4090.00    0.97162   0.94674   -1.000
 4091.00    0.95225   0.93761  163.907
 4092.00    0.94456   0.92506   -1.000
 4093.00    0.94102   0.90889   -1.000
 4094.00    0.92412   0.88959   -1.000
 4095.00    0.89698   0.86658   -1.000
 4096.00    0.87680   0.83918   -1.000
 4097.00    0.85815   0.80567   -1.000
 4098.00    0.82888   0.76291   -1.000
 4099.00    0.77381   0.70905   -1.000
 4100.00    0.70506   0.65303   -1.000
 4101.00    0.64290   0.61679   -1.000
 4102.00    0.63858   0.62069  174.062
 4103.00    0.69462   0.66562   -1.000
 4104.00    0.76684   0.72995   -1.000
 4105.00    0.82525   0.78816   -1.000
 4106.00    0.86114   0.82757   -1.000
 4107.00    0.87507   0.85021   -1.000
 4108.00    0.88397   0.86301   -1.000
 4109.00    0.88937   0.87256  169.596
 4110.00    0.90872   0.88306   -1.000
 4111.00    0.91447   0.89667  164.242
 4112.00    0.93298   0.91313   -1.000
 4113.00    0.95202   0.93038   -1.000
 4114.00    0.96081   0.94579  167.677
 4115.00    0.96916   0.95560  173.190
 4116.00    0.97698   0.95713   -1.000
 4117.00    0.97137   0.95156   -1.000
 4118.00    0.95999   0.94375  170.840
 4119.00    0.95379   0.93932  170.927
 4120.00    0.95032   0.94044  168.920
 4121.00    0.95639   0.94458  166.057
 4122.00    0.95757   0.94945  165.800
 4123.00    0.96485   0.95575  168.251
 4124.00    0.97924   0.96323  171.774
 4125.00    0.98800   0.96814   -1.000
 4126.00    0.98652   0.96731   -1.000
 4127.00    0.98004   0.96221   -1.000
 4128.00    0.97329   0.95727  182.280
 4129.00    0.97351   0.95399   -1.000
 4130.00    0.97024   0.94980   -1.000
 4131.00    0.95620   0.94396  180.632
 4132.00    0.94011   0.94122  171.651
 4133.00    0.94348   0.94720  166.409
 4134.00    0.95229   0.96136  163.817
 4135.00    0.97210   0.97841  161.426
 4136.00    0.99224   0.99415  161.202
 4137.00    0.99986   1.00719  165.114
 4138.00    1.00556   1.01692  174.516
 4139.00    1.00657   1.02057  189.093
 4140.00    1.00273   1.01429  197.270
 4141.00    0.98992   0.99801  189.022
 4142.00    0.96497   0.97782  177.878
 4143.00    0.93269   0.96426   -1.000
 4144.00    0.94550   0.96498   -1.000
 4145.00    0.96610   0.97736  174.259
 4146.00    0.98446   0.99076  178.962
 4147.00    0.98653   0.99692  180.746
 4148.00    0.98125   0.99665  179.333
 4149.00    0.97932   0.99518  178.581
 4150.00    0.99620   0.99522  180.483
 4151.00    1.04267   0.99484   -1.000
 4152.00    0.97626   0.99119  178.200
 4153.00    0.91934   0.98496   -1.000
 4154.00    0.94706   0.97985   -1.000
 4155.00    0.98209   0.97939  171.409
 4156.00    0.96713   0.98440   -1.000
 4157.00    0.97048   0.99305   -1.000
 4158.00    0.98417   1.00200  166.381
 4159.00    0.99562   1.00793  164.959
 4160.00    1.00371   1.00997  166.233
 4161.00    0.99689   1.01022  169.028
 4162.00    0.99420   1.01191  171.683
 4163.00    1.00106   1.01608  175.487
 4164.00    1.00327   1.02064   -1.000
 4165.00    1.00014   1.02201   -1.000
 4166.00    0.99272   1.01894   -1.000
 4167.00    0.99080   1.01436   -1.000
 4168.00    0.99372   1.00983  187.280
 4169.00    0.98977   1.00212  197.494
 4170.00    0.97571   0.98619  196.753
 4171.00    0.95376   0.96335  189.388
 4172.00    0.93066   0.94430  183.315
 4173.00    0.92174   0.93928   -1.000
 4174.00    0.92656   0.94910   -1.000
 4175.00    0.94511   0.96373   -1.000
 4176.00    0.94819   0.97154   -1.000
 4177.00    0.94671   0.97190   -1.000
 4178.00    0.94814   0.97240   -1.000
 4179.00    0.96202   0.97841   -1.000
 4180.00    0.97316   0.98629  173.182
 4181.00    0.96989   0.98974   -1.000
 4182.00    0.96548   0.99033   -1.000
 4183.00    0.96795   0.99230   -1.000
 4184.00    0.97142   0.99461   -1.000
 4185.00    0.96711   0.99341   -1.000
 4186.00    0.95815   0.98789   -1.000
 4187.00    0.95149   0.98279   -1.000
 4188.00    0.94881   0.98281   -1.000
 4189.00    0.96030   0.98655   -1.000
 4190.00    0.96310   0.99015   -1.000
 4191.00    0.96842   0.99291   -1.000
 4192.00    0.97813   0.99641   -1.000
 4193.00    0.99016   0.99954  187.291
 4194.00    0.98739   0.99723  190.095
 4195.00    0.97101   0.98640  190.052
 4196.00    0.95217   0.97050   -1.000
 4197.00    0.94052   0.95529  185.017
 4198.00    0.93039   0.94515  184.518
 4199.00    0.93051   0.94204  183.048
 4200.00    0.93398   0.94404  180.309
 4201.00    0.93954   0.94703  178.761
 4202.00    0.94209   0.95055  175.032
 4203.00    0.94607   0.95669  170.743
 4204.00    0.95342   0.96491  167.814
 4205.00    0.95421   0.97336   -1.000
 4206.00    0.94873   0.98153   -1.000
 4207.00    0.96573   0.98822   -1.000
 4208.00    0.96839   0.99174   -1.000
 4209.00    0.96705   0.99323   -1.000
 4210.00    0.96947   0.99545   -1.000
 4211.00    0.97248   0.99912   -1.000
 4212.00    0.97811   1.00045   -1.000
 4213.00    0.97509   0.99399   -1.000
 4214.00    0.96338   0.98069  166.477
 4215.00    0.94493   0.96869   -1.000
 4216.00    0.93102   0.96658   -1.000
 4217.00    0.94448   0.97596   -1.000
 4218.00    0.96190   0.98974   -1.000
 4219.00    0.97360   1.00066   -1.000
 4220.00    0.97899   1.00590   -1.000
 4221.00    0.97656   1.00364   -1.000
 4222.00    0.96652   0.99110   -1.000
 4223.00    0.94897   0.96658   -1.000
 4224.00    0.92532   0.93409  214.110
 4225.00    0.88967   0.90491  185.866
 4226.00    0.85835   0.89271   -1.000
 4227.00    0.86469   0.90671   -1.000
 4228.00    0.90842   0.94184   -1.000
 4229.00    0.95038   0.97884   -1.000
 4230.00    0.97329   0.99844   -1.000
 4231.00    0.97465   0.99714   -1.000
 4232.00    0.96380   0.98427   -1.000
 4233.00    0.95431   0.97069  177.319
 4234.00    0.94696   0.96348  175.326
 4235.00    0.93540   0.96321   -1.000
 4236.00    0.93149   0.96615   -1.000
 4237.00    0.93191   0.97090   -1.000
 4238.00    0.94118   0.97796   -1.000
 4239.00    0.94515   0.98688   -1.000
 4240.00    0.94795   0.99653   -1.000
 4241.00    0.95744   1.00470   -1.000
 4242.00    0.96021   1.00942   -1.000
 4243.00    0.95791   1.00964   -1.000
 4244.00    0.95625   1.00463   -1.000
 4245.00    0.95112   0.99373   -1.000
 4246.00    0.93937   0.97885   -1.000
 4247.00    0.92213   0.96582   -1.000
 4248.00    0.91524   0.95892   -1.000
 4249.00    0.91455   0.95795   -1.000
 4250.00    0.91468   0.96189   -1.000
 4251.00    0.92724   0.96987   -1.000
 4252.00    0.94390   0.97779   -1.000
 4253.00    0.94596   0.98197   -1.000
 4254.00    0.94297   0.98360   -1.000
 4255.00    0.94358   0.98606   -1.000
 4256.00    0.95558   0.98878   -1.000
 4257.00    0.95791   0.98637   -1.000
 4258.00    0.95023   0.97680   -1.000
 4259.00    0.93491   0.96636   -1.000
 4260.00    0.92343   0.96387   -1.000
 4261.00    0.92364   0.97312   -1.000
 4262.00    0.94176   0.99031   -1.000
 4263.00    0.96166   1.00679   -1.000
 4264.00    0.97365   1.01539   -1.000
 4265.00    0.97934   1.01539   -1.000
 4266.00    0.97343   1.01008   -1.000
 4267.00    0.96020   1.00078   -1.000
 4268.00    0.95346   0.98688   -1.000
 4269.00    0.94346   0.96832   -1.000
 4270.00    0.91871   0.94783   -1.000
 4271.00    0.89791   0.93200   -1.000
 4272.00    0.89263   0.92685   -1.000
 4273.00    0.90085   0.93311   -1.000
 4274.00    0.90708   0.94690   -1.000
 4275.00    0.92003   0.96478   -1.000
 4276.00    0.94099   0.98374   -1.000
 4277.00    0.95860   0.99821   -1.000
 4278.00    0.96688   1.00271   -1.000
 4279.00    0.95294   0.99719   -1.000
 4280.00    0.93409   0.98680   -1.000
 4281.00    0.92606   0.97804   -1.000
 4282.00    0.92742   0.97380   -1.000
 4283.00    0.93207   0.97291   -1.000
 4284.00    0.92972   0.97201   -1.000
 4285.00    0.92353   0.96657   -1.000
 4286.00    0.91469   0.95410   -1.000
 4287.00    0.89998   0.93566   -1.000
 4288.00    0.88224   0.91556   -1.000
 4289.00    0.86825   0.90115   -1.000
 4290.00    0.86274   0.89982   -1.000
 4291.00    0.87161   0.91079   -1.000
 4292.00    0.89582   0.92359   -1.000
 4293.00    0.90896   0.92829   -1.000
 4294.00    0.90711   0.92567   -1.000
 4295.00    0.90314   0.92124   -1.000
 4296.00    0.89846   0.91389   -1.000
 4297.00    0.88063   0.89890   -1.000
 4298.00    0.84910   0.87611   -1.000
 4299.00    0.82623   0.85157   -1.000
 4300.00    0.81281   0.83428   -1.000
 4301.00    0.80799   0.82926   -1.000
 4302.00    0.81391   0.83519   -1.000
 4303.00    0.82269   0.84704   -1.000
 4304.00    0.83248   0.85776   -1.000
 4305.00    0.84062   0.86007   -1.000
 4306.00    0.83392   0.85316   -1.000
 4307.00    0.81639   0.84410   -1.000
 4308.00    0.80149   0.84172   -1.000
 4309.00    0.80058   0.84958   -1.000
 4310.00    0.81549   0.86307   -1.000
 4311.00    0.83557   0.87424   -1.000
 4312.00    0.84762   0.87977   -1.000
 4313.00    0.85939   0.88569   -1.000
 4314.00    0.87504   0.90105   -1.000
 4315.00    0.90005   0.92796   -1.000
 4316.00    0.93425   0.95855   -1.000
 4317.00    0.95693   0.98019  152.079
 4318.00    0.96164   0.98723   -1.000
 4319.00    0.96066   0.98251   -1.000
 4320.00    0.95054   0.97197   -1.000
 4321.00    0.94088   0.95891  194.206
 4322.00    0.92737   0.94231  196.499
 4323.00    0.89783   0.92082   -1.000
 4324.00    0.86772   0.89931   -1.000
 4325.00    0.85769   0.88989   -1.000
 4326.00    0.86610   0.89967   -1.000
 4327.00    0.88695   0.92055   -1.000
 4328.00    0.91599   0.93754  150.879
 4329.00    0.92899   0.94249  148.411
 4330.00    0.92529   0.93894  147.245
 4331.00    0.91254   0.93393  147.678
 4332.00    0.90789   0.92867  152.022
 4333.00    0.90402   0.91916  163.401
 4334.00    0.89582   0.90043  179.476
 4335.00    0.87683   0.86831  195.700
 4336.00    0.83705   0.82010   -1.000
 4337.00    0.78702   0.75826   -1.000
 4338.00    0.72244   0.69464   -1.000
 4339.00    0.65716   0.64726  173.283
 4340.00    0.62536   0.63236  164.258
 4341.00    0.65332   0.65776  159.472
 4342.00    0.71658   0.71344  155.576
 4343.00    0.77884   0.77606  153.271
 4344.00    0.81551   0.82768  151.462
 4345.00    0.85355   0.86593  149.668
 4346.00    0.87761   0.89508  152.212
 4347.00    0.88952   0.91606   -1.000
 4348.00    0.90359   0.92545   -1.000
 4349.00    0.91330   0.92121  171.035
 4350.00    0.90091   0.90792  163.400
 4351.00    0.87915   0.89733  156.590
 4352.00    0.87089   0.89990   -1.000
 4353.00    0.89208   0.91713   -1.000
 4354.00    0.91921   0.94087  151.117
 4355.00    0.93300   0.96067   -1.000
 4356.00    0.94116   0.97136   -1.000
 4357.00    0.94472   0.97398   -1.000
 4358.00    0.93844   0.97338   -1.000
 4359.00    0.93606   0.97515   -1.000
 4360.00    0.94362   0.98186   -1.000
 4361.00    0.95580   0.99163   -1.000
 4362.00    0.96949   1.00085   -1.000
 4363.00    0.97435   1.00681   -1.000
 4364.00    0.97742   1.00783   -1.000
 4365.00    0.97344   1.00297   -1.000
 4366.00    0.96310   0.99301   -1.000
 4367.00    0.95635   0.98157   -1.000
 4368.00    0.95178   0.97342  153.195
 4369.00    0.94741   0.97005  156.106
 4370.00    0.95411   0.96883  162.728
 4371.00    0.95417   0.96510  167.413
 4372.00    0.95347   0.95520  165.161
 4373.00    0.94545   0.94055  157.574
 4374.00    0.92339   0.92905  151.046
 4375.00    0.91681   0.93050  149.623
 4376.00    0.92528   0.94637  151.188
 4377.00    0.94625   0.96744  155.224
 4378.00    0.96190   0.98175  165.475
 4379.00    0.96611   0.98356  184.613
 4380.00    0.96631   0.97236  200.184
 4381.00    0.95258   0.94882  194.982
 4382.00    0.92526   0.91791  176.018
 4383.00    0.89372   0.89235  162.592
 4384.00    0.87784   0.88477  159.336
 4385.00    0.89244   0.89729  160.152
 4386.00    0.92630   0.91995  161.619
 4387.00    0.94688   0.93970  160.980
 4388.00    0.94847   0.95076  157.523
 4389.00    0.94549   0.95446  155.305
 4390.00    0.94678   0.95507  157.301
 4391.00    0.94996   0.95540  159.717
 4392.00    0.95629   0.95347  156.833
 4393.00    0.95186   0.94651  150.115
 4394.00    0.93992   0.93865  147.805
 4395.00    0.93623   0.93853  151.211
 4396.00    0.94769   0.94724  156.682
 4397.00    0.96413   0.95531  159.299
 4398.00    0.96515   0.95485  156.796
 4399.00    0.95310   0.94833  156.397
 4400.00    0.94024   0.94441  163.449
 4401.00    0.94269   0.94670  170.757
 4402.00    0.95385   0.95019  169.479
 4403.00    0.95378   0.94963  164.449
 4404.00    0.93761   0.94638  162.513
 4405.00    0.93163   0.94564  159.580
 4406.00    0.94095   0.94886  152.988
 4407.00    0.94591   0.95330  146.827
 4408.00    0.94953   0.95829  142.924
 4409.00    0.95597   0.96654  143.094
 4410.00    0.96660   0.97771  148.601
 4411.00    0.98357   0.98596  156.472
 4412.00    0.99279   0.98494  159.878
 4413.00    0.98290   0.97268  157.135
 4414.00    0.95948   0.95348  151.076
 4415.00    0.94233   0.93679  145.394
 4416.00    0.93764   0.93165  142.951
 4417.00    0.94362   0.94067  144.959
 4418.00    0.96122   0.95923  148.576
 4419.00    0.97790   0.97774  150.061
 4420.00    0.98858   0.98801  149.079
 4421.00    0.98690   0.98887  148.775
 4422.00    0.98129   0.98613  149.449
 4423.00    0.98012   0.98462  149.590
 4424.00    0.98156   0.98382  148.606
 4425.00    0.98252   0.98214  148.707
 4426.00    0.97473   0.98075  149.996
 4427.00    0.97017   0.98159  149.695
 4428.00    0.97166   0.98453  148.011
 4429.00    0.97487   0.98755  148.840
 4430.00    0.97712   0.98911  154.882
 4431.00    0.97698   0.98850  160.700
 4432.00    0.97647   0.98461  159.397
 4433.00    0.96483   0.97698  151.456
 4434.00    0.94847   0.96921  142.969
 4435.00    0.94405   0.96880  138.954
 4436.00    0.95488   0.98007  140.399
 4437.00    0.97960   0.99806  145.865
 4438.00    1.00080   1.01150  152.747
 4439.00    1.00040   1.01156  157.175
 4440.00    0.98597   0.99710  155.199
 4441.00    0.96805   0.97513  148.812
 4442.00    0.94334   0.95675  143.637
 4443.00    0.93158   0.95197  142.012
 4444.00    0.93777   0.96289   -1.000
 4445.00    0.95438   0.98175   -1.000
 4446.00    0.96989   0.99723   -1.000
 4447.00    0.97506   1.00406   -1.000
 4448.00    0.97820   1.00437   -1.000
 4449.00    0.97654   1.00201   -1.000
 4450.00    0.97337   0.99981   -1.000
 4451.00    0.97802   0.99827  159.183
 4452.00    0.97821   0.99458  160.185
 4453.00    0.96864   0.98582  157.149
 4454.00    0.95426   0.97469  155.359
 4455.00    0.94314   0.96861   -1.000
 4456.00    0.94758   0.97080   -1.000
 4457.00    0.95679   0.97678  158.576
 4458.00    0.95828   0.98035   -1.000
 4459.00    0.95848   0.98007   -1.000
 4460.00    0.95130   0.97857   -1.000
 4461.00    0.94858   0.97922   -1.000
 4462.00    0.95441   0.98312   -1.000
 4463.00    0.96512   0.98808   -1.000
 4464.00    0.97097   0.99102  149.200
 4465.00    0.97233   0.98958  151.445
 4466.00    0.96729   0.98284  151.166
 4467.00    0.95886   0.97276  147.944
 4468.00    0.95292   0.96518  142.994
 4469.00    0.95161   0.96634  138.412
 4470.00    0.95878   0.97738  135.632
 4471.00    0.97131   0.99368  135.103
 4472.00    0.98550   1.00876  134.892
 4473.00    0.99551   1.01883  133.780
 4474.00    1.00116   1.02357  133.740
 4475.00    1.00218   1.02499  136.388
 4476.00    0.99937   1.02489   -1.000
 4477.00    1.00023   1.02224  147.713
 4478.00    1.00046   1.01323  149.617
 4479.00    0.99255   0.99684  145.925
 4480.00    0.97884   0.97973  139.799
 4481.00    0.96546   0.97218  135.401
 4482.00    0.96079   0.97957  133.743
 4483.00    0.96811   0.99784   -1.000
 4484.00    0.98133   1.01676   -1.000
 4485.00    0.99599   1.02769   -1.000
 4486.00    1.00199   1.02718   -1.000
 4487.00    0.99970   1.01720  142.508
 4488.00    0.99257   1.00451  139.173
 4489.00    0.97974   0.99739  138.630
 4490.00    0.97153   0.99929   -1.000
 4491.00    0.97971   1.00629   -1.000
 4492.00    0.99362   1.01090  146.987
 4493.00    0.99174   1.00965  143.833
 4494.00    0.98068   1.00606   -1.000
 4495.00    0.97575   1.00516   -1.000
 4496.00    0.97576   1.00789   -1.000
 4497.00    0.98278   1.01148   -1.000
 4498.00    0.99140   1.01193  136.452
 4499.00    0.99541   1.00725  132.274
 4500.00    0.99185   1.00087  128.527
 4501.00    0.98335   1.00041  127.556
 4502.00    0.98942   1.00942  129.229
 4503.00    1.00573   1.02342  131.435
 4504.00    1.01151   1.03405  132.201
 4505.00    1.01529   1.03647  131.819
 4506.00    1.01601   1.03211  130.795
 4507.00    1.00782   1.02610  130.673
 4508.00    1.00651   1.02358  132.452
 4509.00    1.00730   1.02560  135.050
 4510.00    1.00677   1.02870  136.837
 4511.00    1.00942   1.02898  137.018
 4512.00    1.00780   1.02566  136.503
 4513.00    1.00012   1.02024  137.127
 4514.00    0.99651   1.01468  138.540
 4515.00    0.99482   1.01092  138.043
 4516.00    0.99344   1.00908  135.408
 4517.00    0.99288   1.00724  133.941
 4518.00    0.98970   1.00430  135.573
 4519.00    0.98603   1.00160  138.737
 4520.00    0.98362   1.00020  140.883
 4521.00    0.98243   0.99823  142.483
 4522.00    0.98002   0.99439  145.720
 4523.00    0.98078   0.99057  150.148
 4524.00    0.97676   0.98854  153.401
 4525.00    0.97693   0.98634  153.941
 4526.00    0.97428   0.98100  152.052
 4527.00    0.96481   0.97277  149.270
 4528.00    0.95290   0.96559  147.348
 4529.00    0.94887   0.96363  148.654
 4530.00    0.95517   0.96633  153.402
 4531.00    0.95823   0.96783  155.693
 4532.00    0.95695   0.96272  150.472
 4533.00    0.94385   0.95343  141.505
 4534.00    0.93304   0.94948  135.028
 4535.00    0.93706   0.95786  133.577
 4536.00    0.95623   0.97642  135.858
 4537.00    0.98375   0.99652  137.813
 4538.00    0.98864   1.00996  137.170
 4539.00    0.64266   1.01367   -1.000
 4540.00    0.07302   1.01074   -1.000
 4541.00   -0.00189   1.00683    0.000
 4542.00    0.35779   1.00514   -1.000
 4543.00    0.59485   1.00459   -1.000
 4544.00    0.43756   1.00299   -1.000
 4545.00    0.85896   1.00022   -1.000
 4546.00    1.00221   0.99578   81.124
 4547.00    0.97036   0.98652  151.876
 4548.00    0.95845   0.97235  142.176
 4549.00    0.94357   0.96102  143.631
 4550.00    0.94561   0.96097  145.549
 4551.00    0.96016   0.96964  145.350
 4552.00    0.96667   0.97521  141.678
 4553.00    0.96191   0.97168  136.151
 4554.00    0.95497   0.96532  131.967
 4555.00    0.95597   0.96594  131.053
 4556.00    0.96838   0.97656  131.547
 4557.00    0.98326   0.99176  131.488
 4558.00    0.99303   1.00468  132.822
 4559.00    0.99923   1.01324  136.137
 4560.00    1.00690   1.01762  139.092
 4561.00    1.00493   1.01586  139.742
 4562.00    0.99354   1.00707  137.181
 4563.00    0.98397   0.99632  133.558
 4564.00    0.98077   0.99154  130.969
 4565.00    0.98249   0.99584  130.919
 4566.00    0.99042   1.00530  133.275
 4567.00    1.00037   1.01330  136.795
 4568.00    1.00324   1.01517  138.395
 4569.00    0.99961   1.00956  135.812
 4570.00    0.98696   0.99867  132.546
 4571.00    0.97266   0.98874  131.593
 4572.00    0.97110   0.98731  131.968
 4573.00    0.98066   0.99534  132.664
 4574.00    0.99240   1.00479  134.098
 4575.00    1.00099   1.00860  137.211
 4576.00    1.00248   1.00714  140.843
 4577.00    0.99807   1.00329  142.244
 4578.00    0.99573   0.99742  141.014
 4579.00    0.99251   0.98929  139.388
 4580.00    0.98555   0.98054  139.034
 4581.00    0.97988   0.97293  139.705
 4582.00    0.97677   0.96701  139.338
 4583.00    0.97281   0.96450  136.524
 4584.00    0.97178   0.96786  133.185
 4585.00    0.97796   0.97579  131.556
 4586.00    0.98661   0.98395  132.396
 4587.00    0.99298   0.98934  134.653
 4588.00    0.99486   0.99140  137.122
 4589.00    0.99145   0.99117  138.499
 4590.00    0.98759   0.99028  137.957
 4591.00    0.98341   0.98961  136.779
 4592.00    0.97899   0.98974  136.029
 4593.00    0.97835   0.99167  135.725
 4594.00    0.98542   0.99546  135.432
 4595.00    0.99848   1.00012  135.807
 4596.00    1.00161   1.00420  137.070
 4597.00    0.99799   1.00601  137.916
 4598.00    1.00007   1.00467  137.421
 4599.00    1.00297   1.00080  135.860
 4600.00    0.99540   0.99600  135.135
 4601.00    0.98651   0.99238  135.211
 4602.00    0.98070   0.99134  134.389
 4603.00    0.98041   0.99276  132.324
 4604.00    0.98909   0.99552  129.561
 4605.00    0.99768   0.99876  127.357
 4606.00    1.00267   1.00244  126.856
 4607.00    1.00688   1.00670  128.040
 4608.00    1.00659   1.01071  129.690
 4609.00    1.00674   1.01307  130.840
 4610.00    1.00895   1.01278  130.968
 4611.00    1.00754   1.01039  130.024
 4612.00    1.00251   1.00786  129.148
 4613.00    0.99758   1.00646  129.301
 4614.00    0.99666   1.00559  130.260
 4615.00    0.99570   1.00374  130.716
 4616.00    0.99783   1.00061  130.019
 4617.00    0.99856   0.99734  128.341
 4618.00    0.99588   0.99529  127.220
 4619.00    0.99428   0.99594  127.420
 4620.00    0.99843   1.00009  127.718
 4621.00    1.00688   1.00628  128.408
 4622.00    1.01164   1.01123  129.210
 4623.00    1.00858   1.01258  129.312
 4624.00    1.00040   1.01072  129.666
 4625.00    0.99687   1.00765  130.269
 4626.00    0.99995   1.00455  130.077
 4627.00    1.00255   1.00125  128.979
 4628.00    0.99904   0.99807  128.454
 4629.00    0.99170   0.99722  129.729
 4630.00    0.99126   1.00011  131.450
 4631.00    1.00052   1.00431  132.123
 4632.00    1.00626   1.00586  132.529
 4633.00    1.00535   1.00400  133.982
 4634.00    1.00583   1.00147  135.188
 4635.00    1.00598   1.00073  135.337
 4636.00    0.99965   1.00132  134.082
 4637.00    0.99555   1.00191  131.232
 4638.00    0.99937   1.00294  128.678
 4639.00    1.00457   1.00571  128.080
 4640.00    1.00899   1.01022  129.591
 4641.00    1.01218   1.01471  132.682
 4642.00    1.01477   1.01702  136.445
 4643.00    1.01533   1.01603  138.646
 4644.00    1.01018   1.01152  137.609
 4645.00    1.00095   1.00430  134.680
 4646.00    0.99142   0.99667  132.154
 4647.00    0.98779   0.99249  131.170
 4648.00    0.99290   0.99417  130.969
 4649.00    0.99705   1.00001  131.605
 4650.00    0.99891   1.00612  133.979
 4651.00    1.00125   1.00957  136.366
 4652.00    1.00183   1.00914  136.501
 4653.00    0.99910   1.00525  133.619
 4654.00    0.99031   0.99983  128.812
 4655.00    0.98112   0.99564  124.882
 4656.00    0.97819   0.99519  123.492
 4657.00    0.98605   1.00042  124.288
 4658.00    1.00197   1.01078  126.651
 4659.00    1.01691   1.02141  129.513
 4660.00    1.02205   1.02661  130.902
 4661.00    1.01709   1.02481  132.070
 4662.00    1.01060   1.01868  136.076
 4663.00    1.00930   1.01126  141.981
 4664.00    1.00942   1.00295  144.943
 4665.00    1.00391   0.99243  142.515
 4666.00    0.99023   0.98020  137.157
 4667.00    0.97524   0.97052  132.418
 4668.00    0.97197   0.96822  130.339
 4669.00    0.97875   0.97376  130.101
 4670.00    0.98996   0.98350  130.104
 4671.00    1.00003   0.99325  129.146
 4672.00    1.00653   1.00037  127.273
 4673.00    1.00849   1.00486  126.671
 4674.00    1.00929   1.00840  128.487
 4675.00    1.01189   1.01137  131.226
 4676.00    1.01474   1.01197  133.595
 4677.00    1.01619   1.00836  135.316
 4678.00    1.01089   1.00143  135.019
 4679.00    1.00050   0.99412  132.323
 4680.00    0.99480   0.98873  129.772
 4681.00    0.99334   0.98670  129.247
 4682.00    0.99731   0.98851  129.548
 4683.00    1.00406   0.99268  129.949
 4684.00    1.00735   0.99671  130.327
 4685.00    1.01018   0.99889  130.312
 4686.00    1.01481   0.99936  130.818
 4687.00    1.01769   0.99914  131.437
 4688.00    1.01579   0.99880  130.707
 4689.00    1.01124   0.99797  128.885
 4690.00    1.00865   0.99629  126.434
 4691.00    1.00804   0.99487  124.229
 4692.00    1.01108   0.99527  123.854
 4693.00    1.01462   0.99730  126.108
 4694.00    1.01529   0.99946  129.949
 4695.00    1.01863   1.00042   -1.000
 4696.00    1.02042   0.99868   -1.000
 4697.00    1.01663   0.99341   -1.000
 4698.00    1.00862   0.98632   -1.000
 4699.00    1.00544   0.98010   -1.000
 4700.00    1.00546   0.97527   -1.000
 4701.00    0.99982   0.97077   -1.000
 4702.00    0.99278   0.96699   -1.000
 4703.00    0.98736   0.96619   -1.000
 4704.00    0.98988   0.96929   -1.000
 4705.00    0.99433   0.97308   -1.000
 4706.00    0.98985   0.97323  134.493
 4707.00    0.98369   0.96943  130.580
 4708.00    0.98170   0.96594  128.264
 4709.00    0.98495   0.96719  128.425
 4710.00    0.99221   0.97317   -1.000
 4711.00    1.00097   0.97968   -1.000
 4712.00    1.00765   0.98246   -1.000
 4713.00    1.00880   0.98107   -1.000
 4714.00    1.00607   0.97914   -1.000
 4715.00    1.00476   0.98059   -1.000
 4716.00    1.00753   0.98573   -1.000
 4717.00    1.01076   0.99152   -1.000
 4718.00    1.01024   0.99547  126.321
 4719.00    1.01184   0.99742  126.299
 4720.00    1.01318   0.99790  125.155
 4721.00    1.01169   0.99746  124.643
 4722.00    1.00981   0.99745  126.454
 4723.00    1.00772   0.99907  130.591
 4724.00    1.01311   1.00131  134.494
 4725.00    1.01732   1.00137  135.474
 4726.00    1.01539   0.99752   -1.000
 4727.00    1.00813   0.99066  133.154
 4728.00    1.00075   0.98335  131.798
 4729.00    1.00186   0.97774   -1.000
 4730.00    1.00219   0.97451   -1.000
 4731.00    0.99656   0.97438   -1.000
 4732.00    0.99330   0.97772  129.297
 4733.00    0.99650   0.98228  130.058
 4734.00    0.99994   0.98482  129.127
 4735.00    0.99894   0.98437  128.383
 4736.00    0.99642   0.98270  128.886
 4737.00    0.99752   0.98217  129.326
 4738.00    0.99988   0.98320  128.785
 4739.00    1.00313   0.98457   -1.000
 4740.00    1.00643   0.98563   -1.000
 4741.00    1.00650   0.98706   -1.000
 4742.00    1.00811   0.98950   -1.000
 4743.00    1.00947   0.99258  125.582
 4744.00    1.00846   0.99550  124.880
 4745.00    1.00876   0.99822  124.908
 4746.00    1.00884   1.00134  125.049
 4747.00    1.00875   1.00490  125.606
 4748.00    1.01041   1.00822  126.844
 4749.00    1.01219   1.01055  128.085
 4750.00    1.01538   1.01189  129.035
 4751.00    1.01737   1.01191  129.268
 4752.00    1.01379   1.01001  129.435
 4753.00    1.00859   1.00668  130.229
 4754.00    1.00247   1.00346  130.729
 4755.00    0.99980   1.00186  130.127
 4756.00    1.00082   1.00244  129.506
 4757.00    0.99951   1.00437  130.613
 4758.00    0.99905   1.00594  133.444
 4759.00    0.99940   1.00560  135.878
 4760.00    1.00003   1.00194  136.674
 4761.00    0.99760   0.99432  136.551
 4762.00    0.98785   0.98466  135.854
 4763.00    0.98230   0.97687  134.329
 4764.00    0.98270   0.97415  131.728
 4765.00    0.98574   0.97708  129.393
 4766.00    0.98883   0.98398  128.819
 4767.00    0.99235   0.99261  129.608
 4768.00    1.00073   1.00100  130.762
 4769.00    1.00594   1.00695  130.325
 4770.00    1.00686   1.00862  127.971
 4771.00    1.00274   1.00671  126.311
 4772.00    1.00032   1.00461  126.072
 4773.00    1.00241   1.00532  126.357
 4774.00    1.00442   1.00869  127.008
 4775.00    1.01046   1.01199  128.213
 4776.00    1.01263   1.01325  129.263
 4777.00    1.00859   1.01207  129.744
 4778.00    1.00697   1.00838  130.245
 4779.00    1.00585   1.00358  131.143
 4780.00    1.00341   1.00077  131.542
 4781.00    1.00441   1.00111  131.759
 4782.00    1.00384   1.00208  132.745
 4783.00    1.00040   1.00122  133.756
 4784.00    0.99977   0.99872  133.963
 4785.00    0.99977   0.99551  133.487
 4786.00    0.99245   0.99228  132.715
 4787.00    0.98513   0.99042  131.544
 4788.00    0.98883   0.99067  129.672
 4789.00    0.99535   0.99261  127.050
 4790.00    0.99557   0.99608  124.596
 4791.00    0.99704   1.00139  123.501
 4792.00    1.00245   1.00809  124.125
 4793.00    1.00789   1.01487  126.189
 4794.00    1.01511   1.01978  128.662
 4795.00    1.01816   1.02069  130.531
 4796.00    1.01382   1.01708  130.398
 4797.00    1.00789   1.01073  128.258
 4798.00    1.00078   1.00481  126.091
 4799.00    0.99374   1.00248  125.530
 4800.00    0.99545   1.00481  126.687
 4801.00    1.00433   1.00968  128.377
 4802.00    1.00754   1.01265  129.725
 4803.00    1.00707   1.01006  130.142
 4804.00    1.00643   1.00286  129.898
 4805.00    1.00252   0.99641  129.404
 4806.00    0.99985   0.99467  128.444
 4807.00    1.00146   0.99722  127.417
 4808.00    1.00605   1.00123  126.672
 4809.00    1.00732   1.00418  126.357
 4810.00    1.00277   1.00530  126.128
 4811.00    1.00341   1.00574  125.724
 4812.00    1.00896   1.00732  125.053
 4813.00    1.00953   1.01058  124.264
 4814.00    1.01005   1.01424  123.661
 4815.00    1.01021   1.01682  123.453
 4816.00    1.01455   1.01822  123.450
 4817.00    1.01731   1.01883  124.138
 4818.00    1.01554   1.01840  126.636
 4819.00    1.01294   1.01669  129.458
 4820.00    1.01348   1.01345  130.188
 4821.00    1.00895   1.00759  128.567
 4822.00    0.99777   0.99867  126.428
 4823.00    0.98848   0.98932  126.052
 4824.00    0.98861   0.98419  127.250
 4825.00    0.99319   0.98537  128.326
 4826.00    0.99887   0.98997  128.577
 4827.00    1.00243   0.99335  129.307
 4828.00    1.00308   0.99355  129.912
 4829.00    1.00492   0.99176  128.626
 4830.00    1.00256   0.98971  126.740
 4831.00    1.00091   0.98801  125.844
 4832.00    1.00042   0.98695  125.836
 4833.00    0.99964   0.98687  126.311
 4834.00    0.99995   0.98722  127.647
 4835.00    1.00233   0.98699  129.772
 4836.00    1.00005   0.98600  130.664
 4837.00    0.99809   0.98463  130.464
 4838.00    0.99502   0.98263  129.935
 4839.00    0.98517   0.97984  129.068
 4840.00    0.98093   0.97737  127.884
 4841.00    0.98341   0.97609  126.118
 4842.00    0.98678   0.97538  124.984
 4843.00    0.98768   0.97452  126.425
 4844.00    0.98896   0.97364  128.627
 4845.00    0.99235   0.97264   -1.000
 4846.00    0.98980   0.97005   -1.000
 4847.00    0.98194   0.96471  127.187
 4848.00    0.97732   0.95848  127.588
 4849.00    0.97398   0.95451   -1.000
 4850.00    0.96983   0.95290  131.463
 4851.00    0.96940   0.95052   -1.000
 4852.00    0.96671   0.94401   -1.000
 4853.00    0.95524   0.93142   -1.000
 4854.00    0.94036   0.91356   -1.000
 4855.00    0.92482   0.89436   -1.000
 4856.00    0.90955   0.87647   -1.000
 4857.00    0.89518   0.85498   -1.000
 4858.00    0.86284   0.81873   -1.000
 4859.00    0.79808   0.76178   -1.000
 4860.00    0.72346   0.69760   -1.000
 4861.00    0.68075   0.65765   -1.000
 4862.00    0.69611   0.66634   -1.000
 4863.00    0.75994   0.71713   -1.000
 4864.00    0.83057   0.77988   -1.000
 4865.00    0.87479   0.83089   -1.000
 4866.00    0.90155   0.86609   -1.000
 4867.00    0.91840   0.89010   -1.000
 4868.00    0.93057   0.90542   -1.000
 4869.00    0.93878   0.91143   -1.000
 4870.00    0.93459   0.90910   -1.000
 4871.00    0.92349   0.90459  132.425
 4872.00    0.92321   0.90589  131.621
 4873.00    0.93809   0.91539   -1.000
 4874.00    0.95546   0.92812   -1.000
 4875.00    0.96702   0.93796   -1.000
 4876.00    0.96652   0.94348   -1.000
 4877.00    0.96357   0.94753  130.252
 4878.00    0.96643   0.95348  131.506
 4879.00    0.97213   0.96182  131.439
 4880.00    0.97720   0.96913  131.749
 4881.00    0.97905   0.97121  133.375
 4882.00    0.97909   0.96786  134.558
 4883.00    0.97663   0.96312  134.283
 4884.00    0.97397   0.96061  133.902
 4885.00    0.97231   0.96090  135.188
 4886.00    0.97364   0.96243  137.911
 4887.00    0.97574   0.96286  138.301
 4888.00    0.97359   0.95997  134.139
 4889.00    0.96574   0.95316  128.079
 4890.00    0.95366   0.94575  123.590
 4891.00    0.94767   0.94464  120.876
 4892.00    0.95907   0.95458  119.769
 4893.00    0.97901   0.97225  119.784
 4894.00    0.99769   0.98950  121.644
 4895.00    1.00941   1.00115  124.495
 4896.00    1.01204   1.00655  126.386
 4897.00    1.00847   1.00674  126.382
 4898.00    1.00292   1.00281  126.279
 4899.00    0.99528   0.99658  127.419
 4900.00    0.98953   0.99113  126.983
 4901.00    0.98780   0.98833  124.624
 4902.00    0.98550   0.98720  123.099
 4903.00    0.98597   0.98702  123.601
 4904.00    0.98794   0.98967  126.041
 4905.00    0.99531   0.99571  129.544
 4906.00    1.00194   1.00108  131.871
 4907.00    1.00497   1.00122  131.157
 4908.00    0.99997   0.99569  128.930
 4909.00    0.98873   0.98727  126.975
 4910.00    0.98163   0.97973  125.300
 4911.00    0.98280   0.97682  124.030
 4912.00    0.98774   0.97993  124.105
 4913.00    0.99347   0.98689  127.302
 4914.00    0.99871   0.99385  133.571
 4915.00    0.99986   0.99702  140.310
 4916.00    1.00114   0.99294  143.491
 4917.00    0.99252   0.97985  140.642
 4918.00    0.97221   0.96017  135.605
 4919.00    0.94785   0.94079  132.705
 4920.00    0.93947   0.92919  132.054
 4921.00    0.94510   0.92789  130.857
 4922.00    0.95198   0.93257  127.921
 4923.00    0.95599   0.93781  125.293
 4924.00    0.95984   0.94406  123.810
 4925.00    0.97009   0.95494  122.879
 4926.00    0.98496   0.96958  122.109
 4927.00    0.99398   0.98314  122.734
 4928.00    0.99934   0.99270  125.470
 4929.00    1.00775   0.99798  129.740
 4930.00    1.00764   0.99838  131.395
 4931.00    0.99679   0.99243  129.757
 4932.00    0.98562   0.98041  128.976
 4933.00    0.97625   0.96696  131.654
 4934.00    0.96918   0.95934  135.430
 4935.00    0.97185   0.96003  135.685
 4936.00    0.97894   0.96305  131.974
 4937.00    0.97745   0.96164  127.615
 4938.00    0.96512   0.95713  124.758
 4939.00    0.95636   0.95665  123.298
 4940.00    0.96334   0.96444  123.047
 4941.00    0.98008   0.97794  123.715
 4942.00    0.99163   0.99105  124.170
 4943.00    0.99725   0.99921  123.437
 4944.00    0.99657   1.00159  122.051
 4945.00    0.99500   1.00019  121.372
 4946.00    0.99704   0.99832  120.911
 4947.00    0.99727   0.99860  121.218
 4948.00    1.00248   1.00109  122.009
 4949.00    1.00617   1.00375  123.265
 4950.00    1.00225   1.00479  124.780
 4951.00    0.99844   1.00406  127.617
 4952.00    0.99946   1.00224  133.339
 4953.00    1.00083   0.99920  139.217
 4954.00    0.99383   0.99264  138.723
 4955.00    0.98370   0.97915  132.042
 4956.00    0.96603   0.95986  126.612
 4957.00    0.94537   0.94441  124.726
 4958.00    0.94462   0.94407  124.914
 4959.00    0.96212   0.95926  125.815
 4960.00    0.98488   0.97924  127.179
 4961.00    0.99466   0.99383  129.565
 4962.00    0.99905   1.00032  131.561
 4963.00    0.99883   1.00038  132.041
 4964.00    0.99244   0.99595  131.751
 4965.00    0.98978   0.98913  130.930
 4966.00    0.98639   0.98300  129.637
 4967.00    0.98261   0.97980  128.242
 4968.00    0.98592   0.97956  126.747
 4969.00    0.98769   0.98162  125.462
 4970.00    0.98909   0.98546  124.773
 4971.00    0.98709   0.99001  125.281
 4972.00    0.99063   0.99398  126.498
 4973.00    0.99676   0.99660  128.123
 4974.00    1.00000   0.99744  130.130
 4975.00    1.00007   0.99636  131.879
 4976.00    0.99786   0.99337  133.679
 4977.00    0.99378   0.98896  137.428
 4978.00    0.98520   0.98415  141.952
 4979.00    0.98207   0.97854  143.162
 4980.00    0.97234   0.96979  141.119
 4981.00    0.95545   0.95708  137.456
 4982.00    0.94203   0.94403  133.197
 4983.00    0.93741   0.93653  129.649
 4984.00    0.94125   0.93805  128.909
 4985.00    0.95226   0.94741  130.383
 4986.00    0.96821   0.96069  131.896
 4987.00    0.97792   0.97311  132.283
 4988.00    0.98062   0.97989  131.401
 4989.00    0.98043   0.97899  130.677
 4990.00    0.97337   0.97318  130.498
 4991.00    0.96682   0.96787  129.980
 4992.00    0.96815   0.96653  129.321
 4993.00    0.96959   0.96895  129.747
 4994.00    0.97083   0.97343  131.263
 4995.00    0.97615   0.97843  133.710
 4996.00    0.98329   0.98150  135.657
 4997.00    0.98418   0.97933  136.144
 4998.00    0.97615   0.97030  135.176
 4999.00    0.97091   0.95733  134.174
 5000.00    0.96230   0.94782  135.409
 5001.00    0.95795   0.94670  138.527
 5002.00    0.96387   0.95083  140.002
 5003.00    0.96972   0.95328  137.551
 5004.00    0.96440   0.95000  133.507
 5005.00    0.95470   0.94252  131.435
 5006.00    0.94593   0.93724  132.420
 5007.00    0.94637   0.93982  135.889
 5008.00    0.95763   0.94877  140.779
 5009.00    0.97278   0.95669   -1.000
 5010.00    0.97299   0.95745  144.823
 5011.00    0.95919   0.95056  142.160
 5012.00    0.94662   0.94019  139.118
 5013.00    0.93457   0.93203  137.985
 5014.00    0.93051   0.92965  137.891
 5015.00    0.93645   0.93172  136.693
 5016.00    0.94295   0.93293  135.458
 5017.00    0.94550   0.92994  135.666
 5018.00    0.94280   0.92646  136.051
 5019.00    0.94692   0.92919  135.517
 5020.00    0.95384   0.93857  134.219
 5021.00    0.96682   0.94869  133.193
 5022.00    0.96812   0.95585  133.484
 5023.00    0.96482   0.96144  134.139
 5024.00    0.96579   0.96696  133.331
 5025.00    0.96717   0.97113  131.084
 5026.00    0.96625   0.97227  129.068
 5027.00    0.96726   0.97115  127.027
 5028.00    0.96921   0.97008  125.426
 5029.00    0.97332   0.97036  125.268
 5030.00    0.97550   0.97212  128.449
 5031.00    0.97388   0.97557  133.387
 5032.00    0.97857   0.97969  136.305
 5033.00    0.98387   0.98111  137.151
 5034.00    0.97981   0.97723  138.570
 5035.00    0.96687   0.96976  143.214
 5036.00    0.95817   0.96294  149.063
 5037.00    0.95836   0.95805  150.433
 5038.00    0.95121   0.95138  144.613
 5039.00    0.97476   0.93967   -1.000
 5040.00    0.71318   0.92643   -1.000
 5041.00    0.19135   0.92068   -1.000
 5042.00   -0.00952   0.92819    0.000
 5043.00    0.20724   0.94575   -1.000
 5044.00    0.80801   0.96493   -1.000
 5045.00    0.98075   0.97910  103.040
 5046.00    0.98525   0.98536  148.753
 5047.00    0.98477   0.98324  134.468
 5048.00    0.97568   0.97431  132.660
 5049.00    0.96287   0.96226  129.356
 5050.00    0.95095   0.95158  126.810
 5051.00    0.95248   0.94630  125.387
 5052.00    0.96044   0.94950  124.832
 5053.00    0.97483   0.96071  124.941
 5054.00    0.98622   0.97422  125.178
 5055.00    0.98941   0.98394  125.185
 5056.00    0.99400   0.98860  124.485
 5057.00    0.99298   0.99060  124.367
 5058.00    0.99281   0.99203  125.738
 5059.00    0.98730   0.99347  129.037
 5060.00    0.98707   0.99450  133.506
 5061.00    0.98830   0.99398  135.689
 5062.00    0.98754   0.99024  134.624
 5063.00    0.98187   0.98254  132.630
 5064.00    0.96787   0.97297  131.903
 5065.00    0.95841   0.96572  131.327
 5066.00    0.96318   0.96309  130.502
 5067.00    0.96825   0.96361  131.198
 5068.00    0.97169   0.96486  132.260
 5069.00    0.97270   0.96610  131.119
 5070.00    0.97674   0.96717  129.961
 5071.00    0.97880   0.96705  129.638
 5072.00    0.97564   0.96537  129.529
 5073.00    0.97319   0.96343  130.542
 5074.00    0.97187   0.96252  134.514
 5075.00    0.97833   0.96232   -1.000
 5076.00    0.97790   0.96085   -1.000
 5077.00    0.96885   0.95555  140.992
 5078.00    0.95967   0.94613  137.946
 5079.00    0.94505   0.93689  135.899
 5080.00    0.93743   0.93344  133.462
 5081.00    0.94250   0.93664  131.125
 5082.00    0.95373   0.94271  129.962
 5083.00    0.96424   0.94909  129.664
 5084.00    0.96814   0.95593  129.096
 5085.00    0.97498   0.96281  128.205
 5086.00    0.98336   0.96798  127.458
 5087.00    0.99250   0.97085   -1.000
 5088.00    0.99800   0.97277   -1.000
 5089.00    0.98846   0.97510  124.269
 5090.00    0.98220   0.97794  125.031
 5091.00    0.98658   0.98084  127.424
 5092.00    0.98869   0.98358  130.181
 5093.00    0.99348   0.98547  133.287
 5094.00    0.99301   0.98495  136.162
 5095.00    0.98888   0.98052  136.989
 5096.00    0.98249   0.97216  134.199
 5097.00    0.97213   0.96187  130.364
 5098.00    0.96161   0.95340  128.797
 5099.00    0.95883   0.95077  129.275
 5100.00    0.97078   0.95528  130.850
 5101.00    0.97440   0.96368  132.527
 5102.00    0.98049   0.97097  134.160
 5103.00    0.98483   0.97419  135.840
 5104.00    0.98158   0.97296  135.929
 5105.00    0.97625   0.96766  135.141
 5106.00    0.96947   0.95933  134.181
 5107.00    0.95774   0.95089  132.390
 5108.00    0.95243   0.94596  130.717
 5109.00    0.95346   0.94608  129.122
 5110.00    0.95882   0.95064  127.896
 5111.00    0.96678   0.95844  127.145
 5112.00    0.97515   0.96745  125.898
 5113.00    0.98430   0.97499  124.798
 5114.00    0.98596   0.97976  124.965
 5115.00    0.98723   0.98267  126.433
 5116.00    0.98764   0.98514  128.316
 5117.00    0.99356   0.98713  130.414
 5118.00    0.99682   0.98728  133.609
 5119.00    0.99023   0.98449  137.579
 5120.00    0.98436   0.97882  138.993
 5121.00    0.98086   0.97095  138.033
 5122.00    0.97593   0.96196  137.267
 5123.00    0.96449   0.95387  136.470
 5124.00    0.95396   0.94907  136.529
 5125.00    0.95756   0.94794  136.457
 5126.00    0.96346   0.94811  134.890
 5127.00    0.95895   0.94734  132.641
 5128.00    0.95335   0.94615  131.403
 5129.00    0.96017   0.94670  130.181
 5130.00    0.96855   0.95006   -1.000
 5131.00    0.96733   0.95503  128.583
 5132.00    0.97018   0.95965  130.565
 5133.00    0.97101   0.96317  133.670
 5134.00    0.97501   0.96543  135.959
 5135.00    0.97940   0.96530  136.387
 5136.00    0.97569   0.96136  135.319
 5137.00    0.96706   0.95405  136.040
 5138.00    0.95177   0.94638  138.135
 5139.00    0.94308   0.94193  137.710
 5140.00    0.94729   0.94177  135.541
 5141.00    0.94656   0.94384  134.843
 5142.00    0.94883   0.94615  135.915
 5143.00    0.95289   0.94916  136.375
 5144.00    0.95922   0.95328  134.922
 5145.00    0.96773   0.95659  134.044
 5146.00    0.97050   0.95750  135.434
 5147.00    0.96424   0.95686  137.844
 5148.00    0.96723   0.95579  138.943
 5149.00    0.97151   0.95362   -1.000
 5150.00    0.96097   0.94941  135.960
 5151.00    0.95386   0.94431  132.577
 5152.00    0.95241   0.94112  129.198
 5153.00    0.95224   0.94169  126.684
 5154.00    0.95895   0.94614  125.598
 5155.00    0.97330   0.95369   -1.000
 5156.00    0.98446   0.96258   -1.000
 5157.00    0.98970   0.97014   -1.000
 5158.00    0.99071   0.97459  127.925
 5159.00    0.99142   0.97582  129.863
 5160.00    0.98885   0.97445  134.526
 5161.00    0.98269   0.97114  145.043
 5162.00    0.97907   0.96619  159.968
 5163.00    0.97615   0.95805   -1.000
 5164.00    0.96746   0.94224   -1.000
 5165.00    0.94432   0.91465   -1.000
 5166.00    0.90655   0.87897   -1.000
 5167.00    0.87062   0.84893   -1.000
 5168.00    0.86087   0.83781   -1.000
 5169.00    0.87927   0.84479   -1.000
 5170.00    0.89997   0.85517   -1.000
 5171.00    0.89955   0.85706   -1.000
 5172.00    0.88049   0.85566   -1.000
 5173.00    0.88200   0.86585  133.414
 5174.00    0.91408   0.89251   -1.000
 5175.00    0.95109   0.92486   -1.000
 5176.00    0.97996   0.94950   -1.000
 5177.00    0.98771   0.96238   -1.000
 5178.00    0.98952   0.96643   -1.000
 5179.00    0.99069   0.96336   -1.000
 5180.00    0.98037   0.95081   -1.000
 5181.00    0.96129   0.92621   -1.000
 5182.00    0.93218   0.89404   -1.000
 5183.00    0.89713   0.86850   -1.000
 5184.00    0.89390   0.86446   -1.000
 5185.00    0.91156   0.88287   -1.000
 5186.00    0.94410   0.90902   -1.000
 5187.00    0.96125   0.92771   -1.000
 5188.00    0.96406   0.93534   -1.000
 5189.00    0.95837   0.93592   -1.000
 5190.00    0.95298   0.93242   -1.000
 5191.00    0.94543   0.92624   -1.000
 5192.00    0.93602   0.92076  134.970
 5193.00    0.93762   0.91972   -1.000
 5194.00    0.94146   0.92289   -1.000
 5195.00    0.94660   0.92736   -1.000
 5196.00    0.95214   0.93185   -1.000
 5197.00    0.96117   0.93715   -1.000
 5198.00    0.96102   0.94362   -1.000
 5199.00    0.96392   0.94990  134.926
 5200.00    0.97012   0.95350   -1.000
 5201.00    0.96984   0.95214   -1.000
 5202.00    0.96492   0.94486   -1.000
 5203.00    0.95243   0.93251   -1.000
 5204.00    0.93779   0.91843   -1.000
 5205.00    0.92821   0.90751   -1.000
 5206.00    0.92410   0.90265   -1.000
 5207.00    0.92628   0.90270   -1.000
 5208.00    0.93061   0.90550   -1.000
 5209.00    0.93447   0.91178   -1.000
 5210.00    0.94271   0.92317   -1.000
 5211.00    0.96016   0.93759   -1.000
 5212.00    0.97749   0.94968   -1.000
 5213.00    0.98048   0.95475   -1.000
 5214.00    0.97079   0.95181   -1.000
 5215.00    0.95850   0.94462  125.762
 5216.00    0.95293   0.93972  124.753
 5217.00    0.95624   0.94177  124.233
 5218.00    0.96859   0.95017   -1.000
 5219.00    0.98114   0.96036   -1.000
 5220.00    0.98616   0.96798   -1.000
 5221.00    0.98800   0.97099   -1.000
 5222.00    0.99097   0.96842   -1.000
 5223.00    0.98209   0.95887   -1.000
 5224.00    0.96834   0.94147   -1.000
 5225.00    0.94183   0.91922   -1.000
 5226.00    0.91504   0.90101  126.571
 5227.00    0.90416   0.89700  126.304
 5228.00    0.92011   0.90900  128.771
 5229.00    0.94959   0.92753   -1.000
 5230.00    0.96263   0.94043   -1.000
 5231.00    0.96299   0.94232   -1.000
 5232.00    0.96303   0.93631   -1.000
 5233.00    0.95410   0.92987   -1.000
 5234.00    0.95021   0.92958   -1.000
 5235.00    0.96124   0.93685   -1.000
 5236.00    0.97302   0.94781   -1.000
 5237.00    0.98112   0.95741   -1.000
 5238.00    0.98799   0.96313   -1.000
 5239.00    0.98843   0.96549   -1.000
 5240.00    0.98651   0.96611   -1.000
 5241.00    0.98523   0.96617   -1.000
 5242.00    0.98435   0.96627   -1.000
 5243.00    0.98203   0.96666  131.825
 5244.00    0.98448   0.96660   -1.000
 5245.00    0.98430   0.96429   -1.000
 5246.00    0.97623   0.95889   -1.000
 5247.00    0.96359   0.95220  132.702
 5248.00    0.95594   0.94671  130.873
 5249.00    0.95550   0.94329  129.564
 5250.00    0.95459   0.94191  129.565
 5251.00    0.95513   0.94270  128.650
 5252.00    0.96110   0.94484  125.662
 5253.00    0.96443   0.94657  122.260
 5254.00    0.96096   0.94764  121.151
 5255.00    0.96346   0.95026  122.264
 5256.00    0.97316   0.95613  125.607
 5257.00    0.97966   0.96349   -1.000
 5258.00    0.98387   0.96804   -1.000
 5259.00    0.98422   0.96616   -1.000
 5260.00    0.97940   0.95672   -1.000
 5261.00    0.96331   0.94134   -1.000
 5262.00    0.94486   0.92371   -1.000
 5263.00    0.92780   0.90791   -1.000
 5264.00    0.91348   0.89699  143.279
 5265.00    0.91272   0.89231   -1.000
 5266.00    0.91745   0.89216   -1.000
 5267.00    0.92079   0.89138   -1.000
 5268.00    0.91699   0.88558   -1.000
 5269.00    0.90007   0.87797   -1.000
 5270.00    0.89380   0.87804  130.639
 5271.00    0.90780   0.89038  130.334
 5272.00    0.93308   0.90805   -1.000
 5273.00    0.94649   0.92070   -1.000
 5274.00    0.94751   0.92569   -1.000
 5275.00    0.95026   0.92837   -1.000
 5276.00    0.95331   0.93458   -1.000
 5277.00    0.96681   0.94476   -1.000
 5278.00    0.97944   0.95399   -1.000
 5279.00    0.96371   0.95702  131.078
 5280.00    0.96796   0.95272  128.390
 5281.00    0.96322   0.94408   -1.000
 5282.00    0.95251   0.93575  120.507
 5283.00    0.94707   0.93236  119.632
 5284.00    0.94928   0.93684  120.290
 5285.00    0.96035   0.94809  120.263
 5286.00    0.97867   0.96088   -1.000
 5287.00    0.98681   0.97003  119.299
 5288.00    0.98604   0.97443  120.018
 5289.00    0.98169   0.97600  121.165
 5290.00    0.97951   0.97619  122.787
 5291.00    0.98476   0.97526  126.166
 5292.00    0.98356   0.97346  131.062
 5293.00    0.98074   0.97094  134.551
 5294.00    0.97998   0.96677  133.617
 5295.00    0.97371   0.95960  130.159
 5296.00    0.96434   0.94992  127.757
 5297.00    0.95478   0.94115  126.980
 5298.00    0.95208   0.93734  125.394
 5299.00    0.95603   0.93943  121.954
 5300.00    0.95851   0.94453  119.742
 5301.00    0.96126   0.94960  119.484
 5302.00    0.96499   0.95429  120.697
 5303.00    0.96960   0.95940  121.742
 5304.00    0.97228   0.96411  120.889
 5305.00    0.97872   0.96650  119.602
 5306.00    0.97928   0.96628  118.855
 5307.00    0.97203   0.96546  119.002
 5308.00    0.97082   0.96619  119.693
 5309.00    0.97596   0.96856  120.204
 5310.00    0.97644   0.97086  121.093
 5311.00    0.98284   0.97141  122.307
 5312.00    0.98336   0.96966  123.389
 5313.00    0.97724   0.96547  123.387
 5314.00    0.97544   0.95875  122.433
 5315.00    0.96328   0.95076  121.929
 5316.00    0.95513   0.94483  122.418
 5317.00    0.95509   0.94445  123.299
 5318.00    0.95877   0.94957  124.779
 5319.00    0.96752   0.95627  127.006
 5320.00    0.96929   0.96000  128.134
 5321.00    0.96985   0.95844  128.027
 5322.00    0.96521   0.95198  131.735
 5323.00    0.95483   0.94321  140.512
 5324.00    0.95241   0.93478   -1.000
 5325.00    0.94890   0.92605   -1.000
 5326.00    0.94055   0.91391   -1.000
 5327.00    0.92123   0.89953   -1.000
 5328.00    0.89916   0.89151  125.046
 5329.00    0.90773   0.89792  123.848
 5330.00    0.93639   0.91601   -1.000
 5331.00    0.95382   0.93465   -1.000
 5332.00    0.96138   0.94604  122.772
 5333.00    0.96277   0.95046  123.564
 5334.00    0.96406   0.95124  124.954
 5335.00    0.96130   0.95024  128.234
 5336.00    0.95996   0.94799  130.423
 5337.00    0.96005   0.94469  129.145
 5338.00    0.95840   0.94013   -1.000
 5339.00    0.95406   0.93471   -1.000
 5340.00    0.93878   0.93106  123.461
 5341.00    0.94140   0.93252  124.315
 5342.00    0.95308   0.93895  125.114
 5343.00    0.96345   0.94597   -1.000
 5344.00    0.96993   0.94936   -1.000
 5345.00    0.96138   0.94852  127.134
 5346.00    0.95960   0.94547  125.008
 5347.00    0.95918   0.94242  122.036
 5348.00    0.95965   0.94076   -1.000
 5349.00    0.95862   0.94167  120.304
 5350.00    0.96138   0.94561  119.308
 5351.00    0.97068   0.95125   -1.000
 5352.00    0.97154   0.95649  116.903
 5353.00    0.97616   0.96057  117.080
 5354.00    0.97555   0.96420  117.261
 5355.00    0.97671   0.96780  117.711
 5356.00    0.97419   0.97063  119.173
 5357.00    0.98010   0.97188  121.224
 5358.00    0.98434   0.97142  122.979
 5359.00    0.98288   0.96920  123.768
 5360.00    0.97880   0.96504  124.479
 5361.00    0.97611   0.95915   -1.000
 5362.00    0.96651   0.95262  124.748
 5363.00    0.96142   0.94690  124.787
 5364.00    0.95238   0.94306  126.175
 5365.00    0.95032   0.94139  129.492
 5366.00    0.95423   0.94095  133.473
 5367.00    0.95453   0.93950  133.533
 5368.00    0.95107   0.93463  128.210
 5369.00    0.94389   0.92597  122.228
 5370.00    0.93273   0.91697  119.485
 5371.00    0.92376   0.91387  118.767
 5372.00    0.92950   0.92065  119.215
 5373.00    0.94927   0.93460  119.229
 5374.00    0.97014   0.94864   -1.000
 5375.00    0.98090   0.95757   -1.000
 5376.00    0.97976   0.96104   -1.000
 5377.00    0.97656   0.96124  122.651
 5378.00    0.97571   0.95959  123.188
 5379.00    0.97172   0.95623  123.041
 5380.00    0.96781   0.95159  122.404
 5381.00    0.96505   0.94723   -1.000
 5382.00    0.95864   0.94487  120.919
 5383.00    0.95490   0.94539  121.542
 5384.00    0.95936   0.94857  122.789
 5385.00    0.96650   0.95315  124.724
 5386.00    0.97251   0.95703  126.054
 5387.00    0.97233   0.95823  126.534
 5388.00    0.96701   0.95610  126.563
 5389.00    0.96533   0.95158  126.999
 5390.00    0.96589   0.94635   -1.000
 5391.00    0.96207   0.94170   -1.000
 5392.00    0.95954   0.93814   -1.000
 5393.00    0.95045   0.93536  132.181
 5394.00    0.94818   0.93193  127.914
 5395.00    0.95058   0.92620   -1.000
 5396.00    0.93610   0.91939  123.891
 5397.00    0.92857   0.91621  124.214
 5398.00    0.93189   0.92002  125.356
 5399.00    0.95149   0.92856   -1.000
 5400.00    0.95675   0.93630   -1.000
 5401.00    0.96010   0.93895   -1.000
 5402.00    0.95694   0.93491   -1.000
 5403.00    0.94944   0.92491   -1.000
 5404.00    0.93268   0.91284   -1.000
 5405.00    0.91914   0.90495  130.986
 5406.00    0.92876   0.90526   -1.000
 5407.00    0.93657   0.91143   -1.000
 5408.00    0.94299   0.91739   -1.000
 5409.00    0.94359   0.92026   -1.000
 5410.00    0.93676   0.92261  122.659
 5411.00    0.94297   0.92742  122.663
 5412.00    0.95504   0.93340   -1.000
 5413.00    0.96225   0.93726   -1.000
 5414.00    0.95826   0.93853   -1.000
 5415.00    0.94950   0.93957  122.857
 5416.00    0.95312   0.94194  123.483
 5417.00    0.95705   0.94472  122.873
 5418.00    0.95914   0.94630  122.498
 5419.00    0.96035   0.94642  124.400
 5420.00    0.95965   0.94555  125.339
 5421.00    0.95932   0.94362  123.737
 5422.00    0.95703   0.94038  121.709
 5423.00    0.95150   0.93669  122.488
 5424.00    0.94470   0.93491  126.188
 5425.00    0.94661   0.93674  130.073
 5426.00    0.95606   0.94010   -1.000
 5427.00    0.95970   0.94008   -1.000
 5428.00    0.94962   0.93451  127.650
 5429.00    0.93496   0.92738  129.624
 5430.00    0.92990   0.92420  130.957
 5431.00    0.93347   0.92513  130.164
 5432.00    0.93728   0.92552  127.326
 5433.00    0.93776   0.92274  123.780
 5434.00    0.92729   0.91989  121.326
 5435.00    0.92869   0.92199  119.743
 5436.00    0.93538   0.93013  118.857
 5437.00    0.94816   0.94096  118.737
 5438.00    0.96039   0.95038  118.825
 5439.00    0.96822   0.95643  120.330
 5440.00    0.96746   0.95937  123.844
 5441.00    0.96496   0.95997  129.079
 5442.00    0.96625   0.95798  132.872
 5443.00    0.96319   0.95199  131.178
 5444.00    0.95258   0.94104  126.714
 5445.00    0.93950   0.92721  123.410
 5446.00    0.92583   0.91643  122.526
 5447.00    0.91829   0.91466  122.714
 5448.00    0.93186   0.92254  123.990
 5449.00    0.95449   0.93468   -1.000
 5450.00    0.96645   0.94441   -1.000
 5451.00    0.96637   0.94807   -1.000
 5452.00    0.96337   0.94504   -1.000
 5453.00    0.95441   0.93637   -1.000
 5454.00    0.94274   0.92539  122.776
 5455.00    0.92622   0.91820  122.495
 5456.00    0.92218   0.92009  124.194
 5457.00    0.93503   0.93039  126.560
 5458.00    0.95060   0.94260  128.119
 5459.00    0.95990   0.95020  128.537
 5460.00    0.96236   0.95113  126.732
 5461.00    0.95598   0.94706  125.357
 5462.00    0.94854   0.94136  124.776
 5463.00    0.94722   0.93763  123.372
 5464.00    0.94761   0.93779  123.093
 5465.00    0.95145   0.94086  124.422
 5466.00    0.95517   0.94445  125.647
 5467.00    0.95476   0.94720  126.026
 5468.00    0.95829   0.94907  126.760
 5469.00    0.96085   0.95010  128.167
 5470.00    0.95856   0.94971  130.123
 5471.00    0.95620   0.94752  132.937
 5472.00    0.95250   0.94381  134.622
 5473.00    0.94982   0.93850  132.802
 5474.00    0.94656   0.93111  128.631
 5475.00    0.93974   0.92238  126.675
 5476.00    0.92835   0.91580  128.020
 5477.00    0.92394   0.91560  129.466
 5478.00    0.93448   0.92195  128.834
 5479.00    0.94236   0.92990  126.358
 5480.00    0.95298   0.93473   -1.000
 5481.00    0.95473   0.93644   -1.000
 5482.00    0.94728   0.93802  124.657
 5483.00    0.94470   0.94135  126.387
 5484.00    0.95177   0.94542  126.939
 5485.00    0.95422   0.94785  126.806
 5486.00    0.95352   0.94737  125.821
 5487.00    0.94743   0.94486  124.957
 5488.00    0.94551   0.94242  124.618
 5489.00    0.94639   0.94158  124.939
 5490.00    0.94634   0.94242  124.950
 5491.00    0.94913   0.94404  125.030
 5492.00    0.94772   0.94529  126.039
 5493.00    0.95164   0.94533  126.739
 5494.00    0.95296   0.94381  125.816
 5495.00    0.94960   0.94064  124.599
 5496.00    0.94045   0.93660  125.960
 5497.00    0.93530   0.93376  127.872
 5498.00    0.93241   0.93344  127.753
 5499.00    0.93636   0.93408  126.680
 5500.00    0.93983   0.93302  126.735
 5501.00    0.93364   0.93042  128.598
 5502.00    0.93026   0.92907  129.514
 5503.00    0.93811   0.92999  127.983
 5504.00    0.94371   0.93060  126.031
 5505.00    0.94168   0.92852  125.809
 5506.00    0.93440   0.92535  126.963
 5507.00    0.92929   0.92475  129.574
 5508.00    0.93516   0.92781  131.540
 5509.00    0.94422   0.93165  132.274
 5510.00    0.94476   0.93292  130.349
 5511.00    0.93998   0.93120  128.050
 5512.00    0.93654   0.92863  126.083
 5513.00    0.93290   0.92752  123.698
 5514.00    0.93321   0.92891  121.898
 5515.00    0.94053   0.93247  121.823
 5516.00    0.94884   0.93720  122.050
 5517.00    0.95341   0.94195  122.321
 5518.00    0.95372   0.94563  122.737
 5519.00    0.95478   0.94748  122.994
 5520.00    0.95302   0.94761  123.915
 5521.00    0.95372   0.94697  125.847
 5522.00    0.94958   0.94622  128.922
 5523.00    0.95101   0.94461  131.935
 5524.00    0.94563   0.94029  131.922
 5525.00    0.93833   0.93204  128.658
 5526.00    0.93253   0.92123  125.449
 5527.00    0.92234   0.91229  124.249
 5528.00    0.91646   0.90995  124.798
 5529.00    0.91822   0.91534  125.971
 5530.00    0.93460   0.92463  126.376
 5531.00    0.94218   0.93204  125.760
 5532.00    0.94467   0.93422  124.778
 5533.00    0.94371   0.93209  124.512
 5534.00    0.93896   0.92930  123.837
 5535.00    0.93508   0.92923  122.597
 5536.00    0.94088   0.93249  121.802
 5537.00    0.94328   0.93716  122.134
 5538.00    0.94366   0.94119  123.506
 5539.00    0.94379   0.94383  124.607
 5540.00    0.94683   0.94504  124.738
 5541.00    0.95100   0.94472  124.342
 5542.00    0.94925   0.94300  123.997
 5543.00    0.94338   0.94079  123.094
 5544.00    0.94188   0.93940  121.860
 5545.00    0.94242   0.93953  120.976
 5546.00    0.94400   0.94107  120.908
 5547.00    0.94753   0.94364  121.704
 5548.00    0.94963   0.94671  122.856
 5549.00    0.94682   0.94918  124.173
 5550.00    0.94610   0.94996  124.564
 5551.00    0.94536   0.94898  124.277
 5552.00    0.94591   0.94708  123.897
 5553.00    0.94498   0.94518  123.714
 5554.00    0.93910   0.94393  123.566
 5555.00    0.94110   0.94366  123.499
 5556.00    0.94291   0.94413  123.865
 5557.00    0.94026   0.94476  124.640
 5558.00    0.94337   0.94517  125.909
 5559.00    0.94592   0.94523  126.657
 5560.00    0.94550   0.94450  126.954
 5561.00    0.94218   0.94268  127.187
 5562.00    0.94012   0.94034  127.238
 5563.00    0.93607   0.93850  126.932
 5564.00    0.93185   0.93743  126.776
 5565.00    0.92943   0.93648  127.130
 5566.00    0.93248   0.93502  127.003
 5567.00    0.93501   0.93311  127.095
 5568.00    0.93928   0.93117  127.343
 5569.00    0.94153   0.92962  126.558
 5570.00    0.97276   0.92827   -1.000
 5571.00    1.05482   0.92653   -1.000
 5572.00    1.11122   0.92494   -1.000
 5573.00    1.06001   0.92502   -1.000
 5574.00    0.91100   0.92716  123.608
 5575.00    0.82002   0.93023   -1.000
 5576.00    0.84330   0.93305   -1.000
 5577.00    0.90607   0.93533  126.416
 5578.00    0.93241   0.93710  125.252
 5579.00    0.93571   0.93802  125.267
 5580.00    0.94232   0.93775  126.456
 5581.00    0.93783   0.93680  129.559
 5582.00    0.93426   0.93589  132.806
 5583.00    0.93694   0.93437  135.382
 5584.00    0.93521   0.93013  135.726
 5585.00    0.92733   0.92211  133.725
 5586.00    0.91550   0.91221  131.344
 5587.00    0.90207   0.90424  129.832
 5588.00    0.89660   0.90127  129.745
 5589.00    0.89948   0.90386  130.098
 5590.00    0.90639   0.90998  128.967
 5591.00    0.92010   0.91616  127.160
 5592.00    0.92591   0.91978  126.626
 5593.00    0.92161   0.92103  128.239
 5594.00    0.91886   0.92214  130.406
 5595.00    0.92068   0.92419  131.407
 5596.00    0.92267   0.92547  131.353
 5597.00    0.92301   0.92419  132.174
 5598.00    0.92140   0.92097  132.224
 5599.00    0.91649   0.91732  129.486
 5600.00    0.91494   0.91376  125.933
 5601.00    0.91303   0.91134  123.397
 5602.00    0.90971   0.91242  122.293
 5603.00    0.91536   0.91835  122.225
 5604.00    0.92241   0.92755  122.458
 5605.00    0.93027   0.93657  122.636
 5606.00    0.93918   0.94281  122.421
 5607.00    0.94320   0.94598  122.213
 5608.00    0.94281   0.94733  123.294
 5609.00    0.94192   0.94811  126.402
 5610.00    0.94558   0.94857  130.685
 5611.00    0.94357   0.94752  132.685
 5612.00    0.93985   0.94297  130.763
 5613.00    0.93082   0.93407  127.735
 5614.00    0.91792   0.92353  126.429
 5615.00    0.90924   0.91694  126.200
 5616.00    0.90930   0.91793  125.574
 5617.00    0.91914   0.92461  125.195
 5618.00    0.93175   0.93194  126.269
 5619.00    0.93584   0.93669  128.936
 5620.00    0.93891   0.93878  130.647
 5621.00    0.93735   0.93882  129.433
 5622.00    0.93034   0.93680  127.175
 5623.00    0.92769   0.93322  125.461
 5624.00    0.92240   0.93014  124.155
 5625.00    0.92354   0.92977  123.413
 5626.00    0.92946   0.93229  123.083
 5627.00    0.93647   0.93591  122.705
 5628.00    0.93948   0.93888  123.088
 5629.00    0.94220   0.94066  124.119
 5630.00    0.94321   0.94156  124.969
 5631.00    0.94091   0.94192  125.778
 5632.00    0.93951   0.94178  126.705
 5633.00    0.94165   0.94103  127.361
 5634.00    0.94034   0.93968  127.256
 5635.00    0.93899   0.93781  127.245
 5636.00    0.93284   0.93571  127.653
 5637.00    0.93103   0.93386  127.542
 5638.00    0.93270   0.93242  126.957
 5639.00    0.93324   0.93111  126.456
 5640.00    0.93225   0.92982  126.131
 5641.00    0.92659   0.92919  125.298
 5642.00    0.92529   0.92987  125.014
 5643.00    0.93113   0.93165  124.717
 5644.00    0.93454   0.93364  124.665
 5645.00    0.93691   0.93519  124.944
 5646.00    0.93772   0.93611  124.658
 5647.00    0.93610   0.93646  123.729
 5648.00    0.93608   0.93633  123.672
 5649.00    0.93864   0.93598  124.350
 5650.00    0.94073   0.93587  125.449
 5651.00    0.93822   0.93610  126.967
 5652.00    0.93796   0.93610  129.901
 5653.00    0.93631   0.93509  133.604
 5654.00    0.93256   0.93233  134.535
 5655.00    0.92887   0.92693  131.958
 5656.00    0.92206   0.91885  129.597
 5657.00    0.91333   0.91063  129.518
 5658.00    0.90516   0.90648  129.354
 5659.00    0.90763   0.90822  127.636
 5660.00    0.91818   0.91325  126.129
 5661.00    0.92077   0.91794  126.057
 5662.00    0.92024   0.92168  126.857
 5663.00    0.92190   0.92566  127.461
 5664.00    0.92921   0.92933  127.432
 5665.00    0.93325   0.93054  126.932
 5666.00    0.93147   0.92866  125.988
 5667.00    0.92789   0.92573  124.821
 5668.00    0.92456   0.92437  123.564
 5669.00    0.92710   0.92555  122.701
 5670.00    0.92919   0.92852  122.955
 5671.00    0.93287   0.93195  123.179
 5672.00    0.93790   0.93477  122.757
 5673.00    0.93989   0.93649  122.811
 5674.00    0.93985   0.93726  123.487
 5675.00    0.93890   0.93765  124.029
 5676.00    0.93447   0.93803  124.984
 5677.00    0.93103   0.93802  126.530
 5678.00    0.93418   0.93702  127.701
 5679.00    0.93628   0.93475  127.581
 5680.00    0.93282   0.93121  126.795
 5681.00    0.92820   0.92665  126.575
 5682.00    0.92525   0.92211  127.538
 5683.00    0.92199   0.91921  128.835
 5684.00    0.92310   0.91878  128.614
 5685.00    0.92229   0.91998  126.733
 5686.00    0.91652   0.92118  124.630
 5687.00    0.91694   0.92159  123.682
 5688.00    0.92094   0.92183  123.076
 5689.00    0.92504   0.92301  123.014
 5690.00    0.92920   0.92553  123.181
 5691.00    0.93153   0.92876  123.339
 5692.00    0.92953   0.93163  123.967
 5693.00    0.92942   0.93348  125.345
 5694.00    0.93376   0.93433  126.717
 5695.00    0.93592   0.93446  127.867
 5696.00    0.93437   0.93391  129.050
 5697.00    0.93110   0.93237  129.104
 5698.00    0.93053   0.92962  127.879
 5699.00    0.92834   0.92611  126.812
 5700.00    0.92483   0.92295  126.949
 5701.00    0.92060   0.92136  128.189
 5702.00    0.91667   0.92185  130.268
 5703.00    0.92220   0.92346  132.641
 5704.00    0.92661   0.92422  134.280
 5705.00    0.92692   0.92269  134.605
 5706.00    0.91956   0.91873  133.872
 5707.00    0.91425   0.91319  131.979
 5708.00    0.90657   0.90749  128.957
 5709.00    0.89979   0.90357  126.086
 5710.00    0.89904   0.90313  124.727
 5711.00    0.90290   0.90659  124.466
 5712.00    0.91297   0.91258  124.160
 5713.00    0.91860   0.91880  123.689
 5714.00    0.92502   0.92361  123.000
 5715.00    0.92904   0.92675  122.253
 5716.00    0.93024   0.92882  121.792
 5717.00    0.92883   0.93037  121.557
 5718.00    0.93034   0.93182  121.389
 5719.00    0.93256   0.93333  121.381
 5720.00    0.93365   0.93471  121.944
 5721.00    0.92955   0.93569  123.130
 5722.00    0.93038   0.93622  124.355
 5723.00    0.93310   0.93623  124.788
 5724.00    0.93298   0.93536  123.926
 5725.00    0.93131   0.93341  123.533
 5726.00    0.92877   0.93096  124.076
 5727.00    0.92784   0.92905  124.380
 5728.00    0.93077   0.92825  123.558
 5729.00    0.92990   0.92834  122.422
 5730.00    0.92742   0.92879  121.981
 5731.00    0.92677   0.92940  122.185
 5732.00    0.92953   0.93051  122.395
 5733.00    0.93121   0.93222  122.702
 5734.00    0.92945   0.93378  122.817
 5735.00    0.93249   0.93443  123.081
 5736.00    0.93541   0.93426  123.283
 5737.00    0.93517   0.93390  123.389
 5738.00    0.93207   0.93369  123.092
 5739.00    0.92752   0.93363  122.741
 5740.00    0.92770   0.93352  121.829
 5741.00    0.92987   0.93322  121.642
 5742.00    0.93237   0.93296  122.620
 5743.00    0.93384   0.93305  123.638
 5744.00    0.93261   0.93331  123.627
 5745.00    0.93100   0.93307  122.904
 5746.00    0.92888   0.93206  123.022
 5747.00    0.92736   0.93100  124.302
 5748.00    0.92623   0.93075  125.769
 5749.00    0.92844   0.93108  126.566
 5750.00    0.93183   0.93059  125.876
 5751.00    0.92695   0.92820  123.875
 5752.00    0.92129   0.92467  121.800
 5753.00    0.92065   0.92226  121.060
 5754.00    0.91979   0.92281  121.934
 5755.00    0.92105   0.92616  123.464
 5756.00    0.92409   0.93056  125.126
 5757.00    0.92725   0.93406  126.475
 5758.00    0.92966   0.93530  126.308
 5759.00    0.92863   0.93385  124.454
 5760.00    0.92796   0.93043  122.404
 5761.00    0.92504   0.92683  121.369
 5762.00    0.92247   0.92523  121.175
 5763.00    0.92410   0.92688  121.034
 5764.00    0.92517   0.93079  120.976
 5765.00    0.92528   0.93453  121.324
 5766.00    0.92929   0.93649  121.831
 5767.00    0.92787   0.93667  122.565
 5768.00    0.93129   0.93588  123.172
 5769.00    0.93116   0.93475  123.379
 5770.00    0.92980   0.93353  123.378
 5771.00    0.93208   0.93233  122.952
 5772.00    0.92814   0.93103  122.481
 5773.00    0.92597   0.92954  122.595
 5774.00    0.92560   0.92806  123.517
 5775.00    0.92511   0.92711  125.805
 5776.00    0.92879   0.92659  128.314
 5777.00    0.92896   0.92556  129.179
 5778.00    0.92702   0.92324  128.693
 5779.00    0.92686   0.91981  128.201
 5780.00    0.92380   0.91618  127.742
 5781.00    0.92530   0.91348  126.924
 5782.00    0.92739   0.91232  125.319
 5783.00    0.92512   0.91251  123.894
 5784.00    0.92344   0.91349  123.401
 5785.00    0.92466   0.91495  123.781
 5786.00    0.92493   0.91680  124.098
 5787.00    0.92806   0.91880  123.532
 5788.00    0.93197   0.92050  122.508
 5789.00    0.93220   0.92147  121.730
 5790.00    0.92975   0.92183  121.238
 5791.00    0.92698   0.92245  121.509
 5792.00    0.92657   0.92414  122.323
 5793.00    0.92983   0.92675  122.598
 5794.00    0.93108   0.92914  121.528
 5795.00    0.93165   0.93011  119.859
 5796.00    0.93446   0.92949  118.716
 5797.00    0.93373   0.92851  119.030
 5798.00    0.93441   0.92864  120.102
 5799.00    0.93600   0.93012  121.037
 5800.00    0.93544   0.93199  121.867
 5801.00    0.93676   0.93316  122.060
 5802.00    0.93732   0.93306  121.646
 5803.00    0.93718   0.93192  121.216
 5804.00    0.93728   0.93067  120.998
 5805.00    0.93411   0.93021  120.979
 5806.00    0.93333   0.93079  120.719
 5807.00    0.93760   0.93196  120.273
 5808.00    0.93907   0.93310  120.158
 5809.00    0.93624   0.93394  120.738
 5810.00    0.93959   0.93455  121.636
 5811.00    0.94241   0.93488  121.693
 5812.00    0.94070   0.93459  120.893
 5813.00    0.94290   0.93336  120.119
 5814.00    0.94279   0.93153  119.503
 5815.00    0.94201   0.93019  118.990
 5816.00    0.94208   0.93034  118.838
 5817.00    0.94044   0.93200  119.168
 5818.00    0.93936   0.93416  119.356
 5819.00    0.94103   0.93579  119.101
 5820.00    0.94462   0.93661  118.918
 5821.00    0.94467   0.93689  118.732
 5822.00    0.94135   0.93691  118.687
 5823.00    0.94196   0.93683  118.813
 5824.00    0.94161   0.93674  118.880
 5825.00    0.94224   0.93683  118.706
 5826.00    0.94091   0.93716  118.690
 5827.00    0.94309   0.93769  118.664
 5828.00    0.94520   0.93830  119.165
 5829.00    0.94565   0.93865  119.768
 5830.00    0.94131   0.93849  119.665
 5831.00    0.94170   0.93783  119.290
 5832.00    0.94445   0.93675  119.326
 5833.00    0.94563   0.93550  119.718
 5834.00    0.94376   0.93455  119.708
 5835.00    0.94275   0.93432  119.067
 5836.00    0.94443   0.93485  118.256
 5837.00    0.94217   0.93592  117.929
 5838.00    0.94145   0.93722  118.155
 5839.00    0.94193   0.93836  118.602
 5840.00    0.93940   0.93891  119.203
 5841.00    0.94158   0.93858  119.948
 5842.00    0.94675   0.93735  120.522
 5843.00    0.94501   0.93551  120.820
 5844.00    0.94098   0.93347  120.759
 5845.00    0.94289   0.93163  121.198
 5846.00    0.94568   0.93028  121.957
 5847.00    0.94307   0.92950  122.907
 5848.00    0.94058   0.92896  123.903
 5849.00    0.94182   0.92794  124.277
 5850.00    0.94058   0.92573  124.434
 5851.00    0.93793   0.92214   -1.000
 5852.00    0.93553   0.91810   -1.000
 5853.00    0.92698   0.91502  126.661
 5854.00    0.92182   0.91303  125.316
 5855.00    0.92450   0.91075  123.931
 5856.00    0.92444   0.90762   -1.000
 5857.00    0.92647   0.90526   -1.000
 5858.00    0.92776   0.90562   -1.000
 5859.00    0.93034   0.90876   -1.000
 5860.00    0.93445   0.91293   -1.000
 5861.00    0.93748   0.91650   -1.000
 5862.00    0.93764   0.91898   -1.000
 5863.00    0.93375   0.92037  123.080
 5864.00    0.93464   0.92051  121.890
 5865.00    0.93468   0.91956  121.100
 5866.00    0.93411   0.91865  120.828
 5867.00    0.93560   0.91896   -1.000
 5868.00    0.93800   0.92058   -1.000
 5869.00    0.94133   0.92263   -1.000
 5870.00    0.93874   0.92414  121.150
 5871.00    0.93520   0.92453  121.627
 5872.00    0.93806   0.92384  122.008
 5873.00    0.94297   0.92243   -1.000
 5874.00    0.94134   0.92073   -1.000
 5875.00    0.93551   0.91914   -1.000
 5876.00    0.93594   0.91778   -1.000
 5877.00    0.93340   0.91625   -1.000
 5878.00    0.93076   0.91428   -1.000
 5879.00    0.93223   0.91213   -1.000
 5880.00    0.93433   0.91016   -1.000
 5881.00    0.93074   0.90822   -1.000
 5882.00    0.93152   0.90585   -1.000
 5883.00    0.93582   0.90302   -1.000
 5884.00    0.93426   0.89971   -1.000
 5885.00    0.91123   0.89455   -1.000
 5886.00    0.87081   0.88410  149.191
 5887.00    0.84387   0.86564  143.765
 5888.00    0.84470   0.84251  139.206
 5889.00    0.85886   0.82485   -1.000
 5890.00    0.86345   0.82116   -1.000
 5891.00    0.85902   0.83002   -1.000
 5892.00    0.85606   0.84120  141.303
 5893.00    0.85719   0.84487  136.516
 5894.00    0.86267   0.83973   -1.000
 5895.00    0.86423   0.83366   -1.000
 5896.00    0.86624   0.83551   -1.000
 5897.00    0.88180   0.84643   -1.000
 5898.00    0.90333   0.86122   -1.000
 5899.00    0.91964   0.87480   -1.000
 5900.00    0.92803   0.88519   -1.000
 5901.00    0.93078   0.89257   -1.000
 5902.00    0.93125   0.89759   -1.000
 5903.00    0.92974   0.90084   -1.000
 5904.00    0.92818   0.90284   -1.000
 5905.00    0.92686   0.90414   -1.000
 5906.00    0.92629   0.90509   -1.000
 5907.00    0.92864   0.90592   -1.000
 5908.00    0.92935   0.90676   -1.000
 5909.00    0.92759   0.90736   -1.000
 5910.00    0.92963   0.90718   -1.000
 5911.00    0.92886   0.90570   -1.000
 5912.00    0.92145   0.90275   -1.000
 5913.00    0.91503   0.89894  126.191
 5914.00    0.90979   0.89563  125.760
 5915.00    0.90980   0.89398  125.401
 5916.00    0.91793   0.89422   -1.000
 5917.00    0.92423   0.89588   -1.000
 5918.00    0.92475   0.89817   -1.000
 5919.00    0.92237   0.90021   -1.000
 5920.00    0.91740   0.90154  124.305
 5921.00    0.92077   0.90220   -1.000
 5922.00    0.92483   0.90260   -1.000
 5923.00    0.92516   0.90334   -1.000
 5924.00    0.92453   0.90463   -1.000
 5925.00    0.92460   0.90606   -1.000
 5926.00    0.92811   0.90683   -1.000
 5927.00    0.92899   0.90630   -1.000
 5928.00    0.92628   0.90455   -1.000
 5929.00    0.92125   0.90284   -1.000
 5930.00    0.91830   0.90241  126.261
 5931.00    0.92105   0.90314   -1.000
 5932.00    0.92273   0.90398   -1.000
 5933.00    0.92472   0.90412   -1.000
 5934.00    0.92348   0.90382   -1.000
 5935.00    0.91866   0.90392  125.106
 5936.00    0.91343   0.90460  126.160
 5937.00    0.91273   0.90502  126.398
 5938.00    0.91509   0.90429  125.922
 5939.00    0.91612   0.90241  125.135
 5940.00    0.91544   0.90022  124.532
 5941.00    0.91244   0.89857  124.490
 5942.00    0.91160   0.89796  125.303
 5943.00    0.91318   0.89857  126.590
 5944.00    0.91559   0.89981   -1.000
 5945.00    0.91991   0.90056   -1.000
 5946.00    0.91916   0.90013   -1.000
 5947.00    0.91703   0.89900   -1.000
 5948.00    0.91677   0.89854   -1.000
 5949.00    0.91562   0.89932   -1.000
 5950.00    0.91529   0.90057  126.299
 5951.00    0.91441   0.90148  126.606
 5952.00    0.91371   0.90182  126.990
 5953.00    0.91138   0.90174  126.784
 5954.00    0.91136   0.90111  125.731
 5955.00    0.91491   0.89999  124.334
 5956.00    0.91383   0.89908  123.541
 5957.00    0.91182   0.89924  123.290
 5958.00    0.91410   0.90075  123.396
 5959.00    0.91766   0.90303  123.926
 5960.00    0.92006   0.90531  124.498
 5961.00    0.92071   0.90694  124.907
 5962.00    0.92041   0.90741  124.976
 5963.00    0.91896   0.90661  124.268
 5964.00    0.91844   0.90492  123.618
 5965.00    0.91863   0.90324  123.521
 5966.00    0.91798   0.90238  123.371
 5967.00    0.91683   0.90257  123.151
 5968.00    0.91675   0.90349  123.461
 5969.00    0.91788   0.90474  124.365
 5970.00    0.91778   0.90594  125.350
 5971.00    0.91694   0.90672  126.268
 5972.00    0.91706   0.90677  126.987
 5973.00    0.91669   0.90595  126.914
 5974.00    0.91289   0.90415  125.977
 5975.00    0.90883   0.90177  125.196
 5976.00    0.91018   0.89977  125.192
 5977.00    0.91332   0.89901  125.940
 5978.00    0.91351   0.89978  127.064
 5979.00    0.91296   0.90141  127.914
 5980.00    0.91424   0.90260  127.913
 5981.00    0.91657   0.90225  126.891
 5982.00    0.91449   0.90035  125.816
 5983.00    0.91096   0.89798  125.298
 5984.00    0.90880   0.89657  124.788
 5985.00    0.90574   0.89675  124.601
 5986.00    0.90621   0.89805  124.914
 5987.00    0.91165   0.89961  124.700
 5988.00    0.91247   0.90066  123.776
 5989.00    0.91168   0.90092  123.098
 5990.00    0.91288   0.90082  123.474
 5991.00    0.91282   0.90131  124.420
 5992.00    0.91202   0.90290  125.095
 5993.00    0.91028   0.90495  125.462
 5994.00    0.91032   0.90618  125.435
 5995.00    0.91054   0.90588  125.369
 5996.00    0.91081   0.90452  125.874
 5997.00    0.90990   0.90322  126.482
 5998.00    0.90864   0.90273  126.608
 5999.00    0.91070   0.90272  126.364
 6000.00    0.91019   0.90242  126.241
 6001.00    0.90635   0.90157  126.828
 6002.00    0.90608   0.90051  128.010
 6003.00    0.90766   0.89969  128.586
 6004.00    0.90728   0.89882  127.639
 6005.00    0.90517   0.89729  126.162
 6006.00    0.90320   0.89520  125.652
 6007.00    0.90190   0.89366  126.324
 6008.00    0.90121   0.89397  127.176
 6009.00    0.90111   0.89599  127.070
 6010.00    0.90217   0.89808  126.698
 6011.00    0.90400   0.89897  127.070
 6012.00    0.90683   0.89881  127.484
 6013.00    0.90768   0.89862  127.373
 6014.00    0.90510   0.89880  127.417
 6015.00    0.90360   0.89881  128.112
 6016.00    0.90433   0.89825  128.198
 6017.00    0.90293   0.89712  127.388
 6018.00    0.90172   0.89563  126.851
 6019.00    0.90044   0.89425  126.687
 6020.00    0.89968   0.89341  126.176
 6021.00    0.89990   0.89321  125.596
 6022.00    0.89894   0.89357  125.011
 6023.00    0.89699   0.89458  124.326
 6024.00    0.89581   0.89626  124.024
 6025.00    0.89819   0.89826  123.994
 6026.00    0.90256   0.90010  124.189
 6027.00    0.90404   0.90160  124.194
 6028.00    0.90274   0.90269  123.735
 6029.00    0.90413   0.90343  123.306
 6030.00    0.90644   0.90401  123.165
 6031.00    0.90579   0.90452  123.021
 6032.00    0.90358   0.90501  122.991
 6033.00    0.90323   0.90562  123.491
 6034.00    0.90492   0.90636  123.965
 6035.00    0.90556   0.90679  124.263
 6036.00    0.90442   0.90630  124.283
 6037.00    0.90336   0.90487  124.026
 6038.00    0.90430   0.90290  123.593
 6039.00    0.90407   0.90068  122.710
 6040.00    0.90306   0.89827  122.338
 6041.00    0.90171   0.89531  122.460
 6042.00    0.90097   0.89267  122.335
 6043.00    0.90176   0.89301  122.313
 6044.00    0.90064   0.89668  122.644
 6045.00    0.90141   0.90119  122.999
 6046.00    0.90375   0.90422  123.162
 6047.00    0.90266   0.90532  123.340
 6048.00    0.90345   0.90503  123.749
 6049.00    0.90625   0.90411  124.196
 6050.00    0.90585   0.90320  124.753
 6051.00    0.90212   0.90243  125.281
 6052.00    0.90124   0.90170  125.276
 6053.00    0.90348   0.90074  124.753
 6054.00    0.89781   0.89953  124.079
 6055.00    0.88106   0.89837  123.922
 6056.00    0.88137   0.89769  124.202
 6057.00    0.90683   0.89764  125.395
 6058.00    0.84532   0.89808   -1.000
 6059.00    0.59088   0.89864   -1.000
 6060.00    0.64887   0.89859   -1.000
 6061.00    0.87707   0.89715   60.832
 6062.00    0.90136   0.89408   60.488
 6063.00    0.82558   0.89024   -1.000
 6064.00    0.43884   0.88733   -1.000
 6065.00    0.50309   0.88709   -1.000
 6066.00    0.86195   0.88993  119.800
 6067.00    0.89669   0.89429  120.875
 6068.00    0.89315   0.89811  122.659
 6069.00    0.89706   0.90058  122.912
 6070.00    0.89864   0.90195  123.193
 6071.00    0.89824   0.90285  123.771
 6072.00    0.89716   0.90346  124.466
 6073.00    0.89691   0.90353  125.342
 6074.00    0.89758   0.90276  126.205
 6075.00    0.89577   0.90117  126.525
 6076.00    0.89186   0.89921  126.583
 6077.00    0.88946   0.89748  126.864
 6078.00    0.89116   0.89631  127.010
 6079.00    0.89225   0.89559  126.924
 6080.00    0.89072   0.89486  126.803
 6081.00    0.88945   0.89383  126.520
 6082.00    0.88663   0.89281  126.048
 6083.00    0.88493   0.89232  126.005
 6084.00    0.88685   0.89255  126.625
 6085.00    0.89054   0.89323  127.274
 6086.00    0.89172   0.89411  127.417
 6087.00    0.88939   0.89486  126.844
 6088.00    0.89002   0.89503  126.104
 6089.00    0.88987   0.89439  125.437
 6090.00    0.88683   0.89322  124.823
 6091.00    0.88555   0.89241  124.663
 6092.00    0.88643   0.89262  124.909
 6093.00    0.88946   0.89380  125.086
 6094.00    0.89132   0.89548  125.106
 6095.00    0.89023   0.89713  126.054
 6096.00    0.88937   0.89853  128.656
 6097.00    0.88763   0.89930  131.216
 6098.00    0.88773   0.89865  131.304
 6099.00    0.88807   0.89559  129.198
 6100.00    0.88200   0.88991  126.997
 6101.00    0.87443   0.88317  126.059
 6102.00    0.86913   0.87855  126.284
 6103.00    0.86792   0.87837  126.697
 6104.00    0.87282   0.88218  126.760
 6105.00    0.87757   0.88739  126.547
 6106.00    0.87946   0.89190  126.080
 6107.00    0.88233   0.89511  125.851
 6108.00    0.88410   0.89725  125.440
 6109.00    0.88390   0.89831  124.967
 6110.00    0.88527   0.89824  125.198
 6111.00    0.88651   0.89744  125.947
 6112.00    0.88674   0.89674  126.370
 6113.00    0.88754   0.89650  126.791
 6114.00    0.88653   0.89657  128.231
 6115.00    0.88438   0.89657  130.033
 6116.00    0.88383   0.89607  131.412
 6117.00    0.88253   0.89423  131.898
 6118.00    0.88261   0.88991  130.475
 6119.00    0.88274   0.88333  128.536
 6120.00    0.87619   0.87609  127.972
 6121.00    0.86709   0.87095  128.525
 6122.00    0.86236   0.87089  128.708
 6123.00    0.86523   0.87568  128.415
 6124.00    0.87098   0.88203  127.628
 6125.00    0.87648   0.88681  126.436
 6126.00    0.87921   0.88878  125.852
 6127.00    0.87805   0.88857  125.970
 6128.00    0.87804   0.88824  126.860
 6129.00    0.88045   0.88969  129.212
 6130.00    0.87987   0.89256  132.827
 6131.00    0.87828   0.89495  136.420
 6132.00    0.87679   0.89490  137.810
 6133.00    0.87525   0.89082  135.484
 6134.00    0.87113   0.88227  131.624
 6135.00    0.86069   0.87144  129.407
 6136.00    0.84650   0.86309  129.190
 6137.00    0.83801   0.86081  129.474
 6138.00    0.84200   0.86364  128.654
 6139.00    0.85212   0.86733  127.116
 6140.00    0.86018   0.86944  126.481
 6141.00    0.85849   0.87144  126.876
 6142.00    0.85647   0.87525  127.642
 6143.00    0.86359   0.88037  128.539
 6144.00    0.87103   0.88448  129.354
 6145.00    0.87454   0.88604  129.597
 6146.00    0.87522   0.88519  129.241
 6147.00    0.87289   0.88316  128.455
 6148.00    0.87236   0.88141  128.040
 6149.00    0.87157   0.88094  128.769
 6150.00    0.86895   0.88181  129.627
 6151.00    0.86888   0.88327  129.873
 6152.00    0.87098   0.88426  130.248
 6153.00    0.87307   0.88405  131.394
 6154.00    0.87357   0.88274  133.592
 6155.00    0.87102   0.88101  137.226
 6156.00    0.87066   0.87922  141.348
 6157.00    0.87183   0.87705  143.559
 6158.00    0.86998   0.87332  142.388
 6159.00    0.86721   0.86659  138.859
 6160.00    0.86015   0.85724  136.139
 6161.00    0.85002   0.84880  135.179
 6162.00    0.84233   0.84540  135.301
 6163.00    0.84266   0.84791  136.672
 6164.00    0.85491   0.85358  138.245
 6165.00    0.86200   0.85884  137.933
 6166.00    0.86114   0.86166  135.639
 6167.00    0.85993   0.86177  133.461
 6168.00    0.85689   0.86023  133.030
 6169.00    0.85268   0.85925  133.229
 6170.00    0.85274   0.86067  133.015
 6171.00    0.85845   0.86430  132.722
 6172.00    0.85809   0.86855  132.400
 6173.00    0.85800   0.87221  131.824
 6174.00    0.86402   0.87493  131.282
 6175.00    0.86571   0.87660  130.856
 6176.00    0.86392   0.87741  130.302
 6177.00    0.86665   0.87776  129.883
 6178.00    0.86998   0.87786  129.988
 6179.00    0.86986   0.87800  130.416
 6180.00    0.86700   0.87846  131.297
 6181.00    0.86762   0.87914  132.655
 6182.00    0.87181   0.87967  134.066
 6183.00    0.87078   0.87974  135.368
 6184.00    0.86883   0.87922  136.430
 6185.00    0.87013   0.87792  137.984
 6186.00    0.87119   0.87576  139.171
 6187.00    0.86675   0.87261  138.246
 6188.00    0.86078   0.86818  135.218
 6189.00    0.85720   0.86284  132.624
 6190.00    0.85233   0.85843  131.497
 6191.00    0.84693   0.85746  131.182
 6192.00    0.84564   0.86079  131.771
 6193.00    0.85392   0.86661  133.171
 6194.00    0.86310   0.87225  134.409
 6195.00    0.86569   0.87604  134.589
 6196.00    0.86775   0.87752  133.502
 6197.00    0.86762   0.87688  131.861
 6198.00    0.86532   0.87504  131.140
 6199.00    0.86171   0.87375  131.109
 6200.00    0.85645   0.87436  130.954
 6201.00    0.85506   0.87668  130.880
 6202.00    0.85932   0.87948  131.267
 6203.00    0.86475   0.88163  131.413
 6204.00    0.86720   0.88277  131.812
 6205.00    0.86483   0.88319  132.893
 6206.00    0.86481   0.88322  134.002
 6207.00    0.86698   0.88297  135.236
 6208.00    0.86677   0.88227  137.130
 6209.00    0.86386   0.88081  138.729
 6210.00    0.85871   0.87838  139.322
 6211.00    0.85659   0.87490  138.009
 6212.00    0.85260   0.87075  136.967
 6213.00    0.84638   0.86699  137.644
 6214.00    0.85766   0.86457  137.589
 6215.00    0.79784   0.86360   -1.000
 6216.00    0.74167   0.86330   -1.000
 6217.00    0.81418   0.86278   -1.000
 6218.00    0.84925   0.86196  144.315
 6219.00    0.84360   0.86161  137.390
 6220.00    0.84590   0.86246  135.545
 6221.00    0.85160   0.86440  135.769
 6222.00    0.85580   0.86640  136.344
 6223.00    0.85778   0.86778  137.971
 6224.00    0.86111   0.86855  140.210
 6225.00    0.86294   0.86866  142.148
 6226.00    0.85823   0.86758  142.113
 6227.00    0.85439   0.86453  140.322
 6228.00    0.85026   0.85941  137.773
 6229.00    0.84319   0.85369  135.423
 6230.00    0.83744   0.84997  134.431
 6231.00    0.83609   0.85014  135.021
 6232.00    0.83786   0.85396  136.332
 6233.00    0.84331   0.85934  137.728
 6234.00    0.84810   0.86374  139.182
 6235.00    0.85066   0.86547  139.982
 6236.00    0.85197   0.86448  140.045
 6237.00    0.85067   0.86192  140.798
 6238.00    0.84802   0.85929  141.797
 6239.00    0.84603   0.85760  141.939
 6240.00    0.84816   0.85676  141.188
 6241.00    0.84998   0.85579  139.878
 6242.00    0.84927   0.85379  138.169
 6243.00    0.84430   0.85083  136.641
 6244.00    0.84005   0.84798  136.213
 6245.00    0.83771   0.84682  137.193
 6246.00    0.83407   0.84843  139.489
 6247.00    0.83350   0.85228  141.456
 6248.00    0.84136   0.85633  142.567
 6249.00    0.84357   0.85830  143.077
 6250.00    0.84351   0.85693  143.107
 6251.00    0.84044   0.85304  144.082
 6252.00    0.83221   0.84883  145.426
 6253.00    0.82128   0.84617  145.238
 6254.00    0.81985   0.84541  143.336
 6255.00    0.82061   0.84578  141.135
 6256.00    0.82213   0.84642  139.181
 6257.00    0.82757   0.84731  137.086
 6258.00    0.82988   0.84899  136.064
 6259.00    0.83533   0.85174  136.797
 6260.00    0.83940   0.85518  137.801
 6261.00    0.83875   0.85854  137.516
 6262.00    0.83753   0.86104  136.549
 6263.00    0.83871   0.86226  136.693
 6264.00    0.83788   0.86250  137.391
 6265.00    0.83587   0.86262  137.407
 6266.00    0.83717   0.86299  136.968
 6267.00    0.84105   0.86300  136.607
 6268.00    0.84074   0.86210  136.822
 6269.00    0.83525   0.86051  137.700
 6270.00    0.82530   0.85888   -1.000
 6271.00    0.81198   0.85733   -1.000
 6272.00    0.79602   0.85514   -1.000
 6273.00    0.78589   0.85138   -1.000
 6274.00    0.78925   0.84579   -1.000
 6275.00    0.80103   0.83927   -1.000
 6276.00    0.80758   0.83328  145.981
 6277.00    0.81115   0.82918  143.456
 6278.00    0.81335   0.82757  141.186
 6279.00    0.81851   0.82855  139.391
 6280.00    0.82359   0.83190  138.142
 6281.00    0.82905   0.83714  136.918
 6282.00    0.83137   0.84327  135.894
 6283.00    0.83042   0.84910  135.490
 6284.00    0.82862   0.85368  136.022
 6285.00    0.82643   0.85672   -1.000
 6286.00    0.82320   0.85835   -1.000
 6287.00    0.82632   0.85860   -1.000
 6288.00    0.83123   0.85741  138.758
 6289.00    0.83361   0.85526  138.985
 6290.00    0.84157   0.85306  139.896
 6291.00    0.86500   0.85151  140.878
 6292.00    0.90975   0.85054   -1.000
 6293.00    0.97815   0.84955   -1.000
 6294.00    1.05812   0.84792   -1.000
 6295.00    1.08118   0.84565   -1.000
 6296.00    0.99514   0.84338   -1.000
 6297.00    0.85747   0.84179   -1.000
 6298.00    0.78070   0.84097   -1.000
 6299.00    0.79251   0.84051   -1.000
 6300.00    0.81469   0.84035  137.766
 6301.00    0.81966   0.84123  136.502
 6302.00    0.82026   0.84366  135.284
 6303.00    0.82309   0.84713  134.860
 6304.00    0.82816   0.85042  135.321
 6305.00    0.83285   0.85280  136.200
 6306.00    0.83550   0.85445  136.811
 6307.00    0.83803   0.85565  137.356
 6308.00    0.84031   0.85648  137.572
 6309.00    0.83944   0.85679  138.611
 6310.00    0.83756   0.85641  139.296
 6311.00    0.83946   0.85534  139.292
 6312.00    0.83992   0.85373  139.153
 6313.00    0.84075   0.85179  139.285
 6314.00    0.83713   0.84978  138.918
 6315.00    0.83397   0.84792  137.436
 6316.00    0.83420   0.84639  136.002
 6317.00    0.83144   0.84576  135.336
 6318.00    0.83082   0.84684  134.889
 6319.00    0.82977   0.84954  134.208
 6320.00    0.83391   0.85281  133.722
 6321.00    0.83699   0.85582  133.593
 6322.00    0.84161   0.85844  133.038
 6323.00    0.84671   0.86070  133.002
 6324.00    0.84782   0.86225  133.123
 6325.00    0.84410   0.86279  133.213
 6326.00    0.84358   0.86259  132.833
 6327.00    0.83764   0.86209  132.551
 6328.00    0.84211   0.86162  132.813
 6329.00    0.85134   0.86143  133.165
 6330.00    0.85014   0.86144  135.772
 6331.00    0.84645   0.86108  136.681
 6332.00    0.85034   0.85944  135.717
 6333.00    0.84884   0.85607  134.351
 6334.00    0.84274   0.85185  132.884
 6335.00    0.83863   0.84888  132.087
 6336.00    0.83698   0.84868  131.458
 6337.00    0.83711   0.85092  131.424
 6338.00    0.84523   0.85407  132.443
 6339.00    0.85154   0.85672  132.836
 6340.00    0.85378   0.85821  132.541
 6341.00    0.85338   0.85846  131.873
 6342.00    0.85183   0.85761  130.975
 6343.00    0.85148   0.85607  130.400
 6344.00    0.85324   0.85450  130.347
 6345.00    0.85335   0.85365  130.125
 6346.00    0.85106   0.85415  130.168
 6347.00    0.85276   0.85615  130.665
 6348.00    0.85776   0.85912  131.269
 6349.00    0.86110   0.86198  132.630
 6350.00    0.86106   0.86370  133.864
 6351.00    0.85829   0.86382  134.100
 6352.00    0.85864   0.86255  134.413
 6353.00    0.85901   0.86067  135.770
 6354.00    0.85903   0.85892  136.539
 6355.00    0.87059   0.85753  136.156
 6356.00    0.88701   0.85624   -1.000
 6357.00    0.91542   0.85470   -1.000
 6358.00    0.93050   0.85299   -1.000
 6359.00    0.91426   0.85139   -1.000
 6360.00    0.87886   0.85005   -1.000
 6361.00    0.84822   0.84916  132.658
 6362.00    0.84409   0.84914  131.836
 6363.00    0.85050   0.85032  130.958
 6364.00    0.85013   0.85235  130.533
 6365.00    0.84711   0.85443  130.568
 6366.00    0.84848   0.85594  130.220
 6367.00    0.85024   0.85653  129.703
 6368.00    0.84803   0.85610  129.910
 6369.00    0.84580   0.85510  130.067
 6370.00    0.84619   0.85438  130.314
 6371.00    0.84645   0.85459  130.771
 6372.00    0.84583   0.85577  131.414
 6373.00    0.84329   0.85722  132.281
 6374.00    0.83926   0.85804  132.853
 6375.00    0.83952   0.85792  132.998
 6376.00    0.83882   0.85708  133.223
 6377.00    0.83430   0.85590  133.237
 6378.00    0.83177   0.85464  132.921
 6379.00    0.82843   0.85351  133.389
 6380.00    0.82623   0.85272  133.761
 6381.00    0.82522   0.85238  133.704
 6382.00    0.81942   0.85252   -1.000
 6383.00    0.81677   0.85307   -1.000
 6384.00    0.81802   0.85396   -1.000
 6385.00    0.81364   0.85507   -1.000
 6386.00    0.80792   0.85618   -1.000
 6387.00    0.80615   0.85680   -1.000
 6388.00    0.80260   0.85644   -1.000
 6389.00    0.79774   0.85474   -1.000
 6390.00    0.79379   0.85154   -1.000
 6391.00    0.78928   0.84743   -1.000
 6392.00    0.78142   0.84404   -1.000
 6393.00    0.77186   0.84315   -1.000
 6394.00    0.76785   0.84499   -1.000
 6395.00    0.76972   0.84775   -1.000
 6396.00    0.76911   0.84906   -1.000
 6397.00    0.76505   0.84777   -1.000
 6398.00    0.75689   0.84489   -1.000
 6399.00    0.74565   0.84287   -1.000
 6400.00    0.73773   0.84365   -1.000
 6401.00    0.73774   0.84702   -1.000
 6402.00    0.74211   0.85102   -1.000
 6403.00    0.74467   0.85360   -1.000
 6404.00    0.74157   0.85364   -1.000
 6405.00    0.73442   0.85117   -1.000
 6406.00    0.72870   0.84726   -1.000
 6407.00    0.72239   0.84350   -1.000
 6408.00    0.71613   0.84164   -1.000
 6409.00    0.70822   0.84226   -1.000
 6410.00    0.69990   0.84385   -1.000
 6411.00    0.69627   0.84519   -1.000
 6412.00    0.69246   0.84622   -1.000
 6413.00    0.68811   0.84708   -1.000
 6414.00    0.68535   0.84779   -1.000
 6415.00    0.67962   0.84847   -1.000
 6416.00    0.67255   0.84894   -1.000
 6417.00    0.66667   0.84849   -1.000
 6418.00    0.66161   0.84681   -1.000
 6419.00    0.65319   0.84468   -1.000
 6420.00    0.64227   0.84372   -1.000
 6421.00    0.63080   0.84504   -1.000
 6422.00    0.62458   0.84832   -1.000
 6423.00    0.62447   0.85220   -1.000
 6424.00    0.62069   0.85543   -1.000
 6425.00    0.61341   0.85738   -1.000
 6426.00    0.12457   0.85763   -1.000
 6427.00    0.00000   0.85570   -2.000
 6428.00    0.00000   0.85170   -2.000
