###################################################################
## OUTPUT of StarlightChains_v04.for    [Cid@UFSC - 01/Apr/2007] ##
###################################################################

## Some input info
NGC2808_b_1.cxt                          [arq_obs]
Base.BC03.S                              [arq_base]
NGC2808_b_1.msk                          [arq_masks]
StCv04.C11.config                        [arq_config]
  150                                    [N_base]
    0                                    [N_YAV_components = # of components with extra extinction!]
    0                                    [i_FitPowerLaw (1/0 = Yes/No)]
-9.99                                    [alpha_PowerLaw]
CCM                                      [red_law_option]
 1.458241                                [q_norm = A(l_norm)/A(V)]

## (Re)Sampling Parameters
 3359.00                                 [l_ini (A)]
 6428.00                                 [l_fin (A)]
    1.00                                 [dl    (A)]     (OBS: dl_cushion =    50.00 A)

## Normalization info
 4020.00                                 [l_norm (A) - for base]
 4010.00                                 [llow_norm (A) - window for f_obs]
 4060.00                                 [lupp_norm (A) - window for f_obs]
3.144042E-14                             [fobs_norm (in input units)]

## S/N
 4730.00                                 [llow_SN (A) - window for S/N]
 4780.00                                 [lupp_SN (A) - window for S/N]
  65.329                                 [S/N in S/N window]
  51.114                                 [S/N in norm. window]
 151.759                                 [S/N_err in S/N window]
 118.738                                 [S/N_err in norm. window]
  1.0000                                 [fscale_chi2]

## etc...
  2147483641                             [idum_orig]
  3069                                   [NOl_eff]
  1275                                   [Nl_eff]
  1794    NSIGMA                         [Ntot_cliped & clip_method]
  1934520                                [Nglobal_steps]
   7                                     [N_chains]
  30                                     [NEX0s_base = N_base in EX0s-fits]
 0   0   1      256   2.0   2.496E+02    [Clip-Bug, RC-Crash & Burn-In warning-flags, n_censored_weights, wei_nsig_threshold & wei_limit]
    73     73.248     73.240      0.008  [idt_all, wdt_TotTime, wdt_UsrTime & wdt_SysTime (sec)]

## Synthesis Results - Best model ##

 2.56961E+00                             [chi2/Nl_eff]
     1.32107                             [adev (%)]

   101.88001                             [sum-of-x (%)]
 7.07005E-14                             [Flux_tot (units of input spectrum!)]
 1.62960E-09                             [Mini_tot (???)]
 8.28926E-10                             [Mcor_tot (???)]

  -5.19                                  [v0_min  (km/s)]
  63.40                                  [vd_min  (km/s)]
 0.5895                                  [AV_min  (mag)]
 0.0000                                  [YAV_min (mag)]

# j     x_j(%)      Mini_j(%)     Mcor_j(%)     age_j(yr)     Z_j      (L/M)_j    YAV?  Mstars   component_j        a/Fe...       SSP_chi2r SSP_adev(%)   SSP_AV   SSP_x(%)
  1      0.0000     0.0000E+00    0.0000E+00    1.000000E+06  0.00010  8.160E-03    0   1.0000   age020_m22            0.0000     3.6923E+02    14.4172   4.0000    84.1501
  2     14.7462     1.3195E-02    2.5941E-02    3.160000E+06  0.00010  4.759E-02    0   1.0000   age045_m22            0.0000     7.0713E+01     5.6482   2.2203    99.4645
  3      2.3171     5.1072E-03    9.6206E-03    5.010000E+06  0.00010  1.932E-02    0   0.9582   age055_m22            0.0000     2.8600E+02    12.7094   2.5232    87.4126
  4      0.0000     0.0000E+00    0.0000E+00    6.610000E+06  0.00010  9.973E-03    0   0.9297   age061_m22            0.0000     3.5657E+02    14.3385   4.0000    86.6756
  5      0.0000     0.0000E+00    0.0000E+00    8.710000E+06  0.00010  7.690E-03    0   0.9030   age067_m22            0.0000     3.3561E+02    13.9574   4.0000    86.9663
  6      0.0000     0.0000E+00    0.0000E+00    1.000000E+07  0.00010  6.375E-03    0   0.8902   age070_m22            0.0000     3.2620E+02    13.7039   4.0000    87.3230
  7      0.0000     0.0000E+00    0.0000E+00    1.445000E+07  0.00010  4.874E-03    0   0.8589   age078_m22            0.0000     2.1661E+02    11.4655   4.0000    87.1591
  8      0.0000     0.0000E+00    0.0000E+00    2.512000E+07  0.00010  4.103E-03    0   0.8174   age090_m22            0.0000     1.2464E+02     8.4906   3.6017    92.8338
  9      0.0000     0.0000E+00    0.0000E+00    4.000000E+07  0.00010  3.654E-03    0   0.7830   age104_m22            0.0000     1.2674E+02     7.2311   3.3126    96.8798
 10      0.0000     0.0000E+00    0.0000E+00    5.500000E+07  0.00010  3.093E-03    0   0.7597   age110_m22            0.0000     1.3586E+02     7.0103   3.2107    98.3233
 11      0.0000     0.0000E+00    0.0000E+00    1.015200E+08  0.00010  2.431E-03    0   0.7138   age116_m22            0.0000     1.7930E+02     7.5305   2.8676   100.9904
 12      0.0000     0.0000E+00    0.0000E+00    1.609000E+08  0.00010  1.319E-03    0   0.6775   age120_m22            0.0000     1.8135E+02     7.3181   2.3843   103.4280
 13      0.0000     0.0000E+00    0.0000E+00    2.861200E+08  0.00010  1.075E-03    0   0.6412   age125_m22            0.0000     3.9703E+02    10.6821   2.4515   106.6242
 14      0.0000     0.0000E+00    0.0000E+00    5.088000E+08  0.00010  7.183E-04    0   0.6083   age130_m22            0.0000     4.7413E+02    11.7446   2.2144   108.4909
 15      0.0000     0.0000E+00    0.0000E+00    9.047900E+08  0.00010  4.524E-04    0   0.5785   age135_m22            0.0000     4.7895E+02    11.8621   2.0111   109.7551
 16      0.0000     0.0000E+00    0.0000E+00    1.278050E+09  0.00010  3.018E-04    0   0.5588   age138_m22            0.0000     2.5091E+02     8.5716   1.4744   108.2126
 17      0.0000     0.0000E+00    0.0000E+00    1.434000E+09  0.00010  2.691E-04    0   0.5532   age139_m22            0.0000     2.0944E+02     7.8499   1.3155   107.7314
 18      0.0000     0.0000E+00    0.0000E+00    2.500000E+09  0.00010  1.582E-04    0   0.5296   age150_m22            0.0000     1.8701E+02     7.5318   1.2063   108.4043
 19      0.0000     0.0000E+00    0.0000E+00    4.250000E+09  0.00010  1.007E-04    0   0.5110   age158_m22            0.0000     1.1304E+02     5.8890   1.0487   106.8986
 20      0.5243     3.2507E-01    3.1857E-01    6.250000E+09  0.00010  6.869E-05    0   0.4985   age166_m22            0.0000     5.9023E+01     4.2571   0.9838   104.3815
 21      0.0000     0.0000E+00    0.0000E+00    7.500000E+09  0.00010  5.873E-05    0   0.4931   age171_m22            0.0000     5.4648E+01     4.1662   0.9737   103.8489
 22      0.0000     0.0000E+00    0.0000E+00    1.000000E+10  0.00010  4.481E-05    0   0.4854   age181_m22            0.0000     5.2037E+01     4.0651   0.9344   103.5056
 23      0.0000     0.0000E+00    0.0000E+00    1.300000E+10  0.00010  3.489E-05    0   0.4791   age193_m22            0.0000     4.5861E+01     3.7978   0.8756   102.9903
 24      0.0000     0.0000E+00    0.0000E+00    1.500000E+10  0.00010  3.035E-05    0   0.4766   age201_m22            0.0000     4.2501E+01     3.6554   0.8353   102.8239
 25      2.4221     4.1093E+00    3.8252E+00    1.800000E+10  0.00010  2.510E-05    0   0.4735   age213_m22            0.0000     3.5157E+01     3.3298   0.7645   102.2612
 26      0.0000     0.0000E+00    0.0000E+00    1.000000E+06  0.00040  8.458E-03    0   1.0000   age020_m32            0.0000     3.7145E+02    14.4218   4.0000    85.1009
 27      0.0000     0.0000E+00    0.0000E+00    3.160000E+06  0.00040  3.973E-02    0   1.0000   age045_m32            0.0000     1.3379E+02     8.8657   3.4989    92.9036
 28      0.0000     0.0000E+00    0.0000E+00    5.010000E+06  0.00040  1.935E-02    0   0.9532   age055_m32            0.0000     2.5143E+02    12.3078   3.7287    87.5066
 29      0.0000     0.0000E+00    0.0000E+00    6.610000E+06  0.00040  1.204E-02    0   0.9243   age061_m32            0.0000     2.7234E+02    12.8005   4.0000    86.3732
 30      0.0000     0.0000E+00    0.0000E+00    8.710000E+06  0.00040  9.433E-03    0   0.9001   age067_m32            0.0000     2.4401E+02    12.1358   4.0000    86.7410
 31      0.0000     0.0000E+00    0.0000E+00    1.000000E+07  0.00040  8.053E-03    0   0.8877   age070_m32            0.0000     2.3362E+02    11.8764   3.9749    86.9861
 32      0.0000     0.0000E+00    0.0000E+00    1.445000E+07  0.00040  7.027E-03    0   0.8578   age078_m32            0.0000     1.6209E+02     9.8717   3.4582    91.6718
 33      0.0000     0.0000E+00    0.0000E+00    2.512000E+07  0.00040  4.707E-03    0   0.8166   age090_m32            0.0000     1.2193E+02     8.0888   3.1628    95.2987
 34      0.0000     0.0000E+00    0.0000E+00    4.000000E+07  0.00040  3.714E-03    0   0.7827   age104_m32            0.0000     1.2027E+02     7.1086   2.9645    98.2493
 35      0.0000     0.0000E+00    0.0000E+00    5.500000E+07  0.00040  2.982E-03    0   0.7593   age110_m32            0.0000     1.3151E+02     7.0214   2.9032    99.3014
 36      0.0000     0.0000E+00    0.0000E+00    1.015200E+08  0.00040  2.188E-03    0   0.7143   age116_m32            0.0000     2.3432E+02     8.3234   2.6393   103.2084
 37      0.0000     0.0000E+00    0.0000E+00    1.609000E+08  0.00040  1.690E-03    0   0.6856   age120_m32            0.0000     3.2795E+02     9.6810   2.4355   105.7325
 38      0.0000     0.0000E+00    0.0000E+00    2.861200E+08  0.00040  1.152E-03    0   0.6509   age125_m32            0.0000     4.1477E+02    10.9358   2.2025   107.8238
 39      0.0000     0.0000E+00    0.0000E+00    5.088000E+08  0.00040  7.331E-04    0   0.6182   age130_m32            0.0000     4.4523E+02    11.3801   2.0340   108.6359
 40      0.0000     0.0000E+00    0.0000E+00    9.047900E+08  0.00040  3.960E-04    0   0.5890   age135_m32            0.0000     2.5626E+02     8.7439   1.5552   107.6841
 41      0.0000     0.0000E+00    0.0000E+00    1.278050E+09  0.00040  2.854E-04    0   0.5687   age138_m32            0.0000     2.1173E+02     7.9936   1.2720   109.3342
 42      0.0000     0.0000E+00    0.0000E+00    1.434000E+09  0.00040  2.531E-04    0   0.5632   age139_m32            0.0000     2.0633E+02     7.8976   1.2113   109.3166
 43      0.0003     8.8563E-05    9.3774E-05    2.500000E+09  0.00040  1.488E-04    0   0.5386   age150_m32            0.0000     1.4555E+02     6.6417   0.9491   107.7341
 44      0.0000     0.0000E+00    0.0000E+00    4.250000E+09  0.00040  9.082E-05    0   0.5199   age158_m32            0.0000     5.3677E+01     3.9821   0.8399   104.7276
 45      7.7959     5.2182E+00    5.2073E+00    6.250000E+09  0.00040  6.362E-05    0   0.5076   age166_m32            0.0000     1.9864E+01     2.5364   0.7921   101.5679
 46     20.3749     1.6405E+01    1.6212E+01    7.500000E+09  0.00040  5.289E-05    0   0.5027   age171_m32            0.0000     1.5363E+01     2.3093   0.7509   100.4122
 47     17.0785     1.8310E+01    1.7811E+01    1.000000E+10  0.00040  3.972E-05    0   0.4948   age181_m32            0.0000     1.2078E+01     2.1197   0.6832    99.1453
 48      0.0029     3.8256E-03    3.6627E-03    1.300000E+10  0.00040  3.283E-05    0   0.4870   age193_m32            0.0000     1.9968E+01     2.4862   0.6431   101.7261
 49      0.0000     0.0000E+00    0.0000E+00    1.500000E+10  0.00040  2.925E-05    0   0.4854   age201_m32            0.0000     3.0691E+01     3.0421   0.6279   103.2145
 50      0.0000     0.0000E+00    0.0000E+00    1.800000E+10  0.00040  2.469E-05    0   0.4819   age213_m32            0.0000     3.5489E+01     3.2679   0.5881   103.7039
 51      0.0000     0.0000E+00    0.0000E+00    1.000000E+06  0.00400  1.114E-02    0   1.0000   age020_m42            0.0000     3.2712E+02    13.7022   4.0000    84.5188
 52      0.0000     0.0000E+00    0.0000E+00    3.160000E+06  0.00400  4.073E-02    0   0.9999   age045_m42            0.0000     9.3906E+01     7.1168   3.1994    95.4537
 53      0.0000     0.0000E+00    0.0000E+00    5.010000E+06  0.00400  2.534E-02    0   0.9488   age055_m42            0.0000     1.6748E+02    10.2075   3.5980    89.5788
 54      0.0000     0.0000E+00    0.0000E+00    6.610000E+06  0.00400  2.583E-02    0   0.9220   age061_m42            0.0000     9.7372E+01     6.8513   3.0170    96.0151
 55      0.0000     0.0000E+00    0.0000E+00    8.710000E+06  0.00400  1.706E-02    0   0.8983   age067_m42            0.0000     1.1951E+02     8.3130   2.8411    94.3966
 56      0.0000     0.0000E+00    0.0000E+00    1.000000E+07  0.00400  1.271E-02    0   0.8862   age070_m42            0.0000     1.6020E+02     9.8754   2.8307    93.0299
 57      0.0000     0.0000E+00    0.0000E+00    1.445000E+07  0.00400  7.666E-03    0   0.8571   age078_m42            0.0000     1.9336E+02    10.9037   3.2231    90.1322
 58      0.0000     0.0000E+00    0.0000E+00    2.512000E+07  0.00400  5.070E-03    0   0.8174   age090_m42            0.0000     1.3552E+02     9.1728   2.6918    94.7950
 59      0.0000     0.0000E+00    0.0000E+00    4.000000E+07  0.00400  3.505E-03    0   0.7851   age104_m42            0.0000     8.8438E+01     7.2883   2.3651    97.7718
 60      0.0000     0.0000E+00    0.0000E+00    5.500000E+07  0.00400  3.059E-03    0   0.7629   age110_m42            0.0000     1.0871E+02     6.0300   2.4264   101.8389
 61      0.0000     0.0000E+00    0.0000E+00    1.015200E+08  0.00400  2.268E-03    0   0.7207   age116_m42            0.0000     2.8407E+02     8.8058   2.3428   106.5005
 62      0.0000     0.0000E+00    0.0000E+00    1.609000E+08  0.00400  1.720E-03    0   0.6930   age120_m42            0.0000     3.0983E+02     9.2181   2.1980   108.1935
 63      0.0000     0.0000E+00    0.0000E+00    2.861200E+08  0.00400  1.079E-03    0   0.6613   age125_m42            0.0000     3.1700E+02     9.4730   1.8426   108.8274
 64      0.0000     0.0000E+00    0.0000E+00    5.088000E+08  0.00400  6.261E-04    0   0.6313   age130_m42            0.0000     3.6177E+02    10.1572   1.6512   111.6262
 65      0.0000     0.0000E+00    0.0000E+00    9.047900E+08  0.00400  3.535E-04    0   0.6024   age135_m42            0.0000     2.2095E+02     7.9669   1.2387   112.1174
 66      0.0000     0.0000E+00    0.0000E+00    1.278050E+09  0.00400  2.677E-04    0   0.5837   age138_m42            0.0000     8.8506E+01     5.9004   0.5206   110.1177
 67      0.0000     0.0000E+00    0.0000E+00    1.434000E+09  0.00400  1.910E-04    0   0.5716   age139_m42            0.0000     1.0895E+02     6.1367   0.6947   110.8906
 68      5.5703     2.4161E+00    2.5948E+00    2.500000E+09  0.00400  9.818E-05    0   0.5463   age150_m42            0.0000     3.7057E+01     4.0811   0.4023   106.4914
 69      0.0071     5.5393E-03    5.7378E-03    4.250000E+09  0.00400  5.491E-05    0   0.5269   age158_m42            0.0000     3.0179E+01     3.8509   0.2737   103.8074
 70      0.0000     0.0000E+00    0.0000E+00    6.250000E+09  0.00400  3.857E-05    0   0.5151   age166_m42            0.0000     4.5575E+01     4.5633   0.1389   102.5375
 71      2.0429     2.6826E+00    2.6949E+00    7.500000E+09  0.00400  3.243E-05    0   0.5110   age171_m42            0.0000     5.9337E+01     5.0927   0.0559   102.0236
 72      1.4285     2.5095E+00    2.4806E+00    1.000000E+10  0.00400  2.424E-05    0   0.5028   age181_m42            0.0000     8.0562E+01     5.8151  -0.0289   101.4552
 73      0.0000     0.0000E+00    0.0000E+00    1.300000E+10  0.00400  1.883E-05    0   0.4927   age193_m42            0.0000     9.8136E+01     6.3705  -0.0705   101.1844
 74      0.0000     0.0000E+00    0.0000E+00    1.500000E+10  0.00400  1.685E-05    0   0.4919   age201_m42            0.0000     9.2570E+01     6.2040  -0.0644   101.1923
 75      0.0000     0.0000E+00    0.0000E+00    1.800000E+10  0.00400  1.452E-05    0   0.4874   age213_m42            0.0000     8.2804E+01     5.9074  -0.0467   101.4385
 76      0.0000     0.0000E+00    0.0000E+00    1.000000E+06  0.00800  1.286E-02    0   1.0000   age020_m52            0.0000     2.8341E+02    12.9408   4.0000    86.0070
 77      0.0000     0.0000E+00    0.0000E+00    3.160000E+06  0.00800  3.147E-02    0   0.9966   age045_m52            0.0000     2.6007E+02    12.5316   4.0000    86.1591
 78      0.0000     0.0000E+00    0.0000E+00    5.010000E+06  0.00800  2.664E-02    0   0.9443   age055_m52            0.0000     1.9259E+02    10.8971   3.7118    88.7305
 79      0.0000     0.0000E+00    0.0000E+00    6.610000E+06  0.00800  2.151E-02    0   0.9177   age061_m52            0.0000     1.0927E+02     8.3675   2.4049    95.1551
 80      0.0000     0.0000E+00    0.0000E+00    8.710000E+06  0.00800  1.628E-02    0   0.8948   age067_m52            0.0000     1.3035E+02     8.9172   2.7872    95.1049
 81      0.0000     0.0000E+00    0.0000E+00    1.000000E+07  0.00800  1.215E-02    0   0.8827   age070_m52            0.0000     1.5992E+02     9.9167   3.1273    93.2547
 82      0.0000     0.0000E+00    0.0000E+00    1.445000E+07  0.00800  8.739E-03    0   0.8552   age078_m52            0.0000     1.4403E+02     9.1481   3.1705    94.3512
 83      0.0000     0.0000E+00    0.0000E+00    2.512000E+07  0.00800  5.676E-03    0   0.8162   age090_m52            0.0000     1.3970E+02     8.0001   2.7804    98.6411
 84      0.0000     0.0000E+00    0.0000E+00    4.000000E+07  0.00800  3.939E-03    0   0.7841   age104_m52            0.0000     1.4126E+02     7.2939   2.6201   101.0147
 85      0.0000     0.0000E+00    0.0000E+00    5.500000E+07  0.00800  3.155E-03    0   0.7627   age110_m52            0.0000     1.6119E+02     7.1020   2.5876   102.6716
 86      0.0000     0.0000E+00    0.0000E+00    1.015200E+08  0.00800  2.206E-03    0   0.7226   age116_m52            0.0000     2.2962E+02     7.9038   2.3985   106.3755
 87      0.0000     0.0000E+00    0.0000E+00    1.609000E+08  0.00800  1.596E-03    0   0.6963   age120_m52            0.0000     2.6790E+02     8.5982   2.1811   108.1098
 88      0.0000     0.0000E+00    0.0000E+00    2.861200E+08  0.00800  1.002E-03    0   0.6665   age125_m52            0.0000     3.8028E+02    10.5313   1.8782   111.0907
 89      0.0000     0.0000E+00    0.0000E+00    5.088000E+08  0.00800  5.759E-04    0   0.6377   age130_m52            0.0000     3.9723E+02    11.1076   1.5160   115.3766
 90      0.0000     0.0000E+00    0.0000E+00    9.047900E+08  0.00800  2.972E-04    0   0.6086   age135_m52            0.0000     2.2104E+02     8.7128   0.9505   114.8693
 91      0.0000     0.0000E+00    0.0000E+00    1.278050E+09  0.00800  2.242E-04    0   0.5907   age138_m52            0.0000     9.9964E+01     6.3053   0.3243   113.5622
 92      0.0000     0.0000E+00    0.0000E+00    1.434000E+09  0.00800  1.645E-04    0   0.5787   age139_m52            0.0000     8.2886E+01     5.6531   0.4757   112.9085
 93      0.0022     1.2347E-03    1.3397E-03    2.500000E+09  0.00800  7.723E-05    0   0.5519   age150_m52            0.0000     6.4382E+01     5.3533   0.1228   109.2715
 94      9.1466     9.3834E+00    9.8137E+00    4.250000E+09  0.00800  4.151E-05    0   0.5320   age158_m52            0.0000     6.3551E+01     5.3520   0.0485   106.7539
 95      3.0502     4.3153E+00    4.4089E+00    6.250000E+09  0.00800  3.010E-05    0   0.5197   age166_m52            0.0000     9.9201E+01     6.4402  -0.1558   105.4793
 96      2.5020     4.3188E+00    4.3633E+00    7.500000E+09  0.00800  2.467E-05    0   0.5139   age171_m52            0.0000     1.1090E+02     6.7497  -0.2002   105.1037
 97      2.8652     6.5528E+00    6.5107E+00    1.000000E+10  0.00800  1.862E-05    0   0.5054   age181_m52            0.0000     1.4990E+02     7.7028  -0.3403   104.8388
 98      2.1458     6.3768E+00    6.2531E+00    1.300000E+10  0.00800  1.433E-05    0   0.4988   age193_m52            0.0000     1.9741E+02     8.7532  -0.4432   105.5675
 99      1.7812     6.0974E+00    5.9168E+00    1.500000E+10  0.00800  1.244E-05    0   0.4936   age201_m52            0.0000     2.1732E+02     9.1557  -0.4736   106.0529
100      0.0000     0.0000E+00    0.0000E+00    1.800000E+10  0.00800  1.070E-05    0   0.4888   age213_m52            0.0000     2.3151E+02     9.4468  -0.5111   105.9312
101      0.0000     0.0000E+00    0.0000E+00    1.000000E+06  0.02000  1.989E-02    0   1.0000   age020_m62            0.0000     3.1308E+02    13.3804   4.0000    84.8006
102      0.0000     0.0000E+00    0.0000E+00    3.160000E+06  0.02000  3.772E-02    0   0.9858   age045_m62            0.0000     2.7624E+02    12.7083   3.9630    85.2787
103      0.0000     0.0000E+00    0.0000E+00    5.010000E+06  0.02000  3.227E-02    0   0.9342   age055_m62            0.0000     1.3289E+02     8.8581   3.4509    92.2534
104      0.0000     0.0000E+00    0.0000E+00    6.610000E+06  0.02000  2.387E-02    0   0.9090   age061_m62            0.0000     1.9107E+02    10.7858   3.2030    91.8130
105      0.0000     0.0000E+00    0.0000E+00    8.710000E+06  0.02000  1.102E-02    0   0.8861   age067_m62            0.0000     5.1038E+02    17.1379   2.8219    87.6464
106      0.0000     0.0000E+00    0.0000E+00    1.000000E+07  0.02000  1.011E-02    0   0.8751   age070_m62            0.0000     3.4877E+02    14.3978   2.8411    90.0809
107      0.0000     0.0000E+00    0.0000E+00    1.445000E+07  0.02000  7.331E-03    0   0.8472   age078_m62            0.0000     2.4157E+02    12.1755   2.8530    91.5437
108      0.0000     0.0000E+00    0.0000E+00    2.512000E+07  0.02000  4.206E-03    0   0.8099   age090_m62            0.0000     2.4513E+02    12.2919   2.7539    91.1328
109      0.0000     0.0000E+00    0.0000E+00    4.000000E+07  0.02000  3.373E-03    0   0.7799   age104_m62            0.0000     1.1486E+02     7.5554   2.5625    99.3968
110      0.0000     0.0000E+00    0.0000E+00    5.500000E+07  0.02000  2.747E-03    0   0.7595   age110_m62            0.0000     1.3903E+02     7.0094   2.5004   102.6175
111      0.0000     0.0000E+00    0.0000E+00    1.015200E+08  0.02000  1.878E-03    0   0.7221   age116_m62            0.0000     2.6155E+02     8.4755   2.3688   107.0944
112      0.0000     0.0000E+00    0.0000E+00    1.609000E+08  0.02000  1.378E-03    0   0.6978   age120_m62            0.0000     3.5793E+02     9.8921   2.2144   109.6765
113      0.0000     0.0000E+00    0.0000E+00    2.861200E+08  0.02000  8.869E-04    0   0.6700   age125_m62            0.0000     5.1744E+02    11.9906   1.8412   114.0504
114      0.0000     0.0000E+00    0.0000E+00    5.088000E+08  0.02000  4.834E-04    0   0.6430   age130_m62            0.0000     4.3920E+02    11.5438   1.3776   117.0465
115      0.0000     0.0000E+00    0.0000E+00    9.047900E+08  0.02000  2.312E-04    0   0.6152   age135_m62            0.0000     1.9722E+02     8.0630   0.7517   116.7077
116      0.0000     0.0000E+00    0.0000E+00    1.278050E+09  0.02000  1.387E-04    0   0.5927   age138_m62            0.0000     8.2667E+01     5.6046   0.3545   112.5686
117      0.0000     0.0000E+00    0.0000E+00    1.434000E+09  0.02000  1.168E-04    0   0.5865   age139_m62            0.0000     6.8991E+01     5.2639   0.3245   111.0203
118      0.0000     0.0000E+00    0.0000E+00    2.500000E+09  0.02000  5.505E-05    0   0.5610   age150_m62            0.0000     8.3243E+01     6.0463  -0.0693   108.3143
119      1.1999     1.6644E+00    1.7692E+00    4.250000E+09  0.02000  3.070E-05    0   0.5407   age158_m62            0.0000     1.6270E+02     8.1267  -0.3855   108.5986
120      0.0000     4.2802E-05    4.4404E-05    6.250000E+09  0.02000  2.104E-05    0   0.5277   age166_m62            0.0000     2.1715E+02     9.2309  -0.5259   109.1969
121      0.0000     1.4154E-05    1.4533E-05    7.500000E+09  0.02000  1.770E-05    0   0.5223   age171_m62            0.0000     2.4722E+02     9.7799  -0.6211   109.7128
122      0.0000     0.0000E+00    0.0000E+00    1.000000E+10  0.02000  1.297E-05    0   0.5121   age181_m62            0.0000     3.1523E+02    10.9029  -0.7917   110.4501
123      0.0000     0.0000E+00    0.0000E+00    1.300000E+10  0.02000  9.691E-06    0   0.5047   age193_m62            0.0000     3.6501E+02    11.6442  -0.8819   110.9799
124      0.0000     0.0000E+00    0.0000E+00    1.500000E+10  0.02000  8.360E-06    0   0.4999   age201_m62            0.0000     4.0828E+02    12.2558  -0.9613   111.4057
125      0.0000     0.0000E+00    0.0000E+00    1.800000E+10  0.02000  6.911E-06    0   0.4946   age213_m62            0.0000     4.6494E+02    13.0056  -1.0000   110.8863
126      0.0000     0.0000E+00    0.0000E+00    1.000000E+06  0.05000  2.651E-02    0   0.9998   age020_m72            0.0000     2.9098E+02    12.8369   4.0000    85.6900
127      0.0000     0.0000E+00    0.0000E+00    3.160000E+06  0.05000  4.817E-02    0   0.9577   age045_m72            0.0000     2.0560E+02    11.0693   3.8196    88.2846
128      0.0000     0.0000E+00    0.0000E+00    5.010000E+06  0.05000  3.101E-02    0   0.9147   age055_m72            0.0000     1.9257E+02    10.7879   3.4656    90.8988
129      0.0000     0.0000E+00    0.0000E+00    6.610000E+06  0.05000  1.472E-02    0   0.8877   age061_m72            0.0000     3.9277E+02    14.8925   3.0243    89.2678
130      0.0000     0.0000E+00    0.0000E+00    8.710000E+06  0.05000  1.050E-02    0   0.8638   age067_m72            0.0000     2.6217E+02    12.3092   3.4139    89.7794
131      0.0000     0.0000E+00    0.0000E+00    1.000000E+07  0.05000  8.954E-03    0   0.8524   age070_m72            0.0000     1.8961E+02    10.5522   3.6901    89.8156
132      0.0000     0.0000E+00    0.0000E+00    1.445000E+07  0.05000  6.392E-03    0   0.8262   age078_m72            0.0000     1.6271E+02     9.8101   3.6327    90.8729
133      0.0000     0.0000E+00    0.0000E+00    2.512000E+07  0.05000  4.207E-03    0   0.7902   age090_m72            0.0000     1.1159E+02     7.9494   3.2461    95.2952
134      0.0000     0.0000E+00    0.0000E+00    4.000000E+07  0.05000  3.198E-03    0   0.7618   age104_m72            0.0000     1.6680E+02     6.8691   2.7288   103.0077
135      0.0000     0.0000E+00    0.0000E+00    5.500000E+07  0.05000  2.593E-03    0   0.7432   age110_m72            0.0000     2.1526E+02     7.6725   2.6401   104.7775
136      0.0000     0.0000E+00    0.0000E+00    1.015200E+08  0.05000  1.716E-03    0   0.7092   age116_m72            0.0000     3.0977E+02     9.2005   2.4515   107.3036
137      0.0000     0.0000E+00    0.0000E+00    1.609000E+08  0.05000  1.218E-03    0   0.6876   age120_m72            0.0000     4.1057E+02    10.5442   2.1819   110.1049
138      0.0000     0.0000E+00    0.0000E+00    2.861200E+08  0.05000  7.047E-04    0   0.6618   age125_m72            0.0000     4.8659E+02    11.9190   1.6193   114.5770
139      0.0000     0.0000E+00    0.0000E+00    5.088000E+08  0.05000  3.590E-04    0   0.6356   age130_m72            0.0000     3.6478E+02    10.7608   1.0157   117.8797
140      0.0000     0.0000E+00    0.0000E+00    9.047900E+08  0.05000  1.484E-04    0   0.6088   age135_m72            0.0000     1.2218E+02     6.9903   0.2447   112.1477
141      1.3694     6.1809E-01    7.1983E-01    1.278050E+09  0.05000  9.435E-05    0   0.5924   age138_m72            0.0000     1.3815E+02     7.6394  -0.1897   109.5647
142      0.6670     3.6291E-01    4.1715E-01    1.434000E+09  0.05000  7.827E-05    0   0.5847   age139_m72            0.0000     1.3163E+02     7.4833  -0.1755   108.9293
143      0.0000     0.0000E+00    0.0000E+00    2.500000E+09  0.05000  3.759E-05    0   0.5583   age150_m72            0.0000     2.0811E+02     9.1414  -0.5195   108.4594
144      1.7180     3.9717E+00    4.1961E+00    4.250000E+09  0.05000  1.842E-05    0   0.5374   age158_m72            0.0000     3.0173E+02    10.6850  -0.8522   108.3664
145      0.6080     2.1450E+00    2.2105E+00    6.250000E+09  0.05000  1.207E-05    0   0.5242   age166_m72            0.0000     4.1262E+02    12.1557  -1.0000   106.0516
146      0.5135     2.1881E+00    2.2295E+00    7.500000E+09  0.05000  9.993E-06    0   0.5183   age171_m72            0.0000     4.3539E+02    12.3891  -1.0000   105.0408
147      0.0000     1.4774E-04    1.4758E-04    1.000000E+10  0.05000  7.291E-06    0   0.5081   age181_m72            0.0000     5.5015E+02    13.7280  -1.0000   102.1260
148      0.0000     0.0000E+00    0.0000E+00    1.300000E+10  0.05000  5.316E-06    0   0.5018   age193_m72            0.0000     7.7093E+02    16.4173  -1.0000    97.6414
149      0.0000     0.0000E+00    0.0000E+00    1.500000E+10  0.05000  4.497E-06    0   0.4972   age201_m72            0.0000     8.8513E+02    17.7207  -1.0000    96.0762
150      0.0000     0.0000E+00    0.0000E+00    1.800000E+10  0.05000  3.739E-06    0   0.4924   age213_m72            0.0000     1.0538E+03    19.4685  -1.0000    93.5761


## Synthesis Results - Average & Chains ##

# j      x_j: min, <> & last-chain-values for 1 ...  7 chains
  1      0.0000      0.0114      0.0000      0.0452      0.0000      0.0000      0.0000      0.0000      0.0000
  2     14.7462      7.9034      8.7835      8.1822      8.6610      8.6288      8.5606      9.2102      8.4309
  3      2.3171      4.7884      4.8139      4.7210      4.9264      4.9098      4.9479      4.8941      4.8501
  4      0.0000      0.0053      0.0000      0.0000      0.0000      0.0000      0.0000      0.0000      0.0014
  5      0.0000      0.0022      0.0000      0.0000      0.0000      0.0000      0.0000      0.0011      0.0000
  6      0.0000      0.0068      0.0000      0.1023      0.0000      0.0000      0.0005      0.0000      0.0000
  7      0.0000      0.0030      0.0000      0.0000      0.0000      0.0000      0.0000      0.0000      0.0000
  8      0.0000      0.0107      0.0000      0.0000      0.0000      0.0000      0.0000      0.0000      0.0000
  9      0.0000      0.0149      0.0000      0.0000      0.0000      0.0000      0.0000      0.0000      0.0000
 10      0.0000      0.0139      0.0167      0.0000      0.0000      0.0000      0.1199      0.0000      0.0000
 11      0.0000      0.0394      0.0000      0.1340      0.0000      0.0000      0.0000      0.0000      0.0000
 12      0.0000      0.0246      0.0281      0.0000      0.0103      0.0267      0.0000      0.0000      0.0000
 13      0.0000      0.0134      0.0000      0.0000      0.0000      0.0000      0.0000      0.0000      0.0000
 14      0.0000      0.0078      0.0000      0.0000      0.0000      0.0000      0.0000      0.0000      0.0000
 15      0.0000      0.0116      0.0000      0.0000      0.0000      0.0000      0.0000      0.0000      0.0000
 16      0.0000      0.0129      0.0000      0.0000      0.0814      0.0000      0.0000      0.0000      0.0000
 17      0.0000      0.0147      0.0000      0.0000      0.0033      0.0211      0.0000      0.0182      0.0000
 18      0.0000      0.0209      0.0000      0.0000      0.0000      0.0000      0.0000      0.0000      0.0000
 19      0.0000      0.0941      0.0534      0.0000      0.0000      0.0105      0.0000      0.0000      0.4530
 20      0.5243      0.1784      0.2854      0.0000      0.1116      0.2063      0.3544      0.6325      0.0000
 21      0.0000      0.2706      0.0358      0.8129      0.0000      0.4280      0.3304      0.0000      0.0000
 22      0.0000      0.2669      0.2356      0.5481      0.0368      0.2938      0.2512      0.1313      0.5122
 23      0.0000      0.3088      0.1403      0.7462      0.0000      0.0000      0.0000      0.0000      0.0000
 24      0.0000      0.7709      1.3574      0.4018      0.6154      0.6711      1.1377      0.1054      0.7389
 25      2.4221      0.9191      0.4896      1.2368      1.1600      0.8886      1.3197      1.9338      0.3602
 26      0.0000      0.0050      0.0000      0.0000      0.0000      0.0000      0.0000      0.0000      0.0000
 27      0.0000      0.0251      0.0000      0.0000      0.0000      0.0000      0.0000      0.0000      0.0000
 28      0.0000      0.0074      0.0000      0.0000      0.0000      0.0000      0.0000      0.0085      0.0000
 29      0.0000      0.0117      0.0000      0.0000      0.0000      0.0732      0.0000      0.0000      0.0000
 30      0.0000      0.0084      0.0000      0.0000      0.0000      0.0000      0.0000      0.0107      0.0000
 31      0.0000      0.0145      0.0000      0.0000      0.0000      0.0000      0.0000      0.0000      0.0000
 32      0.0000      0.0172      0.0385      0.0000      0.0000      0.0000      0.0000      0.0000      0.0518
 33      0.0000      0.0081      0.0000      0.0000      0.0000      0.0000      0.0000      0.0000      0.0000
 34      0.0000      0.0250      0.0000      0.0000      0.0000      0.0000      0.0333      0.0000      0.0000
 35      0.0000      0.0312      0.0000      0.0139      0.0000      0.0000      0.0000      0.0000      0.1012
 36      0.0000      0.0325      0.0000      0.0000      0.0046      0.0712      0.2151      0.0000      0.0485
 37      0.0000      0.0123      0.0000      0.0000      0.0000      0.0000      0.0000      0.0000      0.0000
 38      0.0000      0.0114      0.0672      0.0000      0.0000      0.0000      0.0000      0.0189      0.0000
 39      0.0000      0.0095      0.0037      0.0000      0.0000      0.0000      0.0000      0.0299      0.0000
 40      0.0000      0.0136      0.0000      0.0000      0.0000      0.0000      0.0000      0.0000      0.0000
 41      0.0000      0.0262      0.0000      0.0517      0.0801      0.0000      0.0000      0.0000      0.0000
 42      0.0000      0.0447      0.0038      0.0000      0.0000      0.0437      0.0000      0.0000      0.0000
 43      0.0003      0.0981      0.0000      0.1242      0.3385      0.0360      0.0444      0.3483      0.0111
 44      0.0000      0.2617      0.4197      0.0000      0.4669      0.6555      0.0000      0.1834      0.0000
 45      7.7959      8.2066      7.6625      8.1287      9.3734      7.4523      7.2294      7.4369      8.5318
 46     20.3749     19.5531     20.1018     20.9337     19.5864     19.7719     19.8041     19.8639     19.4706
 47     17.0785     19.0752     18.8602     17.5639     17.7725     19.0862     19.6802     18.8933     19.6944
 48      0.0029      0.3956      0.3611      0.0000      0.1447      0.3124      0.0000      0.4764      0.1988
 49      0.0000      0.3093      0.0000      0.4009      0.3360      0.5396      0.4322      0.5033      0.0045
 50      0.0000      0.1837      0.0000      0.2536      0.3714      0.4188      0.4183      0.0000      0.3925
 51      0.0000      0.0103      0.0000      0.0000      0.0000      0.0000      0.0000      0.0000      0.0000
 52      0.0000      0.0259      0.0328      0.0000      0.0000      0.0000      0.0000      0.1717      0.0000
 53      0.0000      0.0355      0.0000      0.0242      0.0000      0.0000      0.0000      0.0000      0.0000
 54      0.0000      0.2145      0.3243      0.3054      0.2401      0.0841      0.2442      0.0000      0.3687
 55      0.0000      0.0229      0.0000      0.0000      0.0000      0.0000      0.0000      0.0000      0.0000
 56      0.0000      0.0175      0.0000      0.0000      0.0000      0.0306      0.0000      0.0000      0.0000
 57      0.0000      0.0078      0.0000      0.0000      0.0000      0.0544      0.0000      0.0000      0.0000
 58      0.0000      0.0089      0.0000      0.0000      0.0000      0.0485      0.0000      0.0000      0.0000
 59      0.0000      0.0100      0.0000      0.0000      0.0123      0.0000      0.0000      0.0000      0.0000
 60      0.0000      0.0149      0.0000      0.0000      0.0000      0.0000      0.0000      0.0000      0.0579
 61      0.0000      0.0214      0.0000      0.0000      0.0000      0.0000      0.0000      0.0000      0.0000
 62      0.0000      0.0283      0.0000      0.0000      0.0000      0.0000      0.0000      0.0000      0.0419
 63      0.0000      0.0205      0.0000      0.0000      0.0000      0.0000      0.0000      0.0000      0.1974
 64      0.0000      0.0164      0.0000      0.0000      0.0000      0.0000      0.0000      0.0000      0.0000
 65      0.0000      0.0293      0.0000      0.0000      0.0000      0.0000      0.0000      0.0000      0.0000
 66      0.0000      0.0567      0.0000      0.0000      0.0000      0.0486      0.0000      0.1955      0.0209
 67      0.0000      0.0736      0.0000      0.1440      0.2027      0.1481      0.3169      0.0000      0.0000
 68      5.5703      6.3267      6.6313      6.4946      6.6307      6.6951      5.5645      6.3091      6.5720
 69      0.0071      0.2079      0.0000      0.3675      0.0000      0.0714      0.2283      0.3515      0.0000
 70      0.0000      0.3455      0.2780      0.0000      0.4758      0.3972      0.2413      0.1767      0.2616
 71      2.0429      2.2600      2.6790      2.1260      2.4357      1.6813      2.1561      1.3459      2.1489
 72      1.4285      2.1720      2.1873      2.2580      1.9823      2.2261      1.9691      2.0526      1.9786
 73      0.0000      0.0820      0.0775      0.0000      0.2218      0.0246      0.0000      0.0000      0.0163
 74      0.0000      0.1071      0.2000      0.0867      0.0000      0.2175      0.3426      0.0000      0.0000
 75      0.0000      0.0924      0.1894      0.0000      0.1488      0.0000      0.2313      0.0000      0.0000
 76      0.0000      0.0075      0.0000      0.0000      0.0000      0.0000      0.0000      0.0000      0.0000
 77      0.0000      0.0034      0.0000      0.0026      0.0000      0.0000      0.0000      0.0000      0.0000
 78      0.0000      0.0055      0.0000      0.0000      0.0000      0.0000      0.0000      0.0000      0.0000
 79      0.0000      0.0242      0.0000      0.0000      0.2511      0.0000      0.0000      0.0000      0.0000
 80      0.0000      0.0110      0.0000      0.0689      0.0000      0.0000      0.0000      0.0000      0.0000
 81      0.0000      0.0059      0.0000      0.0000      0.0000      0.0000      0.0000      0.0000      0.0000
 82      0.0000      0.0085      0.0000      0.0000      0.0000      0.0000      0.0000      0.0000      0.0000
 83      0.0000      0.0104      0.0000      0.0000      0.0000      0.0000      0.0000      0.0000      0.0000
 84      0.0000      0.0133      0.0000      0.0000      0.0000      0.0000      0.0000      0.0000      0.0000
 85      0.0000      0.0085      0.0000      0.0000      0.0000      0.0000      0.0000      0.0000      0.0000
 86      0.0000      0.0087      0.0000      0.0000      0.0000      0.0350      0.0000      0.0541      0.0000
 87      0.0000      0.0117      0.0000      0.0000      0.0000      0.0000      0.0000      0.0000      0.0000
 88      0.0000      0.0079      0.0000      0.0000      0.0000      0.0000      0.0000      0.0000      0.0000
 89      0.0000      0.0118      0.0097      0.0000      0.0000      0.0000      0.1347      0.0000      0.0000
 90      0.0000      0.0160      0.0000      0.1524      0.0146      0.0000      0.0000      0.0000      0.0000
 91      0.0000      0.0226      0.0000      0.0000      0.0000      0.0000      0.0000      0.0824      0.0337
 92      0.0000      0.0420      0.0000      0.0000      0.0000      0.0616      0.0240      0.0476      0.0000
 93      0.0022      0.1475      0.3246      0.2475      0.0799      0.2303      0.1311      0.3298      0.6633
 94      9.1466      6.2908      7.1048      6.2676      5.5505      6.4157      6.6147      6.4941      6.7401
 95      3.0502      1.5058      1.6817      1.7871      1.8172      1.9736      1.5385      1.4814      1.4811
 96      2.5020      0.9987      0.8346      1.3082      1.7220      1.2723      1.3258      1.4618      0.8571
 97      2.8652      0.8579      0.8179      1.0878      0.9772      0.8415      0.6452      0.9237      1.1250
 98      2.1458      1.0369      1.0239      0.9741      1.3559      0.9903      0.9497      1.3156      1.0878
 99      1.7812      1.1430      0.8082      1.2417      1.4010      0.9078      1.4996      1.3039      1.2710
100      0.0000      0.1801      0.0645      0.9788      0.2190      0.2438      0.0000      0.2036      0.0000
101      0.0000      0.0037      0.0000      0.0000      0.0000      0.0000      0.0000      0.0000      0.0000
102      0.0000      0.0034      0.0000      0.0000      0.0000      0.0000      0.0000      0.0000      0.0000
103      0.0000      0.0317      0.0000      0.0000      0.0000      0.0179      0.0000      0.0000      0.0000
104      0.0000      0.0064      0.0000      0.0000      0.0000      0.0000      0.0000      0.0000      0.0000
105      0.0000      0.0056      0.0000      0.0000      0.0000      0.0000      0.0000      0.0000      0.0000
106      0.0000      0.0049      0.0000      0.0000      0.0000      0.0000      0.0000      0.0000      0.0000
107      0.0000      0.0081      0.0000      0.0000      0.0000      0.0000      0.0000      0.0000      0.0000
108      0.0000      0.0031      0.0000      0.0000      0.0000      0.0000      0.0000      0.0000      0.0000
109      0.0000      0.0053      0.0000      0.0000      0.0000      0.0000      0.0000      0.0000      0.0000
110      0.0000      0.0055      0.0000      0.0000      0.0000      0.0000      0.0000      0.0000      0.0000
111      0.0000      0.0066      0.0000      0.0000      0.0411      0.0278      0.0699      0.0000      0.0000
112      0.0000      0.0069      0.0000      0.0000      0.0000      0.0000      0.0000      0.0000      0.0000
113      0.0000      0.0060      0.0000      0.0000      0.0000      0.0000      0.0000      0.0000      0.0000
114      0.0000      0.0068      0.0000      0.0000      0.0000      0.0000      0.0000      0.0000      0.0000
115      0.0000      0.0264      0.1013      0.0158      0.0940      0.0000      0.0000      0.0000      0.0175
116      0.0000      0.0546      0.4198      0.0000      0.0490      0.0000      0.0045      0.0000      0.0396
117      0.0000      0.0559      0.0000      0.0111      0.0004      0.0000      0.0000      0.0653      0.0000
118      0.0000      0.0973      0.0000      0.0000      0.0000      0.1019      0.0000      0.0000      0.0873
119      1.1999      2.7104      2.7237      2.3562      2.7396      2.8926      2.4548      2.8844      2.9010
120      0.0000      0.4729      0.5053      0.4708      0.0000      0.2834      0.3754      0.3922      0.5319
121      0.0000      0.8510      0.8176      0.0000      0.8373      1.0782      0.4637      0.4473      0.7781
122      0.0000      0.0848      0.0000      0.1004      0.1700      0.1585      0.1861      0.0000      0.0000
123      0.0000      0.0810      0.0000      0.2339      0.0000      0.0000      0.0000      0.0672      0.0000
124      0.0000      0.0554      0.0000      0.0000      0.0000      0.0022      0.3338      0.0000      0.0000
125      0.0000      0.0738      0.0000      0.0781      0.0317      0.0000      0.0231      0.0000      0.0000
126      0.0000      0.0035      0.0000      0.0000      0.0000      0.0000      0.0000      0.0000      0.0000
127      0.0000      0.0039      0.0000      0.0000      0.0000      0.0000      0.0000      0.0000      0.0688
128      0.0000      0.0081      0.0164      0.0000      0.0000      0.0000      0.0000      0.0000      0.0000
129      0.0000      0.0066      0.0000      0.0000      0.0000      0.0000      0.0000      0.0000      0.0000
130      0.0000      0.0039      0.0000      0.0000      0.0000      0.0000      0.0000      0.0300      0.0000
131      0.0000      0.0026      0.0000      0.0000      0.0000      0.0000      0.0000      0.0214      0.0000
132      0.0000      0.0018      0.0000      0.0000      0.0000      0.0000      0.0000      0.0000      0.0000
133      0.0000      0.0037      0.0000      0.0000      0.0000      0.0000      0.0000      0.0000      0.0000
134      0.0000      0.0044      0.0000      0.0000      0.0000      0.0000      0.0000      0.0000      0.0000
135      0.0000      0.0074      0.0000      0.0000      0.0000      0.0000      0.0000      0.0000      0.0000
136      0.0000      0.0153      0.0487      0.0000      0.1992      0.0000      0.0000      0.0000      0.0000
137      0.0000      0.0098      0.0000      0.0000      0.0000      0.0000      0.0000      0.0000      0.0000
138      0.0000      0.0055      0.1273      0.0000      0.0000      0.0000      0.0000      0.0000      0.0349
139      0.0000      0.0164      0.0000      0.0000      0.0000      0.0065      0.0000      0.0000      0.0000
140      0.0000      0.0315      0.0000      0.0000      0.2426      0.0000      0.0000      0.0473      0.3190
141      1.3694      5.2641      5.1080      5.3097      4.4540      5.2341      5.5328      5.1692      5.3587
142      0.6670      1.4875      0.9417      1.4525      1.5690      1.1078      1.5186      1.9151      1.4133
143      0.0000      0.1556      0.4478      0.0000      0.0000      0.0103      0.4330      0.0000      0.0000
144      1.7180      0.4742      0.4846      0.5691      0.5345      0.5950      0.3842      0.6346      0.5964
145      0.6080      0.4507      0.4742      0.6211      0.4314      0.3562      0.4536      0.4880      0.5723
146      0.5135      0.1786      0.0937      0.1734      0.3667      0.2141      0.1528      0.2331      0.3115
147      0.0000      0.1538      0.3652      0.0000      0.1470      0.2772      0.2469      0.2330      0.0000
148      0.0000      0.0265      0.0000      0.0000      0.0000      0.0000      0.0000      0.0000      0.0000
149      0.0000      0.0319      0.0000      0.0000      0.0000      0.0332      0.0000      0.0000      0.0000
150      0.0000      0.0625      0.0641      0.0527      0.0000      0.1114      0.0837      0.1469      0.0000

# j      m_j: min, <> & last-chain-values for 1 ...  7 chains
  1  0.0000E+00  1.2253E-04  0.0000E+00  4.8306E-04  0.0000E+00  0.0000E+00  0.0000E+00  0.0000E+00  0.0000E+00
  2  2.5941E-02  1.4611E-02  1.6562E-02  1.4981E-02  1.6049E-02  1.5907E-02  1.5602E-02  1.7023E-02  1.6143E-02
  3  9.6206E-03  2.0894E-02  2.1425E-02  2.0402E-02  2.1547E-02  2.1363E-02  2.1284E-02  2.1351E-02  2.1919E-02
  4  0.0000E+00  4.3364E-05  0.0000E+00  0.0000E+00  0.0000E+00  0.0000E+00  0.0000E+00  0.0000E+00  1.2026E-05
  5  0.0000E+00  2.2371E-05  0.0000E+00  0.0000E+00  0.0000E+00  0.0000E+00  0.0000E+00  1.1032E-05  0.0000E+00
  6  0.0000E+00  8.3884E-05  0.0000E+00  1.2450E-03  0.0000E+00  0.0000E+00  5.7910E-06  0.0000E+00  0.0000E+00
  7  0.0000E+00  4.5812E-05  0.0000E+00  0.0000E+00  0.0000E+00  0.0000E+00  0.0000E+00  0.0000E+00  0.0000E+00
  8  0.0000E+00  1.8674E-04  0.0000E+00  0.0000E+00  0.0000E+00  0.0000E+00  0.0000E+00  0.0000E+00  0.0000E+00
  9  0.0000E+00  2.8174E-04  0.0000E+00  0.0000E+00  0.0000E+00  0.0000E+00  0.0000E+00  0.0000E+00  0.0000E+00
 10  0.0000E+00  3.0004E-04  3.6709E-04  0.0000E+00  0.0000E+00  0.0000E+00  2.5538E-03  0.0000E+00  0.0000E+00
 11  0.0000E+00  1.0190E-03  0.0000E+00  3.4273E-03  0.0000E+00  0.0000E+00  0.0000E+00  0.0000E+00  0.0000E+00
 12  0.0000E+00  1.1129E-03  1.2962E-03  0.0000E+00  4.6597E-04  1.2048E-03  0.0000E+00  0.0000E+00  0.0000E+00
 13  0.0000E+00  7.0504E-04  0.0000E+00  0.0000E+00  0.0000E+00  0.0000E+00  0.0000E+00  0.0000E+00  0.0000E+00
 14  0.0000E+00  5.8395E-04  0.0000E+00  0.0000E+00  0.0000E+00  0.0000E+00  0.0000E+00  0.0000E+00  0.0000E+00
 15  0.0000E+00  1.3082E-03  0.0000E+00  0.0000E+00  0.0000E+00  0.0000E+00  0.0000E+00  0.0000E+00  0.0000E+00
 16  0.0000E+00  2.0947E-03  0.0000E+00  0.0000E+00  1.3299E-02  0.0000E+00  0.0000E+00  0.0000E+00  0.0000E+00
 17  0.0000E+00  2.6575E-03  0.0000E+00  0.0000E+00  6.0233E-04  3.8095E-03  0.0000E+00  3.2942E-03  0.0000E+00
 18  0.0000E+00  6.1648E-03  0.0000E+00  0.0000E+00  0.0000E+00  0.0000E+00  0.0000E+00  0.0000E+00  0.0000E+00
 19  0.0000E+00  4.1992E-02  2.4295E-02  0.0000E+00  0.0000E+00  4.6812E-03  0.0000E+00  0.0000E+00  2.0945E-01
 20  3.1857E-01  1.1389E-01  1.8589E-01  0.0000E+00  7.1435E-02  1.3135E-01  2.2307E-01  4.0378E-01  0.0000E+00
 21  0.0000E+00  1.9991E-01  2.7009E-02  5.9474E-01  0.0000E+00  3.1527E-01  2.4060E-01  0.0000E+00  0.0000E+00
 22  0.0000E+00  2.5435E-01  2.2905E-01  5.1732E-01  3.5200E-02  2.7924E-01  2.3605E-01  1.2513E-01  5.0562E-01
 23  0.0000E+00  3.7306E-01  1.7287E-01  8.9283E-01  0.0000E+00  0.0000E+00  0.0000E+00  0.0000E+00  0.0000E+00
 24  0.0000E+00  1.0651E+00  1.9129E+00  5.4975E-01  8.5226E-01  9.2455E-01  1.5496E+00  1.4562E-01  1.0573E+00
 25  3.8252E+00  1.5254E+00  8.2889E-01  2.0329E+00  1.9298E+00  1.4707E+00  2.1593E+00  3.2089E+00  6.1923E-01
 26  0.0000E+00  5.2403E-05  0.0000E+00  0.0000E+00  0.0000E+00  0.0000E+00  0.0000E+00  0.0000E+00  0.0000E+00
 27  0.0000E+00  5.5493E-05  0.0000E+00  0.0000E+00  0.0000E+00  0.0000E+00  0.0000E+00  0.0000E+00  0.0000E+00
 28  0.0000E+00  3.1981E-05  0.0000E+00  0.0000E+00  0.0000E+00  0.0000E+00  0.0000E+00  3.7047E-05  0.0000E+00
 29  0.0000E+00  7.9353E-05  0.0000E+00  0.0000E+00  0.0000E+00  4.9271E-04  0.0000E+00  0.0000E+00  0.0000E+00
 30  0.0000E+00  7.0708E-05  0.0000E+00  0.0000E+00  0.0000E+00  0.0000E+00  0.0000E+00  9.0223E-05  0.0000E+00
 31  0.0000E+00  1.4035E-04  0.0000E+00  0.0000E+00  0.0000E+00  0.0000E+00  0.0000E+00  0.0000E+00  0.0000E+00
 32  0.0000E+00  1.8481E-04  4.2151E-04  0.0000E+00  0.0000E+00  0.0000E+00  0.0000E+00  0.0000E+00  5.7617E-04
 33  0.0000E+00  1.2382E-04  0.0000E+00  0.0000E+00  0.0000E+00  0.0000E+00  0.0000E+00  0.0000E+00  0.0000E+00
 34  0.0000E+00  4.6266E-04  0.0000E+00  0.0000E+00  0.0000E+00  0.0000E+00  6.0854E-04  0.0000E+00  0.0000E+00
 35  0.0000E+00  6.9959E-04  0.0000E+00  3.0787E-04  0.0000E+00  0.0000E+00  0.0000E+00  0.0000E+00  2.3487E-03
 36  0.0000E+00  9.3316E-04  0.0000E+00  0.0000E+00  1.3137E-04  2.0388E-03  6.0909E-03  0.0000E+00  1.4441E-03
 37  0.0000E+00  4.4019E-04  0.0000E+00  0.0000E+00  0.0000E+00  0.0000E+00  0.0000E+00  0.0000E+00  0.0000E+00
 38  0.0000E+00  5.6749E-04  3.4068E-03  0.0000E+00  0.0000E+00  0.0000E+00  0.0000E+00  9.3772E-04  0.0000E+00
 39  0.0000E+00  7.0376E-04  2.8262E-04  0.0000E+00  0.0000E+00  0.0000E+00  0.0000E+00  2.2186E-03  0.0000E+00
 40  0.0000E+00  1.7759E-03  0.0000E+00  0.0000E+00  0.0000E+00  0.0000E+00  0.0000E+00  0.0000E+00  0.0000E+00
 41  0.0000E+00  4.5948E-03  0.0000E+00  8.9828E-03  1.4084E-02  0.0000E+00  0.0000E+00  0.0000E+00  0.0000E+00
 42  0.0000E+00  8.7489E-03  7.5112E-04  0.0000E+00  0.0000E+00  8.5367E-03  0.0000E+00  0.0000E+00  0.0000E+00
 43  9.3774E-05  3.1243E-02  0.0000E+00  3.9185E-02  1.0806E-01  1.1420E-02  1.3950E-02  1.1088E-01  3.6535E-03
 44  0.0000E+00  1.3181E-01  2.1560E-01  0.0000E+00  2.3569E-01  3.2918E-01  0.0000E+00  9.2336E-02  0.0000E+00
 45  5.2073E+00  5.7607E+00  5.4862E+00  5.6512E+00  6.5952E+00  5.2163E+00  5.0028E+00  5.2193E+00  6.2029E+00
 46  1.6212E+01  1.6351E+01  1.7145E+01  1.7337E+01  1.6417E+01  1.6487E+01  1.6326E+01  1.6607E+01  1.6863E+01
 47  1.7811E+01  2.0906E+01  2.1083E+01  1.9065E+01  1.9524E+01  2.0859E+01  2.1263E+01  2.0702E+01  2.2356E+01
 48  3.6627E-03  5.1624E-01  4.8068E-01  0.0000E+00  1.8931E-01  4.0660E-01  0.0000E+00  6.2155E-01  2.6878E-01
 49  0.0000E+00  4.5161E-01  0.0000E+00  5.7965E-01  4.9172E-01  7.8559E-01  6.2203E-01  7.3460E-01  6.7604E-03
 50  0.0000E+00  3.1539E-01  0.0000E+00  4.3132E-01  6.3933E-01  7.1711E-01  7.0818E-01  0.0000E+00  6.9813E-01
 51  0.0000E+00  8.1122E-05  0.0000E+00  0.0000E+00  0.0000E+00  0.0000E+00  0.0000E+00  0.0000E+00  0.0000E+00
 52  0.0000E+00  5.5937E-05  7.2343E-05  0.0000E+00  0.0000E+00  0.0000E+00  0.0000E+00  3.7070E-04  0.0000E+00
 53  0.0000E+00  1.1690E-04  0.0000E+00  7.8804E-05  0.0000E+00  0.0000E+00  0.0000E+00  0.0000E+00  0.0000E+00
 54  0.0000E+00  6.7363E-04  1.0388E-03  9.4999E-04  7.5569E-04  2.6323E-04  7.5603E-04  0.0000E+00  1.1993E-03
 55  0.0000E+00  1.0606E-04  0.0000E+00  0.0000E+00  0.0000E+00  0.0000E+00  0.0000E+00  0.0000E+00  0.0000E+00
 56  0.0000E+00  1.0724E-04  0.0000E+00  0.0000E+00  0.0000E+00  1.8732E-04  0.0000E+00  0.0000E+00  0.0000E+00
 57  0.0000E+00  7.6410E-05  0.0000E+00  0.0000E+00  0.0000E+00  5.3323E-04  0.0000E+00  0.0000E+00  0.0000E+00
 58  0.0000E+00  1.2561E-04  0.0000E+00  0.0000E+00  0.0000E+00  6.8590E-04  0.0000E+00  0.0000E+00  0.0000E+00
 59  0.0000E+00  1.9770E-04  0.0000E+00  0.0000E+00  2.4389E-04  0.0000E+00  0.0000E+00  0.0000E+00  0.0000E+00
 60  0.0000E+00  3.2698E-04  0.0000E+00  0.0000E+00  0.0000E+00  0.0000E+00  0.0000E+00  0.0000E+00  1.3160E-03
 61  0.0000E+00  5.9804E-04  0.0000E+00  0.0000E+00  0.0000E+00  0.0000E+00  0.0000E+00  0.0000E+00  0.0000E+00
 62  0.0000E+00  1.0025E-03  0.0000E+00  0.0000E+00  0.0000E+00  0.0000E+00  0.0000E+00  0.0000E+00  1.5381E-03
 63  0.0000E+00  1.1070E-03  0.0000E+00  0.0000E+00  0.0000E+00  0.0000E+00  0.0000E+00  0.0000E+00  1.1023E-02
 64  0.0000E+00  1.4507E-03  0.0000E+00  0.0000E+00  0.0000E+00  0.0000E+00  0.0000E+00  0.0000E+00  0.0000E+00
 65  0.0000E+00  4.3895E-03  0.0000E+00  0.0000E+00  0.0000E+00  0.0000E+00  0.0000E+00  0.0000E+00  0.0000E+00
 66  0.0000E+00  1.0870E-02  0.0000E+00  0.0000E+00  0.0000E+00  9.2892E-03  0.0000E+00  3.7488E-02  4.1455E-03
 67  0.0000E+00  1.9378E-02  0.0000E+00  3.7563E-02  5.3493E-02  3.8891E-02  8.2244E-02  0.0000E+00  0.0000E+00
 68  2.5948E+00  3.0972E+00  3.3112E+00  3.1488E+00  3.2537E+00  3.2682E+00  2.6855E+00  3.0879E+00  3.3322E+00
 69  5.7378E-03  1.7552E-01  0.0000E+00  3.0725E-01  0.0000E+00  6.0137E-02  1.9002E-01  2.9665E-01  0.0000E+00
 70  0.0000E+00  4.0599E-01  3.3317E-01  0.0000E+00  5.6033E-01  4.6535E-01  2.7954E-01  2.0762E-01  3.1832E-01
 71  2.6949E+00  3.1331E+00  3.7880E+00  2.9190E+00  3.3845E+00  2.3242E+00  2.9466E+00  1.8654E+00  3.0854E+00
 72  2.4806E+00  3.9638E+00  4.0714E+00  4.0811E+00  3.6260E+00  4.0509E+00  3.5425E+00  3.7451E+00  3.7397E+00
 73  0.0000E+00  1.8878E-01  1.8200E-01  0.0000E+00  5.1182E-01  5.6552E-02  0.0000E+00  0.0000E+00  3.8954E-02
 74  0.0000E+00  2.7495E-01  5.2397E-01  2.2056E-01  0.0000E+00  5.5712E-01  8.6749E-01  0.0000E+00  0.0000E+00
 75  0.0000E+00  2.7289E-01  5.7052E-01  0.0000E+00  4.4034E-01  0.0000E+00  6.7339E-01  0.0000E+00  0.0000E+00
 76  0.0000E+00  5.1236E-05  0.0000E+00  0.0000E+00  0.0000E+00  0.0000E+00  0.0000E+00  0.0000E+00  0.0000E+00
 77  0.0000E+00  9.5332E-06  0.0000E+00  7.2623E-06  0.0000E+00  0.0000E+00  0.0000E+00  0.0000E+00  0.0000E+00
 78  0.0000E+00  1.7101E-05  0.0000E+00  0.0000E+00  0.0000E+00  0.0000E+00  0.0000E+00  0.0000E+00  0.0000E+00
 79  0.0000E+00  9.0822E-05  0.0000E+00  0.0000E+00  9.4479E-04  0.0000E+00  0.0000E+00  0.0000E+00  0.0000E+00
 80  0.0000E+00  5.3423E-05  0.0000E+00  3.3002E-04  0.0000E+00  0.0000E+00  0.0000E+00  0.0000E+00  0.0000E+00
 81  0.0000E+00  3.7995E-05  0.0000E+00  0.0000E+00  0.0000E+00  0.0000E+00  0.0000E+00  0.0000E+00  0.0000E+00
 82  0.0000E+00  7.3073E-05  0.0000E+00  0.0000E+00  0.0000E+00  0.0000E+00  0.0000E+00  0.0000E+00  0.0000E+00
 83  0.0000E+00  1.3155E-04  0.0000E+00  0.0000E+00  0.0000E+00  0.0000E+00  0.0000E+00  0.0000E+00  0.0000E+00
 84  0.0000E+00  2.3233E-04  0.0000E+00  0.0000E+00  0.0000E+00  0.0000E+00  0.0000E+00  0.0000E+00  0.0000E+00
 85  0.0000E+00  1.8078E-04  0.0000E+00  0.0000E+00  0.0000E+00  0.0000E+00  0.0000E+00  0.0000E+00  0.0000E+00
 86  0.0000E+00  2.5216E-04  0.0000E+00  0.0000E+00  0.0000E+00  1.0068E-03  0.0000E+00  1.5582E-03  0.0000E+00
 87  0.0000E+00  4.5041E-04  0.0000E+00  0.0000E+00  0.0000E+00  0.0000E+00  0.0000E+00  0.0000E+00  0.0000E+00
 88  0.0000E+00  4.6364E-04  0.0000E+00  0.0000E+00  0.0000E+00  0.0000E+00  0.0000E+00  0.0000E+00  0.0000E+00
 89  0.0000E+00  1.1486E-03  9.6646E-04  0.0000E+00  0.0000E+00  0.0000E+00  1.2937E-02  0.0000E+00  0.0000E+00
 90  0.0000E+00  2.8827E-03  0.0000E+00  2.7197E-02  2.6326E-03  0.0000E+00  0.0000E+00  0.0000E+00  0.0000E+00
 91  0.0000E+00  5.2286E-03  0.0000E+00  0.0000E+00  0.0000E+00  0.0000E+00  0.0000E+00  1.9092E-02  8.0806E-03
 92  0.0000E+00  1.3006E-02  0.0000E+00  0.0000E+00  0.0000E+00  1.9004E-02  7.3160E-03  1.4744E-02  0.0000E+00
 93  1.3397E-03  9.2715E-02  2.0816E-01  1.5414E-01  5.0352E-02  1.4440E-01  8.1267E-02  2.0731E-01  4.3192E-01
 94  9.8137E+00  7.0933E+00  8.1711E+00  6.9992E+00  6.2733E+00  7.2135E+00  7.3527E+00  7.3210E+00  7.8713E+00
 95  4.4089E+00  2.2874E+00  2.6056E+00  2.6886E+00  2.7669E+00  2.9894E+00  2.3040E+00  2.2498E+00  2.3302E+00
 96  4.3633E+00  1.8303E+00  1.5602E+00  2.3745E+00  3.1634E+00  2.3252E+00  2.3954E+00  2.6786E+00  1.6269E+00
 97  6.5107E+00  2.0488E+00  1.9922E+00  2.5726E+00  2.3390E+00  2.0039E+00  1.5190E+00  2.2052E+00  2.7826E+00
 98  6.2531E+00  3.1755E+00  3.1981E+00  2.9543E+00  4.1621E+00  3.0242E+00  2.8671E+00  4.0281E+00  3.4501E+00
 99  5.9168E+00  3.9900E+00  2.8775E+00  4.2931E+00  4.9021E+00  3.1602E+00  5.1607E+00  4.5509E+00  4.5952E+00
100  0.0000E+00  7.2391E-01  2.6434E-01  3.8960E+00  8.8219E-01  9.7724E-01  0.0000E+00  8.1794E-01  0.0000E+00
101  0.0000E+00  1.6569E-05  0.0000E+00  0.0000E+00  0.0000E+00  0.0000E+00  0.0000E+00  0.0000E+00  0.0000E+00
102  0.0000E+00  7.7247E-06  0.0000E+00  0.0000E+00  0.0000E+00  0.0000E+00  0.0000E+00  0.0000E+00  0.0000E+00
103  0.0000E+00  8.0715E-05  0.0000E+00  0.0000E+00  0.0000E+00  4.5533E-05  0.0000E+00  0.0000E+00  0.0000E+00
104  0.0000E+00  2.1443E-05  0.0000E+00  0.0000E+00  0.0000E+00  0.0000E+00  0.0000E+00  0.0000E+00  0.0000E+00
105  0.0000E+00  3.9937E-05  0.0000E+00  0.0000E+00  0.0000E+00  0.0000E+00  0.0000E+00  0.0000E+00  0.0000E+00
106  0.0000E+00  3.7649E-05  0.0000E+00  0.0000E+00  0.0000E+00  0.0000E+00  0.0000E+00  0.0000E+00  0.0000E+00
107  0.0000E+00  8.2034E-05  0.0000E+00  0.0000E+00  0.0000E+00  0.0000E+00  0.0000E+00  0.0000E+00  0.0000E+00
108  0.0000E+00  5.2768E-05  0.0000E+00  0.0000E+00  0.0000E+00  0.0000E+00  0.0000E+00  0.0000E+00  0.0000E+00
109  0.0000E+00  1.0784E-04  0.0000E+00  0.0000E+00  0.0000E+00  0.0000E+00  0.0000E+00  0.0000E+00  0.0000E+00
110  0.0000E+00  1.3463E-04  0.0000E+00  0.0000E+00  0.0000E+00  0.0000E+00  0.0000E+00  0.0000E+00  0.0000E+00
111  0.0000E+00  2.2244E-04  0.0000E+00  0.0000E+00  1.3935E-03  9.3843E-04  2.3322E-03  0.0000E+00  0.0000E+00
112  0.0000E+00  3.0706E-04  0.0000E+00  0.0000E+00  0.0000E+00  0.0000E+00  0.0000E+00  0.0000E+00  0.0000E+00
113  0.0000E+00  4.0000E-04  0.0000E+00  0.0000E+00  0.0000E+00  0.0000E+00  0.0000E+00  0.0000E+00  0.0000E+00
114  0.0000E+00  7.9008E-04  0.0000E+00  0.0000E+00  0.0000E+00  0.0000E+00  0.0000E+00  0.0000E+00  0.0000E+00
115  0.0000E+00  6.1906E-03  2.4199E-02  3.6617E-03  2.2059E-02  0.0000E+00  0.0000E+00  0.0000E+00  4.2384E-03
116  0.0000E+00  2.0539E-02  1.6096E-01  0.0000E+00  1.8470E-02  0.0000E+00  1.6517E-03  0.0000E+00  1.5419E-02
117  0.0000E+00  2.4710E-02  0.0000E+00  4.8758E-03  1.7792E-04  0.0000E+00  0.0000E+00  2.8832E-02  0.0000E+00
118  0.0000E+00  8.7265E-02  0.0000E+00  0.0000E+00  0.0000E+00  9.1137E-02  0.0000E+00  0.0000E+00  8.1082E-02
119  1.7692E+00  4.1999E+00  4.3048E+00  3.6159E+00  4.2551E+00  4.4695E+00  3.7498E+00  4.4685E+00  4.6557E+00
120  4.4404E-05  1.0435E+00  1.1373E+00  1.0289E+00  0.0000E+00  6.2354E-01  8.1667E-01  8.6530E-01  1.2155E+00
121  1.4533E-05  2.2092E+00  2.1650E+00  0.0000E+00  2.1788E+00  2.7912E+00  1.1868E+00  1.1611E+00  2.0921E+00
122  0.0000E+00  2.9450E-01  0.0000E+00  3.4536E-01  5.9184E-01  5.4901E-01  6.3730E-01  0.0000E+00  0.0000E+00
123  0.0000E+00  3.7113E-01  0.0000E+00  1.0613E+00  0.0000E+00  0.0000E+00  0.0000E+00  3.0799E-01  0.0000E+00
124  0.0000E+00  2.9149E-01  0.0000E+00  0.0000E+00  0.0000E+00  1.1740E-02  1.7313E+00  0.0000E+00  0.0000E+00
125  0.0000E+00  4.6480E-01  0.0000E+00  4.8732E-01  1.9993E-01  0.0000E+00  1.4348E-01  0.0000E+00  0.0000E+00
126  0.0000E+00  1.1680E-05  0.0000E+00  0.0000E+00  0.0000E+00  0.0000E+00  0.0000E+00  0.0000E+00  0.0000E+00
127  0.0000E+00  6.8209E-06  0.0000E+00  0.0000E+00  0.0000E+00  0.0000E+00  0.0000E+00  0.0000E+00  1.2460E-04
128  0.0000E+00  2.0952E-05  4.3421E-05  0.0000E+00  0.0000E+00  0.0000E+00  0.0000E+00  0.0000E+00  0.0000E+00
129  0.0000E+00  3.4908E-05  0.0000E+00  0.0000E+00  0.0000E+00  0.0000E+00  0.0000E+00  0.0000E+00  0.0000E+00
130  0.0000E+00  2.8093E-05  0.0000E+00  0.0000E+00  0.0000E+00  0.0000E+00  0.0000E+00  2.1695E-04  0.0000E+00
131  0.0000E+00  2.1832E-05  0.0000E+00  0.0000E+00  0.0000E+00  0.0000E+00  0.0000E+00  1.7917E-04  0.0000E+00
132  0.0000E+00  2.0823E-05  0.0000E+00  0.0000E+00  0.0000E+00  0.0000E+00  0.0000E+00  0.0000E+00  0.0000E+00
133  0.0000E+00  6.0430E-05  0.0000E+00  0.0000E+00  0.0000E+00  0.0000E+00  0.0000E+00  0.0000E+00  0.0000E+00
134  0.0000E+00  9.2565E-05  0.0000E+00  0.0000E+00  0.0000E+00  0.0000E+00  0.0000E+00  0.0000E+00  0.0000E+00
135  0.0000E+00  1.8786E-04  0.0000E+00  0.0000E+00  0.0000E+00  0.0000E+00  0.0000E+00  0.0000E+00  0.0000E+00
136  0.0000E+00  5.5547E-04  1.8079E-03  0.0000E+00  7.2604E-03  0.0000E+00  0.0000E+00  0.0000E+00  0.0000E+00
137  0.0000E+00  4.8441E-04  0.0000E+00  0.0000E+00  0.0000E+00  0.0000E+00  0.0000E+00  0.0000E+00  0.0000E+00
138  0.0000E+00  4.5428E-04  1.0725E-02  0.0000E+00  0.0000E+00  0.0000E+00  0.0000E+00  0.0000E+00  2.9887E-03
139  0.0000E+00  2.5525E-03  0.0000E+00  0.0000E+00  0.0000E+00  1.0166E-03  0.0000E+00  0.0000E+00  0.0000E+00
140  0.0000E+00  1.1355E-02  0.0000E+00  0.0000E+00  8.7770E-02  0.0000E+00  0.0000E+00  1.7051E-02  1.1925E-01
141  7.1983E-01  2.9079E+00  2.8780E+00  2.9049E+00  2.4662E+00  2.8831E+00  3.0130E+00  2.8549E+00  3.0659E+00
142  4.1715E-01  9.7761E-01  6.3128E-01  9.4550E-01  1.0336E+00  7.2603E-01  9.8392E-01  1.2584E+00  9.6203E-01
143  0.0000E+00  2.0330E-01  5.9680E-01  0.0000E+00  0.0000E+00  1.3434E-02  5.5781E-01  0.0000E+00  0.0000E+00
144  4.1961E+00  1.2171E+00  1.2688E+00  1.4468E+00  1.3751E+00  1.5228E+00  9.7224E-01  1.6286E+00  1.5856E+00
145  2.2105E+00  1.7220E+00  1.8480E+00  2.3504E+00  1.6524E+00  1.3573E+00  1.7088E+00  1.8644E+00  2.2647E+00
146  2.2295E+00  8.1495E-01  4.3622E-01  7.8386E-01  1.6772E+00  9.7430E-01  6.8755E-01  1.0633E+00  1.4723E+00
147  1.4758E-04  9.4314E-01  2.2835E+00  0.0000E+00  9.0328E-01  1.6947E+00  1.4922E+00  1.4285E+00  0.0000E+00
148  0.0000E+00  2.1967E-01  0.0000E+00  0.0000E+00  0.0000E+00  0.0000E+00  0.0000E+00  0.0000E+00  0.0000E+00
149  0.0000E+00  3.1055E-01  0.0000E+00  0.0000E+00  0.0000E+00  3.2184E-01  0.0000E+00  0.0000E+00  0.0000E+00
150  0.0000E+00  7.2375E-01  7.5693E-01  6.0527E-01  0.0000E+00  1.2874E+00  9.5612E-01  1.7016E+00  0.0000E+00

# AV, chi2 & Mass for <> & i_chain = 1 ...  7 solutions
AV       0.5895      0.5824      0.5855      0.5824      0.5872      0.5802      0.5834      0.5828      0.5863
chi2 2.5696E+00  2.7335E+00  2.7050E+00  2.7090E+00  2.7001E+00  2.7125E+00  2.7151E+00  2.6960E+00  2.7152E+00
Mass 8.2893E-10  7.8130E-10  7.6923E-10  7.8888E-10  7.8450E-10  7.8117E-10  7.9365E-10  7.8186E-10  7.5834E-10
  -5.19                                  [v0_min (km/s) before EX0s...]
  63.40                                  [vd_min (km/s) before EX0s...]


## Synthetic spectrum (Best Model) ##l_obs f_obs f_syn wei
 3070    [Nl_obs]
 3359.00    0.27942   0.46605   -1.000
 3360.00    0.26790   0.44336   -1.000
 3361.00    0.26265   0.44768   -1.000
 3362.00    0.27853   0.47442   -1.000
 3363.00    0.30975   0.50939   -1.000
 3364.00    0.33149   0.53338   -1.000
 3365.00    0.33589   0.53646   -1.000
 3366.00    0.34116   0.52627   -1.000
 3367.00    0.34078   0.51238   -1.000
 3368.00    0.33385   0.49874   -1.000
 3369.00    0.32017   0.48502   -1.000
 3370.00    0.32890   0.46842   -1.000
 3371.00    0.32551   0.45665   -1.000
 3372.00    0.32141   0.45918   -1.000
 3373.00    0.33279   0.47799   -1.000
 3374.00    0.34744   0.50700   -1.000
 3375.00    0.35943   0.53576   -1.000
 3376.00    0.37975   0.55105   -1.000
 3377.00    0.40793   0.54672   -1.000
 3378.00    0.40167   0.52924   -1.000
 3379.00    0.39709   0.51342   -1.000
 3380.00    0.39291   0.50947   -1.000
 3381.00    0.39504   0.51627   -1.000
 3382.00    0.40164   0.52722   -1.000
 3383.00    0.39689   0.53705   -1.000
 3384.00    0.40618   0.54550   -1.000
 3385.00    0.41626   0.55193   -1.000
 3386.00    0.42098   0.55010   -1.000
 3387.00    0.43081   0.54119   -1.000
 3388.00    0.43153   0.53576   -1.000
 3389.00    0.44029   0.54022   -1.000
 3390.00    0.44575   0.54797   -1.000
 3391.00    0.44049   0.54872   -1.000
 3392.00    0.44082   0.53910   -1.000
 3393.00    0.43954   0.53113   -1.000
 3394.00    0.44051   0.53619   -1.000
 3395.00    0.45518   0.55199   -1.000
 3396.00    0.47558   0.57107   -1.000
 3397.00    0.48880   0.58746   -1.000
 3398.00    0.49115   0.59881   -1.000
 3399.00    0.49737   0.60224   -1.000
 3400.00    0.50752   0.59702   -1.000
 3401.00    0.50799   0.58417   34.737
 3402.00    0.49575   0.56639   35.137
 3403.00    0.48212   0.55252   35.766
 3404.00    0.48406   0.54610   36.403
 3405.00    0.47365   0.54585   36.893
 3406.00    0.47138   0.54457   37.156
 3407.00    0.47133   0.53886   37.668
 3408.00    0.46816   0.53375   37.760
 3409.00    0.46256   0.53678   37.294
 3410.00    0.47160   0.54493   36.349
 3411.00    0.48637   0.54610   36.513
 3412.00    0.48808   0.53774   37.918
 3413.00    0.48088   0.52630   38.409
 3414.00    0.47458   0.52343   38.096
 3415.00    0.47276   0.53374   36.960
 3416.00    0.47687   0.55032   35.319
 3417.00    0.49241   0.56626   33.615
 3418.00    0.50273   0.57953   32.293
 3419.00    0.51053   0.58985   32.161
 3420.00    0.51659   0.59452   32.038
 3421.00    0.53056   0.58879   32.420
 3422.00    0.51750   0.57281   33.334
 3423.00    0.50331   0.55739   33.658
 3424.00    0.50919   0.55244   32.687
 3425.00    0.51590   0.55674   31.995
 3426.00    0.52623   0.56491   40.661
 3427.00    0.53748   0.57729   -1.000
 3428.00    0.53850   0.59530   -1.000
 3429.00    0.54663   0.61205   -1.000
 3430.00    0.55853   0.61533   -1.000
 3431.00    0.55256   0.60036   -1.000
 3432.00    0.54469   0.57990   31.953
 3433.00    0.54171   0.57069   40.659
 3434.00    0.53229   0.57862   -1.000
 3435.00    0.53846   0.59207   -1.000
 3436.00    0.54299   0.59452   32.132
 3437.00    0.52956   0.58272   33.755
 3438.00    0.51680   0.56253   35.950
 3439.00    0.50217   0.53867   38.486
 3440.00    0.48316   0.51467   39.653
 3441.00    0.46750   0.49594   39.647
 3442.00    0.46666   0.48871   39.113
 3443.00    0.46639   0.49350   37.392
 3444.00    0.47726   0.50581   35.332
 3445.00    0.50016   0.52249   33.562
 3446.00    0.52707   0.54420   41.992
 3447.00    0.54466   0.56845   -1.000
 3448.00    0.55582   0.58957   -1.000
 3449.00    0.56404   0.60021   -1.000
 3450.00    0.55942   0.59368   -1.000
 3451.00    0.56029   0.57517   -1.000
 3452.00    0.56681   0.55898  249.632
 3453.00    0.55941   0.55495  249.632
 3454.00    0.55529   0.56184  249.632
 3455.00    0.56339   0.57070  249.632
 3456.00    0.56949   0.57239  249.632
 3457.00    0.57343   0.56511   96.572
 3458.00    0.55773   0.55307   31.980
 3459.00    0.54614   0.54039   32.250
 3460.00    0.54526   0.52997   41.491
 3461.00    0.53666   0.52908  249.632
 3462.00    0.54916   0.54126  249.632
 3463.00    0.57020   0.55650   -1.000
 3464.00    0.59048   0.56291   -1.000
 3465.00    0.58306   0.56096   -1.000
 3466.00    0.57827   0.56193   -1.000
 3467.00    0.59164   0.57234   -1.000
 3468.00    0.59677   0.58850  249.632
 3469.00    0.59412   0.60202  249.632
 3470.00    0.60838   0.60549  249.632
 3471.00    0.61613   0.59735   -1.000
 3472.00    0.59966   0.58045   -1.000
 3473.00    0.58719   0.55695   95.647
 3474.00    0.56077   0.53388   32.443
 3475.00    0.54224   0.52018   33.160
 3476.00    0.52487   0.52207   42.389
 3477.00    0.52678   0.53842   -1.000
 3478.00    0.56259   0.55894  249.632
 3479.00    0.59860   0.57601   -1.000
 3480.00    0.61155   0.58695   -1.000
 3481.00    0.61261   0.58884   -1.000
 3482.00    0.61099   0.58292   -1.000
 3483.00    0.60482   0.57585   -1.000
 3484.00    0.60443   0.57560   -1.000
 3485.00    0.60636   0.58564   -1.000
 3486.00    0.61749   0.59821   -1.000
 3487.00    0.62896   0.60120   -1.000
 3488.00    0.63330   0.59008   -1.000
 3489.00    0.60505   0.57025   -1.000
 3490.00    0.56555   0.55481  249.632
 3491.00    0.56335   0.55347  249.632
 3492.00    0.57800   0.56143   -1.000
 3493.00    0.58611   0.56710   -1.000
 3494.00    0.58539   0.56500   -1.000
 3495.00    0.58107   0.55626   -1.000
 3496.00    0.56245   0.54898   -1.000
 3497.00    0.57305   0.55224   -1.000
 3498.00    0.58576   0.56470   -1.000
 3499.00    0.60071   0.57828   -1.000
 3500.00    0.61211   0.58554   -1.000
 3501.00    0.62162   0.58954   -1.000
 3502.00    0.63202   0.59571   -1.000
 3503.00    0.64005   0.60003   -1.000
 3504.00    0.63569   0.59702   -1.000
 3505.00    0.62997   0.58745   -1.000
 3506.00    0.61792   0.57828   -1.000
 3507.00    0.62070   0.57410   -1.000
 3508.00    0.63223   0.57312   -1.000
 3509.00    0.62772   0.57189   -1.000
 3510.00    0.61405   0.56821   -1.000
 3511.00    0.60887   0.56207   -1.000
 3512.00    0.60211   0.55338   -1.000
 3513.00    0.58943   0.54563   -1.000
 3514.00    0.57894   0.54705   -1.000
 3515.00    0.58560   0.56323   -1.000
 3516.00    0.60273   0.58989  249.632
 3517.00    0.61525   0.61164  249.632
 3518.00    0.62694   0.61559  249.632
 3519.00    0.62496   0.60150   -1.000
 3520.00    0.60549   0.58114   -1.000
 3521.00    0.58230   0.56413   -1.000
 3522.00    0.57703   0.55126   90.936
 3523.00    0.56514   0.53826   32.169
 3524.00    0.54530   0.52424   32.951
 3525.00    0.53385   0.51688   43.529
 3526.00    0.53283   0.52497  249.632
 3527.00    0.55567   0.54620  249.632
 3528.00    0.58536   0.57199   -1.000
 3529.00    0.60704   0.59244   -1.000
 3530.00    0.62148   0.60258   -1.000
 3531.00    0.61415   0.60348  249.632
 3532.00    0.60471   0.59714  249.632
 3533.00    0.60022   0.58793  249.632
 3534.00    0.60634   0.58314   -1.000
 3535.00    0.62201   0.58710   -1.000
 3536.00    0.62465   0.60028   -1.000
 3537.00    0.62519   0.61704  249.632
 3538.00    0.63214   0.63037  249.632
 3539.00    0.64351   0.63638  249.632
 3540.00    0.64053   0.63433  249.632
 3541.00    0.62920   0.62938  249.632
 3542.00    0.62293   0.62891  249.632
 3543.00    0.62624   0.63470  249.632
 3544.00    0.63007   0.64044   -1.000
 3545.00    0.63058   0.64023  249.632
 3546.00    0.62887   0.63500  249.632
 3547.00    0.62673   0.62940  249.632
 3548.00    0.62377   0.62786  249.632
 3549.00    0.62499   0.63118  249.632
 3550.00    0.62683   0.63582  249.632
 3551.00    0.62387   0.63586   -1.000
 3552.00    0.60945   0.62718   -1.000
 3553.00    0.60177   0.61407   -1.000
 3554.00    0.59718   0.60613   -1.000
 3555.00    0.60235   0.60775  249.632
 3556.00    0.61022   0.61529  249.632
 3557.00    0.60101   0.62293   -1.000
 3558.00    0.59295   0.62633   -1.000
 3559.00    0.59882   0.62631   -1.000
 3560.00    0.60221   0.62765   -1.000
 3561.00    0.60937   0.63153   -1.000
 3562.00    0.61115   0.63144   -1.000
 3563.00    0.61031   0.61859   87.602
 3564.00    0.59270   0.59276   32.557
 3565.00    0.55983   0.56617   33.389
 3566.00    0.53447   0.55191   33.049
 3567.00    0.53037   0.54964   33.246
 3568.00    0.52759   0.54897   34.244
 3569.00    0.52366   0.54243   34.354
 3570.00    0.51588   0.53303   33.121
 3571.00    0.51838   0.52926   43.484
 3572.00    0.53817   0.53386  249.632
 3573.00    0.55242   0.54220  249.632
 3574.00    0.55537   0.55071  249.632
 3575.00    0.56237   0.55905  249.632
 3576.00    0.57476   0.56597  249.632
 3577.00    0.57620   0.56904   89.880
 3578.00    0.56568   0.56504   34.010
 3579.00    0.54989   0.55133   36.491
 3580.00    0.52857   0.53272   37.959
 3581.00    0.51240   0.51786   38.163
 3582.00    0.50117   0.51248   38.559
 3583.00    0.50510   0.51305   39.632
 3584.00    0.51113   0.50856   40.722
 3585.00    0.49677   0.49589   40.465
 3586.00    0.48633   0.48361   38.361
 3587.00    0.48956   0.48287   36.373
 3588.00    0.50260   0.49839   34.131
 3589.00    0.52059   0.52589   43.630
 3590.00    0.54713   0.55485  249.632
 3591.00    0.57112   0.57487  249.632
 3592.00    0.58630   0.58273  249.632
 3593.00    0.59367   0.58542  249.632
 3594.00    0.59734   0.59227  249.632
 3595.00    0.60320   0.60584  249.632
 3596.00    0.61185   0.62056  247.398
 3597.00    0.62577   0.63088  241.670
 3598.00    0.63577   0.63671  239.825
 3599.00    0.64147   0.63876  245.385
 3600.00    0.64343   0.63324  249.632
 3601.00    0.62959   0.61756  249.632
 3602.00    0.61163   0.59842   -1.000
 3603.00    0.59342   0.58470  249.632
 3604.00    0.58605   0.58078  249.632
 3605.00    0.58316   0.58209  249.632
 3606.00    0.58281   0.58056  249.632
 3607.00    0.58470   0.57308  249.632
 3608.00    0.57420   0.56316  249.632
 3609.00    0.55794   0.55803  249.632
 3610.00    0.55819   0.56117  249.632
 3611.00    0.56754   0.57030  249.632
 3612.00    0.58056   0.58091  249.632
 3613.00    0.58418   0.59161  249.632
 3614.00    0.59263   0.60502   -1.000
 3615.00    0.60675   0.61738   -1.000
 3616.00    0.60081   0.61566   -1.000
 3617.00    0.57862   0.59606   83.429
 3618.00    0.55635   0.57112   43.846
 3619.00    0.53549   0.55980   -1.000
 3620.00    0.55665   0.57021   -1.000
 3621.00    0.59136   0.59293  249.632
 3622.00    0.61066   0.61412  249.015
 3623.00    0.62424   0.62893  243.963
 3624.00    0.62747   0.64308   -1.000
 3625.00    0.63521   0.66320   -1.000
 3626.00    0.65412   0.68617   -1.000
 3627.00    0.66946   0.69980   -1.000
 3628.00    0.66533   0.69059   -1.000
 3629.00    0.64795   0.65681   -1.000
 3630.00    0.61100   0.61307  249.632
 3631.00    0.57128   0.58298   -1.000
 3632.00    0.55702   0.57854   -1.000
 3633.00    0.57284   0.59223   -1.000
 3634.00    0.59581   0.60780   -1.000
 3635.00    0.60435   0.61667   -1.000
 3636.00    0.60538   0.62402   -1.000
 3637.00    0.62096   0.63749   -1.000
 3638.00    0.64144   0.65481   -1.000
 3639.00    0.65805   0.66825  231.938
 3640.00    0.66258   0.67200  238.508
 3641.00    0.65259   0.66416   -1.000
 3642.00    0.63747   0.64792   -1.000
 3643.00    0.62256   0.63005  249.632
 3644.00    0.60828   0.61577  249.632
 3645.00    0.59422   0.60621   -1.000
 3646.00    0.59261   0.59964  249.632
 3647.00    0.59190   0.59551  249.632
 3648.00    0.58614   0.59527   -1.000
 3649.00    0.58729   0.60000   -1.000
 3650.00    0.60496   0.61059  243.801
 3651.00    0.62209   0.62686  234.992
 3652.00    0.63576   0.64586  230.091
 3653.00    0.65282   0.66266  227.718
 3654.00    0.66112   0.67610   -1.000
 3655.00    0.66166   0.68763   -1.000
 3656.00    0.66537   0.69777   -1.000
 3657.00    0.67262   0.70495   -1.000
 3658.00    0.68525   0.70779   -1.000
 3659.00    0.68277   0.70721   -1.000
 3660.00    0.67880   0.70296   -1.000
 3661.00    0.67118   0.69399   -1.000
 3662.00    0.66421   0.68281   -1.000
 3663.00    0.66643   0.67519  228.171
 3664.00    0.66555   0.67465  226.300
 3665.00    0.66673   0.67818   -1.000
 3666.00    0.66715   0.67966   -1.000
 3667.00    0.66489   0.67513   -1.000
 3668.00    0.65271   0.66548   -1.000
 3669.00    0.64067   0.65789   -1.000
 3670.00    0.64210   0.65950   -1.000
 3671.00    0.65698   0.66996   -1.000
 3672.00    0.66595   0.68204   -1.000
 3673.00    0.66983   0.68864   -1.000
 3674.00    0.66597   0.68739   -1.000
 3675.00    0.66146   0.67844   -1.000
 3676.00    0.65760   0.66249  240.843
 3677.00    0.64478   0.64352  247.761
 3678.00    0.63628   0.62854  249.632
 3679.00    0.62431   0.62330  248.855
 3680.00    0.62240   0.62753  242.006
 3681.00    0.63220   0.63650  236.613
 3682.00    0.64432   0.64479  237.156
 3683.00    0.64762   0.64786  244.395
 3684.00    0.64263   0.64280  249.632
 3685.00    0.62748   0.63026  249.632
 3686.00    0.61250   0.61867  249.632
 3687.00    0.60468   0.61894   -1.000
 3688.00    0.60943   0.63479   -1.000
 3689.00    0.63128   0.65940   -1.000
 3690.00    0.65647   0.68053   -1.000
 3691.00    0.67879   0.69098  222.275
 3692.00    0.68682   0.69115  227.471
 3693.00    0.67690   0.68635  229.114
 3694.00    0.67539   0.68233  227.687
 3695.00    0.67229   0.68037  225.376
 3696.00    0.66679   0.67945  220.956
 3697.00    0.67680   0.68384  214.198
 3698.00    0.68832   0.69846  209.684
 3699.00    0.70287   0.71856   -1.000
 3700.00    0.71267   0.73094   -1.000
 3701.00    0.70834   0.72140  228.797
 3702.00    0.68472   0.68727  249.632
 3703.00    0.64482   0.64120  249.632
 3704.00    0.61165   0.60235  249.632
 3705.00    0.58963   0.58355  249.632
 3706.00    0.58748   0.58519  249.632
 3707.00    0.60446   0.59764  249.632
 3708.00    0.61679   0.61036  249.632
 3709.00    0.62209   0.61710  243.154
 3710.00    0.62638   0.61963  231.061
 3711.00    0.63409   0.62609  218.615
 3712.00    0.65082   0.64381  209.967
 3713.00    0.68623   0.67231  206.444
 3714.00    0.72429   0.70207   -1.000
 3715.00    0.74009   0.72213   -1.000
 3716.00    0.73721   0.72659   -1.000
 3717.00    0.72091   0.71239   -1.000
 3718.00    0.68089   0.67577  249.632
 3719.00    0.62183   0.61908   78.089
 3720.00    0.56451   0.56061   46.867
 3721.00    0.53031   0.52809  249.632
 3722.00    0.53890   0.53545  249.632
 3723.00    0.58167   0.57674  236.066
 3724.00    0.64199   0.63157  230.506
 3725.00    0.68255   0.67271  234.472
 3726.00    0.69435   0.68815  240.247
 3727.00    0.68817   0.68969  240.003
 3728.00    0.67903   0.69175  238.230
 3729.00    0.68496   0.69469  243.740
 3730.00    0.68533   0.68662  249.632
 3731.00    0.65969   0.65388   74.713
 3732.00    0.61650   0.59709   33.007
 3733.00    0.55328   0.53571   36.063
 3734.00    0.50154   0.49136   36.237
 3735.00    0.48654   0.47963   33.795
 3736.00    0.50700   0.50411   46.165
 3737.00    0.55290   0.55446  249.632
 3738.00    0.60678   0.61450  246.797
 3739.00    0.65316   0.66939  237.234
 3740.00    0.68627   0.70375  239.808
 3741.00    0.69580   0.71035  249.632
 3742.00    0.69003   0.69420  249.632
 3743.00    0.67080   0.66786  249.632
 3744.00    0.64425   0.64065  249.632
 3745.00    0.61650   0.61556   76.067
 3746.00    0.58683   0.58933   32.919
 3747.00    0.56109   0.55722   34.428
 3748.00    0.52793   0.52351   50.785
 3749.00    0.50081   0.50300  249.632
 3750.00    0.51288   0.51202  249.632
 3751.00    0.56961   0.55307   -1.000
 3752.00    0.63867   0.61274   -1.000
 3753.00    0.69029   0.67332   -1.000
 3754.00    0.73003   0.71868   -1.000
 3755.00    0.75379   0.73732   -1.000
 3756.00    0.74170   0.72569   -1.000
 3757.00    0.70513   0.69247   -1.000
 3758.00    0.66372   0.65911  249.632
 3759.00    0.64216   0.64463  249.632
 3760.00    0.66368   0.65063   -1.000
 3761.00    0.68983   0.66620   -1.000
 3762.00    0.69986   0.67971   -1.000
 3763.00    0.69989   0.68636   -1.000
 3764.00    0.70258   0.68589   -1.000
 3765.00    0.70642   0.67811   -1.000
 3766.00    0.68734   0.66286   -1.000
 3767.00    0.66377   0.64113   -1.000
 3768.00    0.65267   0.61477   -1.000
 3769.00    0.63600   0.58977   -1.000
 3770.00    0.61786   0.57832   -1.000
 3771.00    0.62748   0.59209   -1.000
 3772.00    0.66425   0.62811   -1.000
 3773.00    0.70192   0.66890   -1.000
 3774.00    0.72283   0.69818   -1.000
 3775.00    0.72644   0.71437   -1.000
 3776.00    0.73590   0.72629  217.584
 3777.00    0.75931   0.74236   -1.000
 3778.00    0.78049   0.76406   -1.000
 3779.00    0.79421   0.78658  202.963
 3780.00    0.80561   0.80441  201.692
 3781.00    0.81898   0.81346  200.973
 3782.00    0.82592   0.81421   -1.000
 3783.00    0.82511   0.80919   -1.000
 3784.00    0.81921   0.79732   -1.000
 3785.00    0.79636   0.77632   -1.000
 3786.00    0.75795   0.74975   -1.000
 3787.00    0.73346   0.72525   -1.000
 3788.00    0.72541   0.71071   -1.000
 3789.00    0.72303   0.70860   -1.000
 3790.00    0.73066   0.71315   -1.000
 3791.00    0.73027   0.71518   -1.000
 3792.00    0.71520   0.70658   -1.000
 3793.00    0.69729   0.68399   -1.000
 3794.00    0.66742   0.65056   -1.000
 3795.00    0.63384   0.61115   -1.000
 3796.00    0.60282   0.57031   -1.000
 3797.00    0.56427   0.53637   -1.000
 3798.00    0.54236   0.52626   -1.000
 3799.00    0.56859   0.55374   -1.000
 3800.00    0.62435   0.61168   -1.000
 3801.00    0.68477   0.67569  227.855
 3802.00    0.73392   0.72618  224.325
 3803.00    0.76204   0.75559  224.914
 3804.00    0.77475   0.76626   -1.000
 3805.00    0.77513   0.76330   -1.000
 3806.00    0.76223   0.75621  237.967
 3807.00    0.75507   0.75735  230.357
 3808.00    0.76921   0.77127  223.819
 3809.00    0.79340   0.79140  224.064
 3810.00    0.80780   0.80420  231.511
 3811.00    0.80061   0.79709  244.930
 3812.00    0.77655   0.76896  249.632
 3813.00    0.74474   0.73250   -1.000
 3814.00    0.71039   0.70411  249.632
 3815.00    0.69744   0.69576  249.632
 3816.00    0.71013   0.70635  249.632
 3817.00    0.72799   0.72047  249.632
 3818.00    0.73088   0.72022   -1.000
 3819.00    0.71303   0.70256   -1.000
 3820.00    0.68895   0.68411  249.632
 3821.00    0.68752   0.68112  249.632
 3822.00    0.70200   0.68936   -1.000
 3823.00    0.69949   0.68826   74.021
 3824.00    0.67271   0.66894   33.560
 3825.00    0.64333   0.64447   33.875
 3826.00    0.62672   0.62802   33.467
 3827.00    0.62985   0.62100   32.917
 3828.00    0.63662   0.61870   32.750
 3829.00    0.64112   0.61535   33.595
 3830.00    0.63728   0.60474   35.596
 3831.00    0.61030   0.58126   37.795
 3832.00    0.57132   0.54472   38.159
 3833.00    0.53510   0.50351   37.053
 3834.00    0.50858   0.47279   35.816
 3835.00    0.50469   0.46334   35.652
 3836.00    0.51975   0.47435   36.481
 3837.00    0.54083   0.49748   36.749
 3838.00    0.55698   0.52470   35.470
 3839.00    0.57104   0.55400   52.395
 3840.00    0.60231   0.58872   -1.000
 3841.00    0.64937   0.63085   -1.000
 3842.00    0.70038   0.67514   -1.000
 3843.00    0.73395   0.71352   -1.000
 3844.00    0.74437   0.73950  249.632
 3845.00    0.75252   0.75439  249.632
 3846.00    0.76138   0.76456  249.632
 3847.00    0.76858   0.77099  249.632
 3848.00    0.76717   0.76970  249.632
 3849.00    0.75291   0.76245  249.632
 3850.00    0.74300   0.75915   -1.000
 3851.00    0.75039   0.76729   -1.000
 3852.00    0.76620   0.78153   -1.000
 3853.00    0.77435   0.78952   -1.000
 3854.00    0.77063   0.78461   -1.000
 3855.00    0.75688   0.77042   -1.000
 3856.00    0.74450   0.75362   68.460
 3857.00    0.73614   0.73673   32.294
 3858.00    0.71348   0.72097   33.215
 3859.00    0.68753   0.71358   50.594
 3860.00    0.68900   0.72267   -1.000
 3861.00    0.72904   0.74681   -1.000
 3862.00    0.77972   0.77322  249.632
 3863.00    0.80259   0.78838   -1.000
 3864.00    0.79553   0.79002  249.632
 3865.00    0.78983   0.78591  249.632
 3866.00    0.78457   0.78423  249.632
 3867.00    0.77921   0.78669  249.632
 3868.00    0.77620   0.78800  249.632
 3869.00    0.76276   0.78084   69.113
 3870.00    0.73823   0.76305   49.888
 3871.00    0.71721   0.74074   -1.000
 3872.00    0.70681   0.72503   -1.000
 3873.00    0.71301   0.72642  249.632
 3874.00    0.74337   0.74285  248.672
 3875.00    0.76976   0.75726   -1.000
 3876.00    0.75959   0.75335  249.632
 3877.00    0.72816   0.73347  249.632
 3878.00    0.70749   0.71541  249.632
 3879.00    0.70507   0.71151  249.632
 3880.00    0.71167   0.71695  249.632
 3881.00    0.70549   0.71918  249.632
 3882.00    0.69261   0.71378   -1.000
 3883.00    0.69619   0.70366  249.632
 3884.00    0.70048   0.68492   -1.000
 3885.00    0.67763   0.65034   -1.000
 3886.00    0.63400   0.60317   -1.000
 3887.00    0.59207   0.55752   -1.000
 3888.00    0.57079   0.53193   -1.000
 3889.00    0.57609   0.53894   -1.000
 3890.00    0.61687   0.57797   -1.000
 3891.00    0.67461   0.63335   -1.000
 3892.00    0.71895   0.68156   -1.000
 3893.00    0.74197   0.70875   -1.000
 3894.00    0.74780   0.72076   -1.000
 3895.00    0.75322   0.73050   -1.000
 3896.00    0.77593   0.74354   -1.000
 3897.00    0.78725   0.75623   -1.000
 3898.00    0.78398   0.76287   -1.000
 3899.00    0.78624   0.76512   -1.000
 3900.00    0.79625   0.76991   -1.000
 3901.00    0.80400   0.77708   -1.000
 3902.00    0.80443   0.77940   -1.000
 3903.00    0.79644   0.77321   -1.000
 3904.00    0.78093   0.76237   -1.000
 3905.00    0.76518   0.75622  224.012
 3906.00    0.76175   0.76382  209.795
 3907.00    0.77891   0.78751  199.542
 3908.00    0.81240   0.81847  196.189
 3909.00    0.84236   0.84406  194.418
 3910.00    0.85988   0.85856  192.859
 3911.00    0.86471   0.86351  193.186
 3912.00    0.85983   0.86059  196.272
 3913.00    0.85127   0.85097  200.625
 3914.00    0.83821   0.83893  204.438
 3915.00    0.83177   0.83033  207.055
 3916.00    0.82804   0.82524  211.231
 3917.00    0.81676   0.81877  218.835
 3918.00    0.80124   0.80739  228.951
 3919.00    0.78305   0.79212  237.286
 3920.00    0.76626   0.77856  239.017
 3921.00    0.76146   0.77195  235.752
 3922.00    0.76925   0.77336  234.024
 3923.00    0.77476   0.77791  240.145
 3924.00    0.76772   0.77709  249.632
 3925.00    0.74420   0.76344   -1.000
 3926.00    0.70858   0.73351   72.154
 3927.00    0.66135   0.68971   37.580
 3928.00    0.60610   0.63599   44.032
 3929.00    0.54486   0.57480   51.750
 3930.00    0.47182   0.50422   60.983
 3931.00    0.39439   0.42471   69.402
 3932.00    0.32673   0.34970   71.660
 3933.00    0.29235   0.30310   65.569
 3934.00    0.30184   0.30573   55.568
 3935.00    0.34598   0.35752   45.771
 3936.00    0.41613   0.43763   37.998
 3937.00    0.49349   0.52336   55.450
 3938.00    0.56679   0.60178   -1.000
 3939.00    0.62827   0.66406   -1.000
 3940.00    0.66732   0.70703   -1.000
 3941.00    0.68754   0.73109   -1.000
 3942.00    0.69561   0.74027   -1.000
 3943.00    0.69996   0.74440   -1.000
 3944.00    0.71331   0.75409   -1.000
 3945.00    0.74456   0.77197   -1.000
 3946.00    0.78053   0.79099  216.403
 3947.00    0.79380   0.80252  211.967
 3948.00    0.79255   0.80642  204.458
 3949.00    0.79930   0.80875  201.124
 3950.00    0.81471   0.81139  203.052
 3951.00    0.82125   0.81275  203.148
 3952.00    0.82008   0.81581  198.781
 3953.00    0.82534   0.82327  196.911
 3954.00    0.83404   0.82877  201.382
 3955.00    0.82883   0.82518  207.070
 3956.00    0.80947   0.81494  207.227
 3957.00    0.79863   0.80692  207.177
 3958.00    0.80446   0.80381  219.434
 3959.00    0.79633   0.79407  245.384
 3960.00    0.75699   0.76627  249.632
 3961.00    0.70492   0.72551   -1.000
 3962.00    0.66101   0.68357   66.859
 3963.00    0.62346   0.64439   35.451
 3964.00    0.58010   0.59811   42.472
 3965.00    0.51459   0.53179   52.270
 3966.00    0.42707   0.44666   61.351
 3967.00    0.34349   0.36099   62.725
 3968.00    0.29118   0.30426   54.948
 3969.00    0.29157   0.29759   45.175
 3970.00    0.33870   0.34120   37.438
 3971.00    0.41487   0.41744   55.487
 3972.00    0.50156   0.50312  249.632
 3973.00    0.58085   0.58106  247.290
 3974.00    0.64886   0.64693  225.199
 3975.00    0.70514   0.70123  209.614
 3976.00    0.74487   0.74615  197.937
 3977.00    0.78386   0.78467  187.427
 3978.00    0.82016   0.81800  180.881
 3979.00    0.84924   0.84313  180.369
 3980.00    0.87238   0.85486   -1.000
 3981.00    0.87397   0.85511   -1.000
 3982.00    0.86311   0.85310  181.507
 3983.00    0.86381   0.85754  177.771
 3984.00    0.88359   0.87011  174.557
 3985.00    0.90246   0.88513   -1.000
 3986.00    0.91288   0.89813  168.943
 3987.00    0.92288   0.90920  168.371
 3988.00    0.93087   0.91770  168.255
 3989.00    0.93478   0.92252  165.838
 3990.00    0.93702   0.92702  161.848
 3991.00    0.94648   0.93507  160.586
 3992.00    0.96204   0.94514  163.514
 3993.00    0.96254   0.95107  167.429
 3994.00    0.95240   0.94706  170.993
 3995.00    0.93581   0.93273  173.421
 3996.00    0.91924   0.91553  172.346
 3997.00    0.90846   0.90710  166.445
 3998.00    0.91613   0.91377  159.651
 3999.00    0.94461   0.93176  155.601
 4000.00    0.96796   0.95108  153.281
 4001.00    0.98346   0.96372  153.483
 4002.00    0.99576   0.96515   -1.000
 4003.00    0.98823   0.95301   -1.000
 4004.00    0.95458   0.93039   -1.000
 4005.00    0.91888   0.91131  168.210
 4006.00    0.91828   0.91195  159.771
 4007.00    0.94800   0.93242  155.468
 4008.00    0.97024   0.95806  153.659
 4009.00    0.98350   0.97578  152.537
 4010.00    0.99747   0.98359  152.796
 4011.00    0.99557   0.98519  153.802
 4012.00    0.99047   0.98465  153.702
 4013.00    0.99539   0.98580  152.023
 4014.00    0.99813   0.98993  151.458
 4015.00    1.00059   0.99464  153.100
 4016.00    1.00492   0.99758  153.775
 4017.00    0.99936   1.00018  152.204
 4018.00    1.00155   1.00536  151.086
 4019.00    1.00978   1.01175  152.369
 4020.00    1.00928   1.01469  154.020
 4021.00    1.00429   1.01122  154.949
 4022.00    1.00000   1.00289  156.062
 4023.00    0.99204   0.99318  154.853
 4024.00    0.98506   0.98709  150.099
 4025.00    0.99684   0.99116  145.805
 4026.00    1.02023   1.00591  144.899
 4027.00    1.03580   1.01998  148.464
 4028.00    1.03522   1.01849  156.588
 4029.00    1.00578   0.99735  165.537
 4030.00    0.96358   0.96609  170.096
 4031.00    0.93639   0.93987  170.047
 4032.00    0.92926   0.92841  166.165
 4033.00    0.94011   0.93310  159.293
 4034.00    0.96117   0.95167  151.360
 4035.00    0.98906   0.98053  144.922
 4036.00    1.02181   1.01329  142.021
 4037.00    1.04880   1.04013  143.245
 4038.00    1.05816   1.05140  146.550
 4039.00    1.05098   1.04697  149.163
 4040.00    1.03426   1.03612  150.324
 4041.00    1.02008   1.02617  154.099
 4042.00    1.01688   1.01241  165.219
 4043.00    0.99719   0.98400  180.081
 4044.00    0.94212   0.94359  183.548
 4045.00    0.89277   0.91380   -1.000
 4046.00    0.89514   0.91682   -1.000
 4047.00    0.94850   0.95094  149.773
 4048.00    1.00467   0.99277  146.796
 4049.00    1.02727   1.02175  146.439
 4050.00    1.03420   1.03303  148.943
 4051.00    1.03199   1.03139  153.001
 4052.00    1.02039   1.02107  156.208
 4053.00    1.00627   1.00713  158.040
 4054.00    0.99400   0.99581  159.187
 4055.00    0.99060   0.98909  160.550
 4056.00    0.99304   0.98551  160.505
 4057.00    0.98977   0.98607  156.592
 4058.00    0.99079   0.99483  152.087
 4059.00    1.00517   1.00892  151.822
 4060.00    1.02022   1.01408  158.569
 4061.00    1.01667   0.99805   -1.000
 4062.00    0.97648   0.96570  174.880
 4063.00    0.93080   0.93661  168.947
 4064.00    0.92124   0.92564  162.572
 4065.00    0.94727   0.93240  158.461
 4066.00    0.97164   0.94801   -1.000
 4067.00    0.98242   0.96427  150.226
 4068.00    1.00058   0.97608   -1.000
 4069.00    1.01529   0.97722   -1.000
 4070.00    1.00322   0.96411   -1.000
 4071.00    0.97563   0.94685   -1.000
 4072.00    0.96218   0.94194   -1.000
 4073.00    0.97827   0.95030   -1.000
 4074.00    0.99205   0.95494   -1.000
 4075.00    0.97155   0.94110   -1.000
 4076.00    0.92944   0.91411  178.375
 4077.00    0.89734   0.89458  169.033
 4078.00    0.90489   0.89954  157.267
 4079.00    0.94534   0.92943  149.441
 4080.00    0.98616   0.96657   -1.000
 4081.00    1.00931   0.99064   -1.000
 4082.00    1.00987   0.99355  156.247
 4083.00    0.99448   0.98197  156.236
 4084.00    0.97705   0.97013  152.328
 4085.00    0.97802   0.96983  146.752
 4086.00    1.00168   0.98364  141.547
 4087.00    1.02831   1.00432   -1.000
 4088.00    1.04323   1.02063   -1.000
 4089.00    1.04323   1.02499   -1.000
 4090.00    1.03335   1.01863  146.428
 4091.00    1.02096   1.00890  147.304
 4092.00    1.00985   0.99967  148.687
 4093.00    1.00609   0.98772   -1.000
 4094.00    0.99593   0.96930   -1.000
 4095.00    0.96679   0.94402   -1.000
 4096.00    0.93940   0.91577   -1.000
 4097.00    0.91671   0.88624   -1.000
 4098.00    0.88903   0.84913   -1.000
 4099.00    0.84514   0.79751   -1.000
 4100.00    0.77720   0.73764   -1.000
 4101.00    0.71650   0.69434   -1.000
 4102.00    0.70958   0.69367  176.186
 4103.00    0.76104   0.73967   -1.000
 4104.00    0.83575   0.80852   -1.000
 4105.00    0.89743   0.87086   -1.000
 4106.00    0.93365   0.91194   -1.000
 4107.00    0.95100   0.93328   -1.000
 4108.00    0.95250   0.94192  160.577
 4109.00    0.94612   0.94507  160.718
 4110.00    0.94746   0.94961  157.794
 4111.00    0.96010   0.95926  154.626
 4112.00    0.97793   0.97389  152.123
 4113.00    0.99443   0.99106  150.222
 4114.00    1.00582   1.00756  149.888
 4115.00    1.01649   1.01863  151.914
 4116.00    1.02250   1.01880  156.177
 4117.00    1.01364   1.00767  159.773
 4118.00    0.99647   0.99215  159.595
 4119.00    0.98314   0.98174  157.701
 4120.00    0.98018   0.98109  156.988
 4121.00    0.98485   0.98620  156.234
 4122.00    0.99212   0.99194  153.948
 4123.00    1.00457   0.99834  152.319
 4124.00    1.01751   1.00617  153.154
 4125.00    1.02593   1.01168  155.914
 4126.00    1.02123   1.00986  158.258
 4127.00    1.00066   1.00188  159.266
 4128.00    0.98696   0.99416  160.678
 4129.00    0.98758   0.98906  164.286
 4130.00    0.98430   0.98130  169.558
 4131.00    0.97217   0.96814  172.409
 4132.00    0.95987   0.95719  169.566
 4133.00    0.95676   0.95970  162.274
 4134.00    0.97091   0.97787  155.526
 4135.00    0.99528   1.00344  151.836
 4136.00    1.02014   1.02742  149.466
 4137.00    1.03885   1.04628  148.031
 4138.00    1.04855   1.05971  149.335
 4139.00    1.05775   1.06461  154.925
 4140.00    1.05868   1.05429  165.712
 4141.00    1.02505   1.02667  177.243
 4142.00    0.97296   0.99138   -1.000
 4143.00    0.94248   0.96736   -1.000
 4144.00    0.94530   0.96874   -1.000
 4145.00    0.97697   0.99104  157.187
 4146.00    1.01088   1.01549  158.017
 4147.00    1.02504   1.02722  161.868
 4148.00    1.02111   1.02663  165.141
 4149.00    1.01197   1.02266  165.445
 4150.00    1.00982   1.02109  164.309
 4151.00    1.00848   1.02065  164.662
 4152.00    1.04181   1.01702   -1.000
 4153.00    1.11362   1.00936   -1.000
 4154.00    1.05605   1.00183   -1.000
 4155.00    0.90240   1.00019   -1.000
 4156.00    0.90353   1.00709   -1.000
 4157.00    1.00146   1.02038  158.150
 4158.00    1.03348   1.03539  158.513
 4159.00    1.03260   1.04717  155.401
 4160.00    1.03901   1.05403  152.160
 4161.00    1.04457   1.05830  151.894
 4162.00    1.05118   1.06281  153.695
 4163.00    1.05231   1.06744   -1.000
 4164.00    1.04600   1.06924   -1.000
 4165.00    1.03910   1.06509   -1.000
 4166.00    1.02718   1.05545   -1.000
 4167.00    1.01922   1.04684   -1.000
 4168.00    1.02280   1.04349   -1.000
 4169.00    1.02585   1.03980  165.834
 4170.00    1.01314   1.02498  176.066
 4171.00    0.97632   0.99687   -1.000
 4172.00    0.94058   0.96932   -1.000
 4173.00    0.92919   0.95902   -1.000
 4174.00    0.94384   0.96907   -1.000
 4175.00    0.96760   0.98725   -1.000
 4176.00    0.97660   0.99894   -1.000
 4177.00    0.97254   1.00288   -1.000
 4178.00    0.97366   1.00731   -1.000
 4179.00    0.98930   1.01621   -1.000
 4180.00    1.00719   1.02430   -1.000
 4181.00    1.00650   1.02555   -1.000
 4182.00    0.99865   1.02465   -1.000
 4183.00    1.00498   1.02915   -1.000
 4184.00    1.01412   1.03568   -1.000
 4185.00    1.01681   1.03520   -1.000
 4186.00    1.00607   1.02536   -1.000
 4187.00    0.99100   1.01491   -1.000
 4188.00    0.99136   1.01382   -1.000
 4189.00    1.00128   1.02071   -1.000
 4190.00    1.00343   1.02849   -1.000
 4191.00    1.00682   1.03549   -1.000
 4192.00    1.02658   1.04317   -1.000
 4193.00    1.04130   1.04869  162.047
 4194.00    1.03319   1.04440  169.005
 4195.00    1.01451   1.02670  173.125
 4196.00    0.99426   1.00219  174.677
 4197.00    0.97332   0.98060  173.749
 4198.00    0.95476   0.96754  171.304
 4199.00    0.94990   0.96391  169.774
 4200.00    0.95868   0.96697  169.016
 4201.00    0.96769   0.97216  167.039
 4202.00    0.97438   0.97886  165.155
 4203.00    0.98097   0.99057  162.880
 4204.00    0.98479   1.00684   -1.000
 4205.00    0.99190   1.02341   -1.000
 4206.00    1.00442   1.03802   -1.000
 4207.00    1.01680   1.04883   -1.000
 4208.00    1.02538   1.05332   -1.000
 4209.00    1.02847   1.05320   -1.000
 4210.00    1.02797   1.05415   -1.000
 4211.00    1.03179   1.05880   -1.000
 4212.00    1.03742   1.06114   -1.000
 4213.00    1.03236   1.05130   -1.000
 4214.00    1.01190   1.03024   -1.000
 4215.00    0.98480   1.01204   -1.000
 4216.00    0.97935   1.01078   -1.000
 4217.00    1.00161   1.02867   -1.000
 4218.00    1.03164   1.05361   -1.000
 4219.00    1.05373   1.07260   -1.000
 4220.00    1.06346   1.08055  146.382
 4221.00    1.05862   1.07548   -1.000
 4222.00    1.03825   1.05417   -1.000
 4223.00    1.00397   1.01422  188.249
 4224.00    0.95555   0.95983  208.476
 4225.00    0.89282   0.90747   -1.000
 4226.00    0.83967   0.88107   -1.000
 4227.00    0.84965   0.89849   -1.000
 4228.00    0.91938   0.95391   -1.000
 4229.00    0.99521   1.01691   -1.000
 4230.00    1.04236   1.05560  149.294
 4231.00    1.04916   1.06185  153.090
 4232.00    1.02749   1.04827   -1.000
 4233.00    1.00528   1.02975   -1.000
 4234.00    0.99571   1.01590   -1.000
 4235.00    0.98989   1.01006   -1.000
 4236.00    0.98673   1.01007   -1.000
 4237.00    0.99031   1.01471   -1.000
 4238.00    0.99392   1.02440   -1.000
 4239.00    0.99715   1.03767   -1.000
 4240.00    1.01586   1.05241   -1.000
 4241.00    1.03630   1.06617   -1.000
 4242.00    1.03831   1.07699   -1.000
 4243.00    1.04703   1.08416   -1.000
 4244.00    1.05887   1.08518   -1.000
 4245.00    1.04836   1.07520   -1.000
 4246.00    1.01865   1.05342   -1.000
 4247.00    0.99109   1.02839   -1.000
 4248.00    0.97782   1.01018   -1.000
 4249.00    0.97595   1.00287   -1.000
 4250.00    0.97667   1.00685   -1.000
 4251.00    0.98768   1.01931   -1.000
 4252.00    1.00878   1.03090   -1.000
 4253.00    1.01395   1.03397   -1.000
 4254.00    1.00583   1.03296   -1.000
 4255.00    1.00746   1.03792   -1.000
 4256.00    1.02422   1.04840   -1.000
 4257.00    1.03552   1.05068  160.911
 4258.00    1.02148   1.03570  167.283
 4259.00    0.98746   1.01308   -1.000
 4260.00    0.96968   1.00249   -1.000
 4261.00    0.98373   1.01550   -1.000
 4262.00    1.01512   1.04641   -1.000
 4263.00    1.04660   1.07862   -1.000
 4264.00    1.06692   1.09812   -1.000
 4265.00    1.07284   1.10180   -1.000
 4266.00    1.06765   1.09435   -1.000
 4267.00    1.05302   1.07890   -1.000
 4268.00    1.03640   1.05509   -1.000
 4269.00    1.01856   1.02331  175.724
 4270.00    0.98303   0.98838  181.422
 4271.00    0.94189   0.96069   -1.000
 4272.00    0.92749   0.94974   -1.000
 4273.00    0.94080   0.95691   -1.000
 4274.00    0.95712   0.97688   -1.000
 4275.00    0.98162   1.00537   -1.000
 4276.00    1.01681   1.03859   -1.000
 4277.00    1.04561   1.06581   -1.000
 4278.00    1.04781   1.07518   -1.000
 4279.00    1.02589   1.06651   -1.000
 4280.00    1.00678   1.05078   -1.000
 4281.00    0.99922   1.04059   -1.000
 4282.00    1.00148   1.03904   -1.000
 4283.00    1.00695   1.03985   -1.000
 4284.00    1.00620   1.03704   -1.000
 4285.00    0.99424   1.02809   -1.000
 4286.00    0.98230   1.01280   -1.000
 4287.00    0.96918   0.99157   -1.000
 4288.00    0.94409   0.96597   -1.000
 4289.00    0.91103   0.94415   -1.000
 4290.00    0.89598   0.93961   -1.000
 4291.00    0.91995   0.95627   -1.000
 4292.00    0.96370   0.98036   -1.000
 4293.00    0.98819   0.99357  164.665
 4294.00    0.98542   0.99158  168.026
 4295.00    0.97542   0.98174  174.596
 4296.00    0.96619   0.96589  187.209
 4297.00    0.94164   0.93957  202.397
 4298.00    0.89747   0.90415  210.131
 4299.00    0.85228   0.86961   -1.000
 4300.00    0.83358   0.84780   -1.000
 4301.00    0.84252   0.84314  199.597
 4302.00    0.85395   0.85111  196.926
 4303.00    0.86713   0.86465  196.454
 4304.00    0.87814   0.87624  200.871
 4305.00    0.87861   0.87721  210.288
 4306.00    0.86625   0.86513  218.215
 4307.00    0.84330   0.84834  217.680
 4308.00    0.82516   0.84011   -1.000
 4309.00    0.83210   0.84866   -1.000
 4310.00    0.86342   0.87073  184.635
 4311.00    0.89553   0.89641  176.516
 4312.00    0.91578   0.91984  167.553
 4313.00    0.92813   0.94576   -1.000
 4314.00    0.95233   0.98346   -1.000
 4315.00    0.99905   1.03418   -1.000
 4316.00    1.05165   1.08626   -1.000
 4317.00    1.08592   1.12196   -1.000
 4318.00    1.09796   1.13322   -1.000
 4319.00    1.09152   1.12527   -1.000
 4320.00    1.07364   1.10699   -1.000
 4321.00    1.06009   1.08184   -1.000
 4322.00    1.03828   1.04781  170.125
 4323.00    1.00134   1.00508  180.586
 4324.00    0.95629   0.96512  176.048
 4325.00    0.92358   0.94976   -1.000
 4326.00    0.93656   0.97224   -1.000
 4327.00    0.98865   1.01995   -1.000
 4328.00    1.04051   1.06440   -1.000
 4329.00    1.06332   1.08660   -1.000
 4330.00    1.06236   1.08982   -1.000
 4331.00    1.05874   1.08839   -1.000
 4332.00    1.05590   1.08964   -1.000
 4333.00    1.05391   1.08919   -1.000
 4334.00    1.05288   1.07801   -1.000
 4335.00    1.04262   1.04765  154.872
 4336.00    1.00396   0.99293  169.743
 4337.00    0.93575   0.91714  184.496
 4338.00    0.86171   0.83637   -1.000
 4339.00    0.79218   0.77571  185.858
 4340.00    0.74927   0.75658  168.794
 4341.00    0.77462   0.78715  155.917
 4342.00    0.85297   0.85412  149.333
 4343.00    0.92676   0.92801  145.123
 4344.00    0.97554   0.98621  142.095
 4345.00    1.00882   1.02683  140.284
 4346.00    1.03008   1.05719   -1.000
 4347.00    1.04326   1.08062   -1.000
 4348.00    1.05990   1.09232   -1.000
 4349.00    1.06878   1.08365  152.301
 4350.00    1.04584   1.05547  158.184
 4351.00    1.00648   1.02551   -1.000
 4352.00    0.99505   1.01565   -1.000
 4353.00    1.02138   1.03307  142.379
 4354.00    1.05387   1.06512  138.925
 4355.00    1.07789   1.09369  137.880
 4356.00    1.09606   1.10934  139.830
 4357.00    1.10055   1.11208  142.155
 4358.00    1.08493   1.10776   -1.000
 4359.00    1.07087   1.10605   -1.000
 4360.00    1.08382   1.11366   -1.000
 4361.00    1.10451   1.12822   -1.000
 4362.00    1.11457   1.14300   -1.000
 4363.00    1.11977   1.15358   -1.000
 4364.00    1.12951   1.15776   -1.000
 4365.00    1.13189   1.15247   -1.000
 4366.00    1.11529   1.13653   -1.000
 4367.00    1.09047   1.11637   -1.000
 4368.00    1.07523   1.10189   -1.000
 4369.00    1.07779   1.09600   -1.000
 4370.00    1.08773   1.09389  141.171
 4371.00    1.09222   1.08837  145.323
 4372.00    1.08480   1.07367  151.318
 4373.00    1.06115   1.05061  153.647
 4374.00    1.02799   1.03044  149.497
 4375.00    1.01732   1.02921  142.304
 4376.00    1.03984   1.05151  138.024
 4377.00    1.07731   1.08379  137.736
 4378.00    1.10403   1.10632  139.665
 4379.00    1.11038   1.10883  144.755
 4380.00    1.10329   1.08995  157.320
 4381.00    1.07903   1.04974   -1.000
 4382.00    1.02059   0.99555   -1.000
 4383.00    0.95167   0.95012  173.258
 4384.00    0.92673   0.93796  156.616
 4385.00    0.96365   0.96306  147.956
 4386.00    1.02505   1.00495  146.452
 4387.00    1.05932   1.03815  147.613
 4388.00    1.06342   1.05351  148.546
 4389.00    1.06011   1.05742  146.855
 4390.00    1.06262   1.05955  143.618
 4391.00    1.07390   1.06471  143.021
 4392.00    1.09263   1.06959  145.509
 4393.00    1.09405   1.06779  146.419
 4394.00    1.07222   1.06208  141.789
 4395.00    1.06204   1.06505  136.650
 4396.00    1.08402   1.08042  136.456
 4397.00    1.10617   1.09488  140.516
 4398.00    1.10534   1.09439  145.181
 4399.00    1.08630   1.08103  145.627
 4400.00    1.06276   1.06934  143.165
 4401.00    1.06383   1.06680  145.349
 4402.00    1.08597   1.06542  152.852
 4403.00    1.07704   1.05547  157.036
 4404.00    1.03955   1.04079  153.867
 4405.00    1.02657   1.03493  150.412
 4406.00    1.04183   1.04260  148.848
 4407.00    1.05332   1.05626  144.697
 4408.00    1.05163   1.07142   -1.000
 4409.00    1.06300   1.09203   -1.000
 4410.00    1.09821   1.11794   -1.000
 4411.00    1.12966   1.13805  132.602
 4412.00    1.14467   1.13978  138.924
 4413.00    1.12945   1.12030  145.185
 4414.00    1.08844   1.08883  146.439
 4415.00    1.05460   1.06306  142.654
 4416.00    1.05006   1.05900  136.940
 4417.00    1.06438   1.07832  132.405
 4418.00    1.08706   1.10938   -1.000
 4419.00    1.11167   1.13580   -1.000
 4420.00    1.12147   1.14579   -1.000
 4421.00    1.11104   1.13965   -1.000
 4422.00    1.09669   1.12918   -1.000
 4423.00    1.09215   1.12452   -1.000
 4424.00    1.09931   1.12498   -1.000
 4425.00    1.10014   1.12542   -1.000
 4426.00    1.09179   1.12508   -1.000
 4427.00    1.08362   1.12672   -1.000
 4428.00    1.08606   1.13028   -1.000
 4429.00    1.09198   1.13308   -1.000
 4430.00    1.09873   1.13426   -1.000
 4431.00    1.10694   1.13407   -1.000
 4432.00    1.10695   1.12919   -1.000
 4433.00    1.08734   1.11568   -1.000
 4434.00    1.05561   1.09904   -1.000
 4435.00    1.04015   1.09429   -1.000
 4436.00    1.06637   1.11225   -1.000
 4437.00    1.11760   1.14572   -1.000
 4438.00    1.15519   1.17416  130.227
 4439.00    1.16110   1.18057   -1.000
 4440.00    1.14479   1.16173   -1.000
 4441.00    1.11465   1.12958  144.371
 4442.00    1.07892   1.10331   -1.000
 4443.00    1.06042   1.09850   -1.000
 4444.00    1.07349   1.11732   -1.000
 4445.00    1.10865   1.14706   -1.000
 4446.00    1.13307   1.17047   -1.000
 4447.00    1.13427   1.18019   -1.000
 4448.00    1.13464   1.18074   -1.000
 4449.00    1.13566   1.17782   -1.000
 4450.00    1.12879   1.17394   -1.000
 4451.00    1.12770   1.16918   -1.000
 4452.00    1.13132   1.15952   -1.000
 4453.00    1.11628   1.13998   -1.000
 4454.00    1.08318   1.11479   -1.000
 4455.00    1.06359   1.09771   -1.000
 4456.00    1.07094   1.09669   -1.000
 4457.00    1.08419   1.10517   -1.000
 4458.00    1.09087   1.11165   -1.000
 4459.00    1.08973   1.11197   -1.000
 4460.00    1.08219   1.11009   -1.000
 4461.00    1.07440   1.11244   -1.000
 4462.00    1.08718   1.12273   -1.000
 4463.00    1.11389   1.13799   -1.000
 4464.00    1.13479   1.15058  134.443
 4465.00    1.13763   1.15519   -1.000
 4466.00    1.12603   1.15097   -1.000
 4467.00    1.11386   1.14040   -1.000
 4468.00    1.10054   1.12992   -1.000
 4469.00    1.09674   1.12817   -1.000
 4470.00    1.11316   1.14028   -1.000
 4471.00    1.13797   1.16326   -1.000
 4472.00    1.15922   1.18813   -1.000
 4473.00    1.18502   1.20712   -1.000
 4474.00    1.19997   1.21759  123.542
 4475.00    1.19705   1.22254   -1.000
 4476.00    1.20010   1.22584   -1.000
 4477.00    1.20783   1.22540  126.614
 4478.00    1.20295   1.21366  132.121
 4479.00    1.18073   1.18782  136.669
 4480.00    1.15078   1.15797  136.867
 4481.00    1.12553   1.14133  132.322
 4482.00    1.11984   1.14853   -1.000
 4483.00    1.14430   1.17578   -1.000
 4484.00    1.17648   1.20808   -1.000
 4485.00    1.19893   1.23000   -1.000
 4486.00    1.21482   1.23355  129.152
 4487.00    1.20804   1.21950  132.861
 4488.00    1.17775   1.19738   -1.000
 4489.00    1.14714   1.18158   -1.000
 4490.00    1.14224   1.18122   -1.000
 4491.00    1.15974   1.19208   -1.000
 4492.00    1.18031   1.20026   -1.000
 4493.00    1.18082   1.19618  134.572
 4494.00    1.16587   1.18475   -1.000
 4495.00    1.15226   1.17847   -1.000
 4496.00    1.15526   1.18363   -1.000
 4497.00    1.16952   1.19642   -1.000
 4498.00    1.18936   1.20763  125.359
 4499.00    1.19730   1.20998  126.372
 4500.00    1.18130   1.20526   -1.000
 4501.00    1.17710   1.20481   -1.000
 4502.00    1.19392   1.21740   -1.000
 4503.00    1.22137   1.23904  117.410
 4504.00    1.24426   1.25765  119.365
 4505.00    1.24715   1.26474  120.996
 4506.00    1.23975   1.26054   -1.000
 4507.00    1.23180   1.25194   -1.000
 4508.00    1.22544   1.24693   -1.000
 4509.00    1.22634   1.24824   -1.000
 4510.00    1.23378   1.25149  122.306
 4511.00    1.23276   1.25008  124.608
 4512.00    1.21738   1.24227   -1.000
 4513.00    1.20428   1.23164   -1.000
 4514.00    1.19786   1.22229   -1.000
 4515.00    1.20109   1.21649  126.370
 4516.00    1.20283   1.21380  127.410
 4517.00    1.19504   1.21164   -1.000
 4518.00    1.18815   1.20977   -1.000
 4519.00    1.19404   1.21092   -1.000
 4520.00    1.20444   1.21460  125.329
 4521.00    1.20192   1.21539  128.077
 4522.00    1.18612   1.20945   -1.000
 4523.00    1.16949   1.19900   -1.000
 4524.00    1.16684   1.18832   -1.000
 4525.00    1.16136   1.17692  138.896
 4526.00    1.14119   1.16149   -1.000
 4527.00    1.12507   1.14276   -1.000
 4528.00    1.11641   1.12756  138.967
 4529.00    1.11344   1.12335  136.424
 4530.00    1.12480   1.13017  135.177
 4531.00    1.14117   1.13944  137.585
 4532.00    1.14208   1.14031  142.121
 4533.00    1.12369   1.13065  142.377
 4534.00    1.09905   1.12182   -1.000
 4535.00    1.10101   1.12855   -1.000
 4536.00    1.13792   1.15482  123.202
 4537.00    1.19076   1.18944  123.052
 4538.00    1.21405   1.21558  125.567
 4539.00    1.20411   1.22439   -1.000
 4540.00    1.23686   1.22025  125.723
 4541.00    1.00059   1.21407   -1.000
 4542.00    0.29349   1.21214   -1.000
 4543.00   -0.03751   1.21223    0.000
 4544.00    0.22717   1.20976   -1.000
 4545.00    0.70682   1.20467   -1.000
 4546.00    0.48548   1.19886   -1.000
 4547.00    0.85190   1.19009   -1.000
 4548.00    1.16101   1.17593   93.660
 4549.00    1.14025   1.16263   -1.000
 4550.00    1.14142   1.16058   -1.000
 4551.00    1.16117   1.16964  132.443
 4552.00    1.17191   1.17698  133.961
 4553.00    1.15713   1.17369   -1.000
 4554.00    1.14087   1.16596   -1.000
 4555.00    1.14725   1.16685   -1.000
 4556.00    1.17249   1.18290  120.701
 4557.00    1.20341   1.20817  120.564
 4558.00    1.22458   1.23103  120.775
 4559.00    1.23166   1.24561  120.768
 4560.00    1.23152   1.25247   -1.000
 4561.00    1.23033   1.25092   -1.000
 4562.00    1.21939   1.23914   -1.000
 4563.00    1.19663   1.22098   -1.000
 4564.00    1.18074   1.20724   -1.000
 4565.00    1.18647   1.20724   -1.000
 4566.00    1.20534   1.22064  120.009
 4567.00    1.22810   1.23822  120.594
 4568.00    1.24242   1.24888  123.181
 4569.00    1.24327   1.24646  126.432
 4570.00    1.22103   1.23296  126.805
 4571.00    1.19128   1.21748   -1.000
 4572.00    1.19125   1.21217   -1.000
 4573.00    1.21173   1.22186  120.892
 4574.00    1.22486   1.23731  121.336
 4575.00    1.23174   1.24632  122.006
 4576.00    1.23228   1.24598  123.682
 4577.00    1.22443   1.23919  126.942
 4578.00    1.21235   1.22711  129.965
 4579.00    1.19833   1.21040  130.498
 4580.00    1.17652   1.19363  129.036
 4581.00    1.16886   1.18278  127.794
 4582.00    1.17593   1.17902  127.794
 4583.00    1.17743   1.17958  128.499
 4584.00    1.17556   1.18334  127.496
 4585.00    1.18178   1.19062  124.559
 4586.00    1.19544   1.20113  121.697
 4587.00    1.21218   1.21382  120.807
 4588.00    1.22546   1.22541  122.038
 4589.00    1.22885   1.23137  124.212
 4590.00    1.22077   1.23002  126.447
 4591.00    1.20819   1.22309  127.190
 4592.00    1.19566   1.21496   -1.000
 4593.00    1.19087   1.21093   -1.000
 4594.00    1.19664   1.21229  124.854
 4595.00    1.20629   1.21638  124.583
 4596.00    1.22007   1.22125  124.308
 4597.00    1.22715   1.22571  124.997
 4598.00    1.22868   1.22759  126.144
 4599.00    1.22632   1.22541  126.728
 4600.00    1.21068   1.22029  125.864
 4601.00    1.19956   1.21582  124.439
 4602.00    1.20291   1.21500  124.173
 4603.00    1.21143   1.21757  124.117
 4604.00    1.21745   1.22166  123.088
 4605.00    1.22615   1.22673  120.945
 4606.00    1.23444   1.23450  118.385
 4607.00    1.24401   1.24628  116.656
 4608.00    1.26061   1.25964  116.645
 4609.00    1.27627   1.26941  117.974
 4610.00    1.27535   1.27113  119.399
 4611.00    1.26024   1.26544  120.329
 4612.00    1.24617   1.25800  120.119
 4613.00    1.24445   1.25387  119.158
 4614.00    1.24378   1.25411  118.503
 4615.00    1.24443   1.25599  118.943
 4616.00    1.24234   1.25615  119.828
 4617.00    1.24091   1.25374  120.004
 4618.00    1.24054   1.25049  119.130
 4619.00    1.24236   1.24976  117.425
 4620.00    1.24712   1.25428  116.851
 4621.00    1.26463   1.26289  117.087
 4622.00    1.27459   1.27050  117.342
 4623.00    1.27103   1.27254  118.180
 4624.00    1.26239   1.26945  118.714
 4625.00    1.25755   1.26506  118.736
 4626.00    1.25547   1.26186  119.264
 4627.00    1.25167   1.25985  119.682
 4628.00    1.24814   1.25789  119.312
 4629.00    1.24532   1.25675  118.132
 4630.00    1.24731   1.25869  118.110
 4631.00    1.25812   1.26263  119.539
 4632.00    1.25882   1.26382  121.005
 4633.00    1.25196   1.25978  121.291
 4634.00    1.25106   1.25326  121.942
 4635.00    1.25180   1.24826  123.411
 4636.00    1.24534   1.24476  124.247
 4637.00    1.23929   1.24100  124.240
 4638.00    1.23481   1.23806  122.647
 4639.00    1.23379   1.23892  119.853
 4640.00    1.23699   1.24544  117.835
 4641.00    1.25597   1.25556  117.755
 4642.00    1.27310   1.26354  119.514
 4643.00    1.27154   1.26387  122.607
 4644.00    1.26349   1.25490  126.050
 4645.00    1.24374   1.23929  127.404
 4646.00    1.21720   1.22235  125.850
 4647.00    1.20804   1.21226  123.045
 4648.00    1.22453   1.21521  121.021
 4649.00    1.23910   1.22916  120.435
 4650.00    1.24666   1.24580  120.221
 4651.00    1.25254   1.25712  121.190
 4652.00    1.24488   1.25943  123.668
 4653.00    1.23553   1.25361  125.518
 4654.00    1.22441   1.24348  125.095
 4655.00    1.21507   1.23554   -1.000
 4656.00    1.22053   1.23637  117.311
 4657.00    1.24054   1.24909  114.162
 4658.00    1.27050   1.27070  113.417
 4659.00    1.29333   1.29169  114.459
 4660.00    1.30170   1.30165  116.929
 4661.00    1.29301   1.29744  119.420
 4662.00    1.27538   1.28418  120.246
 4663.00    1.26535   1.26851  121.728
 4664.00    1.26729   1.25228  126.123
 4665.00    1.26063   1.23258   -1.000
 4666.00    1.22586   1.20897  133.067
 4667.00    1.18687   1.18899  129.984
 4668.00    1.17331   1.18336  124.830
 4669.00    1.18968   1.19520  120.944
 4670.00    1.21951   1.21671  119.583
 4671.00    1.24661   1.23709  119.508
 4672.00    1.26183   1.25009  119.453
 4673.00    1.26265   1.25641  118.263
 4674.00    1.26480   1.26123  116.515
 4675.00    1.27189   1.26748  116.480
 4676.00    1.27857   1.27205  118.546
 4677.00    1.28136   1.26900  120.992
 4678.00    1.27174   1.25725  123.093
 4679.00    1.25987   1.24215  124.501
 4680.00    1.24531   1.23007  123.646
 4681.00    1.23700   1.22537  120.872
 4682.00    1.24013   1.22916  118.879
 4683.00    1.25175   1.23853  118.801
 4684.00    1.26754   1.24789  118.975
 4685.00    1.27807   1.25306  119.485
 4686.00    1.27686   1.25390  119.678
 4687.00    1.27673   1.25263  119.676
 4688.00    1.27417   1.25121  120.322
 4689.00    1.27008   1.25011  120.748
 4690.00    1.26642   1.24885  119.729
 4691.00    1.26829   1.24807  118.007
 4692.00    1.27443   1.25006  115.582
 4693.00    1.28232   1.25571  113.812
 4694.00    1.29191   1.26286   -1.000
 4695.00    1.30703   1.26796   -1.000
 4696.00    1.31363   1.26716   -1.000
 4697.00    1.29553   1.25803   -1.000
 4698.00    1.26793   1.24326  121.602
 4699.00    1.25978   1.22956   -1.000
 4700.00    1.26662   1.22010   -1.000
 4701.00    1.26406   1.21264   -1.000
 4702.00    1.24931   1.20638   -1.000
 4703.00    1.23935   1.20501   -1.000
 4704.00    1.24743   1.21085   -1.000
 4705.00    1.25843   1.21911   -1.000
 4706.00    1.25402   1.22182   -1.000
 4707.00    1.23573   1.21677  125.769
 4708.00    1.21964   1.21024  122.770
 4709.00    1.21813   1.21069  119.288
 4710.00    1.23973   1.22039  117.594
 4711.00    1.26927   1.23354   -1.000
 4712.00    1.28365   1.24177   -1.000
 4713.00    1.28214   1.24149   -1.000
 4714.00    1.27094   1.23800   -1.000
 4715.00    1.26395   1.24002  116.577
 4716.00    1.26950   1.25044  115.484
 4717.00    1.28448   1.26483  115.025
 4718.00    1.29761   1.27710  114.632
 4719.00    1.29692   1.28455  115.274
 4720.00    1.29422   1.28718  116.159
 4721.00    1.29445   1.28612  115.842
 4722.00    1.28689   1.28418  114.696
 4723.00    1.28496   1.28480  114.517
 4724.00    1.29618   1.28707  116.684
 4725.00    1.30086   1.28495  120.789
 4726.00    1.28386   1.27382  123.998
 4727.00    1.26379   1.25518  124.291
 4728.00    1.24885   1.23657  123.160
 4729.00    1.24544   1.22562  122.110
 4730.00    1.25298   1.22369   -1.000
 4731.00    1.26213   1.22857   -1.000
 4732.00    1.26146   1.23807  118.848
 4733.00    1.26475   1.24854  118.188
 4734.00    1.27091   1.25534  118.996
 4735.00    1.27482   1.25646  119.453
 4736.00    1.26976   1.25441  118.284
 4737.00    1.26351   1.25403  117.930
 4738.00    1.27672   1.25741  118.495
 4739.00    1.28436   1.26207  118.788
 4740.00    1.28169   1.26470  118.087
 4741.00    1.27503   1.26580  116.856
 4742.00    1.27917   1.26828  116.729
 4743.00    1.29131   1.27247  116.889
 4744.00    1.29414   1.27658  116.240
 4745.00    1.29126   1.28012  115.117
 4746.00    1.29324   1.28415  114.652
 4747.00    1.29364   1.28967  114.746
 4748.00    1.30057   1.29559  114.851
 4749.00    1.30829   1.30013  115.509
 4750.00    1.30699   1.30271  116.726
 4751.00    1.30218   1.30228  117.796
 4752.00    1.30159   1.29748  118.640
 4753.00    1.28918   1.28939  118.666
 4754.00    1.27820   1.28161  118.956
 4755.00    1.27194   1.27741  119.756
 4756.00    1.27088   1.27781  120.070
 4757.00    1.27152   1.28172  119.318
 4758.00    1.27349   1.28682  118.904
 4759.00    1.27574   1.29020  120.295
 4760.00    1.27383   1.28841  123.087
 4761.00    1.26573   1.27877  125.042
 4762.00    1.25015   1.26298  125.533
 4763.00    1.23437   1.24723  125.353
 4764.00    1.22735   1.23745  124.606
 4765.00    1.23547   1.23562  123.060
 4766.00    1.24441   1.24120  120.491
 4767.00    1.25361   1.25332  118.560
 4768.00    1.27311   1.27005  118.354
 4769.00    1.28861   1.28622  119.205
 4770.00    1.29160   1.29526  120.265
 4771.00    1.28209   1.29551  119.426
 4772.00    1.27337   1.29295  117.088
 4773.00    1.27825   1.29520  115.884
 4774.00    1.29377   1.30366  115.802
 4775.00    1.30782   1.31292  116.100
 4776.00    1.31038   1.31788  116.769
 4777.00    1.30639   1.31788  117.969
 4778.00    1.29439   1.31417   -1.000
 4779.00    1.28446   1.30810   -1.000
 4780.00    1.28271   1.30222   -1.000
 4781.00    1.28592   1.29831  120.600
 4782.00    1.28578   1.29491  120.784
 4783.00    1.27667   1.29037  121.073
 4784.00    1.27993   1.28543  122.113
 4785.00    1.27405   1.28080  122.945
 4786.00    1.26239   1.27613  122.998
 4787.00    1.25706   1.27259  122.486
 4788.00    1.25742   1.27212  121.756
 4789.00    1.25258   1.27485   -1.000
 4790.00    1.26286   1.28069  118.763
 4791.00    1.27231   1.29055  116.251
 4792.00    1.28423   1.30435  114.113
 4793.00    1.30331   1.32009  113.367
 4794.00    1.31886   1.33405  114.189
 4795.00    1.32391   1.34146  116.268
 4796.00    1.31819   1.33935   -1.000
 4797.00    1.30393   1.32850   -1.000
 4798.00    1.28682   1.31386   -1.000
 4799.00    1.27395   1.30342   -1.000
 4800.00    1.27640   1.30321   -1.000
 4801.00    1.28697   1.31244   -1.000
 4802.00    1.30231   1.32385   -1.000
 4803.00    1.30408   1.32817   -1.000
 4804.00    1.29470   1.32171   -1.000
 4805.00    1.28444   1.31025   -1.000
 4806.00    1.28465   1.30180  119.244
 4807.00    1.28634   1.29956  118.754
 4808.00    1.29180   1.30242  117.787
 4809.00    1.29101   1.30781  116.887
 4810.00    1.28931   1.31306   -1.000
 4811.00    1.30014   1.31700  116.027
 4812.00    1.30945   1.32034  115.786
 4813.00    1.30882   1.32420  115.395
 4814.00    1.31462   1.32906  114.730
 4815.00    1.31369   1.33471   -1.000
 4816.00    1.31347   1.34063   -1.000
 4817.00    1.31789   1.34584   -1.000
 4818.00    1.31965   1.34919   -1.000
 4819.00    1.32169   1.35013   -1.000
 4820.00    1.32094   1.34780   -1.000
 4821.00    1.31938   1.33940   -1.000
 4822.00    1.30410   1.32332   -1.000
 4823.00    1.28335   1.30456   -1.000
 4824.00    1.27823   1.29316  115.843
 4825.00    1.28528   1.29486  115.851
 4826.00    1.30199   1.30482  117.070
 4827.00    1.30877   1.31282  117.950
 4828.00    1.29925   1.31349  118.069
 4829.00    1.29631   1.30893  118.920
 4830.00    1.29602   1.30324  119.327
 4831.00    1.29159   1.29829  117.832
 4832.00    1.29077   1.29542  116.172
 4833.00    1.29376   1.29667  115.517
 4834.00    1.30731   1.30200  115.594
 4835.00    1.31506   1.30818  116.081
 4836.00    1.31551   1.31153  117.463
 4837.00    1.31368   1.31087  119.484
 4838.00    1.30152   1.30631  119.989
 4839.00    1.28294   1.29884  119.774
 4840.00    1.27452   1.29179  119.239
 4841.00    1.27660   1.28811  118.402
 4842.00    1.28154   1.28742  117.275
 4843.00    1.29071   1.28865  115.559
 4844.00    1.29817   1.29243  114.707
 4845.00    1.30238   1.29827  116.454
 4846.00    1.30955   1.30166  118.365
 4847.00    1.30267   1.29780  118.708
 4848.00    1.28364   1.28896  117.348
 4849.00    1.27612   1.28293  116.776
 4850.00    1.27941   1.28296  117.270
 4851.00    1.28574   1.28458  118.215
 4852.00    1.28969   1.28130  121.241
 4853.00    1.27581   1.26839  124.760
 4854.00    1.24811   1.24524  125.252
 4855.00    1.21948   1.21853  124.129
 4856.00    1.20692   1.19686  126.560
 4857.00    1.20140   1.17762   -1.000
 4858.00    1.17198   1.14406   -1.000
 4859.00    1.09232   1.08013  160.841
 4860.00    0.97896   0.99504   -1.000
 4861.00    0.90748   0.92858   -1.000
 4862.00    0.93689   0.91994  131.956
 4863.00    1.02881   0.97322   -1.000
 4864.00    1.11402   1.05429   -1.000
 4865.00    1.16966   1.12655   -1.000
 4866.00    1.20303   1.17695   -1.000
 4867.00    1.22124   1.20923  122.415
 4868.00    1.23207   1.22777  125.415
 4869.00    1.23473   1.23169  128.619
 4870.00    1.21968   1.22068  128.360
 4871.00    1.19706   1.20327  125.142
 4872.00    1.19503   1.19491  122.669
 4873.00    1.21899   1.20469  121.498
 4874.00    1.24047   1.22613  120.792
 4875.00    1.24726   1.24594  120.340
 4876.00    1.24978   1.25835  118.847
 4877.00    1.25280   1.26715  117.474
 4878.00    1.25888   1.27805  118.068
 4879.00    1.27274   1.29112  119.874
 4880.00    1.28373   1.30079  120.852
 4881.00    1.27817   1.30169   -1.000
 4882.00    1.27054   1.29469   -1.000
 4883.00    1.26861   1.28561  122.730
 4884.00    1.27041   1.27765  123.647
 4885.00    1.25729   1.27083  123.230
 4886.00    1.24979   1.26613  122.952
 4887.00    1.25295   1.26423  124.388
 4888.00    1.25459   1.26156  127.001
 4889.00    1.24277   1.25313  126.886
 4890.00    1.22217   1.24039  122.555
 4891.00    1.22191   1.23471  116.946
 4892.00    1.25049   1.24881  113.100
 4893.00    1.29518   1.28203  110.759
 4894.00    1.32773   1.32035  109.935
 4895.00    1.34327   1.34999  110.036
 4896.00    1.34712   1.36554  112.014
 4897.00    1.34997   1.36844  114.656
 4898.00    1.34712   1.36187  116.212
 4899.00    1.32118   1.34967   -1.000
 4900.00    1.30746   1.33729   -1.000
 4901.00    1.30711   1.32883   -1.000
 4902.00    1.30803   1.32356  116.452
 4903.00    1.29969   1.32031  114.153
 4904.00    1.30514   1.32243  112.953
 4905.00    1.32706   1.33240  113.641
 4906.00    1.34167   1.34379  116.083
 4907.00    1.33535   1.34587  119.366
 4908.00    1.31896   1.33500  121.273
 4909.00    1.29527   1.31634   -1.000
 4910.00    1.27716   1.29915   -1.000
 4911.00    1.28459   1.29203  116.428
 4912.00    1.29879   1.29773  114.900
 4913.00    1.30499   1.31185  113.791
 4914.00    1.32092   1.32707  114.040
 4915.00    1.33660   1.33668  117.382
 4916.00    1.34063   1.33361  123.427
 4917.00    1.31869   1.31210  129.533
 4918.00    1.27050   1.27399  131.925
 4919.00    1.22802   1.23222  128.665
 4920.00    1.20378   1.20450  124.027
 4921.00    1.21060   1.20132  121.681
 4922.00    1.23806   1.21684  121.266
 4923.00    1.26098   1.23611  119.999
 4924.00    1.26755   1.25175  117.131
 4925.00    1.27183   1.26833  114.844
 4926.00    1.30076   1.29051  113.590
 4927.00    1.32823   1.31466  112.764
 4928.00    1.34191   1.33488  112.067
 4929.00    1.34559   1.34883  112.840
 4930.00    1.35380   1.35457  115.569
 4931.00    1.34876   1.34879  119.612
 4932.00    1.32359   1.33036  120.684
 4933.00    1.28961   1.30566  118.926
 4934.00    1.27016   1.28769  118.445
 4935.00    1.27842   1.28340  121.296
 4936.00    1.29445   1.28433  124.729
 4937.00    1.28299   1.27791  124.478
 4938.00    1.26164   1.26487  120.753
 4939.00    1.25246   1.25931  116.806
 4940.00    1.27962   1.27209  114.359
 4941.00    1.31400   1.29957  113.128
 4942.00    1.32940   1.32824  113.013
 4943.00    1.33631   1.34667  113.700
 4944.00    1.34244   1.35242  114.056
 4945.00    1.34119   1.35001  113.251
 4946.00    1.33331   1.34682  111.951
 4947.00    1.33166   1.34832  111.432
 4948.00    1.34293   1.35497  110.992
 4949.00    1.35012   1.36276  111.383
 4950.00    1.35212   1.36723  112.124
 4951.00    1.35428   1.36693  113.333
 4952.00    1.34813   1.36290  114.734
 4953.00    1.34731   1.35626  117.509
 4954.00    1.33938   1.34461  123.078
 4955.00    1.31901   1.32157  128.345
 4956.00    1.27740   1.28539  127.123
 4957.00    1.23382   1.25007  120.564
 4958.00    1.23262   1.23906  115.897
 4959.00    1.27227   1.26089  114.468
 4960.00    1.31456   1.29949  114.771
 4961.00    1.33208   1.33190  115.631
 4962.00    1.33640   1.34724  116.928
 4963.00    1.33563   1.34767  119.227
 4964.00    1.32383   1.33833  120.964
 4965.00    1.30446   1.32375   -1.000
 4966.00    1.29330   1.31004  120.961
 4967.00    1.29286   1.30251  120.157
 4968.00    1.29193   1.30155  118.934
 4969.00    1.30108   1.30536  117.655
 4970.00    1.30938   1.31305  116.270
 4971.00    1.31714   1.32368  115.121
 4972.00    1.32486   1.33531  114.546
 4973.00    1.33422   1.34516  115.129
 4974.00    1.33923   1.35042  116.282
 4975.00    1.34296   1.34999  117.807
 4976.00    1.34079   1.34432  119.681
 4977.00    1.33204   1.33447  121.242
 4978.00    1.31522   1.32269  122.920
 4979.00    1.30702   1.31014  126.579
 4980.00    1.29059   1.29388  130.728
 4981.00    1.26303   1.27079  131.462
 4982.00    1.23047   1.24416  129.378
 4983.00    1.22507   1.22490  125.922
 4984.00    1.23574   1.22326  121.985
 4985.00    1.25259   1.23979  118.813
 4986.00    1.28061   1.26653  118.402
 4987.00    1.30342   1.29321  119.893
 4988.00    1.31529   1.31037  121.231
 4989.00    1.30708   1.31319  121.484
 4990.00    1.29145   1.30607  120.579
 4991.00    1.28976   1.29865  119.967
 4992.00    1.30098   1.29720  119.840
 4993.00    1.30558   1.30124  119.316
 4994.00    1.30918   1.30772  118.714
 4995.00    1.31206   1.31489  119.217
 4996.00    1.32207   1.32043  120.680
 4997.00    1.31806   1.31970  122.997
 4998.00    1.30706   1.30899  124.705
 4999.00    1.28272   1.29000  125.032
 5000.00    1.26761   1.27108  124.042
 5001.00    1.27365   1.26109  123.156
 5002.00    1.28340   1.26086  124.501
 5003.00    1.28493   1.26307  127.478
 5004.00    1.28199   1.25886  128.622
 5005.00    1.26014   1.24647  126.068
 5006.00    1.23293   1.23518  122.312
 5007.00    1.24966   1.23768  120.611
 5008.00    1.29262   1.25531   -1.000
 5009.00    1.31406   1.27487   -1.000
 5010.00    1.30901   1.28170   -1.000
 5011.00    1.28600   1.27110  132.996
 5012.00    1.25349   1.24944  132.942
 5013.00    1.22653   1.22858  130.330
 5014.00    1.21707   1.21857  127.560
 5015.00    1.23264   1.22119  126.685
 5016.00    1.26021   1.22871   -1.000
 5017.00    1.26238   1.23267   -1.000
 5018.00    1.25485   1.23339  124.325
 5019.00    1.26917   1.23818   -1.000
 5020.00    1.28199   1.24917   -1.000
 5021.00    1.28836   1.26045   -1.000
 5022.00    1.28521   1.26832  123.166
 5023.00    1.29072   1.27580  122.261
 5024.00    1.29820   1.28563  122.631
 5025.00    1.30124   1.29431  123.229
 5026.00    1.29934   1.29680  122.363
 5027.00    1.29607   1.29444  120.219
 5028.00    1.30244   1.29384  118.414
 5029.00    1.31487   1.29891  116.524
 5030.00    1.33032   1.30869  115.095
 5031.00    1.33447   1.32088  115.057
 5032.00    1.34460   1.33244  118.227
 5033.00    1.35302   1.33749  122.826
 5034.00    1.33270   1.33015  125.307
 5035.00    1.29718   1.31177  125.979
 5036.00    1.27939   1.29221  127.363
 5037.00    1.28194   1.27884  131.869
 5038.00    1.27693   1.26665  137.256
 5039.00    1.24618   1.24636  138.143
 5040.00    1.20731   1.22010  132.371
 5041.00    1.19057   1.20446  124.380
 5042.00    1.24292   1.21497   -1.000
 5043.00    0.85281   1.24978   -1.000
 5044.00    0.33112   1.29281   -1.000
 5045.00    0.01966   1.32774   -1.000
 5046.00    0.65044   1.34536   -1.000
 5047.00    1.27875   1.34327   -1.000
 5048.00    1.32395   1.32526  132.308
 5049.00    1.29635   1.30077  123.635
 5050.00    1.28583   1.28046  121.658
 5051.00    1.28685   1.27122  118.611
 5052.00    1.30068   1.27626  116.332
 5053.00    1.33106   1.29473   -1.000
 5054.00    1.35826   1.31884   -1.000
 5055.00    1.36868   1.33827   -1.000
 5056.00    1.37441   1.34909  114.971
 5057.00    1.37119   1.35411  114.961
 5058.00    1.36793   1.35744  114.274
 5059.00    1.36715   1.36138  114.219
 5060.00    1.36773   1.36591  115.564
 5061.00    1.37123   1.36838  118.699
 5062.00    1.36645   1.36365  122.855
 5063.00    1.34555   1.34784  124.684
 5064.00    1.31456   1.32440  123.543
 5065.00    1.29112   1.30418  121.698
 5066.00    1.30586   1.29558  121.116
 5067.00    1.32352   1.29689  120.573
 5068.00    1.32136   1.30179  119.804
 5069.00    1.32437   1.30697  120.541
 5070.00    1.33834   1.31111  121.513
 5071.00    1.33739   1.31196  120.330
 5072.00    1.32758   1.30911  119.303
 5073.00    1.32830   1.30618  119.047
 5074.00    1.32951   1.30635  118.949
 5075.00    1.33517   1.30872  119.948
 5076.00    1.33410   1.30915  123.756
 5077.00    1.32650   1.30230  129.490
 5078.00    1.30227   1.28481  131.608
 5079.00    1.26261   1.26123  129.336
 5080.00    1.24755   1.24444  126.549
 5081.00    1.26350   1.24331  124.724
 5082.00    1.28899   1.25398   -1.000
 5083.00    1.30137   1.26847   -1.000
 5084.00    1.30797   1.28407  119.313
 5085.00    1.33270   1.30018   -1.000
 5086.00    1.35148   1.31374   -1.000
 5087.00    1.35600   1.32215   -1.000
 5088.00    1.35539   1.32675   -1.000
 5089.00    1.35602   1.33077  116.412
 5090.00    1.36667   1.33584   -1.000
 5091.00    1.37105   1.34214   -1.000
 5092.00    1.37036   1.34951  114.874
 5093.00    1.37569   1.35596  117.130
 5094.00    1.38053   1.35701  119.666
 5095.00    1.37448   1.34840  122.534
 5096.00    1.35656   1.32987   -1.000
 5097.00    1.32795   1.30649  125.817
 5098.00    1.30416   1.28643  123.109
 5099.00    1.29907   1.27837  119.573
 5100.00    1.31650   1.28637   -1.000
 5101.00    1.34251   1.30467   -1.000
 5102.00    1.35539   1.32149   -1.000
 5103.00    1.35676   1.32871   -1.000
 5104.00    1.35382   1.32623   -1.000
 5105.00    1.34105   1.31727  124.812
 5106.00    1.31698   1.30414  124.820
 5107.00    1.29910   1.29011  124.076
 5108.00    1.29508   1.28005  123.191
 5109.00    1.29892   1.27740  121.513
 5110.00    1.30201   1.28318  119.990
 5111.00    1.31621   1.29652  118.526
 5112.00    1.33728   1.31366  117.416
 5113.00    1.35402   1.32920  116.742
 5114.00    1.36356   1.34041  115.574
 5115.00    1.36956   1.34850  114.576
 5116.00    1.37653   1.35565  114.777
 5117.00    1.38306   1.36178  116.166
 5118.00    1.38491   1.36428  117.901
 5119.00    1.38381   1.36033  119.835
 5120.00    1.37138   1.34931  122.809
 5121.00    1.35172   1.33270  126.476
 5122.00    1.32945   1.31276  127.670
 5123.00    1.30566   1.29324  126.724
 5124.00    1.29384   1.27947  126.041
 5125.00    1.29805   1.27439  125.304
 5126.00    1.30762   1.27537   -1.000
 5127.00    1.30519   1.27725   -1.000
 5128.00    1.30461   1.27798   -1.000
 5129.00    1.30816   1.27977   -1.000
 5130.00    1.31129   1.28555  120.647
 5131.00    1.32614   1.29532   -1.000
 5132.00    1.33438   1.30631   -1.000
 5133.00    1.34150   1.31609  118.077
 5134.00    1.35716   1.32346   -1.000
 5135.00    1.36233   1.32633   -1.000
 5136.00    1.34649   1.32141   -1.000
 5137.00    1.32265   1.30784  125.254
 5138.00    1.29739   1.29107  124.239
 5139.00    1.28754   1.27951  124.961
 5140.00    1.29145   1.27649  126.913
 5141.00    1.29242   1.27809  126.444
 5142.00    1.28938   1.27977  124.421
 5143.00    1.28713   1.28238  123.825
 5144.00    1.29918   1.28793  124.849
 5145.00    1.31654   1.29287  125.247
 5146.00    1.32066   1.29286   -1.000
 5147.00    1.31811   1.29017   -1.000
 5148.00    1.32482   1.28973   -1.000
 5149.00    1.32990   1.29107   -1.000
 5150.00    1.32157   1.28931   -1.000
 5151.00    1.30243   1.28278  127.092
 5152.00    1.28609   1.27584  124.807
 5153.00    1.29840   1.27402  121.687
 5154.00    1.31896   1.28008   -1.000
 5155.00    1.33590   1.29429   -1.000
 5156.00    1.36190   1.31375   -1.000
 5157.00    1.38123   1.33253   -1.000
 5158.00    1.38430   1.34548   -1.000
 5159.00    1.38293   1.35104   -1.000
 5160.00    1.38849   1.34985   -1.000
 5161.00    1.38460   1.34299   -1.000
 5162.00    1.37569   1.33169   -1.000
 5163.00    1.36555   1.31504   -1.000
 5164.00    1.34426   1.28693   -1.000
 5165.00    1.29464   1.23971   -1.000
 5166.00    1.21366   1.17635   -1.000
 5167.00    1.14537   1.11879   -1.000
 5168.00    1.12579   1.09329   -1.000
 5169.00    1.16929   1.10306   -1.000
 5170.00    1.21001   1.12141   -1.000
 5171.00    1.19543   1.12032   -1.000
 5172.00    1.14510   1.10504   -1.000
 5173.00    1.14710   1.10781   -1.000
 5174.00    1.22199   1.14831   -1.000
 5175.00    1.29706   1.21183   -1.000
 5176.00    1.34071   1.26815   -1.000
 5177.00    1.36243   1.30144   -1.000
 5178.00    1.36368   1.31434   -1.000
 5179.00    1.36163   1.31198   -1.000
 5180.00    1.34681   1.29172   -1.000
 5181.00    1.30653   1.24750   -1.000
 5182.00    1.24161   1.18437   -1.000
 5183.00    1.16957   1.12725   -1.000
 5184.00    1.15848   1.10915   -1.000
 5185.00    1.22512   1.14231   -1.000
 5186.00    1.29703   1.20293   -1.000
 5187.00    1.33054   1.25548   -1.000
 5188.00    1.33649   1.28394   -1.000
 5189.00    1.33377   1.29224   -1.000
 5190.00    1.32431   1.28681   -1.000
 5191.00    1.29741   1.27123  129.874
 5192.00    1.26391   1.25357  127.692
 5193.00    1.26047   1.24528  125.778
 5194.00    1.28649   1.24968   -1.000
 5195.00    1.30522   1.26072   -1.000
 5196.00    1.31717   1.27346   -1.000
 5197.00    1.33066   1.28786   -1.000
 5198.00    1.34059   1.30385   -1.000
 5199.00    1.35471   1.31841   -1.000
 5200.00    1.36789   1.32732   -1.000
 5201.00    1.36009   1.32701   -1.000
 5202.00    1.34920   1.31553   -1.000
 5203.00    1.32952   1.29329   -1.000
 5204.00    1.29482   1.26447   -1.000
 5205.00    1.26877   1.23726   -1.000
 5206.00    1.26994   1.21930   -1.000
 5207.00    1.27025   1.21212   -1.000
 5208.00    1.26781   1.21300   -1.000
 5209.00    1.27207   1.22245   -1.000
 5210.00    1.29414   1.24416   -1.000
 5211.00    1.33544   1.27618   -1.000
 5212.00    1.36998   1.30821   -1.000
 5213.00    1.38829   1.32812   -1.000
 5214.00    1.38343   1.32989   -1.000
 5215.00    1.35375   1.31816   -1.000
 5216.00    1.33401   1.30594   -1.000
 5217.00    1.34317   1.30542   -1.000
 5218.00    1.36485   1.31887   -1.000
 5219.00    1.38376   1.33880   -1.000
 5220.00    1.40157   1.35573   -1.000
 5221.00    1.40786   1.36372   -1.000
 5222.00    1.40028   1.36000   -1.000
 5223.00    1.38446   1.34277   -1.000
 5224.00    1.34689   1.31114   -1.000
 5225.00    1.29524   1.26995  130.769
 5226.00    1.25235   1.23390  123.646
 5227.00    1.24474   1.22173  118.483
 5228.00    1.28710   1.24078   -1.000
 5229.00    1.34395   1.27842   -1.000
 5230.00    1.37627   1.31120   -1.000
 5231.00    1.37891   1.32310   -1.000
 5232.00    1.36297   1.31472   -1.000
 5233.00    1.34500   1.29968   -1.000
 5234.00    1.33895   1.29426   -1.000
 5235.00    1.35746   1.30550   -1.000
 5236.00    1.38529   1.32792   -1.000
 5237.00    1.40105   1.35025   -1.000
 5238.00    1.40743   1.36450   -1.000
 5239.00    1.40550   1.37004   -1.000
 5240.00    1.41054   1.37059   -1.000
 5241.00    1.41366   1.36946   -1.000
 5242.00    1.40844   1.36878   -1.000
 5243.00    1.40657   1.36975   -1.000
 5244.00    1.41385   1.37057   -1.000
 5245.00    1.40787   1.36589   -1.000
 5246.00    1.37764   1.35241  121.424
 5247.00    1.35062   1.33462  121.644
 5248.00    1.33853   1.32037  122.409
 5249.00    1.34233   1.31244   -1.000
 5250.00    1.33573   1.30945  120.216
 5251.00    1.33127   1.31114  119.005
 5252.00    1.35082   1.31659   -1.000
 5253.00    1.35932   1.32195   -1.000
 5254.00    1.35829   1.32538   -1.000
 5255.00    1.36290   1.33091   -1.000
 5256.00    1.38037   1.34400   -1.000
 5257.00    1.40469   1.36299   -1.000
 5258.00    1.42345   1.37828   -1.000
 5259.00    1.42941   1.38010   -1.000
 5260.00    1.40199   1.36441   -1.000
 5261.00    1.36447   1.33364   -1.000
 5262.00    1.32616   1.29494   -1.000
 5263.00    1.28746   1.25686   -1.000
 5264.00    1.26078   1.22738   -1.000
 5265.00    1.25357   1.21219   -1.000
 5266.00    1.26257   1.21100   -1.000
 5267.00    1.28707   1.21391   -1.000
 5268.00    1.28568   1.20761   -1.000
 5269.00    1.23990   1.19258   -1.000
 5270.00    1.22564   1.18721   -1.000
 5271.00    1.27311   1.20713   -1.000
 5272.00    1.32711   1.24480   -1.000
 5273.00    1.34447   1.27753   -1.000
 5274.00    1.34188   1.29384   -1.000
 5275.00    1.34893   1.30194   -1.000
 5276.00    1.37191   1.31550   -1.000
 5277.00    1.40206   1.33803   -1.000
 5278.00    1.42208   1.36002   -1.000
 5279.00    1.42624   1.36891   -1.000
 5280.00    1.40895   1.36074   -1.000
 5281.00    1.38403   1.34177   -1.000
 5282.00    1.35841   1.32221   -1.000
 5283.00    1.34319   1.31210   -1.000
 5284.00    1.35662   1.31878   -1.000
 5285.00    1.39368   1.34195   -1.000
 5286.00    1.42776   1.37119   -1.000
 5287.00    1.43930   1.39376   -1.000
 5288.00    1.43465   1.40533   -1.000
 5289.00    1.43708   1.40980   -1.000
 5290.00    1.43786   1.41106   -1.000
 5291.00    1.43691   1.40974   -1.000
 5292.00    1.43063   1.40589  112.713
 5293.00    1.42917   1.39998   -1.000
 5294.00    1.42088   1.39050   -1.000
 5295.00    1.40352   1.37363   -1.000
 5296.00    1.37542   1.34879   -1.000
 5297.00    1.34116   1.32382  119.642
 5298.00    1.33350   1.31078  117.400
 5299.00    1.35208   1.31466   -1.000
 5300.00    1.37544   1.32856   -1.000
 5301.00    1.38745   1.34313   -1.000
 5302.00    1.38575   1.35662   -1.000
 5303.00    1.40602   1.37214   -1.000
 5304.00    1.43115   1.38872   -1.000
 5305.00    1.43612   1.40006   -1.000
 5306.00    1.42243   1.40242  111.051
 5307.00    1.41687   1.39965  109.882
 5308.00    1.42428   1.39905  109.176
 5309.00    1.43848   1.40374   -1.000
 5310.00    1.44929   1.41026   -1.000
 5311.00    1.45295   1.41334   -1.000
 5312.00    1.45482   1.41116   -1.000
 5313.00    1.44979   1.40469   -1.000
 5314.00    1.44587   1.39484   -1.000
 5315.00    1.43275   1.38268   -1.000
 5316.00    1.40743   1.37166   -1.000
 5317.00    1.40034   1.36718   -1.000
 5318.00    1.41580   1.37132   -1.000
 5319.00    1.42911   1.37962   -1.000
 5320.00    1.42403   1.38484   -1.000
 5321.00    1.42085   1.38227   -1.000
 5322.00    1.40467   1.37104   -1.000
 5323.00    1.39640   1.35434   -1.000
 5324.00    1.38869   1.33761   -1.000
 5325.00    1.37853   1.32136   -1.000
 5326.00    1.35996   1.29860   -1.000
 5327.00    1.30801   1.26707   -1.000
 5328.00    1.26095   1.24108  119.956
 5329.00    1.28123   1.24230   -1.000
 5330.00    1.34487   1.27443   -1.000
 5331.00    1.39081   1.31677   -1.000
 5332.00    1.40738   1.34798   -1.000
 5333.00    1.40170   1.36455   -1.000
 5334.00    1.42113   1.37339   -1.000
 5335.00    1.42775   1.37867   -1.000
 5336.00    1.41886   1.37961   -1.000
 5337.00    1.41441   1.37467   -1.000
 5338.00    1.40974   1.36320   -1.000
 5339.00    1.38614   1.34661   -1.000
 5340.00    1.36536   1.33137   -1.000
 5341.00    1.37267   1.32758   -1.000
 5342.00    1.39826   1.33857   -1.000
 5343.00    1.41800   1.35537   -1.000
 5344.00    1.42433   1.36614   -1.000
 5345.00    1.41642   1.36693   -1.000
 5346.00    1.40626   1.36130   -1.000
 5347.00    1.40126   1.35408   -1.000
 5348.00    1.40041   1.34835   -1.000
 5349.00    1.39796   1.34754   -1.000
 5350.00    1.40494   1.35494   -1.000
 5351.00    1.42840   1.36907   -1.000
 5352.00    1.44402   1.38437   -1.000
 5353.00    1.43964   1.39681   -1.000
 5354.00    1.44574   1.40697   -1.000
 5355.00    1.45895   1.41664   -1.000
 5356.00    1.46280   1.42491   -1.000
 5357.00    1.47094   1.42957   -1.000
 5358.00    1.47280   1.42990   -1.000
 5359.00    1.46816   1.42612   -1.000
 5360.00    1.46017   1.41810   -1.000
 5361.00    1.44057   1.40629   -1.000
 5362.00    1.42168   1.39267   -1.000
 5363.00    1.42038   1.37985   -1.000
 5364.00    1.41684   1.36988   -1.000
 5365.00    1.40592   1.36390   -1.000
 5366.00    1.40252   1.36159   -1.000
 5367.00    1.40709   1.35943   -1.000
 5368.00    1.40581   1.35104   -1.000
 5369.00    1.38522   1.33272   -1.000
 5370.00    1.35633   1.31008   -1.000
 5371.00    1.34018   1.29731   -1.000
 5372.00    1.36258   1.30650   -1.000
 5373.00    1.41042   1.33565   -1.000
 5374.00    1.44832   1.36996   -1.000
 5375.00    1.46034   1.39480   -1.000
 5376.00    1.46700   1.40581   -1.000
 5377.00    1.46285   1.40762   -1.000
 5378.00    1.45712   1.40572   -1.000
 5379.00    1.45008   1.40169   -1.000
 5380.00    1.43621   1.39496   -1.000
 5381.00    1.42519   1.38634   -1.000
 5382.00    1.41918   1.37902   -1.000
 5383.00    1.42279   1.37656   -1.000
 5384.00    1.43183   1.38045   -1.000
 5385.00    1.44430   1.38863   -1.000
 5386.00    1.44887   1.39620   -1.000
 5387.00    1.44430   1.39842   -1.000
 5388.00    1.44104   1.39348   -1.000
 5389.00    1.42740   1.38295   -1.000
 5390.00    1.41457   1.37063   -1.000
 5391.00    1.40864   1.36015   -1.000
 5392.00    1.40654   1.35304   -1.000
 5393.00    1.40225   1.34852   -1.000
 5394.00    1.39715   1.34350   -1.000
 5395.00    1.38624   1.33401   -1.000
 5396.00    1.36603   1.32050   -1.000
 5397.00    1.35677   1.31143   -1.000
 5398.00    1.37318   1.31582   -1.000
 5399.00    1.40168   1.33261   -1.000
 5400.00    1.41915   1.35160   -1.000
 5401.00    1.42666   1.36268   -1.000
 5402.00    1.42271   1.36004   -1.000
 5403.00    1.39726   1.34228   -1.000
 5404.00    1.35952   1.31503   -1.000
 5405.00    1.33683   1.29187   -1.000
 5406.00    1.33997   1.28571   -1.000
 5407.00    1.36824   1.29610   -1.000
 5408.00    1.39394   1.31038   -1.000
 5409.00    1.38405   1.31865   -1.000
 5410.00    1.36830   1.32411   -1.000
 5411.00    1.39037   1.33549   -1.000
 5412.00    1.41768   1.35277   -1.000
 5413.00    1.43235   1.36756   -1.000
 5414.00    1.42797   1.37529   -1.000
 5415.00    1.42044   1.37992   -1.000
 5416.00    1.43032   1.38642   -1.000
 5417.00    1.44724   1.39365   -1.000
 5418.00    1.44508   1.39697   -1.000
 5419.00    1.43698   1.39516   -1.000
 5420.00    1.43467   1.39112   -1.000
 5421.00    1.43310   1.38703   -1.000
 5422.00    1.43530   1.38198   -1.000
 5423.00    1.42649   1.37526   -1.000
 5424.00    1.41666   1.37103   -1.000
 5425.00    1.41276   1.37517   -1.000
 5426.00    1.43462   1.38529   -1.000
 5427.00    1.44244   1.38918   -1.000
 5428.00    1.42015   1.37766   -1.000
 5429.00    1.37429   1.35698  117.044
 5430.00    1.36830   1.34262   -1.000
 5431.00    1.38937   1.34099   -1.000
 5432.00    1.39936   1.34373   -1.000
 5433.00    1.38306   1.34057   -1.000
 5434.00    1.36625   1.33301   -1.000
 5435.00    1.36764   1.33180   -1.000
 5436.00    1.38965   1.34426   -1.000
 5437.00    1.41911   1.36776   -1.000
 5438.00    1.45065   1.39333   -1.000
 5439.00    1.46917   1.41318   -1.000
 5440.00    1.47061   1.42489   -1.000
 5441.00    1.47187   1.42994   -1.000
 5442.00    1.46734   1.42928   -1.000
 5443.00    1.45277   1.42040   -1.000
 5444.00    1.43254   1.39969   -1.000
 5445.00    1.40130   1.36909   -1.000
 5446.00    1.36083   1.34025  116.690
 5447.00    1.35186   1.32829  113.477
 5448.00    1.37923   1.33913   -1.000
 5449.00    1.42160   1.36411   -1.000
 5450.00    1.44313   1.38762   -1.000
 5451.00    1.44814   1.39895   -1.000
 5452.00    1.44848   1.39563   -1.000
 5453.00    1.42770   1.37945   -1.000
 5454.00    1.39260   1.35555   -1.000
 5455.00    1.36452   1.33561   -1.000
 5456.00    1.36397   1.33334   -1.000
 5457.00    1.40649   1.35205   -1.000
 5458.00    1.44553   1.37946   -1.000
 5459.00    1.45219   1.39852   -1.000
 5460.00    1.43879   1.40122   -1.000
 5461.00    1.42808   1.39071   -1.000
 5462.00    1.41105   1.37599   -1.000
 5463.00    1.41100   1.36659   -1.000
 5464.00    1.41744   1.36757   -1.000
 5465.00    1.42834   1.37646   -1.000
 5466.00    1.43980   1.38693   -1.000
 5467.00    1.44060   1.39475   -1.000
 5468.00    1.45633   1.39903   -1.000
 5469.00    1.45273   1.39975   -1.000
 5470.00    1.43526   1.39691   -1.000
 5471.00    1.42932   1.39132   -1.000
 5472.00    1.43036   1.38412   -1.000
 5473.00    1.42639   1.37496   -1.000
 5474.00    1.40582   1.36194   -1.000
 5475.00    1.38873   1.34469   -1.000
 5476.00    1.36718   1.32863   -1.000
 5477.00    1.36531   1.32404   -1.000
 5478.00    1.39515   1.33525   -1.000
 5479.00    1.42648   1.35293   -1.000
 5480.00    1.42785   1.36360   -1.000
 5481.00    1.40855   1.36458   -1.000
 5482.00    1.40208   1.36461   -1.000
 5483.00    1.41589   1.37200   -1.000
 5484.00    1.43493   1.38528   -1.000
 5485.00    1.44216   1.39589   -1.000
 5486.00    1.43733   1.39736   -1.000
 5487.00    1.42388   1.39111   -1.000
 5488.00    1.42098   1.38405   -1.000
 5489.00    1.43241   1.38191   -1.000
 5490.00    1.42934   1.38518   -1.000
 5491.00    1.43158   1.39039   -1.000
 5492.00    1.44352   1.39396   -1.000
 5493.00    1.44406   1.39476   -1.000
 5494.00    1.44468   1.39346   -1.000
 5495.00    1.44993   1.39027   -1.000
 5496.00    1.43802   1.38509   -1.000
 5497.00    1.41760   1.38048   -1.000
 5498.00    1.42137   1.38017   -1.000
 5499.00    1.44008   1.38265   -1.000
 5500.00    1.43422   1.38158   -1.000
 5501.00    1.41981   1.37468   -1.000
 5502.00    1.41131   1.36739   -1.000
 5503.00    1.42397   1.36506   -1.000
 5504.00    1.43454   1.36536   -1.000
 5505.00    1.42727   1.36261   -1.000
 5506.00    1.40793   1.35726   -1.000
 5507.00    1.40265   1.35589   -1.000
 5508.00    1.41837   1.36215   -1.000
 5509.00    1.42856   1.37102   -1.000
 5510.00    1.43364   1.37390   -1.000
 5511.00    1.42553   1.36765   -1.000
 5512.00    1.40612   1.35676   -1.000
 5513.00    1.39457   1.34887   -1.000
 5514.00    1.39661   1.34902   -1.000
 5515.00    1.41904   1.35723   -1.000
 5516.00    1.43897   1.37036   -1.000
 5517.00    1.45359   1.38517   -1.000
 5518.00    1.46571   1.39885   -1.000
 5519.00    1.47111   1.40865   -1.000
 5520.00    1.47219   1.41297   -1.000
 5521.00    1.46314   1.41305   -1.000
 5522.00    1.46300   1.41163   -1.000
 5523.00    1.46101   1.40947   -1.000
 5524.00    1.45499   1.40401   -1.000
 5525.00    1.44743   1.39164   -1.000
 5526.00    1.42372   1.37222   -1.000
 5527.00    1.40167   1.35199   -1.000
 5528.00    1.39439   1.34127   -1.000
 5529.00    1.40726   1.34676   -1.000
 5530.00    1.43445   1.36468   -1.000
 5531.00    1.44944   1.38302   -1.000
 5532.00    1.44791   1.39181   -1.000
 5533.00    1.43960   1.39014   -1.000
 5534.00    1.42918   1.38411   -1.000
 5535.00    1.42402   1.38055   -1.000
 5536.00    1.43352   1.38250   -1.000
 5537.00    1.44342   1.38863   -1.000
 5538.00    1.44825   1.39620   -1.000
 5539.00    1.46020   1.40374   -1.000
 5540.00    1.47162   1.41008   -1.000
 5541.00    1.47498   1.41287   -1.000
 5542.00    1.46239   1.41046   -1.000
 5543.00    1.44401   1.40464   -1.000
 5544.00    1.44721   1.39960   -1.000
 5545.00    1.45791   1.39823   -1.000
 5546.00    1.45684   1.40077   -1.000
 5547.00    1.46325   1.40670   -1.000
 5548.00    1.47301   1.41509   -1.000
 5549.00    1.48260   1.42324   -1.000
 5550.00    1.48273   1.42779   -1.000
 5551.00    1.47888   1.42730   -1.000
 5552.00    1.47049   1.42264   -1.000
 5553.00    1.46248   1.41613   -1.000
 5554.00    1.44691   1.41080   -1.000
 5555.00    1.45465   1.40870   -1.000
 5556.00    1.46103   1.40940   -1.000
 5557.00    1.46654   1.41099   -1.000
 5558.00    1.46315   1.41219   -1.000
 5559.00    1.46945   1.41281   -1.000
 5560.00    1.46552   1.41220   -1.000
 5561.00    1.46230   1.40906   -1.000
 5562.00    1.45393   1.40350   -1.000
 5563.00    1.44336   1.39761   -1.000
 5564.00    1.43680   1.39333   -1.000
 5565.00    1.43036   1.39063   -1.000
 5566.00    1.42822   1.38842   -1.000
 5567.00    1.42793   1.38624   -1.000
 5568.00    1.42887   1.38446   -1.000
 5569.00    1.42144   1.38350   -1.000
 5570.00    1.41831   1.38295   -1.000
 5571.00    1.42913   1.38160   -1.000
 5572.00    1.42924   1.37980   -1.000
 5573.00    1.42482   1.38032   -1.000
 5574.00    1.37421   1.38498  112.384
 5575.00    1.30208   1.39209   -1.000
 5576.00    1.30378   1.39860   -1.000
 5577.00    1.37757   1.40359  117.028
 5578.00    1.46546   1.40789   -1.000
 5579.00    1.46910   1.41135   -1.000
 5580.00    1.45968   1.41267   -1.000
 5581.00    1.45462   1.41144   -1.000
 5582.00    1.44963   1.40879   -1.000
 5583.00    1.45454   1.40518   -1.000
 5584.00    1.45979   1.39789   -1.000
 5585.00    1.43904   1.38275   -1.000
 5586.00    1.41037   1.36008   -1.000
 5587.00    1.37364   1.33721   -1.000
 5588.00    1.36222   1.32371   -1.000
 5589.00    1.37652   1.32431   -1.000
 5590.00    1.39513   1.33615   -1.000
 5591.00    1.41192   1.35134   -1.000
 5592.00    1.42374   1.36253   -1.000
 5593.00    1.41803   1.36823   -1.000
 5594.00    1.41391   1.37290   -1.000
 5595.00    1.42155   1.38041   -1.000
 5596.00    1.43605   1.38766   -1.000
 5597.00    1.43537   1.38790   -1.000
 5598.00    1.41622   1.37989   -1.000
 5599.00    1.40769   1.36860   -1.000
 5600.00    1.40938   1.35828   -1.000
 5601.00    1.40127   1.35092   -1.000
 5602.00    1.39516   1.35010   -1.000
 5603.00    1.40262   1.36032   -1.000
 5604.00    1.42539   1.38125   -1.000
 5605.00    1.45974   1.40569   -1.000
 5606.00    1.47433   1.42507   -1.000
 5607.00    1.47608   1.43575   -1.000
 5608.00    1.48301   1.43961   -1.000
 5609.00    1.48210   1.44059   -1.000
 5610.00    1.48412   1.44135   -1.000
 5611.00    1.47969   1.44094   -1.000
 5612.00    1.47392   1.43452   -1.000
 5613.00    1.46479   1.41718   -1.000
 5614.00    1.43390   1.39071   -1.000
 5615.00    1.39849   1.36671   -1.000
 5616.00    1.39297   1.35846   -1.000
 5617.00    1.42152   1.36789   -1.000
 5618.00    1.44862   1.38475   -1.000
 5619.00    1.45540   1.39852   -1.000
 5620.00    1.45546   1.40663   -1.000
 5621.00    1.46194   1.41037   -1.000
 5622.00    1.46556   1.40871   -1.000
 5623.00    1.44655   1.40028   -1.000
 5624.00    1.42379   1.38898   -1.000
 5625.00    1.41864   1.38282   -1.000
 5626.00    1.43518   1.38661   -1.000
 5627.00    1.44740   1.39773   -1.000
 5628.00    1.45661   1.41010   -1.000
 5629.00    1.46752   1.41999   -1.000
 5630.00    1.47580   1.42650   -1.000
 5631.00    1.48196   1.42942   -1.000
 5632.00    1.48200   1.42876   -1.000
 5633.00    1.47660   1.42508   -1.000
 5634.00    1.47313   1.41917   -1.000
 5635.00    1.46424   1.41175   -1.000
 5636.00    1.45633   1.40405   -1.000
 5637.00    1.45118   1.39812   -1.000
 5638.00    1.44807   1.39535   -1.000
 5639.00    1.44441   1.39455   -1.000
 5640.00    1.44191   1.39341   -1.000
 5641.00    1.44403   1.39186   -1.000
 5642.00    1.45411   1.39214   -1.000
 5643.00    1.45777   1.39543   -1.000
 5644.00    1.45727   1.40030   -1.000
 5645.00    1.46263   1.40477   -1.000
 5646.00    1.46625   1.40788   -1.000
 5647.00    1.46655   1.40921   -1.000
 5648.00    1.46728   1.40873   -1.000
 5649.00    1.46099   1.40763   -1.000
 5650.00    1.46350   1.40798   -1.000
 5651.00    1.47180   1.41048   -1.000
 5652.00    1.46736   1.41300   -1.000
 5653.00    1.46477   1.41250   -1.000
 5654.00    1.46347   1.40758   -1.000
 5655.00    1.45608   1.39793   -1.000
 5656.00    1.44336   1.38297   -1.000
 5657.00    1.41513   1.36459   -1.000
 5658.00    1.38186   1.35005   -1.000
 5659.00    1.38451   1.34708   -1.000
 5660.00    1.41646   1.35528   -1.000
 5661.00    1.43324   1.36640   -1.000
 5662.00    1.42998   1.37494   -1.000
 5663.00    1.43391   1.38325   -1.000
 5664.00    1.45444   1.39344   -1.000
 5665.00    1.46374   1.40131   -1.000
 5666.00    1.45675   1.40203   -1.000
 5667.00    1.44895   1.39691   -1.000
 5668.00    1.44455   1.39194   -1.000
 5669.00    1.44390   1.39177   -1.000
 5670.00    1.45078   1.39685   -1.000
 5671.00    1.46243   1.40520   -1.000
 5672.00    1.46560   1.41432   -1.000
 5673.00    1.47953   1.42167   -1.000
 5674.00    1.48175   1.42568   -1.000
 5675.00    1.47757   1.42696   -1.000
 5676.00    1.47776   1.42719   -1.000
 5677.00    1.48515   1.42691   -1.000
 5678.00    1.47967   1.42509   -1.000
 5679.00    1.47493   1.42066   -1.000
 5680.00    1.46656   1.41339   -1.000
 5681.00    1.45833   1.40373   -1.000
 5682.00    1.44947   1.39343   -1.000
 5683.00    1.44439   1.38614   -1.000
 5684.00    1.44174   1.38449   -1.000
 5685.00    1.44475   1.38665   -1.000
 5686.00    1.44087   1.38819   -1.000
 5687.00    1.43233   1.38750   -1.000
 5688.00    1.43286   1.38723   -1.000
 5689.00    1.44734   1.39083   -1.000
 5690.00    1.46123   1.39882   -1.000
 5691.00    1.46893   1.40863   -1.000
 5692.00    1.47207   1.41687   -1.000
 5693.00    1.47346   1.42163   -1.000
 5694.00    1.47605   1.42306   -1.000
 5695.00    1.47707   1.42236   -1.000
 5696.00    1.47208   1.42000   -1.000
 5697.00    1.46871   1.41558   -1.000
 5698.00    1.45779   1.40901   -1.000
 5699.00    1.44513   1.40121   -1.000
 5700.00    1.43706   1.39367   -1.000
 5701.00    1.42617   1.38833   -1.000
 5702.00    1.42322   1.38731   -1.000
 5703.00    1.42943   1.39049   -1.000
 5704.00    1.43583   1.39382   -1.000
 5705.00    1.43587   1.39238   -1.000
 5706.00    1.42430   1.38440   -1.000
 5707.00    1.40718   1.37194   -1.000
 5708.00    1.39515   1.35884   -1.000
 5709.00    1.38813   1.34899   -1.000
 5710.00    1.38181   1.34569   -1.000
 5711.00    1.39149   1.35076   -1.000
 5712.00    1.41938   1.36373   -1.000
 5713.00    1.44484   1.38131   -1.000
 5714.00    1.46032   1.39805   -1.000
 5715.00    1.46375   1.40986   -1.000
 5716.00    1.46138   1.41689   -1.000
 5717.00    1.46116   1.42165   -1.000
 5718.00    1.46867   1.42605   -1.000
 5719.00    1.48168   1.43085   -1.000
 5720.00    1.48618   1.43587   -1.000
 5721.00    1.48795   1.44041   -1.000
 5722.00    1.48553   1.44383   -1.000
 5723.00    1.49204   1.44548   -1.000
 5724.00    1.49355   1.44419   -1.000
 5725.00    1.48126   1.43901   -1.000
 5726.00    1.46541   1.43137   -1.000
 5727.00    1.46181   1.42522   -1.000
 5728.00    1.46781   1.42340   -1.000
 5729.00    1.47251   1.42465   -1.000
 5730.00    1.47819   1.42565   -1.000
 5731.00    1.47268   1.42568   -1.000
 5732.00    1.47271   1.42720   -1.000
 5733.00    1.47864   1.43201   -1.000
 5734.00    1.48900   1.43818   -1.000
 5735.00    1.48339   1.44197   -1.000
 5736.00    1.47922   1.44212   -1.000
 5737.00    1.48268   1.44037   -1.000
 5738.00    1.48401   1.43874   -1.000
 5739.00    1.47778   1.43793   -1.000
 5740.00    1.47516   1.43736   -1.000
 5741.00    1.47897   1.43639   -1.000
 5742.00    1.47559   1.43564   -1.000
 5743.00    1.47485   1.43664   -1.000
 5744.00    1.47908   1.43964   -1.000
 5745.00    1.48637   1.44218   -1.000
 5746.00    1.48625   1.44126   -1.000
 5747.00    1.47600   1.43728   -1.000
 5748.00    1.46731   1.43431   -1.000
 5749.00    1.47114   1.43489   -1.000
 5750.00    1.47435   1.43591   -1.000
 5751.00    1.47296   1.43183   -1.000
 5752.00    1.45732   1.42151   -1.000
 5753.00    1.44169   1.41084   -1.000
 5754.00    1.44433   1.40799   -1.000
 5755.00    1.46218   1.41593   -1.000
 5756.00    1.48006   1.43005   -1.000
 5757.00    1.48430   1.44249   -1.000
 5758.00    1.48129   1.44756   -1.000
 5759.00    1.47966   1.44384   -1.000
 5760.00    1.47337   1.43372   -1.000
 5761.00    1.45985   1.42226   -1.000
 5762.00    1.45461   1.41558   -1.000
 5763.00    1.45789   1.41826   -1.000
 5764.00    1.46499   1.42970   -1.000
 5765.00    1.47884   1.44359   -1.000
 5766.00    1.49231   1.45332   -1.000
 5767.00    1.49436   1.45710   -1.000
 5768.00    1.48529   1.45689   -1.000
 5769.00    1.48640   1.45472   -1.000
 5770.00    1.48728   1.45148   -1.000
 5771.00    1.48095   1.44747   -1.000
 5772.00    1.47669   1.44304   -1.000
 5773.00    1.46908   1.43885   -1.000
 5774.00    1.46803   1.43579   -1.000
 5775.00    1.46662   1.43470   -1.000
 5776.00    1.46778   1.43528   -1.000
 5777.00    1.45401   1.43498  114.947
 5778.00    1.43861   1.43027  117.544
 5779.00    1.42225   1.41965  118.729
 5780.00    1.41845   1.40543  118.290
 5781.00    1.41917   1.39250   -1.000
 5782.00    1.43440   1.38496   -1.000
 5783.00    1.44831   1.38326   -1.000
 5784.00    1.44582   1.38519   -1.000
 5785.00    1.45035   1.38969   -1.000
 5786.00    1.46160   1.39759   -1.000
 5787.00    1.46884   1.40814   -1.000
 5788.00    1.47402   1.41762   -1.000
 5789.00    1.47477   1.42274   -1.000
 5790.00    1.47559   1.42367   -1.000
 5791.00    1.46909   1.42394   -1.000
 5792.00    1.46588   1.42748   -1.000
 5793.00    1.46904   1.43492   -1.000
 5794.00    1.46967   1.44303   -1.000
 5795.00    1.47676   1.44748   -1.000
 5796.00    1.48197   1.44641   -1.000
 5797.00    1.48097   1.44238   -1.000
 5798.00    1.48175   1.44091   -1.000
 5799.00    1.49170   1.44530   -1.000
 5800.00    1.50682   1.45341   -1.000
 5801.00    1.50940   1.45992   -1.000
 5802.00    1.50517   1.46084   -1.000
 5803.00    1.49655   1.45602   -1.000
 5804.00    1.48806   1.44888   -1.000
 5805.00    1.48443   1.44381   -1.000
 5806.00    1.48856   1.44305   -1.000
 5807.00    1.49350   1.44576   -1.000
 5808.00    1.49322   1.44969   -1.000
 5809.00    1.49465   1.45328   -1.000
 5810.00    1.50542   1.45620   -1.000
 5811.00    1.50720   1.45807   -1.000
 5812.00    1.50626   1.45791   -1.000
 5813.00    1.50668   1.45481   -1.000
 5814.00    1.49615   1.44912   -1.000
 5815.00    1.48818   1.44329   -1.000
 5816.00    1.48874   1.44111   -1.000
 5817.00    1.49052   1.44489   -1.000
 5818.00    1.49794   1.45278   -1.000
 5819.00    1.51187   1.46038   -1.000
 5820.00    1.51609   1.46476   -1.000
 5821.00    1.51288   1.46584   -1.000
 5822.00    1.51179   1.46500   -1.000
 5823.00    1.51542   1.46364   -1.000
 5824.00    1.51324   1.46273   -1.000
 5825.00    1.50884   1.46276   -1.000
 5826.00    1.50929   1.46378   -1.000
 5827.00    1.51428   1.46557   -1.000
 5828.00    1.51785   1.46770   -1.000
 5829.00    1.51773   1.46938   -1.000
 5830.00    1.52193   1.46980   -1.000
 5831.00    1.51653   1.46874   -1.000
 5832.00    1.51830   1.46645   -1.000
 5833.00    1.51283   1.46332   -1.000
 5834.00    1.50077   1.46019   -1.000
 5835.00    1.50914   1.45850   -1.000
 5836.00    1.51194   1.45885   -1.000
 5837.00    1.51722   1.46036   -1.000
 5838.00    1.51210   1.46232   -1.000
 5839.00    1.51380   1.46502   -1.000
 5840.00    1.51605   1.46836   -1.000
 5841.00    1.51667   1.47101   -1.000
 5842.00    1.52173   1.47144   -1.000
 5843.00    1.51979   1.46907   -1.000
 5844.00    1.51851   1.46447   -1.000
 5845.00    1.51036   1.45872   -1.000
 5846.00    1.49829   1.45306   -1.000
 5847.00    1.49281   1.44887   -1.000
 5848.00    1.49428   1.44698   -1.000
 5849.00    1.49061   1.44635   -1.000
 5850.00    1.49151   1.44409   -1.000
 5851.00    1.49587   1.43793   -1.000
 5852.00    1.47824   1.42885   -1.000
 5853.00    1.46754   1.42062   -1.000
 5854.00    1.46634   1.41544   -1.000
 5855.00    1.46131   1.41100   -1.000
 5856.00    1.45739   1.40388   -1.000
 5857.00    1.45034   1.39583   -1.000
 5858.00    1.45106   1.39318   -1.000
 5859.00    1.46154   1.39930   -1.000
 5860.00    1.47430   1.41064   -1.000
 5861.00    1.48101   1.42110   -1.000
 5862.00    1.49037   1.42774   -1.000
 5863.00    1.49088   1.43118   -1.000
 5864.00    1.48603   1.43219   -1.000
 5865.00    1.48195   1.43074   -1.000
 5866.00    1.47670   1.42813   -1.000
 5867.00    1.47658   1.42782   -1.000
 5868.00    1.48411   1.43219   -1.000
 5869.00    1.49788   1.43952   -1.000
 5870.00    1.50623   1.44570   -1.000
 5871.00    1.50478   1.44809   -1.000
 5872.00    1.50239   1.44707   -1.000
 5873.00    1.50139   1.44464   -1.000
 5874.00    1.50098   1.44231   -1.000
 5875.00    1.50150   1.44024   -1.000
 5876.00    1.49713   1.43771   -1.000
 5877.00    1.49463   1.43377   -1.000
 5878.00    1.48749   1.42809   -1.000
 5879.00    1.48159   1.42169   -1.000
 5880.00    1.47188   1.41643   -1.000
 5881.00    1.46821   1.41326   -1.000
 5882.00    1.47493   1.41116   -1.000
 5883.00    1.47280   1.40847   -1.000
 5884.00    1.46313   1.40459   -1.000
 5885.00    1.44404   1.39801   -1.000
 5886.00    1.40521   1.38228   -1.000
 5887.00    1.31957   1.34835   -1.000
 5888.00    1.24010   1.29599   -1.000
 5889.00    1.21065   1.24283   -1.000
 5890.00    1.24710   1.21526   -1.000
 5891.00    1.31525   1.22419   -1.000
 5892.00    1.34821   1.25316   -1.000
 5893.00    1.32140   1.27360   -1.000
 5894.00    1.28085   1.27074  130.884
 5895.00    1.26301   1.25456  126.631
 5896.00    1.30117   1.24861   -1.000
 5897.00    1.35778   1.26691   -1.000
 5898.00    1.40232   1.30214   -1.000
 5899.00    1.43687   1.33779   -1.000
 5900.00    1.45538   1.36504   -1.000
 5901.00    1.47094   1.38392   -1.000
 5902.00    1.47412   1.39639   -1.000
 5903.00    1.47388   1.40374   -1.000
 5904.00    1.47641   1.40739   -1.000
 5905.00    1.47511   1.40926   -1.000
 5906.00    1.46785   1.41119   -1.000
 5907.00    1.46488   1.41404   -1.000
 5908.00    1.47198   1.41739   -1.000
 5909.00    1.47823   1.42022   -1.000
 5910.00    1.47374   1.42153   -1.000
 5911.00    1.46959   1.41999   -1.000
 5912.00    1.46761   1.41431   -1.000
 5913.00    1.45456   1.40510   -1.000
 5914.00    1.44068   1.39580   -1.000
 5915.00    1.43365   1.39072   -1.000
 5916.00    1.43874   1.39172   -1.000
 5917.00    1.44582   1.39743   -1.000
 5918.00    1.45313   1.40493   -1.000
 5919.00    1.46038   1.41142   -1.000
 5920.00    1.46442   1.41529   -1.000
 5921.00    1.46348   1.41657   -1.000
 5922.00    1.46103   1.41680   -1.000
 5923.00    1.46138   1.41791   -1.000
 5924.00    1.47433   1.42071   -1.000
 5925.00    1.47992   1.42418   -1.000
 5926.00    1.47890   1.42615   -1.000
 5927.00    1.48015   1.42472   -1.000
 5928.00    1.47233   1.41985   -1.000
 5929.00    1.46335   1.41433   -1.000
 5930.00    1.45977   1.41215   -1.000
 5931.00    1.46474   1.41451   -1.000
 5932.00    1.47522   1.41809   -1.000
 5933.00    1.47771   1.41889   -1.000
 5934.00    1.47077   1.41695   -1.000
 5935.00    1.46568   1.41595   -1.000
 5936.00    1.46096   1.41847   -1.000
 5937.00    1.46479   1.42294   -1.000
 5938.00    1.46193   1.42546   -1.000
 5939.00    1.45709   1.42361   -1.000
 5940.00    1.45663   1.41831   -1.000
 5941.00    1.45634   1.41288   -1.000
 5942.00    1.45468   1.41072   -1.000
 5943.00    1.45657   1.41295   -1.000
 5944.00    1.46429   1.41774   -1.000
 5945.00    1.46821   1.42157   -1.000
 5946.00    1.46980   1.42167   -1.000
 5947.00    1.46045   1.41792   -1.000
 5948.00    1.45285   1.41334   -1.000
 5949.00    1.45535   1.41156   -1.000
 5950.00    1.46117   1.41293   -1.000
 5951.00    1.46613   1.41454   -1.000
 5952.00    1.45504   1.41449   -1.000
 5953.00    1.45454   1.41380   -1.000
 5954.00    1.45697   1.41353   -1.000
 5955.00    1.45516   1.41280   -1.000
 5956.00    1.44834   1.41124   -1.000
 5957.00    1.44824   1.41090   -1.000
 5958.00    1.45484   1.41423   -1.000
 5959.00    1.47017   1.42103   -1.000
 5960.00    1.47731   1.42860   -1.000
 5961.00    1.47956   1.43420   -1.000
 5962.00    1.48423   1.43654   -1.000
 5963.00    1.48634   1.43564   -1.000
 5964.00    1.47320   1.43244   -1.000
 5965.00    1.46591   1.42880   -1.000
 5966.00    1.46390   1.42700   -1.000
 5967.00    1.46882   1.42817   -1.000
 5968.00    1.48001   1.43141   -1.000
 5969.00    1.48676   1.43506   -1.000
 5970.00    1.48816   1.43812   -1.000
 5971.00    1.48913   1.43993   -1.000
 5972.00    1.47968   1.43977   -1.000
 5973.00    1.47038   1.43698   -1.000
 5974.00    1.46790   1.43132   -1.000
 5975.00    1.46324   1.42359   -1.000
 5976.00    1.45442   1.41643   -1.000
 5977.00    1.45354   1.41302   -1.000
 5978.00    1.46093   1.41480   -1.000
 5979.00    1.46565   1.42023   -1.000
 5980.00    1.47499   1.42546   -1.000
 5981.00    1.47223   1.42632   -1.000
 5982.00    1.46272   1.42117   -1.000
 5983.00    1.45061   1.41264   -1.000
 5984.00    1.44451   1.40615   -1.000
 5985.00    1.45128   1.40573   -1.000
 5986.00    1.45682   1.41092   -1.000
 5987.00    1.46239   1.41809   -1.000
 5988.00    1.47311   1.42393   -1.000
 5989.00    1.47911   1.42705   -1.000
 5990.00    1.47294   1.42789   -1.000
 5991.00    1.47178   1.42869   -1.000
 5992.00    1.47731   1.43195   -1.000
 5993.00    1.47902   1.43733   -1.000
 5994.00    1.48486   1.44122   -1.000
 5995.00    1.48681   1.44048   -1.000
 5996.00    1.47963   1.43561   -1.000
 5997.00    1.47209   1.43021   -1.000
 5998.00    1.46977   1.42762   -1.000
 5999.00    1.47246   1.42818   -1.000
 6000.00    1.47168   1.42943   -1.000
 6001.00    1.46948   1.42893   -1.000
 6002.00    1.46300   1.42662   -1.000
 6003.00    1.45358   1.42433   -1.000
 6004.00    1.45925   1.42289   -1.000
 6005.00    1.45586   1.42039   -1.000
 6006.00    1.44800   1.41494   -1.000
 6007.00    1.43669   1.40862   -1.000
 6008.00    1.43351   1.40657   -1.000
 6009.00    1.43916   1.41133   -1.000
 6010.00    1.45720   1.41920   -1.000
 6011.00    1.46442   1.42396   -1.000
 6012.00    1.45698   1.42356   -1.000
 6013.00    1.45523   1.42100   -1.000
 6014.00    1.46084   1.41952   -1.000
 6015.00    1.46534   1.41935   -1.000
 6016.00    1.46097   1.41901   -1.000
 6017.00    1.45512   1.41774   -1.000
 6018.00    1.45628   1.41547   -1.000
 6019.00    1.45332   1.41224   -1.000
 6020.00    1.44673   1.40918   -1.000
 6021.00    1.44327   1.40820   -1.000
 6022.00    1.44503   1.41004   -1.000
 6023.00    1.44872   1.41399   -1.000
 6024.00    1.44577   1.41933   -1.000
 6025.00    1.45225   1.42543   -1.000
 6026.00    1.45824   1.43127   -1.000
 6027.00    1.46137   1.43616   -1.000
 6028.00    1.47165   1.44029   -1.000
 6029.00    1.47796   1.44378   -1.000
 6030.00    1.47598   1.44640   -1.000
 6031.00    1.47468   1.44846   -1.000
 6032.00    1.47726   1.45060   -1.000
 6033.00    1.47900   1.45297   -1.000
 6034.00    1.47927   1.45518   -1.000
 6035.00    1.47525   1.45657  113.178
 6036.00    1.47733   1.45641  113.799
 6037.00    1.47467   1.45430  113.990
 6038.00    1.47683   1.45063   -1.000
 6039.00    1.47220   1.44650   -1.000
 6040.00    1.46684   1.44328   -1.000
 6041.00    1.46742   1.44180   -1.000
 6042.00    1.46705   1.44226   -1.000
 6043.00    1.47032   1.44501   -1.000
 6044.00    1.47130   1.44993   -1.000
 6045.00    1.47545   1.45532   -1.000
 6046.00    1.48103   1.45929   -1.000
 6047.00    1.48512   1.46143   -1.000
 6048.00    1.48810   1.46210   -1.000
 6049.00    1.48494   1.46158   -1.000
 6050.00    1.48313   1.46009   -1.000
 6051.00    1.48121   1.45761   -1.000
 6052.00    1.47958   1.45404   -1.000
 6053.00    1.47557   1.44956   -1.000
 6054.00    1.46768   1.44475   -1.000
 6055.00    1.46176   1.44052   -1.000
 6056.00    1.46631   1.43815   -1.000
 6057.00    1.45940   1.43858   -1.000
 6058.00    1.42186   1.44142  113.977
 6059.00    1.43300   1.44497  114.547
 6060.00    1.46357   1.44689  116.513
 6061.00    1.25306   1.44499   -1.000
 6062.00    0.80814   1.43821   -1.000
 6063.00    0.99385   1.42793   -1.000
 6064.00    1.44118   1.41848   39.560
 6065.00    1.40942   1.41534  129.052
 6066.00    1.42111   1.42127  113.984
 6067.00    1.47722   1.43360   -1.000
 6068.00    1.49582   1.44637   -1.000
 6069.00    1.48039   1.45536   -1.000
 6070.00    1.48597   1.46016   -1.000
 6071.00    1.48441   1.46213   -1.000
 6072.00    1.47869   1.46239  112.992
 6073.00    1.47896   1.46180  113.461
 6074.00    1.47835   1.46066  114.086
 6075.00    1.47307   1.45795  114.799
 6076.00    1.46273   1.45259  115.678
 6077.00    1.45401   1.44550  116.206
 6078.00    1.45160   1.43913  116.206
 6079.00    1.44769   1.43505  116.382
 6080.00    1.45140   1.43265  116.664
 6081.00    1.44878   1.43049  116.591
 6082.00    1.44425   1.42846  116.494
 6083.00    1.43877   1.42749  116.315
 6084.00    1.44227   1.42798  115.920
 6085.00    1.44879   1.42973   -1.000
 6086.00    1.45160   1.43239   -1.000
 6087.00    1.45356   1.43491   -1.000
 6088.00    1.45123   1.43547  117.062
 6089.00    1.44542   1.43323  116.775
 6090.00    1.44207   1.42962  115.991
 6091.00    1.43850   1.42747  115.425
 6092.00    1.44237   1.42857  114.792
 6093.00    1.44798   1.43264  114.444
 6094.00    1.45258   1.43796  114.605
 6095.00    1.45620   1.44266  114.861
 6096.00    1.45885   1.44588  114.890
 6097.00    1.45810   1.44788  115.221
 6098.00    1.45919   1.44825  117.110
 6099.00    1.46104   1.44441  119.911
 6100.00    1.44476   1.43328  121.020
 6101.00    1.42334   1.41597  119.496
 6102.00    1.40482   1.40026  117.206
 6103.00    1.39849   1.39545  115.840
 6104.00    1.41568   1.40349  115.786
 6105.00    1.43424   1.41757  116.268
 6106.00    1.44412   1.42977  116.443
 6107.00    1.44607   1.43741  116.311
 6108.00    1.43946   1.44205  115.976
 6109.00    1.43569   1.44508  115.556
 6110.00    1.44560   1.44647  115.448
 6111.00    1.44374   1.44658  114.838
 6112.00    1.44423   1.44689  114.787
 6113.00    1.45275   1.44816  115.387
 6114.00    1.45600   1.44935  116.030
 6115.00    1.45185   1.44924  116.217
 6116.00    1.44621   1.44782  117.115
 6117.00    1.43988   1.44475  118.898
 6118.00    1.43765   1.43783  120.302
 6119.00    1.42923   1.42531  121.148
 6120.00    1.41493   1.40926  120.614
 6121.00    1.40178   1.39558  118.545
 6122.00    1.39352   1.39092  117.464
 6123.00    1.40631   1.39753  117.762
 6124.00    1.42130   1.41030  118.302
 6125.00    1.42553   1.42121  118.020
 6126.00    1.42584   1.42614  117.587
 6127.00    1.42073   1.42645  116.507
 6128.00    1.42069   1.42653  115.616
 6129.00    1.43034   1.43034  115.589
 6130.00    1.43733   1.43799  116.069
 6131.00    1.44246   1.44548  117.648
 6132.00    1.43647   1.44773  120.692
 6133.00    1.42796   1.44070  124.218
 6134.00    1.41174   1.42236  126.569
 6135.00    1.38123   1.39582  125.723
 6136.00    1.35230   1.37167  122.125
 6137.00    1.33988   1.36217  119.206
 6138.00    1.35673   1.37011  118.502
 6139.00    1.38631   1.38587  118.844
 6140.00    1.40395   1.39792  118.655
 6141.00    1.39847   1.40425  117.246
 6142.00    1.39849   1.41073  116.152
 6143.00    1.41740   1.42080  116.296
 6144.00    1.42850   1.43122  116.946
 6145.00    1.43350   1.43702  117.733
 6146.00    1.43410   1.43657  118.554
 6147.00    1.42881   1.43171  119.048
 6148.00    1.42248   1.42562  118.867
 6149.00    1.41222   1.42135  118.286
 6150.00    1.40885   1.42066  117.598
 6151.00    1.41546   1.42312  117.835
 6152.00    1.41796   1.42620  118.854
 6153.00    1.42011   1.42693  119.263
 6154.00    1.42148   1.42433  119.407
 6155.00    1.41733   1.42013  120.162
 6156.00    1.41173   1.41642  121.791
 6157.00    1.39992   1.41276  124.585
 6158.00    1.39252   1.40553  128.481
 6159.00    1.38398   1.39020  131.515
 6160.00    1.35978   1.36616  131.640
 6161.00    1.32734   1.34053  128.915
 6162.00    1.31054   1.32495  125.634
 6163.00    1.31636   1.32635  124.276
 6164.00    1.33927   1.34114  124.096
 6165.00    1.36151   1.35903  124.846
 6166.00    1.36661   1.37086  126.522
 6167.00    1.35847   1.37292  127.138
 6168.00    1.35422   1.36748  125.543
 6169.00    1.34118   1.36173  123.153
 6170.00    1.33835   1.36311  122.028
 6171.00    1.35273   1.37294  122.333
 6172.00    1.36705   1.38585  122.288
 6173.00    1.37432   1.39606  121.964
 6174.00    1.37885   1.40209  121.720
 6175.00    1.38441   1.40541  121.300
 6176.00    1.38490   1.40772  120.714
 6177.00    1.38723   1.41011  120.315
 6178.00    1.38765   1.41280  119.884
 6179.00    1.38777   1.41545  119.374
 6180.00    1.39190   1.41817  119.255
 6181.00    1.39632   1.42132  119.604
 6182.00    1.40011   1.42418  120.186
 6183.00    1.39845   1.42523  121.311
 6184.00    1.39420   1.42339  122.655
 6185.00    1.38998   1.41856  123.879
 6186.00    1.38629   1.41148  124.970
 6187.00    1.37847   1.40313  126.047
 6188.00    1.36256   1.39350   -1.000
 6189.00    1.35378   1.38201   -1.000
 6190.00    1.34258   1.37069   -1.000
 6191.00    1.32921   1.36527   -1.000
 6192.00    1.33432   1.37045   -1.000
 6193.00    1.35839   1.38444  120.514
 6194.00    1.37956   1.40028  120.657
 6195.00    1.38594   1.41195  121.731
 6196.00    1.39005   1.41717  123.090
 6197.00    1.38378   1.41609   -1.000
 6198.00    1.37099   1.41056   -1.000
 6199.00    1.35758   1.40492   -1.000
 6200.00    1.35575   1.40394   -1.000
 6201.00    1.36149   1.40887   -1.000
 6202.00    1.37437   1.41673   -1.000
 6203.00    1.38103   1.42372   -1.000
 6204.00    1.38750   1.42820   -1.000
 6205.00    1.39773   1.43071   -1.000
 6206.00    1.39763   1.43227   -1.000
 6207.00    1.39294   1.43300   -1.000
 6208.00    1.39227   1.43213   -1.000
 6209.00    1.38787   1.42876   -1.000
 6210.00    1.37643   1.42223   -1.000
 6211.00    1.36618   1.41214   -1.000
 6212.00    1.35501   1.39916   -1.000
 6213.00    1.34635   1.38618   -1.000
 6214.00    1.33853   1.37727   -1.000
 6215.00    1.33900   1.37441   -1.000
 6216.00    1.34341   1.37573   -1.000
 6217.00    1.34953   1.37729  125.839
 6218.00    1.35121   1.37674  125.388
 6219.00    1.34286   1.37523   -1.000
 6220.00    1.34363   1.37576   -1.000
 6221.00    1.34951   1.37955   -1.000
 6222.00    1.36008   1.38481  124.248
 6223.00    1.36539   1.38922  124.688
 6224.00    1.36278   1.39210   -1.000
 6225.00    1.36570   1.39365  125.978
 6226.00    1.36644   1.39286  127.920
 6227.00    1.36045   1.38740   -1.000
 6228.00    1.34976   1.37585   -1.000
 6229.00    1.33060   1.36062   -1.000
 6230.00    1.31355   1.34832   -1.000
 6231.00    1.31250   1.34568   -1.000
 6232.00    1.32157   1.35438   -1.000
 6233.00    1.34161   1.36998  123.595
 6234.00    1.36246   1.38524  124.689
 6235.00    1.36770   1.39414  125.983
 6236.00    1.36313   1.39446   -1.000
 6237.00    1.35864   1.38818   -1.000
 6238.00    1.35084   1.37955   -1.000
 6239.00    1.33966   1.37233   -1.000
 6240.00    1.32976   1.36781   -1.000
 6241.00    1.32554   1.36470   -1.000
 6242.00    1.32717   1.36075   -1.000
 6243.00    1.32393   1.35547   -1.000
 6244.00    1.32052   1.35091   -1.000
 6245.00    1.31837   1.35015   -1.000
 6246.00    1.31772   1.35520   -1.000
 6247.00    1.32741   1.36530   -1.000
 6248.00    1.34158   1.37626   -1.000
 6249.00    1.34691   1.38236   -1.000
 6250.00    1.34051   1.37994   -1.000
 6251.00    1.32644   1.36994   -1.000
 6252.00    1.31334   1.35750   -1.000
 6253.00    1.30363   1.34822   -1.000
 6254.00    1.29686   1.34385   -1.000
 6255.00    1.29320   1.34218   -1.000
 6256.00    1.29272   1.34071   -1.000
 6257.00    1.29338   1.33993   -1.000
 6258.00    1.29413   1.34273   -1.000
 6259.00    1.30324   1.35098   -1.000
 6260.00    1.31824   1.36338   -1.000
 6261.00    1.32781   1.37644   -1.000
 6262.00    1.33775   1.38661   -1.000
 6263.00    1.34565   1.39185   -1.000
 6264.00    1.33865   1.39277   -1.000
 6265.00    1.32925   1.39233   -1.000
 6266.00    1.32927   1.39302   -1.000
 6267.00    1.33661   1.39450   -1.000
 6268.00    1.34092   1.39482   -1.000
 6269.00    1.33685   1.39363   -1.000
 6270.00    1.33818   1.39254   -1.000
 6271.00    1.34012   1.39252   -1.000
 6272.00    1.33482   1.39220   -1.000
 6273.00    1.31998   1.38905   -1.000
 6274.00    1.29305   1.38181   -1.000
 6275.00    1.26870   1.37145   -1.000
 6276.00    1.25869   1.36014   -1.000
 6277.00    1.26470   1.34986   -1.000
 6278.00    1.26765   1.34206   -1.000
 6279.00    1.26185   1.33813   -1.000
 6280.00    1.25254   1.33963   -1.000
 6281.00    1.25168   1.34729   -1.000
 6282.00    1.26481   1.35967   -1.000
 6283.00    1.28407   1.37354   -1.000
 6284.00    1.30039   1.38577   -1.000
 6285.00    1.31500   1.39497   -1.000
 6286.00    1.32819   1.40120   -1.000
 6287.00    1.33316   1.40456   -1.000
 6288.00    1.33645   1.40452   -1.000
 6289.00    1.33377   1.40100   -1.000
 6290.00    1.33115   1.39550   -1.000
 6291.00    1.32582   1.39041   -1.000
 6292.00    1.32092   1.38711   -1.000
 6293.00    1.32587   1.38496   -1.000
 6294.00    1.33121   1.38200   -1.000
 6295.00    1.32773   1.37692   -1.000
 6296.00    1.33007   1.37067   -1.000
 6297.00    1.33226   1.36576   -1.000
 6298.00    1.32072   1.36347   -1.000
 6299.00    1.30511   1.36248   -1.000
 6300.00    1.30136   1.36113   -1.000
 6301.00    1.30082   1.36040   -1.000
 6302.00    1.30688   1.36314   -1.000
 6303.00    1.32309   1.37043   -1.000
 6304.00    1.32724   1.38023   -1.000
 6305.00    1.33006   1.38974   -1.000
 6306.00    1.33840   1.39757   -1.000
 6307.00    1.34529   1.40312   -1.000
 6308.00    1.34875   1.40578   -1.000
 6309.00    1.34582   1.40544   -1.000
 6310.00    1.34342   1.40299   -1.000
 6311.00    1.33590   1.39952   -1.000
 6312.00    1.33005   1.39531   -1.000
 6313.00    1.32639   1.39006   -1.000
 6314.00    1.32067   1.38400   -1.000
 6315.00    1.31543   1.37818   -1.000
 6316.00    1.31937   1.37368   -1.000
 6317.00    1.32234   1.37142   -1.000
 6318.00    1.32340   1.37279   -1.000
 6319.00    1.33207   1.37860   -1.000
 6320.00    1.33690   1.38721   -1.000
 6321.00    1.33899   1.39569   -1.000
 6322.00    1.33815   1.40283   -1.000
 6323.00    1.34442   1.40916   -1.000
 6324.00    1.34894   1.41467   -1.000
 6325.00    1.35651   1.41831   -1.000
 6326.00    1.36052   1.41965   -1.000
 6327.00    1.35711   1.41949   -1.000
 6328.00    1.35789   1.41901   -1.000
 6329.00    1.36248   1.41902   -1.000
 6330.00    1.38428   1.41990   -1.000
 6331.00    1.40021   1.42107  122.166
 6332.00    1.36285   1.42022   -1.000
 6333.00    1.35735   1.41457   -1.000
 6334.00    1.34474   1.40425   -1.000
 6335.00    1.32590   1.39376   -1.000
 6336.00    1.32745   1.38878   -1.000
 6337.00    1.33743   1.39151   -1.000
 6338.00    1.34768   1.39955   -1.000
 6339.00    1.35653   1.40866   -1.000
 6340.00    1.36579   1.41533   -1.000
 6341.00    1.36785   1.41756   -1.000
 6342.00    1.36590   1.41538   -1.000
 6343.00    1.35895   1.41125   -1.000
 6344.00    1.35826   1.40862   -1.000
 6345.00    1.36114   1.40967   -1.000
 6346.00    1.36525   1.41423   -1.000
 6347.00    1.37057   1.42083   -1.000
 6348.00    1.37270   1.42782   -1.000
 6349.00    1.37860   1.43354   -1.000
 6350.00    1.37925   1.43648   -1.000
 6351.00    1.37654   1.43582   -1.000
 6352.00    1.37366   1.43164   -1.000
 6353.00    1.36224   1.42510   -1.000
 6354.00    1.35320   1.41827   -1.000
 6355.00    1.34649   1.41274   -1.000
 6356.00    1.34570   1.40819   -1.000
 6357.00    1.34481   1.40314   -1.000
 6358.00    1.33845   1.39734   -1.000
 6359.00    1.33748   1.39214   -1.000
 6360.00    1.34370   1.38850   -1.000
 6361.00    1.34683   1.38648   -1.000
 6362.00    1.33555   1.38650   -1.000
 6363.00    1.32955   1.38946   -1.000
 6364.00    1.33620   1.39539   -1.000
 6365.00    1.34435   1.40304   -1.000
 6366.00    1.35083   1.41069   -1.000
 6367.00    1.35215   1.41680   -1.000
 6368.00    1.35462   1.42029   -1.000
 6369.00    1.35772   1.42135   -1.000
 6370.00    1.36319   1.42172   -1.000
 6371.00    1.36112   1.42353   -1.000
 6372.00    1.35739   1.42725   -1.000
 6373.00    1.35662   1.43138   -1.000
 6374.00    1.34777   1.43397   -1.000
 6375.00    1.34077   1.43407   -1.000
 6376.00    1.33718   1.43195   -1.000
 6377.00    1.33553   1.42834   -1.000
 6378.00    1.33224   1.42418   -1.000
 6379.00    1.32712   1.42060   -1.000
 6380.00    1.32383   1.41847   -1.000
 6381.00    1.32439   1.41800   -1.000
 6382.00    1.32125   1.41877   -1.000
 6383.00    1.31802   1.42015   -1.000
 6384.00    1.31612   1.42192   -1.000
 6385.00    1.31709   1.42417   -1.000
 6386.00    1.31271   1.42665   -1.000
 6387.00    1.30377   1.42848   -1.000
 6388.00    1.29413   1.42867   -1.000
 6389.00    1.28580   1.42631   -1.000
 6390.00    1.27907   1.42038   -1.000
 6391.00    1.26999   1.41092   -1.000
 6392.00    1.25541   1.40096   -1.000
 6393.00    1.23773   1.39594   -1.000
 6394.00    1.23404   1.39928   -1.000
 6395.00    1.23856   1.40832   -1.000
 6396.00    1.24192   1.41575   -1.000
 6397.00    1.23949   1.41537   -1.000
 6398.00    1.22541   1.40716   -1.000
 6399.00    1.20236   1.39756   -1.000
 6400.00    1.18930   1.39490   -1.000
 6401.00    1.18970   1.40252   -1.000
 6402.00    1.20131   1.41611   -1.000
 6403.00    1.21018   1.42799   -1.000
 6404.00    1.20949   1.43290   -1.000
 6405.00    1.20144   1.43033   -1.000
 6406.00    1.18705   1.42326   -1.000
 6407.00    1.16986   1.41619   -1.000
 6408.00    1.15892   1.41238   -1.000
 6409.00    1.15431   1.41175   -1.000
 6410.00    1.14628   1.41204   -1.000
 6411.00    1.13050   1.41205   -1.000
 6412.00    1.11955   1.41266   -1.000
 6413.00    1.11458   1.41465   -1.000
 6414.00    1.11393   1.41726   -1.000
 6415.00    1.11258   1.41936   -1.000
 6416.00    1.10548   1.41989   -1.000
 6417.00    1.08984   1.41758   -1.000
 6418.00    1.07385   1.41172   -1.000
 6419.00    1.06163   1.40421   -1.000
 6420.00    1.04665   1.39955   -1.000
 6421.00    1.03476   1.40187   -1.000
 6422.00    1.03308   1.41123   -1.000
 6423.00    1.03640   1.42348   -1.000
 6424.00    1.03145   1.43391   -1.000
 6425.00    1.01820   1.44044   -1.000
 6426.00    1.00919   1.44266   -1.000
 6427.00    1.00148   1.43974   -1.000
 6428.00    0.66888   1.43102   -1.000
