###################################################################
## OUTPUT of StarlightChains_v04.for    [Cid@UFSC - 01/Apr/2007] ##
###################################################################

## Some input info
NGC2298_a_1.cxt                          [arq_obs]
Base.BC03.S                              [arq_base]
NGC2298_a_1.msk                          [arq_masks]
StCv04.C11.config                        [arq_config]
  150                                    [N_base]
    0                                    [N_YAV_components = # of components with extra extinction!]
    0                                    [i_FitPowerLaw (1/0 = Yes/No)]
-9.99                                    [alpha_PowerLaw]
CCM                                      [red_law_option]
 1.458241                                [q_norm = A(l_norm)/A(V)]

## (Re)Sampling Parameters
 3359.00                                 [l_ini (A)]
 6428.00                                 [l_fin (A)]
    1.00                                 [dl    (A)]     (OBS: dl_cushion =    50.00 A)

## Normalization info
 4020.00                                 [l_norm (A) - for base]
 4010.00                                 [llow_norm (A) - window for f_obs]
 4060.00                                 [lupp_norm (A) - window for f_obs]
3.712074E-15                             [fobs_norm (in input units)]

## S/N
 4730.00                                 [llow_SN (A) - window for S/N]
 4780.00                                 [lupp_SN (A) - window for S/N]
  81.814                                 [S/N in S/N window]
  72.947                                 [S/N in norm. window]
 157.218                                 [S/N_err in S/N window]
 140.180                                 [S/N_err in norm. window]
  1.0000                                 [fscale_chi2]

## etc...
  2147483644                             [idum_orig]
  3065                                   [NOl_eff]
  1259                                   [Nl_eff]
  1806    NSIGMA                         [Ntot_cliped & clip_method]
  1174950                                [Nglobal_steps]
   7                                     [N_chains]
  15                                     [NEX0s_base = N_base in EX0s-fits]
 0   0   1      150   2.0   3.200E+02    [Clip-Bug, RC-Crash & Burn-In warning-flags, n_censored_weights, wei_nsig_threshold & wei_limit]
    62     61.903     61.903      0.000  [idt_all, wdt_TotTime, wdt_UsrTime & wdt_SysTime (sec)]

## Synthesis Results - Best model ##

 2.47895E+00                             [chi2/Nl_eff]
     1.20510                             [adev (%)]

   102.13190                             [sum-of-x (%)]
 9.17142E-15                             [Flux_tot (units of input spectrum!)]
 9.09980E-11                             [Mini_tot (???)]
 4.68431E-11                             [Mcor_tot (???)]

 -11.78                                  [v0_min  (km/s)]
  65.67                                  [vd_min  (km/s)]
 0.6577                                  [AV_min  (mag)]
 0.0000                                  [YAV_min (mag)]

# j     x_j(%)      Mini_j(%)     Mcor_j(%)     age_j(yr)     Z_j      (L/M)_j    YAV?  Mstars   component_j        a/Fe...       SSP_chi2r SSP_adev(%)   SSP_AV   SSP_x(%)
  1      0.0000     0.0000E+00    0.0000E+00    1.000000E+06  0.00010  8.160E-03    0   1.0000   age020_m22            0.0000     3.8832E+02    12.5915   3.7835    80.6116
  2     16.6302     3.4485E-02    6.6990E-02    3.160000E+06  0.00010  4.759E-02    0   1.0000   age045_m22            0.0000     4.4100E+01     4.4212   1.8147    98.5791
  3      0.0000     0.0000E+00    0.0000E+00    5.010000E+06  0.00010  1.932E-02    0   0.9582   age055_m22            0.0000     3.4197E+02    12.2147   2.0856    87.2424
  4      0.0000     0.0000E+00    0.0000E+00    6.610000E+06  0.00010  9.973E-03    0   0.9297   age061_m22            0.0000     3.7003E+02    12.5731   3.7406    83.8415
  5      0.0000     0.0000E+00    0.0000E+00    8.710000E+06  0.00010  7.690E-03    0   0.9030   age067_m22            0.0000     3.4904E+02    12.2044   3.7346    84.1846
  6      0.0000     0.0000E+00    0.0000E+00    1.000000E+07  0.00010  6.375E-03    0   0.8902   age070_m22            0.0000     3.3203E+02    11.8664   3.7524    84.2328
  7      0.0000     0.0000E+00    0.0000E+00    1.445000E+07  0.00010  4.874E-03    0   0.8589   age078_m22            0.0000     2.4155E+02    10.2259   3.5765    86.7531
  8      0.0000     0.0000E+00    0.0000E+00    2.512000E+07  0.00010  4.103E-03    0   0.8174   age090_m22            0.0000     9.6920E+01     6.8972   3.1840    92.3838
  9      0.0000     0.0000E+00    0.0000E+00    4.000000E+07  0.00010  3.654E-03    0   0.7830   age104_m22            0.0000     4.4248E+01     4.2875   2.9032    96.3371
 10      0.0000     0.0000E+00    0.0000E+00    5.500000E+07  0.00010  3.093E-03    0   0.7597   age110_m22            0.0000     3.5681E+01     3.4955   2.8064    97.6298
 11      0.0000     9.7052E-08    1.3458E-07    1.015200E+08  0.00010  2.431E-03    0   0.7138   age116_m22            0.0000     4.4094E+01     3.2161   2.4648   100.2941
 12      0.0000     0.0000E+00    0.0000E+00    1.609000E+08  0.00010  1.319E-03    0   0.6775   age120_m22            0.0000     4.6314E+01     3.0340   1.9897   102.4444
 13      0.0000     0.0000E+00    0.0000E+00    2.861200E+08  0.00010  1.075E-03    0   0.6412   age125_m22            0.0000     1.7433E+02     6.1780   2.0696   105.2740
 14      0.0000     0.0000E+00    0.0000E+00    5.088000E+08  0.00010  7.183E-04    0   0.6083   age130_m22            0.0000     2.3417E+02     7.5222   1.8440   106.7043
 15      0.0000     0.0000E+00    0.0000E+00    9.047900E+08  0.00010  4.524E-04    0   0.5785   age135_m22            0.0000     2.4040E+02     7.7708   1.6444   107.8231
 16      0.0000     0.0000E+00    0.0000E+00    1.278050E+09  0.00010  3.018E-04    0   0.5588   age138_m22            0.0000     9.3261E+01     4.8415   1.1052   106.2288
 17      0.0000     0.0000E+00    0.0000E+00    1.434000E+09  0.00010  2.691E-04    0   0.5532   age139_m22            0.0000     7.0314E+01     4.2813   0.9477   105.6693
 18      0.0000     0.0000E+00    0.0000E+00    2.500000E+09  0.00010  1.582E-04    0   0.5296   age150_m22            0.0000     5.3455E+01     3.6379   0.8325   106.5543
 19      0.0000     0.0000E+00    0.0000E+00    4.250000E+09  0.00010  1.007E-04    0   0.5110   age158_m22            0.0000     1.9403E+01     2.3132   0.6732   105.0619
 20      0.0083     1.1919E-02    1.1543E-02    6.250000E+09  0.00010  6.869E-05    0   0.4985   age166_m22            0.0000     4.1081E+00     1.3401   0.6085   102.5078
 21      0.0173     2.9075E-02    2.7851E-02    7.500000E+09  0.00010  5.873E-05    0   0.4931   age171_m22            0.0000     3.8474E+00     1.2966   0.5953   102.0669
 22      0.0000     0.0000E+00    0.0000E+00    1.000000E+10  0.00010  4.481E-05    0   0.4854   age181_m22            0.0000     3.6632E+00     1.2890   0.5563   101.6973
 23      1.1675     3.3022E+00    3.0734E+00    1.300000E+10  0.00010  3.489E-05    0   0.4791   age193_m22            0.0000     3.5997E+00     1.3180   0.4986   101.1250
 24      0.7011     2.2797E+00    2.1107E+00    1.500000E+10  0.00010  3.035E-05    0   0.4766   age201_m22            0.0000     3.7734E+00     1.3549   0.4586   100.9349
 25      0.4951     1.9464E+00    1.7903E+00    1.800000E+10  0.00010  2.510E-05    0   0.4735   age213_m22            0.0000     4.8365E+00     1.4965   0.3883   100.3375
 26      0.0000     0.0000E+00    0.0000E+00    1.000000E+06  0.00040  8.458E-03    0   1.0000   age020_m32            0.0000     3.7713E+02    12.4657   3.7990    81.3515
 27      0.0000     0.0000E+00    0.0000E+00    3.160000E+06  0.00040  3.973E-02    0   1.0000   age045_m32            0.0000     1.1266E+02     7.4449   3.0788    92.5423
 28      0.0000     0.0000E+00    0.0000E+00    5.010000E+06  0.00040  1.935E-02    0   0.9532   age055_m32            0.0000     2.7781E+02    11.2323   3.2942    87.4263
 29      0.0000     0.0000E+00    0.0000E+00    6.610000E+06  0.00040  1.204E-02    0   0.9243   age061_m32            0.0000     3.0563E+02    11.5407   3.6053    85.5864
 30      0.0000     0.0000E+00    0.0000E+00    8.710000E+06  0.00040  9.433E-03    0   0.9001   age067_m32            0.0000     2.7174E+02    10.9169   3.5802    86.3472
 31      0.0000     0.0000E+00    0.0000E+00    1.000000E+07  0.00040  8.053E-03    0   0.8877   age070_m32            0.0000     2.5868E+02    10.6708   3.5455    86.7484
 32      0.0000     0.0000E+00    0.0000E+00    1.445000E+07  0.00040  7.027E-03    0   0.8578   age078_m32            0.0000     1.5108E+02     8.5294   3.0325    91.4475
 33      0.0000     0.0000E+00    0.0000E+00    2.512000E+07  0.00040  4.707E-03    0   0.8166   age090_m32            0.0000     8.1576E+01     6.3829   2.7443    94.9047
 34      0.0000     0.0000E+00    0.0000E+00    4.000000E+07  0.00040  3.714E-03    0   0.7827   age104_m32            0.0000     4.2331E+01     4.2909   2.5543    97.6886
 35      0.0000     0.0000E+00    0.0000E+00    5.500000E+07  0.00040  2.982E-03    0   0.7593   age110_m32            0.0000     3.5668E+01     3.6293   2.4958    98.6883
 36      0.0000     0.0000E+00    0.0000E+00    1.015200E+08  0.00040  2.188E-03    0   0.7143   age116_m32            0.0000     6.9328E+01     3.6361   2.2432   102.3152
 37      0.3768     2.2000E-02    2.9300E-02    1.609000E+08  0.00040  1.690E-03    0   0.6856   age120_m32            0.0000     1.2184E+02     4.8224   2.0445   104.7030
 38      0.0000     0.0000E+00    0.0000E+00    2.861200E+08  0.00040  1.152E-03    0   0.6509   age125_m32            0.0000     1.8880E+02     6.5612   1.8248   106.2869
 39      0.0000     0.0000E+00    0.0000E+00    5.088000E+08  0.00040  7.331E-04    0   0.6182   age130_m32            0.0000     2.1573E+02     7.2995   1.6630   106.8227
 40      0.0000     0.0000E+00    0.0000E+00    9.047900E+08  0.00040  3.960E-04    0   0.5890   age135_m32            0.0000     1.0334E+02     5.3607   1.1958   105.4085
 41      0.0000     0.0000E+00    0.0000E+00    1.278050E+09  0.00040  2.854E-04    0   0.5687   age138_m32            0.0000     6.9292E+01     4.1795   0.8994   107.4351
 42      0.0000     0.0000E+00    0.0000E+00    1.434000E+09  0.00040  2.531E-04    0   0.5632   age139_m32            0.0000     6.5545E+01     4.0628   0.8390   107.4047
 43     16.6395     1.1035E+01    1.1546E+01    2.500000E+09  0.00040  1.488E-04    0   0.5386   age150_m32            0.0000     3.6008E+01     3.1640   0.5797   105.6672
 44     57.6013     6.2588E+01    6.3212E+01    4.250000E+09  0.00040  9.082E-05    0   0.5199   age158_m32            0.0000     5.1924E+00     1.5723   0.4689   102.6319
 45      0.0085     1.3208E-02    1.3024E-02    6.250000E+09  0.00040  6.362E-05    0   0.5076   age166_m32            0.0000     1.3367E+01     2.1242   0.4155    99.6152
 46      3.8041     7.0977E+00    6.9313E+00    7.500000E+09  0.00040  5.289E-05    0   0.5027   age171_m32            0.0000     1.8982E+01     2.4058   0.3766    98.3856
 47      4.6694     1.1601E+01    1.1151E+01    1.000000E+10  0.00040  3.972E-05    0   0.4948   age181_m32            0.0000     2.4589E+01     2.6523   0.3134    96.9750
 48      0.0128     3.8591E-02    3.6509E-02    1.300000E+10  0.00040  3.283E-05    0   0.4870   age193_m32            0.0000     1.0899E+01     2.0468   0.2752    99.4982
 49      0.0000     0.0000E+00    0.0000E+00    1.500000E+10  0.00040  2.925E-05    0   0.4854   age201_m32            0.0000     7.6639E+00     1.8623   0.2608   100.9654
 50      0.0000     0.0000E+00    0.0000E+00    1.800000E+10  0.00040  2.469E-05    0   0.4819   age213_m32            0.0000     8.1450E+00     1.9273   0.2220   101.4136
 51      0.0000     0.0000E+00    0.0000E+00    1.000000E+06  0.00400  1.114E-02    0   1.0000   age020_m42            0.0000     3.6120E+02    12.1510   3.7273    81.7679
 52      0.0000     0.0000E+00    0.0000E+00    3.160000E+06  0.00400  4.073E-02    0   0.9999   age045_m42            0.0000     6.8846E+01     5.7676   2.7872    94.8115
 53      0.0000     0.0000E+00    0.0000E+00    5.010000E+06  0.00400  2.534E-02    0   0.9488   age055_m42            0.0000     1.8035E+02     9.0051   3.1763    89.2159
 54      0.0000     0.0000E+00    0.0000E+00    6.610000E+06  0.00400  2.583E-02    0   0.9220   age061_m42            0.0000     5.1726E+01     4.9557   2.6068    95.3959
 55      0.0000     0.0000E+00    0.0000E+00    8.710000E+06  0.00400  1.706E-02    0   0.8983   age067_m42            0.0000     1.0444E+02     7.1084   2.4227    93.9621
 56      0.0000     0.0000E+00    0.0000E+00    1.000000E+07  0.00400  1.271E-02    0   0.8862   age070_m42            0.0000     1.6232E+02     8.9170   2.4044    92.7913
 57      0.0000     0.0000E+00    0.0000E+00    1.445000E+07  0.00400  7.666E-03    0   0.8571   age078_m42            0.0000     2.1570E+02     9.7900   2.7968    89.8491
 58      0.0000     0.0000E+00    0.0000E+00    2.512000E+07  0.00400  5.070E-03    0   0.8174   age090_m42            0.0000     1.3522E+02     8.1803   2.2706    94.4026
 59      0.0000     0.0000E+00    0.0000E+00    4.000000E+07  0.00400  3.505E-03    0   0.7851   age104_m42            0.0000     7.5490E+01     6.1414   1.9541    97.0568
 60      0.0000     0.0000E+00    0.0000E+00    5.500000E+07  0.00400  3.059E-03    0   0.7629   age110_m42            0.0000     2.5791E+01     3.0270   2.0267   100.8581
 61      0.0000     0.0000E+00    0.0000E+00    1.015200E+08  0.00400  2.268E-03    0   0.7207   age116_m42            0.0000     1.0453E+02     4.6422   1.9563   105.2088
 62      0.0000     0.0000E+00    0.0000E+00    1.609000E+08  0.00400  1.720E-03    0   0.6930   age120_m42            0.0000     1.2429E+02     5.3708   1.8180   106.6977
 63      0.0000     0.0000E+00    0.0000E+00    2.861200E+08  0.00400  1.079E-03    0   0.6613   age125_m42            0.0000     1.4035E+02     5.7929   1.4694   106.9362
 64      0.0000     0.0000E+00    0.0000E+00    5.088000E+08  0.00400  6.261E-04    0   0.6313   age130_m42            0.0000     1.6646E+02     6.3782   1.2794   109.6491
 65      0.0000     0.0000E+00    0.0000E+00    9.047900E+08  0.00400  3.535E-04    0   0.6024   age135_m42            0.0000     9.1082E+01     5.0454   0.8723   109.8095
 66      0.0000     0.0000E+00    0.0000E+00    1.278050E+09  0.00400  2.677E-04    0   0.5837   age138_m42            0.0000     8.4003E+01     5.6385   0.1856   106.3856
 67      0.0000     0.0000E+00    0.0000E+00    1.434000E+09  0.00400  1.910E-04    0   0.5716   age139_m42            0.0000     7.1580E+01     5.2438   0.3523   107.5362
 68      0.0000     0.0000E+00    0.0000E+00    2.500000E+09  0.00400  9.818E-05    0   0.5463   age150_m42            0.0000     8.4967E+01     5.4387   0.0735   102.6565
 69      0.0000     0.0000E+00    0.0000E+00    4.250000E+09  0.00400  5.491E-05    0   0.5269   age158_m42            0.0000     1.0980E+02     5.8886  -0.0526    99.8930
 70      0.0000     0.0000E+00    0.0000E+00    6.250000E+09  0.00400  3.857E-05    0   0.5151   age166_m42            0.0000     1.4802E+02     6.6685  -0.1766    98.2818
 71      0.0000     0.0000E+00    0.0000E+00    7.500000E+09  0.00400  3.243E-05    0   0.5110   age171_m42            0.0000     1.7431E+02     7.1452  -0.2516    97.5173
 72      0.0000     0.0000E+00    0.0000E+00    1.000000E+10  0.00400  2.424E-05    0   0.5028   age181_m42            0.0000     2.1110E+02     7.7478  -0.3273    96.6568
 73      0.0000     0.0000E+00    0.0000E+00    1.300000E+10  0.00400  1.883E-05    0   0.4927   age193_m42            0.0000     2.3976E+02     8.1872  -0.3644    96.2160
 74      0.0000     0.0000E+00    0.0000E+00    1.500000E+10  0.00400  1.685E-05    0   0.4919   age201_m42            0.0000     2.3173E+02     8.0711  -0.3610    96.3107
 75      0.0000     0.0000E+00    0.0000E+00    1.800000E+10  0.00400  1.452E-05    0   0.4874   age213_m42            0.0000     2.1706E+02     7.8602  -0.3475    96.6930
 76      0.0000     0.0000E+00    0.0000E+00    1.000000E+06  0.00800  1.286E-02    0   1.0000   age020_m52            0.0000     3.0879E+02    11.3742   3.7055    83.5695
 77      0.0000     0.0000E+00    0.0000E+00    3.160000E+06  0.00800  3.147E-02    0   0.9966   age045_m52            0.0000     2.9431E+02    11.2087   3.6149    85.2042
 78      0.0000     0.0000E+00    0.0000E+00    5.010000E+06  0.00800  2.664E-02    0   0.9443   age055_m52            0.0000     2.1025E+02     9.6048   3.2883    88.4063
 79      0.0000     0.0000E+00    0.0000E+00    6.610000E+06  0.00800  2.151E-02    0   0.9177   age061_m52            0.0000     1.3165E+02     7.6030   1.9883    94.4545
 80      0.0000     0.0000E+00    0.0000E+00    8.710000E+06  0.00800  1.628E-02    0   0.8948   age067_m52            0.0000     1.1984E+02     7.6997   2.3674    94.7272
 81      0.0000     0.0000E+00    0.0000E+00    1.000000E+07  0.00800  1.215E-02    0   0.8827   age070_m52            0.0000     1.5086E+02     8.5818   2.7059    93.0112
 82      0.0000     0.0000E+00    0.0000E+00    1.445000E+07  0.00800  8.739E-03    0   0.8552   age078_m52            0.0000     1.1688E+02     7.5813   2.7502    94.1298
 83      0.0000     0.0000E+00    0.0000E+00    2.512000E+07  0.00800  5.676E-03    0   0.8162   age090_m52            0.0000     6.8449E+01     5.7338   2.3637    98.4048
 84      0.0000     0.0000E+00    0.0000E+00    4.000000E+07  0.00800  3.939E-03    0   0.7841   age104_m52            0.0000     4.5005E+01     4.1513   2.2099   100.5547
 85      0.0000     0.0000E+00    0.0000E+00    5.500000E+07  0.00800  3.155E-03    0   0.7627   age110_m52            0.0000     4.3258E+01     3.2720   2.1833   102.0034
 86      0.0000     0.0000E+00    0.0000E+00    1.015200E+08  0.00800  2.206E-03    0   0.7226   age116_m52            0.0000     7.4642E+01     3.7814   2.0066   105.2809
 87      0.0000     0.0000E+00    0.0000E+00    1.609000E+08  0.00800  1.596E-03    0   0.6963   age120_m52            0.0000     1.0179E+02     4.6720   1.7960   106.7370
 88      0.0000     0.0000E+00    0.0000E+00    2.861200E+08  0.00800  1.002E-03    0   0.6665   age125_m52            0.0000     1.9162E+02     7.1908   1.5128   108.9146
 89      0.0000     0.0000E+00    0.0000E+00    5.088000E+08  0.00800  5.759E-04    0   0.6377   age130_m52            0.0000     2.2454E+02     8.2815   1.1670   112.4656
 90      0.0000     0.0000E+00    0.0000E+00    9.047900E+08  0.00800  2.972E-04    0   0.6086   age135_m52            0.0000     1.5484E+02     7.3754   0.6281   110.8066
 91      0.0000     0.0000E+00    0.0000E+00    1.278050E+09  0.00800  2.242E-04    0   0.5907   age138_m52            0.0000     1.3376E+02     6.8480   0.0091   109.0061
 92      0.0000     0.0000E+00    0.0000E+00    1.434000E+09  0.00800  1.645E-04    0   0.5787   age139_m52            0.0000     1.0874E+02     6.2577   0.1510   108.7489
 93      0.0000     0.0000E+00    0.0000E+00    2.500000E+09  0.00800  7.723E-05    0   0.5519   age150_m52            0.0000     1.5319E+02     7.0062  -0.1886   104.6727
 94      0.0000     0.0000E+00    0.0000E+00    4.250000E+09  0.00800  4.151E-05    0   0.5320   age158_m52            0.0000     1.7106E+02     7.1844  -0.2585   102.0977
 95      0.0000     0.0000E+00    0.0000E+00    6.250000E+09  0.00800  3.010E-05    0   0.5197   age166_m52            0.0000     2.3626E+02     8.2000  -0.4468   100.3044
 96      0.0000     0.0000E+00    0.0000E+00    7.500000E+09  0.00800  2.467E-05    0   0.5139   age171_m52            0.0000     2.5449E+02     8.4648  -0.4862    99.7721
 97      0.0000     0.0000E+00    0.0000E+00    1.000000E+10  0.00800  1.862E-05    0   0.5054   age181_m52            0.0000     3.1235E+02     9.2881  -0.6111    99.0258
 98      0.0000     0.0000E+00    0.0000E+00    1.300000E+10  0.00800  1.433E-05    0   0.4988   age193_m52            0.0000     3.7873E+02    10.1556  -0.7017    99.2905
 99      0.0000     0.0000E+00    0.0000E+00    1.500000E+10  0.00800  1.244E-05    0   0.4936   age201_m52            0.0000     4.0542E+02    10.4769  -0.7276    99.5833
100      0.0000     0.0000E+00    0.0000E+00    1.800000E+10  0.00800  1.070E-05    0   0.4888   age213_m52            0.0000     4.2549E+02    10.7329  -0.7616    99.3490
101      0.0000     0.0000E+00    0.0000E+00    1.000000E+06  0.02000  1.989E-02    0   1.0000   age020_m62            0.0000     3.5691E+02    11.9472   3.6784    82.8393
102      0.0000     0.0000E+00    0.0000E+00    3.160000E+06  0.02000  3.772E-02    0   0.9858   age045_m62            0.0000     3.2015E+02    11.5080   3.5373    85.0240
103      0.0000     0.0000E+00    0.0000E+00    5.010000E+06  0.02000  3.227E-02    0   0.9342   age055_m62            0.0000     1.1804E+02     7.4199   3.0339    91.8568
104      0.0000     0.0000E+00    0.0000E+00    6.610000E+06  0.02000  2.387E-02    0   0.9090   age061_m62            0.0000     1.9591E+02     9.6274   2.7776    91.6824
105      0.0000     0.0000E+00    0.0000E+00    8.710000E+06  0.02000  1.102E-02    0   0.8861   age067_m62            0.0000     5.7224E+02    16.3899   2.3889    88.0125
106      0.0000     0.0000E+00    0.0000E+00    1.000000E+07  0.02000  1.011E-02    0   0.8751   age070_m62            0.0000     3.9257E+02    13.5680   2.4140    90.1532
107      0.0000     0.0000E+00    0.0000E+00    1.445000E+07  0.02000  7.331E-03    0   0.8472   age078_m62            0.0000     2.7119E+02    11.2209   2.4323    91.3542
108      0.0000     0.0000E+00    0.0000E+00    2.512000E+07  0.02000  4.206E-03    0   0.8099   age090_m62            0.0000     2.7406E+02    11.2688   2.3364    90.9527
109      0.0000     0.0000E+00    0.0000E+00    4.000000E+07  0.02000  3.373E-03    0   0.7799   age104_m62            0.0000     6.4382E+01     5.5908   2.1582    98.7817
110      0.0000     0.0000E+00    0.0000E+00    5.500000E+07  0.02000  2.747E-03    0   0.7595   age110_m62            0.0000     4.3424E+01     3.8335   2.1020   101.8001
111      0.0000     0.0000E+00    0.0000E+00    1.015200E+08  0.02000  1.878E-03    0   0.7221   age116_m62            0.0000     9.4046E+01     4.1020   1.9778   106.0240
112      0.0000     0.0000E+00    0.0000E+00    1.609000E+08  0.02000  1.378E-03    0   0.6978   age120_m62            0.0000     1.5640E+02     5.6300   1.8307   108.3197
113      0.0000     0.0000E+00    0.0000E+00    2.861200E+08  0.02000  8.869E-04    0   0.6700   age125_m62            0.0000     2.7682E+02     8.2481   1.4694   112.1572
114      0.0000     0.0000E+00    0.0000E+00    5.088000E+08  0.02000  4.834E-04    0   0.6430   age130_m62            0.0000     2.5642E+02     8.7310   1.0332   113.9610
115      0.0000     0.0000E+00    0.0000E+00    9.047900E+08  0.02000  2.312E-04    0   0.6152   age135_m62            0.0000     1.3588E+02     7.1388   0.4229   112.8849
116      0.0000     0.0000E+00    0.0000E+00    1.278050E+09  0.02000  1.387E-04    0   0.5927   age138_m62            0.0000     1.1116E+02     6.3451   0.0335   108.4538
117      0.0000     0.0000E+00    0.0000E+00    1.434000E+09  0.02000  1.168E-04    0   0.5865   age139_m62            0.0000     1.1574E+02     6.3905   0.0061   106.8275
118      0.0000     0.0000E+00    0.0000E+00    2.500000E+09  0.02000  5.505E-05    0   0.5610   age150_m62            0.0000     2.0158E+02     7.9180  -0.3657   103.3566
119      0.0000     0.0000E+00    0.0000E+00    4.250000E+09  0.02000  3.070E-05    0   0.5407   age158_m62            0.0000     3.3093E+02     9.7664  -0.6501   102.4997
120      0.0000     0.0000E+00    0.0000E+00    6.250000E+09  0.02000  2.104E-05    0   0.5277   age166_m62            0.0000     4.0848E+02    10.6746  -0.7747   102.4924
121      0.0000     0.0000E+00    0.0000E+00    7.500000E+09  0.02000  1.770E-05    0   0.5223   age171_m62            0.0000     4.4853E+02    11.1526  -0.8610   102.6954
122      0.0000     0.0000E+00    0.0000E+00    1.000000E+10  0.02000  1.297E-05    0   0.5121   age181_m62            0.0000     5.3613E+02    12.0620  -1.0000   102.4728
123      0.0000     0.0000E+00    0.0000E+00    1.300000E+10  0.02000  9.691E-06    0   0.5047   age193_m62            0.0000     6.0230E+02    12.4467  -1.0000   100.7045
124      0.0000     0.0000E+00    0.0000E+00    1.500000E+10  0.02000  8.360E-06    0   0.4999   age201_m62            0.0000     6.6467E+02    12.8304  -1.0000    99.1114
125      0.0000     0.0000E+00    0.0000E+00    1.800000E+10  0.02000  6.911E-06    0   0.4946   age213_m62            0.0000     7.4572E+02    13.3998  -1.0000    97.4053
126      0.0000     0.0000E+00    0.0000E+00    1.000000E+06  0.05000  2.651E-02    0   0.9998   age020_m72            0.0000     3.3242E+02    11.4550   3.6795    83.7002
127      0.0000     0.0000E+00    0.0000E+00    3.160000E+06  0.05000  4.817E-02    0   0.9577   age045_m72            0.0000     2.2831E+02     9.8164   3.3961    88.0143
128      0.0000     0.0000E+00    0.0000E+00    5.010000E+06  0.05000  3.101E-02    0   0.9147   age055_m72            0.0000     2.0726E+02     9.4986   3.0462    90.6990
129      0.0000     0.0000E+00    0.0000E+00    6.610000E+06  0.05000  1.472E-02    0   0.8877   age061_m72            0.0000     4.3628E+02    13.8101   2.6082    89.4480
130      0.0000     0.0000E+00    0.0000E+00    8.710000E+06  0.05000  1.050E-02    0   0.8638   age067_m72            0.0000     2.9526E+02    11.0058   2.9992    89.6222
131      0.0000     0.0000E+00    0.0000E+00    1.000000E+07  0.05000  8.954E-03    0   0.8524   age070_m72            0.0000     2.1689E+02     9.2982   3.2764    89.3908
132      0.0000     0.0000E+00    0.0000E+00    1.445000E+07  0.05000  6.392E-03    0   0.8262   age078_m72            0.0000     1.8231E+02     8.5227   3.2213    90.3575
133      0.0000     0.0000E+00    0.0000E+00    2.512000E+07  0.05000  4.207E-03    0   0.7902   age090_m72            0.0000     9.4918E+01     6.3181   2.8462    94.5814
134      0.0000     0.0000E+00    0.0000E+00    4.000000E+07  0.05000  3.198E-03    0   0.7618   age104_m72            0.0000     5.8195E+01     3.6146   2.3437   101.8903
135      0.0000     0.0000E+00    0.0000E+00    5.500000E+07  0.05000  2.593E-03    0   0.7432   age110_m72            0.0000     7.8326E+01     3.9296   2.2550   103.6862
136      0.0000     0.0000E+00    0.0000E+00    1.015200E+08  0.05000  1.716E-03    0   0.7092   age116_m72            0.0000     1.2706E+02     4.8903   2.0687   106.1445
137      0.0000     0.0000E+00    0.0000E+00    1.609000E+08  0.05000  1.218E-03    0   0.6876   age120_m72            0.0000     1.9712E+02     6.6281   1.8042   108.6012
138      0.0000     0.0000E+00    0.0000E+00    2.861200E+08  0.05000  7.047E-04    0   0.6618   age125_m72            0.0000     2.7420E+02     8.7979   1.2633   112.1556
139      0.0000     0.0000E+00    0.0000E+00    5.088000E+08  0.05000  3.590E-04    0   0.6356   age130_m72            0.0000     2.2928E+02     8.8116   0.6848   114.2703
140      0.0000     0.0000E+00    0.0000E+00    9.047900E+08  0.05000  1.484E-04    0   0.6088   age135_m72            0.0000     1.6655E+02     7.6442  -0.0584   107.3673
141      0.0000     0.0000E+00    0.0000E+00    1.278050E+09  0.05000  9.435E-05    0   0.5924   age138_m72            0.0000     2.6497E+02     9.0822  -0.4616   103.7596
142      0.0000     0.0000E+00    0.0000E+00    1.434000E+09  0.05000  7.827E-05    0   0.5847   age139_m72            0.0000     2.6766E+02     9.0235  -0.4477   103.1561
143      0.0000     0.0000E+00    0.0000E+00    2.500000E+09  0.05000  3.759E-05    0   0.5583   age150_m72            0.0000     3.9886E+02    10.6045  -0.7678   101.8403
144      0.0000     0.0000E+00    0.0000E+00    4.250000E+09  0.05000  1.842E-05    0   0.5374   age158_m72            0.0000     5.3360E+02    11.7208  -1.0000    99.2167
145      0.0000     0.0000E+00    0.0000E+00    6.250000E+09  0.05000  1.207E-05    0   0.5242   age166_m72            0.0000     7.1598E+02    13.1186  -1.0000    92.9628
146      0.0000     0.0000E+00    0.0000E+00    7.500000E+09  0.05000  9.993E-06    0   0.5183   age171_m72            0.0000     7.5113E+02    13.4764  -1.0000    91.8369
147      0.0000     0.0000E+00    0.0000E+00    1.000000E+10  0.05000  7.291E-06    0   0.5081   age181_m72            0.0000     8.9502E+02    14.7983  -1.0000    88.5970
148      0.0000     0.0000E+00    0.0000E+00    1.300000E+10  0.05000  5.316E-06    0   0.5018   age193_m72            0.0000     1.1404E+03    16.9143  -1.0000    83.8519
149      0.0000     0.0000E+00    0.0000E+00    1.500000E+10  0.05000  4.497E-06    0   0.4972   age201_m72            0.0000     1.2566E+03    17.8095  -1.0000    82.2013
150      0.0000     0.0000E+00    0.0000E+00    1.800000E+10  0.05000  3.739E-06    0   0.4924   age213_m72            0.0000     1.4223E+03    18.9524  -1.0000    79.6784


## Synthesis Results - Average & Chains ##

# j      x_j: min, <> & last-chain-values for 1 ...  7 chains
  1      0.0000      0.0036      0.0000      0.0000      0.0000      0.0000      0.0031      0.0000      0.0000
  2     16.6302     13.1367     13.9537     14.3623     14.0951     13.2646     13.8024     13.2273     14.0943
  3      0.0000      0.0327      0.0000      0.0000      0.1346      0.0000      0.0000      0.0595      0.0000
  4      0.0000      0.0043      0.0000      0.0000      0.0000      0.0000      0.0000      0.0000      0.0000
  5      0.0000      0.0036      0.0000      0.0000      0.0000      0.0000      0.0000      0.0000      0.0000
  6      0.0000      0.0037      0.0000      0.0000      0.0000      0.0000      0.0000      0.0000      0.0000
  7      0.0000      0.0041      0.0000      0.0000      0.0000      0.0000      0.0000      0.0000      0.0000
  8      0.0000      0.0075      0.0000      0.0000      0.0000      0.0210      0.0000      0.0000      0.0000
  9      0.0000      0.0318      0.0066      0.0584      0.0000      0.0000      0.1807      0.0000      0.1694
 10      0.0000      0.0586      0.0000      0.0787      0.0000      0.0000      0.0320      0.0000      0.0000
 11      0.0000      0.1385      0.0000      0.0000      0.0000      0.0000      0.1266      0.0000      0.4168
 12      0.0000      0.0343      0.0000      0.0000      0.0000      0.0000      0.0380      0.0000      0.0000
 13      0.0000      0.0389      0.2669      0.0000      0.0000      0.0000      0.1490      0.0000      0.0000
 14      0.0000      0.0200      0.0000      0.0000      0.0000      0.0000      0.1027      0.0000      0.0000
 15      0.0000      0.0244      0.0000      0.0000      0.0000      0.0000      0.0000      0.0000      0.0000
 16      0.0000      0.0728      0.0000      0.0986      0.0000      0.0000      0.0000      0.0000      0.0526
 17      0.0000      0.0375      0.0000      0.1079      0.1982      0.0400      0.0000      0.0860      0.0871
 18      0.0000      0.0666      0.0000      0.0000      0.0000      0.0000      0.0516      0.0000      0.0000
 19      0.0000      0.0868      0.0785      0.1957      0.0000      0.0000      0.1802      0.0000      0.0000
 20      0.0083      0.4669      0.3771      0.0265      0.0000      0.1015      0.3383      0.2503      0.1810
 21      0.0173      0.6525      0.4538      0.6300      0.4917      0.8929      0.8693      0.5723      0.9705
 22      0.0000      0.5857      0.2183      0.2166      0.6759      1.0533      0.0000      0.9276      0.0000
 23      1.1675      1.2300      1.2129      0.7298      1.1937      1.4356      1.2152      1.5358      1.0367
 24      0.7011      0.6951      0.7359      0.7217      0.6686      0.8969      0.6249      0.7729      1.6336
 25      0.4951      0.8891      1.0746      0.3995      1.1148      1.6693      0.8869      0.9710      0.6643
 26      0.0000      0.0061      0.0000      0.0000      0.0000      0.0000      0.0000      0.0000      0.0000
 27      0.0000      0.0153      0.1037      0.0000      0.0000      0.0000      0.0000      0.0000      0.0000
 28      0.0000      0.0090      0.0000      0.0000      0.0000      0.0000      0.0000      0.0000      0.0000
 29      0.0000      0.0026      0.0000      0.0000      0.0000      0.0000      0.0000      0.0000      0.0000
 30      0.0000      0.0025      0.0000      0.0000      0.0000      0.0000      0.0000      0.0000      0.0000
 31      0.0000      0.0032      0.0000      0.0000      0.0000      0.0000      0.0000      0.0000      0.0000
 32      0.0000      0.0238      0.0000      0.0000      0.0000      0.0000      0.0000      0.0000      0.0000
 33      0.0000      0.0073      0.0000      0.0000      0.0000      0.0000      0.0000      0.0000      0.0000
 34      0.0000      0.0587      0.0000      0.0000      0.0000      0.1712      0.0776      0.3703      0.0000
 35      0.0000      0.0397      0.1083      0.0136      0.0000      0.1427      0.0035      0.2048      0.0000
 36      0.0000      0.0989      0.0000      0.0000      0.0000      0.0000      0.1527      0.0000      0.1671
 37      0.3768      0.1826      0.2700      0.0000      0.3386      0.2605      0.0000      0.3035      0.1869
 38      0.0000      0.0635      0.3515      0.0567      0.0000      0.2965      0.0000      0.0000      0.0000
 39      0.0000      0.0531      0.2370      0.4572      0.2780      0.0000      0.0721      0.0865      0.0000
 40      0.0000      0.0366      0.0000      0.0000      0.0000      0.0000      0.0050      0.0000      0.0000
 41      0.0000      0.0613      0.1198      0.0000      0.0257      0.0000      0.0000      0.0000      0.1842
 42      0.0000      0.0577      0.0000      0.0000      0.0405      0.0000      0.0000      0.0875      0.0933
 43     16.6395     15.2814     14.5159     15.2062     15.4286     16.1024     16.3933     15.4723     15.3952
 44     57.6013     54.0238     55.3807     56.1173     56.0282     53.3826     54.2304     53.3978     55.8991
 45      0.0085      0.9353      1.0928      0.6579      0.3059      0.9347      0.0873      2.0545      1.2612
 46      3.8041      4.9955      5.2851      5.2811      4.9660      4.7154      5.1583      3.9539      4.3283
 47      4.6694      4.3641      4.4587      4.6635      4.2015      4.1111      4.9133      4.2792      4.1013
 48      0.0128      0.4684      0.2372      0.4640      0.4598      0.0611      0.9387      0.9588      0.4608
 49      0.0000      1.0294      0.5641      0.7755      0.3539      1.2234      0.0000      1.0835      0.0256
 50      0.0000      0.1814      0.2190      0.0344      0.2237      0.0000      0.2177      0.1569      0.0000
 51      0.0000      0.0027      0.0000      0.0036      0.0000      0.0000      0.0000      0.0000      0.0000
 52      0.0000      0.0434      0.0000      0.0312      0.0000      0.1067      0.0000      0.0000      0.1026
 53      0.0000      0.0061      0.0361      0.0000      0.0000      0.0050      0.0000      0.0000      0.0000
 54      0.0000      0.1970      0.0000      0.0000      0.1996      0.4054      0.1497      0.1287      0.0400
 55      0.0000      0.0167      0.0000      0.0000      0.0000      0.0000      0.0402      0.0000      0.0000
 56      0.0000      0.0081      0.0000      0.0000      0.0000      0.0000      0.0000      0.0000      0.0000
 57      0.0000      0.0078      0.0024      0.0000      0.0000      0.0000      0.0000      0.0000      0.0000
 58      0.0000      0.0159      0.0000      0.0000      0.0000      0.0094      0.0000      0.0000      0.0000
 59      0.0000      0.0258      0.0000      0.0000      0.0000      0.0000      0.0272      0.0000      0.0000
 60      0.0000      0.0265      0.0106      0.0000      0.0981      0.0000      0.0000      0.0000      0.0049
 61      0.0000      0.0911      0.0000      0.1012      0.0704      0.0132      0.0000      0.0952      0.0000
 62      0.0000      0.0582      0.0000      0.0000      0.0000      0.0000      0.0449      0.0700      0.0301
 63      0.0000      0.0603      0.0000      0.0000      0.0000      0.0000      0.0000      0.0000      0.0000
 64      0.0000      0.0219      0.0000      0.2083      0.0000      0.0000      0.0295      0.0174      0.0011
 65      0.0000      0.0212      0.0000      0.0000      0.1583      0.0000      0.0000      0.0000      0.0000
 66      0.0000      0.0125      0.0000      0.0873      0.0000      0.0000      0.0489      0.0020      0.0000
 67      0.0000      0.0193      0.0502      0.0000      0.0000      0.0000      0.0145      0.0000      0.0147
 68      0.0000      0.0167      0.0000      0.0000      0.0880      0.0000      0.0000      0.0000      0.0000
 69      0.0000      0.0155      0.0000      0.0000      0.0000      0.0000      0.0000      0.0000      0.0000
 70      0.0000      0.0087      0.0000      0.0012      0.0000      0.0000      0.0000      0.0000      0.0000
 71      0.0000      0.0150      0.0000      0.0064      0.0000      0.0000      0.0000      0.0000      0.0000
 72      0.0000      0.0096      0.0811      0.0000      0.0000      0.0000      0.0000      0.0000      0.0057
 73      0.0000      0.0171      0.0103      0.0000      0.0000      0.0000      0.0000      0.0000      0.0000
 74      0.0000      0.0068      0.0000      0.0000      0.0000      0.0000      0.0000      0.0000      0.0000
 75      0.0000      0.0071      0.0000      0.0000      0.0000      0.0000      0.0000      0.0000      0.0000
 76      0.0000      0.0069      0.0000      0.0000      0.0000      0.0000      0.0000      0.0296      0.0000
 77      0.0000      0.0039      0.0000      0.0000      0.0000      0.0462      0.0000      0.0000      0.0000
 78      0.0000      0.0030      0.0000      0.0000      0.0000      0.0000      0.0000      0.0000      0.0000
 79      0.0000      0.0070      0.0000      0.0000      0.0000      0.0000      0.0000      0.1125      0.0000
 80      0.0000      0.0085      0.0000      0.0000      0.0000      0.1049      0.0000      0.0000      0.0000
 81      0.0000      0.0073      0.0000      0.0000      0.0000      0.0000      0.0000      0.0000      0.0000
 82      0.0000      0.0112      0.0000      0.0071      0.0000      0.0000      0.0000      0.0000      0.0000
 83      0.0000      0.0792      0.0000      0.0000      0.0000      0.0000      0.2221      0.0000      0.0215
 84      0.0000      0.0184      0.0000      0.0000      0.0000      0.1176      0.0000      0.0185      0.0021
 85      0.0000      0.0231      0.0000      0.0000      0.0000      0.0000      0.1216      0.0000      0.0000
 86      0.0000      0.0407      0.0934      0.1048      0.0000      0.0000      0.0000      0.0168      0.0000
 87      0.0000      0.0381      0.0000      0.0000      0.0000      0.0148      0.0000      0.1304      0.0000
 88      0.0000      0.0204      0.0104      0.0000      0.0000      0.0000      0.0000      0.0000      0.0000
 89      0.0000      0.0124      0.0000      0.0000      0.0000      0.0000      0.0000      0.0000      0.0000
 90      0.0000      0.0072      0.0058      0.0000      0.0000      0.0000      0.0000      0.0011      0.0000
 91      0.0000      0.0056      0.0000      0.0000      0.0000      0.0000      0.0000      0.0525      0.0000
 92      0.0000      0.0074      0.0000      0.0000      0.0000      0.0000      0.0000      0.0000      0.0197
 93      0.0000      0.0127      0.0000      0.0000      0.0000      0.0000      0.0000      0.0000      0.0000
 94      0.0000      0.0174      0.0000      0.0000      0.0000      0.0000      0.0846      0.0000      0.0000
 95      0.0000      0.0107      0.0000      0.0000      0.0000      0.0000      0.0000      0.0000      0.0000
 96      0.0000      0.0099      0.0000      0.0000      0.0066      0.0000      0.0000      0.0000      0.0000
 97      0.0000      0.0095      0.0000      0.0000      0.0000      0.0000      0.0000      0.0000      0.0000
 98      0.0000      0.0087      0.0000      0.0000      0.0000      0.0000      0.0000      0.0000      0.0000
 99      0.0000      0.0039      0.0000      0.0000      0.0000      0.0000      0.0000      0.0109      0.0000
100      0.0000      0.0117      0.1380      0.0000      0.1006      0.0000      0.0000      0.0000      0.0000
101      0.0000      0.0032      0.0000      0.0000      0.0000      0.0414      0.0233      0.0000      0.0000
102      0.0000      0.0023      0.0000      0.0000      0.0104      0.0000      0.0000      0.0000      0.0000
103      0.0000      0.0083      0.0000      0.0000      0.0000      0.0000      0.0000      0.0000      0.0000
104      0.0000      0.0093      0.0000      0.0000      0.0000      0.0000      0.0000      0.0000      0.0000
105      0.0000      0.0067      0.0000      0.0000      0.0000      0.0000      0.0000      0.0000      0.0000
106      0.0000      0.0065      0.0000      0.0000      0.0000      0.0000      0.0181      0.0000      0.0000
107      0.0000      0.0068      0.0000      0.0000      0.0000      0.0000      0.0000      0.0000      0.0000
108      0.0000      0.0067      0.0000      0.0000      0.0000      0.0000      0.0000      0.0000      0.0000
109      0.0000      0.0098      0.0000      0.0000      0.0000      0.0000      0.0000      0.0000      0.0000
110      0.0000      0.0219      0.0046      0.0051      0.0000      0.0000      0.0000      0.0000      0.1524
111      0.0000      0.0180      0.0000      0.0000      0.0000      0.0000      0.0000      0.0000      0.0000
112      0.0000      0.0219      0.0000      0.0000      0.0000      0.0000      0.0000      0.0000      0.0000
113      0.0000      0.0163      0.0363      0.0000      0.0000      0.0000      0.0000      0.0000      0.0000
114      0.0000      0.0096      0.0000      0.0000      0.0000      0.0000      0.0000      0.0000      0.0000
115      0.0000      0.0106      0.0000      0.0000      0.0000      0.0000      0.0000      0.0000      0.0000
116      0.0000      0.0097      0.0000      0.0000      0.0000      0.0000      0.0000      0.0000      0.0000
117      0.0000      0.0169      0.0000      0.0000      0.0000      0.0000      0.0000      0.0000      0.0111
118      0.0000      0.0090      0.0000      0.0000      0.0000      0.0000      0.0244      0.0000      0.0000
119      0.0000      0.0048      0.0000      0.0000      0.0000      0.0000      0.0000      0.0000      0.0000
120      0.0000      0.0181      0.1073      0.0000      0.0115      0.0000      0.0000      0.0000      0.0000
121      0.0000      0.0054      0.0000      0.0000      0.0000      0.0000      0.0000      0.0000      0.0000
122      0.0000      0.0049      0.0000      0.0334      0.0000      0.0204      0.0000      0.0000      0.0000
123      0.0000      0.0056      0.0000      0.0000      0.0000      0.0000      0.0000      0.0000      0.0000
124      0.0000      0.0104      0.0000      0.0000      0.0000      0.0627      0.0000      0.0000      0.0000
125      0.0000      0.0046      0.0000      0.0000      0.0000      0.0105      0.0000      0.0000      0.0000
126      0.0000      0.0023      0.0000      0.0000      0.0000      0.0000      0.0000      0.0000      0.0000
127      0.0000      0.0048      0.0000      0.0000      0.0000      0.0000      0.0000      0.0000      0.0000
128      0.0000      0.0103      0.0000      0.0368      0.0000      0.0000      0.0000      0.0000      0.0000
129      0.0000      0.0093      0.0000      0.0000      0.0095      0.0000      0.0000      0.0187      0.0000
130      0.0000      0.0053      0.0000      0.0468      0.0000      0.0000      0.0000      0.0000      0.0000
131      0.0000      0.0027      0.0000      0.0000      0.0000      0.0000      0.0000      0.0000      0.0000
132      0.0000      0.0016      0.0000      0.0000      0.0000      0.0000      0.0000      0.0000      0.0066
133      0.0000      0.0101      0.0000      0.0000      0.0167      0.0000      0.0000      0.0000      0.0000
134      0.0000      0.0190      0.0000      0.0000      0.0000      0.0000      0.0000      0.0000      0.0000
135      0.0000      0.0185      0.0000      0.0000      0.0000      0.0000      0.0000      0.0000      0.0000
136      0.0000      0.0316      0.0000      0.0000      0.0000      0.0000      0.0427      0.3329      0.0000
137      0.0000      0.0220      0.1116      0.0000      0.0000      0.2025      0.0000      0.0000      0.0000
138      0.0000      0.0173      0.0000      0.0000      0.0000      0.0000      0.0301      0.0587      0.0000
139      0.0000      0.0291      0.0028      0.0000      0.0000      0.0000      0.0988      0.0178      0.0000
140      0.0000      0.0211      0.0000      0.0000      0.0000      0.0000      0.0000      0.0000      0.0117
141      0.0000      0.0161      0.0000      0.0000      0.0000      0.0000      0.0000      0.0000      0.0000
142      0.0000      0.0258      0.0000      0.0000      0.0000      0.0000      0.0000      0.0000      0.0000
143      0.0000      0.0437      0.0296      0.0415      0.0000      0.0000      0.0739      0.0000      0.1370
144      0.0000      0.0189      0.0547      0.0000      0.0000      0.0000      0.0000      0.0000      0.0692
145      0.0000      0.0329      0.0000      0.0000      0.0000      0.1759      0.0000      0.0829      0.0151
146      0.0000      0.0077      0.0000      0.0000      0.0000      0.0000      0.0000      0.0175      0.0000
147      0.0000      0.0250      0.0000      0.0000      0.0000      0.0000      0.0000      0.0911      0.0749
148      0.0000      0.0312      0.0259      0.0737      0.0681      0.0312      0.1659      0.0000      0.0000
149      0.0000      0.0135      0.0000      0.0000      0.0043      0.0000      0.0000      0.0000      0.0000
150      0.0000      0.0210      0.0000      0.0000      0.0492      0.0000      0.0222      0.0000      0.0636

# j      m_j: min, <> & last-chain-values for 1 ...  7 chains
  1  0.0000E+00  7.6345E-05  0.0000E+00  0.0000E+00  0.0000E+00  0.0000E+00  6.6748E-05  0.0000E+00  0.0000E+00
  2  6.6990E-02  4.7430E-02  5.0907E-02  5.4026E-02  5.1470E-02  4.7219E-02  5.0425E-02  4.7493E-02  5.2206E-02
  3  0.0000E+00  2.7869E-04  0.0000E+00  0.0000E+00  1.1597E-03  0.0000E+00  0.0000E+00  5.0463E-04  0.0000E+00
  4  0.0000E+00  6.8226E-05  0.0000E+00  0.0000E+00  0.0000E+00  0.0000E+00  0.0000E+00  0.0000E+00  0.0000E+00
  5  0.0000E+00  7.3088E-05  0.0000E+00  0.0000E+00  0.0000E+00  0.0000E+00  0.0000E+00  0.0000E+00  0.0000E+00
  6  0.0000E+00  8.7703E-05  0.0000E+00  0.0000E+00  0.0000E+00  0.0000E+00  0.0000E+00  0.0000E+00  0.0000E+00
  7  0.0000E+00  1.2293E-04  0.0000E+00  0.0000E+00  0.0000E+00  0.0000E+00  0.0000E+00  0.0000E+00  0.0000E+00
  8  0.0000E+00  2.5509E-04  0.0000E+00  0.0000E+00  0.0000E+00  7.1010E-04  0.0000E+00  0.0000E+00  0.0000E+00
  9  0.0000E+00  1.1723E-03  2.4699E-04  2.2398E-03  0.0000E+00  0.0000E+00  6.7326E-03  0.0000E+00  6.3985E-03
 10  0.0000E+00  2.4737E-03  0.0000E+00  3.4626E-03  0.0000E+00  0.0000E+00  1.3683E-03  0.0000E+00  0.0000E+00
 11  1.3458E-07  6.9857E-03  0.0000E+00  0.0000E+00  0.0000E+00  0.0000E+00  6.4650E-03  0.0000E+00  2.1572E-02
 12  0.0000E+00  3.0295E-03  0.0000E+00  0.0000E+00  0.0000E+00  0.0000E+00  3.3957E-03  0.0000E+00  0.0000E+00
 13  0.0000E+00  3.9847E-03  2.7641E-02  0.0000E+00  0.0000E+00  0.0000E+00  1.5448E-02  0.0000E+00  0.0000E+00
 14  0.0000E+00  2.9125E-03  0.0000E+00  0.0000E+00  0.0000E+00  0.0000E+00  1.5120E-02  0.0000E+00  0.0000E+00
 15  0.0000E+00  5.3643E-03  0.0000E+00  0.0000E+00  0.0000E+00  0.0000E+00  0.0000E+00  0.0000E+00  0.0000E+00
 16  0.0000E+00  2.3154E-02  0.0000E+00  3.2673E-02  0.0000E+00  0.0000E+00  0.0000E+00  0.0000E+00  1.7161E-02
 17  0.0000E+00  1.3249E-02  0.0000E+00  3.9715E-02  7.0803E-02  1.3916E-02  0.0000E+00  3.0208E-02  3.1550E-02
 18  0.0000E+00  3.8301E-02  0.0000E+00  0.0000E+00  0.0000E+00  0.0000E+00  3.0025E-02  0.0000E+00  0.0000E+00
 19  0.0000E+00  7.5668E-02  6.9166E-02  1.7777E-01  0.0000E+00  0.0000E+00  1.5901E-01  0.0000E+00  0.0000E+00
 20  1.1543E-02  5.8215E-01  4.7512E-01  3.4481E-02  0.0000E+00  1.2473E-01  4.2680E-01  3.1035E-01  2.3157E-01
 21  2.7851E-02  9.4127E-01  6.6152E-01  9.4694E-01  7.1741E-01  1.2701E+00  1.2689E+00  8.2108E-01  1.4364E+00
 22  0.0000E+00  1.0901E+00  4.1058E-01  4.1997E-01  1.2723E+00  1.9328E+00  0.0000E+00  1.7170E+00  0.0000E+00
 23  3.0734E+00  2.9021E+00  2.8917E+00  1.7940E+00  2.8485E+00  3.3396E+00  2.9011E+00  3.6036E+00  2.5094E+00
 24  2.1107E+00  1.8754E+00  2.0063E+00  2.0288E+00  1.8246E+00  2.3860E+00  1.7062E+00  2.0738E+00  4.5220E+00
 25  1.7903E+00  2.8818E+00  3.5195E+00  1.3493E+00  3.6546E+00  5.3348E+00  2.9087E+00  3.1300E+00  2.2091E+00
 26  0.0000E+00  1.2434E-04  0.0000E+00  0.0000E+00  0.0000E+00  0.0000E+00  0.0000E+00  0.0000E+00  0.0000E+00
 27  0.0000E+00  6.6031E-05  4.5297E-04  0.0000E+00  0.0000E+00  0.0000E+00  0.0000E+00  0.0000E+00  0.0000E+00
 28  0.0000E+00  7.6543E-05  0.0000E+00  0.0000E+00  0.0000E+00  0.0000E+00  0.0000E+00  0.0000E+00  0.0000E+00
 29  0.0000E+00  3.3866E-05  0.0000E+00  0.0000E+00  0.0000E+00  0.0000E+00  0.0000E+00  0.0000E+00  0.0000E+00
 30  0.0000E+00  4.0640E-05  0.0000E+00  0.0000E+00  0.0000E+00  0.0000E+00  0.0000E+00  0.0000E+00  0.0000E+00
 31  0.0000E+00  6.0518E-05  0.0000E+00  0.0000E+00  0.0000E+00  0.0000E+00  0.0000E+00  0.0000E+00  0.0000E+00
 32  0.0000E+00  4.9825E-04  0.0000E+00  0.0000E+00  0.0000E+00  0.0000E+00  0.0000E+00  0.0000E+00  0.0000E+00
 33  0.0000E+00  2.1852E-04  0.0000E+00  0.0000E+00  0.0000E+00  0.0000E+00  0.0000E+00  0.0000E+00  0.0000E+00
 34  0.0000E+00  2.1253E-03  0.0000E+00  0.0000E+00  0.0000E+00  6.1135E-03  2.8424E-03  1.3333E-02  0.0000E+00
 35  0.0000E+00  1.7367E-03  4.7873E-03  6.1882E-04  0.0000E+00  6.1568E-03  1.5314E-04  8.9127E-03  0.0000E+00
 36  0.0000E+00  5.5472E-03  0.0000E+00  0.0000E+00  0.0000E+00  0.0000E+00  8.6686E-03  0.0000E+00  9.6157E-03
 37  2.9300E-02  1.2732E-02  1.9020E-02  0.0000E+00  2.3874E-02  1.7903E-02  0.0000E+00  2.1041E-02  1.3369E-02
 38  0.0000E+00  6.1640E-03  3.4484E-02  5.7381E-03  0.0000E+00  2.8380E-02  0.0000E+00  0.0000E+00  0.0000E+00
 39  0.0000E+00  7.6952E-03  3.4702E-02  6.9017E-02  4.0743E-02  0.0000E+00  1.0570E-02  1.2470E-02  0.0000E+00
 40  0.0000E+00  9.3589E-03  0.0000E+00  0.0000E+00  0.0000E+00  0.0000E+00  1.2860E-03  0.0000E+00  0.0000E+00
 41  0.0000E+00  2.0994E-02  4.1437E-02  0.0000E+00  8.9019E-03  0.0000E+00  0.0000E+00  0.0000E+00  6.4714E-02
 42  0.0000E+00  2.2052E-02  0.0000E+00  0.0000E+00  1.5664E-02  0.0000E+00  0.0000E+00  3.3262E-02  3.6615E-02
 43  1.1546E+01  9.5041E+00  9.1223E+00  9.8532E+00  9.7049E+00  9.8740E+00  1.0317E+01  9.5695E+00  9.8230E+00
 44  6.3212E+01  5.3138E+01  5.5042E+01  5.7508E+01  5.5738E+01  5.1770E+01  5.3974E+01  5.2232E+01  5.6407E+01
 45  1.3024E-02  1.2823E+00  1.5138E+00  9.3971E-01  4.2415E-01  1.2633E+00  1.2107E-01  2.8010E+00  1.7738E+00
 46  6.9313E+00  8.1583E+00  8.7214E+00  8.9857E+00  8.2024E+00  7.5926E+00  8.5240E+00  6.4215E+00  7.2518E+00
 47  1.1151E+01  9.3410E+00  9.6434E+00  1.0400E+01  9.0955E+00  8.6760E+00  1.0641E+01  9.1086E+00  9.0061E+00
 48  3.6509E-02  1.1939E+00  6.1085E-01  1.2321E+00  1.1853E+00  1.5352E-01  2.4209E+00  2.4303E+00  1.2049E+00
 49  0.0000E+00  2.9353E+00  1.6253E+00  2.3039E+00  1.0207E+00  3.4395E+00  0.0000E+00  3.0722E+00  7.4970E-02
 50  0.0000E+00  6.0826E-01  7.4200E-01  1.2030E-01  7.5879E-01  0.0000E+00  7.3862E-01  5.2324E-01  0.0000E+00
 51  0.0000E+00  4.0904E-05  0.0000E+00  5.8634E-05  0.0000E+00  0.0000E+00  0.0000E+00  0.0000E+00  0.0000E+00
 52  0.0000E+00  1.8311E-04  0.0000E+00  1.3716E-04  0.0000E+00  4.4379E-04  0.0000E+00  0.0000E+00  4.4386E-04
 53  0.0000E+00  3.9370E-05  2.3458E-04  0.0000E+00  0.0000E+00  3.1732E-05  0.0000E+00  0.0000E+00  0.0000E+00
 54  0.0000E+00  1.2083E-03  0.0000E+00  0.0000E+00  1.2380E-03  2.4515E-03  9.2918E-04  7.8490E-04  2.5192E-04
 55  0.0000E+00  1.5152E-04  0.0000E+00  0.0000E+00  0.0000E+00  0.0000E+00  3.6812E-04  0.0000E+00  0.0000E+00
 56  0.0000E+00  9.6733E-05  0.0000E+00  0.0000E+00  0.0000E+00  0.0000E+00  0.0000E+00  0.0000E+00  0.0000E+00
 57  0.0000E+00  1.4908E-04  4.5928E-05  0.0000E+00  0.0000E+00  0.0000E+00  0.0000E+00  0.0000E+00  0.0000E+00
 58  0.0000E+00  4.3977E-04  0.0000E+00  0.0000E+00  0.0000E+00  2.5775E-04  0.0000E+00  0.0000E+00  0.0000E+00
 59  0.0000E+00  9.9252E-04  0.0000E+00  0.0000E+00  0.0000E+00  0.0000E+00  1.0611E-03  0.0000E+00  0.0000E+00
 60  0.0000E+00  1.1348E-03  4.5782E-04  0.0000E+00  4.2501E-03  0.0000E+00  0.0000E+00  0.0000E+00  2.1451E-04
 61  0.0000E+00  4.9759E-03  0.0000E+00  5.7550E-03  3.8882E-03  7.1004E-04  0.0000E+00  5.1702E-03  0.0000E+00
 62  0.0000E+00  4.0274E-03  0.0000E+00  0.0000E+00  0.0000E+00  0.0000E+00  3.1462E-03  4.8216E-03  2.1343E-03
 63  0.0000E+00  6.3539E-03  0.0000E+00  0.0000E+00  0.0000E+00  0.0000E+00  0.0000E+00  0.0000E+00  0.0000E+00
 64  0.0000E+00  3.7996E-03  0.0000E+00  3.7600E-02  0.0000E+00  0.0000E+00  5.1672E-03  2.9946E-03  2.0011E-04
 65  0.0000E+00  6.2118E-03  0.0000E+00  0.0000E+00  4.6868E-02  0.0000E+00  0.0000E+00  0.0000E+00  0.0000E+00
 66  0.0000E+00  4.6743E-03  0.0000E+00  3.4093E-02  0.0000E+00  0.0000E+00  1.8538E-02  7.2691E-04  0.0000E+00
 67  0.0000E+00  9.9069E-03  2.6068E-02  0.0000E+00  0.0000E+00  0.0000E+00  7.5253E-03  0.0000E+00  7.7670E-03
 68  0.0000E+00  1.5979E-02  0.0000E+00  0.0000E+00  8.5070E-02  0.0000E+00  0.0000E+00  0.0000E+00  0.0000E+00
 69  0.0000E+00  2.5625E-02  0.0000E+00  0.0000E+00  0.0000E+00  0.0000E+00  0.0000E+00  0.0000E+00  0.0000E+00
 70  0.0000E+00  2.0051E-02  0.0000E+00  2.8336E-03  0.0000E+00  0.0000E+00  0.0000E+00  0.0000E+00  0.0000E+00
 71  0.0000E+00  4.0624E-02  0.0000E+00  1.8181E-02  0.0000E+00  0.0000E+00  0.0000E+00  0.0000E+00  0.0000E+00
 72  0.0000E+00  3.4214E-02  2.9204E-01  0.0000E+00  0.0000E+00  0.0000E+00  0.0000E+00  0.0000E+00  2.0692E-02
 73  0.0000E+00  7.6854E-02  4.6917E-02  0.0000E+00  0.0000E+00  0.0000E+00  0.0000E+00  0.0000E+00  0.0000E+00
 74  0.0000E+00  3.4119E-02  0.0000E+00  0.0000E+00  0.0000E+00  0.0000E+00  0.0000E+00  0.0000E+00  0.0000E+00
 75  0.0000E+00  4.0898E-02  0.0000E+00  0.0000E+00  0.0000E+00  0.0000E+00  0.0000E+00  0.0000E+00  0.0000E+00
 76  0.0000E+00  9.1598E-05  0.0000E+00  0.0000E+00  0.0000E+00  0.0000E+00  0.0000E+00  3.9267E-04  0.0000E+00
 77  0.0000E+00  2.1085E-05  0.0000E+00  0.0000E+00  0.0000E+00  2.4759E-04  0.0000E+00  0.0000E+00  0.0000E+00
 78  0.0000E+00  1.8570E-05  0.0000E+00  0.0000E+00  0.0000E+00  0.0000E+00  0.0000E+00  0.0000E+00  0.0000E+00
 79  0.0000E+00  5.1086E-05  0.0000E+00  0.0000E+00  0.0000E+00  0.0000E+00  0.0000E+00  8.2017E-04  0.0000E+00
 80  0.0000E+00  8.0060E-05  0.0000E+00  0.0000E+00  0.0000E+00  9.7718E-04  0.0000E+00  0.0000E+00  0.0000E+00
 81  0.0000E+00  9.1134E-05  0.0000E+00  0.0000E+00  0.0000E+00  0.0000E+00  0.0000E+00  0.0000E+00  0.0000E+00
 82  0.0000E+00  1.8833E-04  0.0000E+00  1.2505E-04  0.0000E+00  0.0000E+00  0.0000E+00  0.0000E+00  0.0000E+00
 83  0.0000E+00  1.9561E-03  0.0000E+00  0.0000E+00  0.0000E+00  0.0000E+00  5.5529E-03  0.0000E+00  5.4413E-04
 84  0.0000E+00  6.2901E-04  0.0000E+00  0.0000E+00  0.0000E+00  3.9671E-03  0.0000E+00  6.2773E-04  7.2190E-05
 85  0.0000E+00  9.6036E-04  0.0000E+00  0.0000E+00  0.0000E+00  0.0000E+00  5.1095E-03  0.0000E+00  0.0000E+00
 86  0.0000E+00  2.2925E-03  5.3136E-03  6.1466E-03  0.0000E+00  0.0000E+00  0.0000E+00  9.4143E-04  0.0000E+00
 87  0.0000E+00  2.8594E-03  0.0000E+00  0.0000E+00  0.0000E+00  1.0913E-03  0.0000E+00  9.7202E-03  0.0000E+00
 88  0.0000E+00  2.3296E-03  1.2065E-03  0.0000E+00  0.0000E+00  0.0000E+00  0.0000E+00  0.0000E+00  0.0000E+00
 89  0.0000E+00  2.3685E-03  0.0000E+00  0.0000E+00  0.0000E+00  0.0000E+00  0.0000E+00  0.0000E+00  0.0000E+00
 90  0.0000E+00  2.5261E-03  2.0621E-03  0.0000E+00  0.0000E+00  0.0000E+00  0.0000E+00  3.9655E-04  0.0000E+00
 91  0.0000E+00  2.5189E-03  0.0000E+00  0.0000E+00  0.0000E+00  0.0000E+00  0.0000E+00  2.3622E-02  0.0000E+00
 92  0.0000E+00  4.4878E-03  0.0000E+00  0.0000E+00  0.0000E+00  0.0000E+00  0.0000E+00  0.0000E+00  1.2245E-02
 93  0.0000E+00  1.5537E-02  0.0000E+00  0.0000E+00  0.0000E+00  0.0000E+00  0.0000E+00  0.0000E+00  0.0000E+00
 94  0.0000E+00  3.8323E-02  0.0000E+00  0.0000E+00  0.0000E+00  0.0000E+00  1.8860E-01  0.0000E+00  0.0000E+00
 95  0.0000E+00  3.1740E-02  0.0000E+00  0.0000E+00  0.0000E+00  0.0000E+00  0.0000E+00  0.0000E+00  0.0000E+00
 96  0.0000E+00  3.5582E-02  0.0000E+00  0.0000E+00  2.4022E-02  0.0000E+00  0.0000E+00  0.0000E+00  0.0000E+00
 97  0.0000E+00  4.4228E-02  0.0000E+00  0.0000E+00  0.0000E+00  0.0000E+00  0.0000E+00  0.0000E+00  0.0000E+00
 98  0.0000E+00  5.2073E-02  0.0000E+00  0.0000E+00  0.0000E+00  0.0000E+00  0.0000E+00  0.0000E+00  0.0000E+00
 99  0.0000E+00  2.6318E-02  0.0000E+00  0.0000E+00  0.0000E+00  0.0000E+00  0.0000E+00  7.3920E-02  0.0000E+00
100  0.0000E+00  9.2005E-02  1.0946E+00  0.0000E+00  7.9834E-01  0.0000E+00  0.0000E+00  0.0000E+00  0.0000E+00
101  0.0000E+00  2.7572E-05  0.0000E+00  0.0000E+00  0.0000E+00  3.5274E-04  2.0348E-04  0.0000E+00  0.0000E+00
102  0.0000E+00  1.0260E-05  0.0000E+00  0.0000E+00  4.7445E-05  0.0000E+00  0.0000E+00  0.0000E+00  0.0000E+00
103  0.0000E+00  4.1172E-05  0.0000E+00  0.0000E+00  0.0000E+00  0.0000E+00  0.0000E+00  0.0000E+00  0.0000E+00
104  0.0000E+00  6.0634E-05  0.0000E+00  0.0000E+00  0.0000E+00  0.0000E+00  0.0000E+00  0.0000E+00  0.0000E+00
105  0.0000E+00  9.2981E-05  0.0000E+00  0.0000E+00  0.0000E+00  0.0000E+00  0.0000E+00  0.0000E+00  0.0000E+00
106  0.0000E+00  9.6468E-05  0.0000E+00  0.0000E+00  0.0000E+00  0.0000E+00  2.7279E-04  0.0000E+00  0.0000E+00
107  0.0000E+00  1.3416E-04  0.0000E+00  0.0000E+00  0.0000E+00  0.0000E+00  0.0000E+00  0.0000E+00  0.0000E+00
108  0.0000E+00  2.2290E-04  0.0000E+00  0.0000E+00  0.0000E+00  0.0000E+00  0.0000E+00  0.0000E+00  0.0000E+00
109  0.0000E+00  3.8973E-04  0.0000E+00  0.0000E+00  0.0000E+00  0.0000E+00  0.0000E+00  0.0000E+00  0.0000E+00
110  0.0000E+00  1.0426E-03  2.1944E-04  2.5214E-04  0.0000E+00  0.0000E+00  0.0000E+00  0.0000E+00  7.4269E-03
111  0.0000E+00  1.1888E-03  0.0000E+00  0.0000E+00  0.0000E+00  0.0000E+00  0.0000E+00  0.0000E+00  0.0000E+00
112  0.0000E+00  1.9031E-03  0.0000E+00  0.0000E+00  0.0000E+00  0.0000E+00  0.0000E+00  0.0000E+00  0.0000E+00
113  0.0000E+00  2.1180E-03  4.7639E-03  0.0000E+00  0.0000E+00  0.0000E+00  0.0000E+00  0.0000E+00  0.0000E+00
114  0.0000E+00  2.1914E-03  0.0000E+00  0.0000E+00  0.0000E+00  0.0000E+00  0.0000E+00  0.0000E+00  0.0000E+00
115  0.0000E+00  4.8583E-03  0.0000E+00  0.0000E+00  0.0000E+00  0.0000E+00  0.0000E+00  0.0000E+00  0.0000E+00
116  0.0000E+00  7.1164E-03  0.0000E+00  0.0000E+00  0.0000E+00  0.0000E+00  0.0000E+00  0.0000E+00  0.0000E+00
117  0.0000E+00  1.4547E-02  0.0000E+00  0.0000E+00  0.0000E+00  0.0000E+00  0.0000E+00  0.0000E+00  9.7994E-03
118  0.0000E+00  1.5736E-02  0.0000E+00  0.0000E+00  0.0000E+00  0.0000E+00  4.3232E-02  0.0000E+00  0.0000E+00
119  0.0000E+00  1.4392E-02  0.0000E+00  0.0000E+00  0.0000E+00  0.0000E+00  0.0000E+00  0.0000E+00  0.0000E+00
120  0.0000E+00  7.7893E-02  4.6703E-01  0.0000E+00  5.0253E-02  0.0000E+00  0.0000E+00  0.0000E+00  0.0000E+00
121  0.0000E+00  2.7162E-02  0.0000E+00  0.0000E+00  0.0000E+00  0.0000E+00  0.0000E+00  0.0000E+00  0.0000E+00
122  0.0000E+00  3.3065E-02  0.0000E+00  2.3608E-01  0.0000E+00  1.3669E-01  0.0000E+00  0.0000E+00  0.0000E+00
123  0.0000E+00  4.9671E-02  0.0000E+00  0.0000E+00  0.0000E+00  0.0000E+00  0.0000E+00  0.0000E+00  0.0000E+00
124  0.0000E+00  1.0734E-01  0.0000E+00  0.0000E+00  0.0000E+00  6.3528E-01  0.0000E+00  0.0000E+00  0.0000E+00
125  0.0000E+00  5.5968E-02  0.0000E+00  0.0000E+00  0.0000E+00  1.2748E-01  0.0000E+00  0.0000E+00  0.0000E+00
126  0.0000E+00  1.5188E-05  0.0000E+00  0.0000E+00  0.0000E+00  0.0000E+00  0.0000E+00  0.0000E+00  0.0000E+00
127  0.0000E+00  1.6258E-05  0.0000E+00  0.0000E+00  0.0000E+00  0.0000E+00  0.0000E+00  0.0000E+00  0.0000E+00
128  0.0000E+00  5.2121E-05  0.0000E+00  1.9427E-04  0.0000E+00  0.0000E+00  0.0000E+00  0.0000E+00  0.0000E+00
129  0.0000E+00  9.6014E-05  0.0000E+00  0.0000E+00  9.9381E-05  0.0000E+00  0.0000E+00  1.9235E-04  0.0000E+00
130  0.0000E+00  7.5465E-05  0.0000E+00  6.8939E-04  0.0000E+00  0.0000E+00  0.0000E+00  0.0000E+00  0.0000E+00
131  0.0000E+00  4.3854E-05  0.0000E+00  0.0000E+00  0.0000E+00  0.0000E+00  0.0000E+00  0.0000E+00  0.0000E+00
132  0.0000E+00  3.4735E-05  0.0000E+00  0.0000E+00  0.0000E+00  0.0000E+00  0.0000E+00  0.0000E+00  1.5040E-04
133  0.0000E+00  3.2698E-04  0.0000E+00  0.0000E+00  5.4517E-04  0.0000E+00  0.0000E+00  0.0000E+00  0.0000E+00
134  0.0000E+00  7.7932E-04  0.0000E+00  0.0000E+00  0.0000E+00  0.0000E+00  0.0000E+00  0.0000E+00  0.0000E+00
135  0.0000E+00  9.1180E-04  0.0000E+00  0.0000E+00  0.0000E+00  0.0000E+00  0.0000E+00  0.0000E+00  0.0000E+00
136  0.0000E+00  2.2433E-03  0.0000E+00  0.0000E+00  0.0000E+00  0.0000E+00  3.0652E-03  2.3510E-02  0.0000E+00
137  0.0000E+00  2.1295E-03  1.0938E-02  0.0000E+00  0.0000E+00  1.9365E-02  0.0000E+00  0.0000E+00  0.0000E+00
138  0.0000E+00  2.7857E-03  0.0000E+00  0.0000E+00  0.0000E+00  0.0000E+00  4.9137E-03  9.4120E-03  0.0000E+00
139  0.0000E+00  8.8408E-03  8.5317E-04  0.0000E+00  0.0000E+00  0.0000E+00  3.0423E-02  5.3995E-03  0.0000E+00
140  0.0000E+00  1.4876E-02  0.0000E+00  0.0000E+00  0.0000E+00  0.0000E+00  0.0000E+00  0.0000E+00  8.4709E-03
141  0.0000E+00  1.7357E-02  0.0000E+00  0.0000E+00  0.0000E+00  0.0000E+00  0.0000E+00  0.0000E+00  0.0000E+00
142  0.0000E+00  3.3099E-02  0.0000E+00  0.0000E+00  0.0000E+00  0.0000E+00  0.0000E+00  0.0000E+00  0.0000E+00
143  0.0000E+00  1.1162E-01  7.6434E-02  1.1046E-01  0.0000E+00  0.0000E+00  1.9081E-01  0.0000E+00  3.5857E-01
144  0.0000E+00  9.4535E-02  2.7690E-01  0.0000E+00  0.0000E+00  0.0000E+00  0.0000E+00  0.0000E+00  3.5601E-01
145  0.0000E+00  2.4579E-01  0.0000E+00  0.0000E+00  0.0000E+00  1.2941E+00  0.0000E+00  6.1504E-01  1.1548E-01
146  0.0000E+00  6.8645E-02  0.0000E+00  0.0000E+00  0.0000E+00  0.0000E+00  0.0000E+00  1.5534E-01  0.0000E+00
147  0.0000E+00  2.9932E-01  0.0000E+00  0.0000E+00  0.0000E+00  0.0000E+00  0.0000E+00  1.0852E+00  9.2040E-01
148  0.0000E+00  5.0554E-01  4.2489E-01  1.2460E+00  1.1171E+00  4.9948E-01  2.7231E+00  0.0000E+00  0.0000E+00
149  0.0000E+00  2.5716E-01  0.0000E+00  0.0000E+00  8.2455E-02  0.0000E+00  0.0000E+00  0.0000E+00  0.0000E+00
150  0.0000E+00  4.7606E-01  0.0000E+00  0.0000E+00  1.1265E+00  0.0000E+00  5.0825E-01  0.0000E+00  1.4754E+00

# AV, chi2 & Mass for <> & i_chain = 1 ...  7 solutions
AV       0.6577      0.6284      0.6280      0.6320      0.6301      0.6305      0.6314      0.6302      0.6316
chi2 2.4790E+00  2.5485E+00  2.5337E+00  2.5250E+00  2.5246E+00  2.5319E+00  2.5262E+00  2.5374E+00  2.5168E+00
Mass 4.6843E-11  5.0246E-11  4.9699E-11  4.8456E-11  4.9792E-11  5.1100E-11  4.9858E-11  5.0647E-11  4.9185E-11
 -11.78                                  [v0_min (km/s) before EX0s...]
  65.67                                  [vd_min (km/s) before EX0s...]


## Synthetic spectrum (Best Model) ##l_obs f_obs f_syn wei
 3070    [Nl_obs]
 3359.00    0.31994   0.42207   -1.000
 3360.00    0.26431   0.41294   -1.000
 3361.00    0.27338   0.42403   -1.000
 3362.00    0.31592   0.44739   -1.000
 3363.00    0.31180   0.47235   -1.000
 3364.00    0.34234   0.48630   -1.000
 3365.00    0.34322   0.48518   -1.000
 3366.00    0.30777   0.47831   -1.000
 3367.00    0.28587   0.47158   -1.000
 3368.00    0.26612   0.46430   -1.000
 3369.00    0.28045   0.45357   -1.000
 3370.00    0.29336   0.43838   -1.000
 3371.00    0.27859   0.42820   -1.000
 3372.00    0.31227   0.43178   -1.000
 3373.00    0.34409   0.44813   -1.000
 3374.00    0.33799   0.46927   -1.000
 3375.00    0.32298   0.48757   -1.000
 3376.00    0.31251   0.49654   -1.000
 3377.00    0.33883   0.49454   -1.000
 3378.00    0.38515   0.48581   -1.000
 3379.00    0.38055   0.47901   -1.000
 3380.00    0.36460   0.47907   -1.000
 3381.00    0.36680   0.48357   -1.000
 3382.00    0.38343   0.48871   -1.000
 3383.00    0.39957   0.49349   -1.000
 3384.00    0.39489   0.49802   -1.000
 3385.00    0.37574   0.49996   -1.000
 3386.00    0.36445   0.49473   -1.000
 3387.00    0.39206   0.48593   -1.000
 3388.00    0.41039   0.48338   -1.000
 3389.00    0.39006   0.48977   -1.000
 3390.00    0.36457   0.49867   -1.000
 3391.00    0.42817   0.50247   -1.000
 3392.00    0.47651   0.49835   48.819
 3393.00    0.43737   0.49477   46.926
 3394.00    0.41159   0.49901   -1.000
 3395.00    0.42141   0.50989   -1.000
 3396.00    0.44319   0.52294   -1.000
 3397.00    0.45931   0.53366   39.985
 3398.00    0.47532   0.54006   39.024
 3399.00    0.49204   0.54012   38.997
 3400.00    0.46706   0.53385   40.105
 3401.00    0.42168   0.52150   -1.000
 3402.00    0.41148   0.50696   -1.000
 3403.00    0.40216   0.49828   -1.000
 3404.00    0.42550   0.49672   43.198
 3405.00    0.46573   0.49948   43.618
 3406.00    0.47066   0.49918   44.093
 3407.00    0.48234   0.49359   44.546
 3408.00    0.46904   0.48817   44.491
 3409.00    0.44932   0.48988   43.597
 3410.00    0.43829   0.49594   42.817
 3411.00    0.43856   0.49715   43.706
 3412.00    0.44815   0.49324   45.018
 3413.00    0.44626   0.48931   45.310
 3414.00    0.47089   0.49211   44.614
 3415.00    0.45872   0.50179   43.027
 3416.00    0.47220   0.51214   41.061
 3417.00    0.47818   0.52029   39.038
 3418.00    0.44542   0.52673   -1.000
 3419.00    0.47903   0.53223   37.887
 3420.00    0.53356   0.53580   37.903
 3421.00    0.55478   0.53327   38.635
 3422.00    0.53851   0.52295   39.633
 3423.00    0.48985   0.51128   39.361
 3424.00    0.46898   0.50641   38.267
 3425.00    0.48479   0.50932   37.716
 3426.00    0.48728   0.51620   75.354
 3427.00    0.46214   0.52642   -1.000
 3428.00    0.45868   0.53983   -1.000
 3429.00    0.48892   0.55166   -1.000
 3430.00    0.52416   0.55289   -1.000
 3431.00    0.52881   0.54073   62.468
 3432.00    0.50934   0.52645   37.642
 3433.00    0.50129   0.52267   75.567
 3434.00    0.49075   0.53245   -1.000
 3435.00    0.47262   0.54507   -1.000
 3436.00    0.50345   0.54765   38.497
 3437.00    0.52447   0.53879   40.600
 3438.00    0.47793   0.52475   43.490
 3439.00    0.41973   0.50990   -1.000
 3440.00    0.44027   0.49545   46.835
 3441.00    0.47830   0.48304   46.745
 3442.00    0.46833   0.47685   45.579
 3443.00    0.48112   0.47867   43.356
 3444.00    0.50361   0.48730   40.961
 3445.00    0.49072   0.50133   39.183
 3446.00    0.48781   0.52002   78.215
 3447.00    0.50959   0.53943   -1.000
 3448.00    0.52784   0.55322   -1.000
 3449.00    0.52908   0.55475   -1.000
 3450.00    0.49533   0.54133   -1.000
 3451.00    0.47580   0.52207   -1.000
 3452.00    0.50873   0.50928  320.008
 3453.00    0.54681   0.50763   -1.000
 3454.00    0.56817   0.51376   -1.000
 3455.00    0.54419   0.52132   -1.000
 3456.00    0.52442   0.52543  320.008
 3457.00    0.53440   0.52457   61.062
 3458.00    0.53471   0.51939   37.922
 3459.00    0.52328   0.51138   37.993
 3460.00    0.49334   0.50307   77.883
 3461.00    0.46962   0.50082   -1.000
 3462.00    0.51533   0.50767   -1.000
 3463.00    0.53935   0.51692   -1.000
 3464.00    0.53962   0.52056   -1.000
 3465.00    0.54947   0.51890   -1.000
 3466.00    0.54115   0.52028   -1.000
 3467.00    0.55261   0.52923   -1.000
 3468.00    0.53112   0.54271   -1.000
 3469.00    0.52539   0.55388   -1.000
 3470.00    0.56568   0.55725  320.008
 3471.00    0.58487   0.55224   -1.000
 3472.00    0.56752   0.54089   -1.000
 3473.00    0.53041   0.52498   60.882
 3474.00    0.52502   0.51048   38.765
 3475.00    0.53189   0.50317   38.863
 3476.00    0.53588   0.50572   79.813
 3477.00    0.54551   0.51693   -1.000
 3478.00    0.54539   0.53029   -1.000
 3479.00    0.53061   0.54199   -1.000
 3480.00    0.51603   0.55028   -1.000
 3481.00    0.49942   0.55216   -1.000
 3482.00    0.50125   0.54856   -1.000
 3483.00    0.50717   0.54419   -1.000
 3484.00    0.54002   0.54435  316.152
 3485.00    0.54484   0.55122  308.001
 3486.00    0.51871   0.55878   -1.000
 3487.00    0.51009   0.55943   -1.000
 3488.00    0.54815   0.55179  320.008
 3489.00    0.57207   0.53926   -1.000
 3490.00    0.52341   0.53022  320.008
 3491.00    0.51923   0.53120   -1.000
 3492.00    0.55639   0.53755   -1.000
 3493.00    0.53374   0.53982  320.008
 3494.00    0.50899   0.53520   -1.000
 3495.00    0.53245   0.52604  320.008
 3496.00    0.55584   0.51921   -1.000
 3497.00    0.57817   0.51995   -1.000
 3498.00    0.57049   0.52556   -1.000
 3499.00    0.54377   0.53185   -1.000
 3500.00    0.54931   0.53424   -1.000
 3501.00    0.53335   0.53447  292.291
 3502.00    0.54426   0.53660  296.410
 3503.00    0.59683   0.53894   -1.000
 3504.00    0.61395   0.53844   -1.000
 3505.00    0.59001   0.53405   -1.000
 3506.00    0.57404   0.52873   -1.000
 3507.00    0.57141   0.52528   -1.000
 3508.00    0.57340   0.52447   -1.000
 3509.00    0.55821   0.52540   -1.000
 3510.00    0.54878   0.52502   -1.000
 3511.00    0.54257   0.52228   -1.000
 3512.00    0.54531   0.51796   -1.000
 3513.00    0.56088   0.51519   -1.000
 3514.00    0.53623   0.51794   -1.000
 3515.00    0.53402   0.52868  309.650
 3516.00    0.56503   0.54526   -1.000
 3517.00    0.59371   0.55793   -1.000
 3518.00    0.60711   0.55831   -1.000
 3519.00    0.59270   0.54728   -1.000
 3520.00    0.58974   0.53421   -1.000
 3521.00    0.58087   0.52538   -1.000
 3522.00    0.57415   0.52000   -1.000
 3523.00    0.58350   0.51406   38.424
 3524.00    0.56589   0.50628   38.815
 3525.00    0.51954   0.50221   83.818
 3526.00    0.53258   0.50707   -1.000
 3527.00    0.53150   0.51886   -1.000
 3528.00    0.53772   0.53387  314.242
 3529.00    0.56017   0.54784   -1.000
 3530.00    0.59108   0.55742   -1.000
 3531.00    0.61479   0.56091   -1.000
 3532.00    0.59889   0.55633   -1.000
 3533.00    0.56708   0.54614   -1.000
 3534.00    0.55935   0.53839   -1.000
 3535.00    0.58799   0.53968   -1.000
 3536.00    0.59857   0.55062   -1.000
 3537.00    0.59008   0.56428   -1.000
 3538.00    0.58253   0.57413  296.999
 3539.00    0.55282   0.57873   -1.000
 3540.00    0.51672   0.57893   -1.000
 3541.00    0.51942   0.57727   -1.000
 3542.00    0.55353   0.57749   -1.000
 3543.00    0.56240   0.58116   -1.000
 3544.00    0.53804   0.58451   -1.000
 3545.00    0.50888   0.58403   -1.000
 3546.00    0.51398   0.58075   -1.000
 3547.00    0.54356   0.57724   -1.000
 3548.00    0.56147   0.57602   -1.000
 3549.00    0.57146   0.57829  312.377
 3550.00    0.55024   0.58310   -1.000
 3551.00    0.54305   0.58592   -1.000
 3552.00    0.54408   0.58192   -1.000
 3553.00    0.52018   0.57328   -1.000
 3554.00    0.52310   0.56719   -1.000
 3555.00    0.55122   0.56804   -1.000
 3556.00    0.54640   0.57490   -1.000
 3557.00    0.52104   0.58361   -1.000
 3558.00    0.53020   0.58867   -1.000
 3559.00    0.52988   0.58908   -1.000
 3560.00    0.52906   0.58796   -1.000
 3561.00    0.56321   0.58686   -1.000
 3562.00    0.55439   0.58318   -1.000
 3563.00    0.53482   0.57366   57.460
 3564.00    0.54232   0.55903   38.953
 3565.00    0.53814   0.54433   39.263
 3566.00    0.53039   0.53534   38.949
 3567.00    0.53141   0.53324   39.697
 3568.00    0.51120   0.53359   40.672
 3569.00    0.49818   0.53044   40.128
 3570.00    0.52133   0.52243   38.514
 3571.00    0.54000   0.51487   85.814
 3572.00    0.53972   0.51249   -1.000
 3573.00    0.55537   0.51458   -1.000
 3574.00    0.54340   0.51979   -1.000
 3575.00    0.51355   0.52749   -1.000
 3576.00    0.52228   0.53600   -1.000
 3577.00    0.53326   0.54357   58.982
 3578.00    0.56595   0.54676   41.189
 3579.00    0.58220   0.54246   43.846
 3580.00    0.55270   0.53286   44.905
 3581.00    0.53150   0.52293   45.119
 3582.00    0.52403   0.51772   45.909
 3583.00    0.53769   0.51685   47.301
 3584.00    0.53101   0.51199   48.300
 3585.00    0.51116   0.49871   46.947
 3586.00    0.49789   0.48411   44.474
 3587.00    0.47197   0.47955   42.245
 3588.00    0.48850   0.48925   39.051
 3589.00    0.53682   0.50785   86.428
 3590.00    0.58720   0.52588   -1.000
 3591.00    0.58249   0.53742   -1.000
 3592.00    0.55655   0.54256   -1.000
 3593.00    0.52730   0.54550   -1.000
 3594.00    0.55181   0.55087  308.785
 3595.00    0.58105   0.55964   -1.000
 3596.00    0.57415   0.56834  289.528
 3597.00    0.56603   0.57394  283.779
 3598.00    0.58935   0.57643   -1.000
 3599.00    0.58434   0.57663  294.355
 3600.00    0.55912   0.57270   -1.000
 3601.00    0.56386   0.56347  320.008
 3602.00    0.56979   0.55340   -1.000
 3603.00    0.54839   0.54794  320.008
 3604.00    0.54313   0.54921  320.008
 3605.00    0.56132   0.55224   -1.000
 3606.00    0.55319   0.55180  320.008
 3607.00    0.55976   0.54817   -1.000
 3608.00    0.56518   0.54405   -1.000
 3609.00    0.55099   0.54149   -1.000
 3610.00    0.53272   0.54092  320.008
 3611.00    0.51838   0.54327   -1.000
 3612.00    0.54766   0.54833  320.008
 3613.00    0.55648   0.55480  310.479
 3614.00    0.54025   0.56426   -1.000
 3615.00    0.55027   0.57475   -1.000
 3616.00    0.54228   0.57789   -1.000
 3617.00    0.55164   0.57037   54.993
 3618.00    0.55370   0.55682   88.297
 3619.00    0.55344   0.54816  320.008
 3620.00    0.54867   0.55179  308.409
 3621.00    0.54709   0.56302   -1.000
 3622.00    0.55399   0.57389   -1.000
 3623.00    0.59393   0.58143   -1.000
 3624.00    0.58377   0.58909  272.827
 3625.00    0.58102   0.60116   -1.000
 3626.00    0.60268   0.61600   -1.000
 3627.00    0.57764   0.62530   -1.000
 3628.00    0.57725   0.61981   -1.000
 3629.00    0.55510   0.59956   -1.000
 3630.00    0.53548   0.57425   -1.000
 3631.00    0.52760   0.55769   -1.000
 3632.00    0.53088   0.55693   -1.000
 3633.00    0.53286   0.56736   -1.000
 3634.00    0.53072   0.57751   -1.000
 3635.00    0.56041   0.58145   -1.000
 3636.00    0.57107   0.58390   -1.000
 3637.00    0.54578   0.59062   -1.000
 3638.00    0.55971   0.59992   -1.000
 3639.00    0.58715   0.60610   -1.000
 3640.00    0.58446   0.60586   -1.000
 3641.00    0.57177   0.59926   -1.000
 3642.00    0.54078   0.58901   -1.000
 3643.00    0.54361   0.57945   -1.000
 3644.00    0.55770   0.57289   -1.000
 3645.00    0.55353   0.56905   -1.000
 3646.00    0.56337   0.56720  320.008
 3647.00    0.55796   0.56712  320.008
 3648.00    0.55229   0.56779   -1.000
 3649.00    0.55376   0.56855   -1.000
 3650.00    0.55056   0.57084   -1.000
 3651.00    0.55566   0.57671   -1.000
 3652.00    0.56855   0.58659   -1.000
 3653.00    0.58099   0.59811   -1.000
 3654.00    0.58616   0.60955   -1.000
 3655.00    0.59744   0.61962   -1.000
 3656.00    0.59638   0.62641   -1.000
 3657.00    0.59328   0.62905   -1.000
 3658.00    0.59058   0.62849   -1.000
 3659.00    0.60468   0.62609   -1.000
 3660.00    0.60435   0.62172   -1.000
 3661.00    0.59628   0.61550   -1.000
 3662.00    0.60551   0.60962  269.845
 3663.00    0.61993   0.60676   -1.000
 3664.00    0.60713   0.60786  267.269
 3665.00    0.60351   0.61070  271.183
 3666.00    0.60409   0.61224  275.096
 3667.00    0.59972   0.61088   -1.000
 3668.00    0.60633   0.60687  281.703
 3669.00    0.58460   0.60294   -1.000
 3670.00    0.60978   0.60219  266.670
 3671.00    0.64097   0.60626   -1.000
 3672.00    0.64336   0.61310   -1.000
 3673.00    0.63971   0.61760   -1.000
 3674.00    0.60520   0.61662   -1.000
 3675.00    0.59882   0.61023   -1.000
 3676.00    0.59682   0.59975  287.259
 3677.00    0.58414   0.58862  295.027
 3678.00    0.60534   0.58173   -1.000
 3679.00    0.58802   0.58180  291.118
 3680.00    0.57397   0.58616   -1.000
 3681.00    0.58960   0.59057  278.516
 3682.00    0.59769   0.59293  282.385
 3683.00    0.59276   0.59216  292.588
 3684.00    0.57321   0.58823   -1.000
 3685.00    0.57504   0.58252  312.392
 3686.00    0.58726   0.57956  307.928
 3687.00    0.60397   0.58508   -1.000
 3688.00    0.60324   0.59985  271.497
 3689.00    0.59552   0.61560   -1.000
 3690.00    0.59347   0.62374   -1.000
 3691.00    0.61348   0.62467   -1.000
 3692.00    0.63857   0.62435   -1.000
 3693.00    0.65315   0.62678   -1.000
 3694.00    0.66635   0.63030   -1.000
 3695.00    0.65055   0.63039   -1.000
 3696.00    0.61524   0.62551  257.867
 3697.00    0.60455   0.62306   -1.000
 3698.00    0.60948   0.63253   -1.000
 3699.00    0.63331   0.65190   -1.000
 3700.00    0.65282   0.66702   -1.000
 3701.00    0.64270   0.66120   -1.000
 3702.00    0.61314   0.63258   -1.000
 3703.00    0.57359   0.59542   -1.000
 3704.00    0.54782   0.56789   -1.000
 3705.00    0.51020   0.56055   -1.000
 3706.00    0.53755   0.57116   -1.000
 3707.00    0.58324   0.58899  308.810
 3708.00    0.61006   0.60105  296.001
 3709.00    0.60916   0.59921   -1.000
 3710.00    0.56855   0.58656   -1.000
 3711.00    0.56284   0.57556   -1.000
 3712.00    0.56675   0.57892  245.827
 3713.00    0.60147   0.60179  243.515
 3714.00    0.64018   0.63670  247.835
 3715.00    0.66293   0.66880  257.689
 3716.00    0.69032   0.68795  278.308
 3717.00    0.68165   0.68924  314.963
 3718.00    0.66123   0.66781  320.008
 3719.00    0.62264   0.62322   52.841
 3720.00    0.55992   0.56908   99.705
 3721.00    0.54810   0.53069   -1.000
 3722.00    0.55645   0.52563   -1.000
 3723.00    0.57387   0.55508   -1.000
 3724.00    0.59941   0.60445  272.966
 3725.00    0.63414   0.64883   -1.000
 3726.00    0.64378   0.67452   -1.000
 3727.00    0.66052   0.68578   -1.000
 3728.00    0.67473   0.69137   -1.000
 3729.00    0.66236   0.69300   -1.000
 3730.00    0.65567   0.68290   -1.000
 3731.00    0.63911   0.65031   51.304
 3732.00    0.55634   0.59660   40.550
 3733.00    0.51181   0.53983   43.112
 3734.00    0.48661   0.50025   42.020
 3735.00    0.47386   0.49267   38.556
 3736.00    0.51288   0.51966   98.411
 3737.00    0.56289   0.56872  306.942
 3738.00    0.61709   0.62393  285.499
 3739.00    0.64679   0.67361   -1.000
 3740.00    0.66753   0.70623   -1.000
 3741.00    0.66405   0.71663   -1.000
 3742.00    0.68569   0.70904   -1.000
 3743.00    0.66562   0.69238   -1.000
 3744.00    0.65784   0.67139   -1.000
 3745.00    0.64079   0.64681   51.829
 3746.00    0.62053   0.61710   39.729
 3747.00    0.60838   0.58130   40.792
 3748.00    0.55419   0.54331  109.373
 3749.00    0.52031   0.51379  320.008
 3750.00    0.51454   0.50908  299.042
 3751.00    0.54417   0.53823  274.403
 3752.00    0.59397   0.59172  258.280
 3753.00    0.64551   0.64970  250.870
 3754.00    0.69749   0.69491  259.604
 3755.00    0.74339   0.72027   -1.000
 3756.00    0.73398   0.72411   -1.000
 3757.00    0.72007   0.71040   -1.000
 3758.00    0.70657   0.69153   -1.000
 3759.00    0.69996   0.68005   -1.000
 3760.00    0.73365   0.68094   -1.000
 3761.00    0.73826   0.69174   -1.000
 3762.00    0.73940   0.70401   -1.000
 3763.00    0.74729   0.70989   -1.000
 3764.00    0.73223   0.70645   -1.000
 3765.00    0.71101   0.69433   -1.000
 3766.00    0.68760   0.67394   -1.000
 3767.00    0.68682   0.64317   -1.000
 3768.00    0.64751   0.60368   -1.000
 3769.00    0.58362   0.56529   -1.000
 3770.00    0.54376   0.54320  273.320
 3771.00    0.55229   0.55074  262.862
 3772.00    0.61508   0.58564   -1.000
 3773.00    0.64261   0.63115   -1.000
 3774.00    0.64000   0.66932   -1.000
 3775.00    0.65857   0.69490   -1.000
 3776.00    0.71292   0.71470  255.610
 3777.00    0.74802   0.73737  248.274
 3778.00    0.76857   0.76363  241.774
 3779.00    0.78858   0.78888  239.097
 3780.00    0.82447   0.80868   -1.000
 3781.00    0.84361   0.81925   -1.000
 3782.00    0.83000   0.82044  241.419
 3783.00    0.80600   0.81567  252.388
 3784.00    0.80925   0.80759  270.006
 3785.00    0.82483   0.79552   -1.000
 3786.00    0.79758   0.77917   -1.000
 3787.00    0.76785   0.76200  294.298
 3788.00    0.77110   0.75051   -1.000
 3789.00    0.77724   0.74647   -1.000
 3790.00    0.74863   0.74502  289.217
 3791.00    0.76290   0.73950   -1.000
 3792.00    0.77162   0.72520   -1.000
 3793.00    0.72636   0.69928   -1.000
 3794.00    0.68638   0.66136   -1.000
 3795.00    0.64895   0.61549   -1.000
 3796.00    0.60546   0.56869   -1.000
 3797.00    0.55329   0.53172   -1.000
 3798.00    0.52217   0.52034  315.914
 3799.00    0.55075   0.54568  289.805
 3800.00    0.62802   0.60155   -1.000
 3801.00    0.69449   0.66566   -1.000
 3802.00    0.72611   0.71831  264.358
 3803.00    0.74788   0.75222  267.034
 3804.00    0.78577   0.77037   -1.000
 3805.00    0.79253   0.77758   -1.000
 3806.00    0.78784   0.78166  278.242
 3807.00    0.77990   0.79041  268.162
 3808.00    0.78457   0.80622   -1.000
 3809.00    0.80576   0.82488   -1.000
 3810.00    0.85043   0.83718   -1.000
 3811.00    0.85799   0.83398   -1.000
 3812.00    0.81676   0.81446  313.395
 3813.00    0.78726   0.78942  320.008
 3814.00    0.80106   0.77251   -1.000
 3815.00    0.82599   0.77167   -1.000
 3816.00    0.81964   0.78365   -1.000
 3817.00    0.83978   0.79716   -1.000
 3818.00    0.83600   0.79978   -1.000
 3819.00    0.82338   0.78850   -1.000
 3820.00    0.78737   0.77371   -1.000
 3821.00    0.77400   0.76721  320.008
 3822.00    0.79456   0.76893   -1.000
 3823.00    0.78925   0.76512   51.335
 3824.00    0.75797   0.74785   39.919
 3825.00    0.75252   0.72585   39.864
 3826.00    0.75450   0.70886   39.283
 3827.00    0.73877   0.69739   38.637
 3828.00    0.73335   0.68726   38.847
 3829.00    0.71923   0.67518   40.313
 3830.00    0.67752   0.65720   43.218
 3831.00    0.61519   0.62830   45.085
 3832.00    0.58188   0.58585   44.718
 3833.00    0.54387   0.53594   43.103
 3834.00    0.49485   0.49542   41.964
 3835.00    0.50059   0.47825   42.428
 3836.00    0.52359   0.48782   43.442
 3837.00    0.54497   0.51877   43.097
 3838.00    0.59091   0.55987   40.999
 3839.00    0.61208   0.60116  119.821
 3840.00    0.62399   0.64089   -1.000
 3841.00    0.69522   0.68053   -1.000
 3842.00    0.74607   0.71956   -1.000
 3843.00    0.76771   0.75509   -1.000
 3844.00    0.79547   0.78250   -1.000
 3845.00    0.78534   0.80156   -1.000
 3846.00    0.80935   0.81568  310.870
 3847.00    0.83835   0.82599   -1.000
 3848.00    0.83679   0.83025  320.008
 3849.00    0.84664   0.82906   -1.000
 3850.00    0.84523   0.83002   -1.000
 3851.00    0.82062   0.84006   -1.000
 3852.00    0.83100   0.85599   -1.000
 3853.00    0.85777   0.86784   -1.000
 3854.00    0.85280   0.86862   -1.000
 3855.00    0.85508   0.85959  320.008
 3856.00    0.86545   0.84728   47.765
 3857.00    0.86234   0.83667   38.986
 3858.00    0.85396   0.82931   38.875
 3859.00    0.83094   0.82805  117.156
 3860.00    0.82784   0.83550  318.679
 3861.00    0.84827   0.84930  300.264
 3862.00    0.86677   0.86235  298.836
 3863.00    0.88902   0.86926   -1.000
 3864.00    0.88119   0.86987   -1.000
 3865.00    0.87504   0.86823  314.705
 3866.00    0.86183   0.86924  320.008
 3867.00    0.89838   0.87402   -1.000
 3868.00    0.89562   0.87812   -1.000
 3869.00    0.87612   0.87453   48.123
 3870.00    0.85611   0.86031  118.155
 3871.00    0.82107   0.83875   -1.000
 3872.00    0.81713   0.81788  307.416
 3873.00    0.81439   0.80749  292.338
 3874.00    0.81882   0.80956   -1.000
 3875.00    0.84255   0.81511   -1.000
 3876.00    0.86439   0.81128   -1.000
 3877.00    0.81471   0.79578   -1.000
 3878.00    0.79675   0.77944   -1.000
 3879.00    0.80173   0.77251   -1.000
 3880.00    0.79627   0.77335   -1.000
 3881.00    0.77674   0.77082  320.008
 3882.00    0.75802   0.75877  302.476
 3883.00    0.76442   0.73853   -1.000
 3884.00    0.74258   0.70958   -1.000
 3885.00    0.72059   0.66877   -1.000
 3886.00    0.67171   0.61679   -1.000
 3887.00    0.63243   0.56442   -1.000
 3888.00    0.55468   0.52986   -1.000
 3889.00    0.53235   0.52704  267.097
 3890.00    0.57757   0.55832   -1.000
 3891.00    0.64248   0.61063   -1.000
 3892.00    0.70761   0.66199   -1.000
 3893.00    0.72073   0.69805   -1.000
 3894.00    0.74126   0.71988   -1.000
 3895.00    0.75526   0.73627   -1.000
 3896.00    0.76494   0.75354   -1.000
 3897.00    0.78911   0.77074   -1.000
 3898.00    0.82125   0.78295   -1.000
 3899.00    0.84129   0.78973   -1.000
 3900.00    0.82521   0.79766   -1.000
 3901.00    0.82723   0.80911   -1.000
 3902.00    0.84012   0.81901   -1.000
 3903.00    0.83499   0.82295   -1.000
 3904.00    0.83280   0.82175   -1.000
 3905.00    0.81413   0.82165  258.663
 3906.00    0.82874   0.82930  241.533
 3907.00    0.84833   0.84809  233.654
 3908.00    0.85197   0.87400   -1.000
 3909.00    0.86689   0.89700   -1.000
 3910.00    0.87750   0.90952   -1.000
 3911.00    0.88701   0.91110   -1.000
 3912.00    0.88080   0.90455   -1.000
 3913.00    0.87177   0.89317   -1.000
 3914.00    0.86361   0.88288   -1.000
 3915.00    0.85072   0.87907   -1.000
 3916.00    0.85648   0.87988   -1.000
 3917.00    0.87595   0.87943  262.533
 3918.00    0.89045   0.87519   -1.000
 3919.00    0.87805   0.86950  282.157
 3920.00    0.88002   0.86569   -1.000
 3921.00    0.85908   0.86444  276.439
 3922.00    0.84911   0.86535   -1.000
 3923.00    0.87980   0.86689   -1.000
 3924.00    0.88622   0.86541   -1.000
 3925.00    0.89380   0.85534   -1.000
 3926.00    0.86998   0.83267   51.402
 3927.00    0.80696   0.79813   47.054
 3928.00    0.77508   0.75301   55.082
 3929.00    0.73550   0.69745   65.028
 3930.00    0.67473   0.62749   -1.000
 3931.00    0.58706   0.54149   -1.000
 3932.00    0.47968   0.45510   83.248
 3933.00    0.41856   0.39902   73.545
 3934.00    0.42363   0.39992   61.300
 3935.00    0.50184   0.45774   50.380
 3936.00    0.59477   0.54571   42.174
 3937.00    0.68881   0.63580   -1.000
 3938.00    0.74443   0.71290   -1.000
 3939.00    0.79196   0.77029   -1.000
 3940.00    0.81743   0.80831   -1.000
 3941.00    0.82055   0.83007  319.070
 3942.00    0.83712   0.84018  305.889
 3943.00    0.84914   0.84530  279.944
 3944.00    0.84601   0.85082  261.943
 3945.00    0.87114   0.85879   -1.000
 3946.00    0.88241   0.86759   -1.000
 3947.00    0.86849   0.87226  246.806
 3948.00    0.87210   0.87023  238.501
 3949.00    0.91481   0.86427   -1.000
 3950.00    0.88715   0.85897   -1.000
 3951.00    0.88107   0.85644   -1.000
 3952.00    0.87934   0.85760   -1.000
 3953.00    0.88335   0.86175   -1.000
 3954.00    0.90104   0.86374   -1.000
 3955.00    0.89347   0.85912   -1.000
 3956.00    0.87102   0.84880   -1.000
 3957.00    0.86757   0.83887   -1.000
 3958.00    0.86893   0.83307   -1.000
 3959.00    0.84856   0.82503   -1.000
 3960.00    0.81428   0.80647  320.008
 3961.00    0.77865   0.77637  320.008
 3962.00    0.75756   0.73889   47.590
 3963.00    0.72891   0.69755   44.446
 3964.00    0.68164   0.64663   54.279
 3965.00    0.60973   0.57709   66.555
 3966.00    0.50611   0.48876   75.115
 3967.00    0.39896   0.39641   72.020
 3968.00    0.34329   0.32900   60.506
 3969.00    0.33567   0.31134   49.713
 3970.00    0.35153   0.34854   41.465
 3971.00    0.43164   0.42436  139.330
 3972.00    0.52682   0.51306   -1.000
 3973.00    0.60918   0.59393   -1.000
 3974.00    0.67060   0.66070  258.137
 3975.00    0.73658   0.71398   -1.000
 3976.00    0.78706   0.75640   -1.000
 3977.00    0.81115   0.79026   -1.000
 3978.00    0.85493   0.81760   -1.000
 3979.00    0.88819   0.83819   -1.000
 3980.00    0.89870   0.84999   -1.000
 3981.00    0.88271   0.85492   -1.000
 3982.00    0.88501   0.85907   -1.000
 3983.00    0.90578   0.86824   -1.000
 3984.00    0.92872   0.88292   -1.000
 3985.00    0.91602   0.89797   -1.000
 3986.00    0.93730   0.90896   -1.000
 3987.00    0.93990   0.91731   -1.000
 3988.00    0.96283   0.92513   -1.000
 3989.00    0.96582   0.93150   -1.000
 3990.00    0.95644   0.93762   -1.000
 3991.00    0.97336   0.94557   -1.000
 3992.00    0.99427   0.95506   -1.000
 3993.00    0.98404   0.96229   -1.000
 3994.00    0.97705   0.96162  203.304
 3995.00    0.97022   0.95144   -1.000
 3996.00    0.94000   0.93727  201.709
 3997.00    0.95105   0.92885   -1.000
 3998.00    0.95693   0.93151   -1.000
 3999.00    0.96525   0.94235   -1.000
 4000.00    0.96759   0.95422  180.016
 4001.00    0.97853   0.96182  182.606
 4002.00    0.99891   0.96311   -1.000
 4003.00    0.98695   0.95835   -1.000
 4004.00    0.98341   0.94949   -1.000
 4005.00    0.96117   0.94259   -1.000
 4006.00    0.94306   0.94506  185.891
 4007.00    0.95478   0.95762  182.713
 4008.00    1.02895   0.97344   -1.000
 4009.00    1.00267   0.98453  179.888
 4010.00    0.97076   0.98869   -1.000
 4011.00    0.98840   0.98795  181.952
 4012.00    0.99459   0.98525  180.939
 4013.00    0.99364   0.98425  178.519
 4014.00    1.00317   0.98739  179.446
 4015.00    1.02688   0.99371   -1.000
 4016.00    1.00895   1.00047  181.195
 4017.00    0.99946   1.00637  178.635
 4018.00    1.01011   1.01188  178.580
 4019.00    1.01090   1.01653  180.911
 4020.00    0.98479   1.01778   -1.000
 4021.00    1.00465   1.01364  183.391
 4022.00    1.01048   1.00539  184.799
 4023.00    0.99716   0.99656  181.061
 4024.00    0.99127   0.99139  174.816
 4025.00    1.01651   0.99383   -1.000
 4026.00    1.02409   1.00316   -1.000
 4027.00    1.01714   1.01153  178.049
 4028.00    0.99812   1.01096   -1.000
 4029.00    0.99482   1.00065  198.433
 4030.00    0.98903   0.98577  201.655
 4031.00    0.97389   0.97410  199.757
 4032.00    0.97914   0.97039  193.727
 4033.00    0.97712   0.97460  184.526
 4034.00    0.96771   0.98519   -1.000
 4035.00    0.97808   1.00076   -1.000
 4036.00    1.00338   1.01886  167.505
 4037.00    1.00452   1.03457   -1.000
 4038.00    1.00528   1.04210   -1.000
 4039.00    1.03200   1.04073  176.801
 4040.00    1.02197   1.03473  177.789
 4041.00    1.01604   1.02823  185.313
 4042.00    1.01034   1.02035  202.264
 4043.00    0.98559   1.00616   -1.000
 4044.00    0.97789   0.98598  213.076
 4045.00    0.94754   0.96926   -1.000
 4046.00    0.94778   0.96800   -1.000
 4047.00    0.97833   0.98441  174.994
 4048.00    0.98057   1.00668   -1.000
 4049.00    1.00223   1.02242   -1.000
 4050.00    1.01706   1.02854  177.713
 4051.00    1.00572   1.02757   -1.000
 4052.00    0.99781   1.02189   -1.000
 4053.00    1.00093   1.01463  187.133
 4054.00    0.98989   1.00938   -1.000
 4055.00    0.99006   1.00766   -1.000
 4056.00    1.00659   1.00865  188.610
 4057.00    1.00000   1.01191  182.282
 4058.00    1.00624   1.01853  178.258
 4059.00    1.00818   1.02575   -1.000
 4060.00    1.00851   1.02582   -1.000
 4061.00    0.99341   1.01482   -1.000
 4062.00    0.97386   0.99641   -1.000
 4063.00    0.96821   0.97826  195.644
 4064.00    0.94624   0.96720   -1.000
 4065.00    0.95113   0.96620   -1.000
 4066.00    0.97473   0.97210  179.282
 4067.00    0.97834   0.97831  176.555
 4068.00    0.97585   0.98120  182.413
 4069.00    0.98599   0.97932  190.732
 4070.00    0.98996   0.97106   -1.000
 4071.00    0.97779   0.95969   -1.000
 4072.00    0.97416   0.95355   -1.000
 4073.00    0.97311   0.95571   -1.000
 4074.00    0.97659   0.95881   -1.000
 4075.00    0.96889   0.95230   -1.000
 4076.00    0.95511   0.93523   -1.000
 4077.00    0.92982   0.91901  194.241
 4078.00    0.91645   0.91696  180.794
 4079.00    0.93635   0.93220  174.492
 4080.00    0.95983   0.95386  176.500
 4081.00    0.98623   0.96856   -1.000
 4082.00    0.99972   0.97089   -1.000
 4083.00    0.98296   0.96397   -1.000
 4084.00    0.97543   0.95462   -1.000
 4085.00    0.97580   0.94912   -1.000
 4086.00    0.96194   0.95052  165.087
 4087.00    0.97464   0.95692  165.151
 4088.00    1.00388   0.96343   -1.000
 4089.00    1.00496   0.96542   -1.000
 4090.00    0.99832   0.96180   -1.000
 4091.00    0.97640   0.95419   -1.000
 4092.00    0.93886   0.94273  176.817
 4093.00    0.92301   0.92725  184.461
 4094.00    0.92255   0.90885  190.943
 4095.00    0.89300   0.88710  192.866
 4096.00    0.85958   0.86077  195.801
 4097.00    0.85045   0.82798   -1.000
 4098.00    0.83481   0.78601   -1.000
 4099.00    0.79362   0.73247   -1.000
 4100.00    0.72585   0.67376   -1.000
 4101.00    0.64578   0.63096   -1.000
 4102.00    0.63438   0.62700  201.817
 4103.00    0.68536   0.66710   -1.000
 4104.00    0.75921   0.73169   -1.000
 4105.00    0.82287   0.79356   -1.000
 4106.00    0.85795   0.83705   -1.000
 4107.00    0.88674   0.86284   -1.000
 4108.00    0.88640   0.87806  190.642
 4109.00    0.90351   0.88927  188.785
 4110.00    0.92030   0.90062   -1.000
 4111.00    0.91593   0.91429  181.378
 4112.00    0.93851   0.93049  178.560
 4113.00    0.96303   0.94744  176.715
 4114.00    0.96511   0.96301  177.338
 4115.00    0.98472   0.97406  180.860
 4116.00    0.98121   0.97764  186.808
 4117.00    0.98019   0.97405  189.421
 4118.00    0.96857   0.96713  187.465
 4119.00    0.95291   0.96232  185.461
 4120.00    0.95831   0.96290  185.454
 4121.00    0.98208   0.96721  183.672
 4122.00    1.00768   0.97241   -1.000
 4123.00    1.01092   0.97857   -1.000
 4124.00    1.01365   0.98605   -1.000
 4125.00    1.00593   0.99204  185.626
 4126.00    1.00637   0.99307  187.405
 4127.00    1.00820   0.98946   -1.000
 4128.00    0.99919   0.98520  190.643
 4129.00    0.99234   0.98260  196.362
 4130.00    0.98834   0.97965  202.608
 4131.00    0.98780   0.97483  203.684
 4132.00    0.94994   0.97170   -1.000
 4133.00    0.96568   0.97591  187.804
 4134.00    1.02086   0.98796   -1.000
 4135.00    1.00710   1.00334  178.198
 4136.00    0.98849   1.01813   -1.000
 4137.00    0.99583   1.03102   -1.000
 4138.00    1.03152   1.04149  177.764
 4139.00    1.06222   1.04715  186.689
 4140.00    1.04585   1.04419  202.058
 4141.00    1.02523   1.03159  213.402
 4142.00    0.99529   1.01362   -1.000
 4143.00    0.96473   0.99929   -1.000
 4144.00    0.98001   0.99689   -1.000
 4145.00    1.02469   1.00654   -1.000
 4146.00    1.03316   1.01957  188.012
 4147.00    1.03225   1.02699  193.193
 4148.00    1.02050   1.02797  195.864
 4149.00    1.01906   1.02716  194.733
 4150.00    1.00516   1.02760   -1.000
 4151.00    1.07909   1.02792   -1.000
 4152.00    1.36760   1.02521   -1.000
 4153.00    1.09119   1.01967   -1.000
 4154.00    0.63533   1.01459   -1.000
 4155.00    0.92098   1.01349   -1.000
 4156.00    1.08873   1.01745   -1.000
 4157.00    1.01579   1.02505  187.560
 4158.00    1.02544   1.03341  186.661
 4159.00    1.02829   1.03919  181.227
 4160.00    1.02112   1.04099   -1.000
 4161.00    1.01840   1.04044   -1.000
 4162.00    1.00296   1.04116   -1.000
 4163.00    1.02344   1.04539   -1.000
 4164.00    1.04140   1.05158  189.505
 4165.00    1.03251   1.05540   -1.000
 4166.00    1.02275   1.05410   -1.000
 4167.00    1.01200   1.04985   -1.000
 4168.00    1.02067   1.04524   -1.000
 4169.00    1.02678   1.03870  200.457
 4170.00    1.01267   1.02547   -1.000
 4171.00    0.98168   1.00483   -1.000
 4172.00    0.96775   0.98548   -1.000
 4173.00    0.96520   0.97798  199.496
 4174.00    0.96193   0.98550   -1.000
 4175.00    0.96608   1.00016   -1.000
 4176.00    0.98145   1.00950   -1.000
 4177.00    0.98830   1.01029   -1.000
 4178.00    0.99484   1.00954   -1.000
 4179.00    0.99936   1.01432   -1.000
 4180.00    0.99090   1.02265   -1.000
 4181.00    0.99597   1.02726   -1.000
 4182.00    0.99826   1.02790   -1.000
 4183.00    1.02319   1.02911  185.243
 4184.00    1.02840   1.03115  191.193
 4185.00    0.99792   1.03072   -1.000
 4186.00    0.99496   1.02616   -1.000
 4187.00    1.00263   1.02087   -1.000
 4188.00    0.99983   1.01985   -1.000
 4189.00    1.00082   1.02286   -1.000
 4190.00    1.02236   1.02604  183.345
 4191.00    1.02412   1.02797  180.815
 4192.00    1.01415   1.03069   -1.000
 4193.00    1.01823   1.03485   -1.000
 4194.00    1.01051   1.03582   -1.000
 4195.00    1.00966   1.02861   -1.000
 4196.00    1.00053   1.01465   -1.000
 4197.00    0.97864   0.99940   -1.000
 4198.00    0.99623   0.98796  200.967
 4199.00    0.97932   0.98354  200.285
 4200.00    0.97923   0.98505  199.037
 4201.00    0.99126   0.98801  195.969
 4202.00    0.97656   0.99088   -1.000
 4203.00    0.98809   0.99582  190.802
 4204.00    0.99033   1.00286  186.050
 4205.00    1.01941   1.01006  182.376
 4206.00    1.01603   1.01715  181.350
 4207.00    0.99317   1.02372   -1.000
 4208.00    1.00210   1.02796   -1.000
 4209.00    1.02478   1.03000  180.459
 4210.00    1.01899   1.03216  181.409
 4211.00    1.01936   1.03592   -1.000
 4212.00    1.03529   1.03887  195.733
 4213.00    1.02383   1.03524  201.322
 4214.00    1.00860   1.02365   -1.000
 4215.00    1.00911   1.01059  182.701
 4216.00    1.00256   1.00521  174.439
 4217.00    1.00201   1.01140  169.472
 4218.00    1.01190   1.02392  167.535
 4219.00    1.01277   1.03528   -1.000
 4220.00    1.01274   1.04225   -1.000
 4221.00    1.02410   1.04328   -1.000
 4222.00    0.99498   1.03568   -1.000
 4223.00    0.99198   1.01656   -1.000
 4224.00    0.97651   0.98802   -1.000
 4225.00    0.94045   0.95942   -1.000
 4226.00    0.92994   0.94363  207.275
 4227.00    0.92975   0.95132   -1.000
 4228.00    0.96015   0.98166   -1.000
 4229.00    1.00495   1.01812  174.142
 4230.00    0.99976   1.04021   -1.000
 4231.00    0.99328   1.04144   -1.000
 4232.00    0.98702   1.02982   -1.000
 4233.00    0.99517   1.01617   -1.000
 4234.00    0.97363   1.00845   -1.000
 4235.00    0.97211   1.00836   -1.000
 4236.00    0.97658   1.01184   -1.000
 4237.00    0.97395   1.01647   -1.000
 4238.00    0.97900   1.02289   -1.000
 4239.00    0.98579   1.03117   -1.000
 4240.00    1.00519   1.04042   -1.000
 4241.00    1.00349   1.04846   -1.000
 4242.00    1.01525   1.05284   -1.000
 4243.00    0.99515   1.05243   -1.000
 4244.00    1.00679   1.04723   -1.000
 4245.00    1.00698   1.03713   -1.000
 4246.00    1.00057   1.02348   -1.000
 4247.00    0.98138   1.01123   -1.000
 4248.00    0.96008   1.00476   -1.000
 4249.00    0.96978   1.00371   -1.000
 4250.00    0.97352   1.00691   -1.000
 4251.00    0.98167   1.01428   -1.000
 4252.00    0.98045   1.02293   -1.000
 4253.00    1.00541   1.02864   -1.000
 4254.00    0.99570   1.03095   -1.000
 4255.00    0.98093   1.03281   -1.000
 4256.00    1.00445   1.03548   -1.000
 4257.00    0.99840   1.03507   -1.000
 4258.00    0.97630   1.02835   -1.000
 4259.00    0.96790   1.01914   -1.000
 4260.00    0.98144   1.01496   -1.000
 4261.00    0.97388   1.02051   -1.000
 4262.00    0.98416   1.03432   -1.000
 4263.00    1.01320   1.04941   -1.000
 4264.00    1.02041   1.05842   -1.000
 4265.00    1.03460   1.05968   -1.000
 4266.00    1.00991   1.05624   -1.000
 4267.00    0.98947   1.04966   -1.000
 4268.00    0.99104   1.03916   -1.000
 4269.00    0.99971   1.02390   -1.000
 4270.00    0.97199   1.00542   -1.000
 4271.00    0.94857   0.98935   -1.000
 4272.00    0.93902   0.98218   -1.000
 4273.00    0.94239   0.98600   -1.000
 4274.00    0.94153   0.99775   -1.000
 4275.00    0.97412   1.01346   -1.000
 4276.00    0.99740   1.03076   -1.000
 4277.00    0.99304   1.04556   -1.000
 4278.00    0.99193   1.05224   -1.000
 4279.00    0.99249   1.04883   -1.000
 4280.00    0.98452   1.03893   -1.000
 4281.00    0.99128   1.02910   -1.000
 4282.00    0.99482   1.02371   -1.000
 4283.00    0.98400   1.02295   -1.000
 4284.00    0.96539   1.02354   -1.000
 4285.00    0.98027   1.02017   -1.000
 4286.00    0.97215   1.00927   -1.000
 4287.00    0.96555   0.99180   -1.000
 4288.00    0.92801   0.97187   -1.000
 4289.00    0.92313   0.95609   -1.000
 4290.00    0.92857   0.95197   -1.000
 4291.00    0.91749   0.96076   -1.000
 4292.00    0.93261   0.97344   -1.000
 4293.00    0.95854   0.97923   -1.000
 4294.00    0.95518   0.97762   -1.000
 4295.00    0.92934   0.97477   -1.000
 4296.00    0.93376   0.97048   -1.000
 4297.00    0.91572   0.95931   -1.000
 4298.00    0.86575   0.93906   -1.000
 4299.00    0.85856   0.91422   -1.000
 4300.00    0.87441   0.89404   -1.000
 4301.00    0.87239   0.88584   -1.000
 4302.00    0.87368   0.88993   -1.000
 4303.00    0.86014   0.90185   -1.000
 4304.00    0.87911   0.91448   -1.000
 4305.00    0.90046   0.91975   -1.000
 4306.00    0.86912   0.91508   -1.000
 4307.00    0.84209   0.90627   -1.000
 4308.00    0.83946   0.90225   -1.000
 4309.00    0.83830   0.90756   -1.000
 4310.00    0.86925   0.91905   -1.000
 4311.00    0.87293   0.92890   -1.000
 4312.00    0.87660   0.93232   -1.000
 4313.00    0.87588   0.93425   -1.000
 4314.00    0.92144   0.94443   -1.000
 4315.00    0.96166   0.96773  157.254
 4316.00    1.00867   0.99816  157.336
 4317.00    1.02172   1.02277  159.860
 4318.00    1.00722   1.03340   -1.000
 4319.00    0.98137   1.03151   -1.000
 4320.00    0.98089   1.02306   -1.000
 4321.00    0.97758   1.01267   -1.000
 4322.00    0.98036   1.00023   -1.000
 4323.00    0.93937   0.98303   -1.000
 4324.00    0.91259   0.96273   -1.000
 4325.00    0.90798   0.94985   -1.000
 4326.00    0.90972   0.95363   -1.000
 4327.00    0.92489   0.96998   -1.000
 4328.00    0.94569   0.98553   -1.000
 4329.00    0.97350   0.99074  164.331
 4330.00    0.96335   0.98721   -1.000
 4331.00    0.96015   0.98159   -1.000
 4332.00    0.97641   0.97566  159.456
 4333.00    0.96331   0.96580  162.300
 4334.00    0.92769   0.94766   -1.000
 4335.00    0.89980   0.91760   -1.000
 4336.00    0.87585   0.87237  207.826
 4337.00    0.82796   0.81151   -1.000
 4338.00    0.77556   0.74447   -1.000
 4339.00    0.72057   0.68919   -1.000
 4340.00    0.66339   0.66474  191.244
 4341.00    0.66996   0.68311  179.694
 4342.00    0.73618   0.73847  174.202
 4343.00    0.80763   0.80626  169.478
 4344.00    0.85612   0.86391  166.669
 4345.00    0.88829   0.90595   -1.000
 4346.00    0.91466   0.93743   -1.000
 4347.00    0.93679   0.96071   -1.000
 4348.00    0.93487   0.97340   -1.000
 4349.00    0.94886   0.97290   -1.000
 4350.00    0.95739   0.96269  187.519
 4351.00    0.93278   0.95282   -1.000
 4352.00    0.90190   0.95380   -1.000
 4353.00    0.91099   0.96911   -1.000
 4354.00    0.96463   0.99270   -1.000
 4355.00    0.99290   1.01399   -1.000
 4356.00    0.98501   1.02651   -1.000
 4357.00    0.97643   1.03051   -1.000
 4358.00    0.98187   1.03024   -1.000
 4359.00    0.97546   1.03101   -1.000
 4360.00    0.98089   1.03603   -1.000
 4361.00    0.99677   1.04469   -1.000
 4362.00    1.01698   1.05389   -1.000
 4363.00    1.03804   1.06050   -1.000
 4364.00    1.06115   1.06253  160.976
 4365.00    1.04087   1.05938   -1.000
 4366.00    1.00989   1.05142   -1.000
 4367.00    1.00176   1.04123   -1.000
 4368.00    1.01020   1.03306   -1.000
 4369.00    1.00774   1.02916   -1.000
 4370.00    1.00137   1.02815   -1.000
 4371.00    1.03310   1.02592  174.581
 4372.00    1.02829   1.01841  181.525
 4373.00    1.00105   1.00501  181.260
 4374.00    0.98926   0.99211  173.361
 4375.00    0.97794   0.99006  164.553
 4376.00    1.00465   1.00348  161.939
 4377.00    1.02310   1.02510  163.113
 4378.00    1.02885   1.04245  166.149
 4379.00    1.00634   1.04830   -1.000
 4380.00    1.02145   1.04195   -1.000
 4381.00    1.01027   1.02353   -1.000
 4382.00    0.99486   0.99589  217.643
 4383.00    0.95920   0.96934  196.404
 4384.00    0.94170   0.95664  177.813
 4385.00    0.96470   0.96358  172.670
 4386.00    0.99751   0.98366  173.101
 4387.00    1.00595   1.00432  175.103
 4388.00    1.01714   1.01747  175.569
 4389.00    1.01537   1.02249  171.911
 4390.00    1.02183   1.02304  168.002
 4391.00    0.99714   1.02286   -1.000
 4392.00    1.02190   1.02100  173.431
 4393.00    1.02858   1.01378  172.480
 4394.00    1.01668   1.00352  164.089
 4395.00    1.01420   0.99972  159.515
 4396.00    1.02663   1.00638   -1.000
 4397.00    1.04054   1.01570   -1.000
 4398.00    1.02181   1.01814  173.441
 4399.00    1.00127   1.01353  170.916
 4400.00    1.00469   1.00984  167.765
 4401.00    1.01883   1.01259  174.356
 4402.00    1.00754   1.01859  184.910
 4403.00    1.00781   1.02166  185.735
 4404.00    1.01171   1.02069  178.979
 4405.00    0.99586   1.01963   -1.000
 4406.00    1.00708   1.02131  175.109
 4407.00    1.01839   1.02409  168.015
 4408.00    1.03884   1.02677  160.768
 4409.00    1.04037   1.03213  155.426
 4410.00    1.02583   1.04151  153.862
 4411.00    1.01784   1.05039   -1.000
 4412.00    1.03014   1.05215   -1.000
 4413.00    1.04893   1.04346  173.781
 4414.00    1.02905   1.02615  172.256
 4415.00    1.00652   1.00792  165.870
 4416.00    0.98935   0.99829  158.919
 4417.00    0.99775   1.00295  154.631
 4418.00    1.01003   1.01962  155.938
 4419.00    1.03115   1.03977  160.301
 4420.00    1.03213   1.05374   -1.000
 4421.00    1.04087   1.05805   -1.000
 4422.00    1.02891   1.05694   -1.000
 4423.00    1.03285   1.05562   -1.000
 4424.00    1.01708   1.05431   -1.000
 4425.00    1.01325   1.05173   -1.000
 4426.00    1.01284   1.04933   -1.000
 4427.00    1.01744   1.04985   -1.000
 4428.00    1.01842   1.05369   -1.000
 4429.00    1.04009   1.05844   -1.000
 4430.00    1.02272   1.06151   -1.000
 4431.00    1.03491   1.06206   -1.000
 4432.00    1.05111   1.05956  173.821
 4433.00    1.03165   1.05321   -1.000
 4434.00    1.01668   1.04503   -1.000
 4435.00    1.03542   1.04167  156.940
 4436.00    1.03736   1.04948  150.667
 4437.00    1.03462   1.06611   -1.000
 4438.00    1.04947   1.08141   -1.000
 4439.00    1.04813   1.08498   -1.000
 4440.00    1.04707   1.07377   -1.000
 4441.00    1.05460   1.05238  170.360
 4442.00    1.02849   1.03124  163.488
 4443.00    1.01731   1.02153  156.552
 4444.00    1.01528   1.02855  153.900
 4445.00    1.02139   1.04670   -1.000
 4446.00    1.04395   1.06413   -1.000
 4447.00    1.05598   1.07339  156.331
 4448.00    1.05725   1.07519  157.792
 4449.00    1.04989   1.07357   -1.000
 4450.00    1.03477   1.07194   -1.000
 4451.00    1.02608   1.07171   -1.000
 4452.00    1.04528   1.07086   -1.000
 4453.00    1.05921   1.06537  174.715
 4454.00    1.04877   1.05598  171.314
 4455.00    1.01132   1.04965   -1.000
 4456.00    1.02087   1.05154   -1.000
 4457.00    1.06127   1.05836  169.647
 4458.00    1.04232   1.06347   -1.000
 4459.00    1.04532   1.06409   -1.000
 4460.00    1.04524   1.06220  168.983
 4461.00    1.03178   1.06135   -1.000
 4462.00    1.03498   1.06324   -1.000
 4463.00    1.04100   1.06660   -1.000
 4464.00    1.04022   1.06884   -1.000
 4465.00    1.05873   1.06761  160.817
 4466.00    1.05783   1.06119  163.959
 4467.00    1.04729   1.05066  164.679
 4468.00    1.02959   1.04171  162.057
 4469.00    1.00839   1.04104   -1.000
 4470.00    1.04725   1.05087  151.323
 4471.00    1.06797   1.06687  147.386
 4472.00    1.08088   1.08257  146.375
 4473.00    1.07841   1.09343  146.690
 4474.00    1.09146   1.09857  145.303
 4475.00    1.08867   1.09967  144.568
 4476.00    1.08397   1.09936  146.174
 4477.00    1.08643   1.09805  151.950
 4478.00    1.11611   1.09221   -1.000
 4479.00    1.11416   1.07894   -1.000
 4480.00    1.07622   1.06233  160.471
 4481.00    1.04234   1.05214  153.384
 4482.00    1.04507   1.05591  147.742
 4483.00    1.05083   1.07193   -1.000
 4484.00    1.06047   1.09103   -1.000
 4485.00    1.07166   1.10395   -1.000
 4486.00    1.07168   1.10651   -1.000
 4487.00    1.08128   1.09919   -1.000
 4488.00    1.08308   1.08761  155.886
 4489.00    1.06834   1.07979  151.616
 4490.00    1.05738   1.08054   -1.000
 4491.00    1.06678   1.08747   -1.000
 4492.00    1.06807   1.09328   -1.000
 4493.00    1.05730   1.09341   -1.000
 4494.00    1.05006   1.09022   -1.000
 4495.00    1.05816   1.08838   -1.000
 4496.00    1.05831   1.08944   -1.000
 4497.00    1.06742   1.09168   -1.000
 4498.00    1.07866   1.09181  148.777
 4499.00    1.07675   1.08685  149.278
 4500.00    1.06416   1.07918  145.046
 4501.00    1.05609   1.07619  140.086
 4502.00    1.09136   1.08297  137.943
 4503.00    1.09147   1.09626  139.195
 4504.00    1.08394   1.10780   -1.000
 4505.00    1.10717   1.11188  143.332
 4506.00    1.10614   1.10879  143.302
 4507.00    1.08589   1.10315  142.127
 4508.00    1.09396   1.10024  141.261
 4509.00    1.10692   1.10220  142.696
 4510.00    1.09145   1.10613  145.629
 4511.00    1.09322   1.10804  148.117
 4512.00    1.10340   1.10668  148.834
 4513.00    1.08515   1.10278  148.026
 4514.00    1.08240   1.09773  148.072
 4515.00    1.07573   1.09353  149.962
 4516.00    1.08180   1.09125  150.571
 4517.00    1.08172   1.08929  147.767
 4518.00    1.08323   1.08575  145.016
 4519.00    1.07429   1.08183  145.849
 4520.00    1.08043   1.07953  149.488
 4521.00    1.07195   1.07781  152.381
 4522.00    1.05879   1.07479  153.644
 4523.00    1.05379   1.07219   -1.000
 4524.00    1.05953   1.07228  161.380
 4525.00    1.06045   1.07332  165.756
 4526.00    1.06777   1.07132  167.374
 4527.00    1.07128   1.06499  165.846
 4528.00    1.06065   1.05774  162.815
 4529.00    1.05194   1.05436  159.971
 4530.00    1.04952   1.05581  159.650
 4531.00    1.05111   1.05687  164.550
 4532.00    1.02790   1.05143   -1.000
 4533.00    1.03088   1.04077  166.479
 4534.00    1.03166   1.03433  156.526
 4535.00    1.00831   1.04025   -1.000
 4536.00    1.04694   1.05753  144.277
 4537.00    1.07876   1.07836  146.135
 4538.00    1.08608   1.09427  149.560
 4539.00    1.14073   1.10095   -1.000
 4540.00    0.67433   1.09977   -1.000
 4541.00   -0.02167   1.09592    0.000
 4542.00    0.00361   1.09369   -1.000
 4543.00    0.48649   1.09315   -1.000
 4544.00    0.81327   1.09207   -1.000
 4545.00    0.33875   1.08999   -1.000
 4546.00    1.08729   1.08642  207.582
 4547.00    1.05888   1.07778   69.601
 4548.00    1.05137   1.06254  171.218
 4549.00    1.03658   1.04816  153.841
 4550.00    1.04073   1.04573  154.919
 4551.00    1.05330   1.05502  157.364
 4552.00    1.07575   1.06323  158.469
 4553.00    1.07526   1.06120  155.593
 4554.00    1.06198   1.05375  149.666
 4555.00    1.06019   1.05204  143.856
 4556.00    1.07567   1.06109  141.773
 4557.00    1.08648   1.07615  142.683
 4558.00    1.09205   1.08968  142.547
 4559.00    1.10708   1.09901  142.865
 4560.00    1.10751   1.10457  146.416
 4561.00    1.09891   1.10444  149.999
 4562.00    1.09220   1.09690  152.163
 4563.00    1.09325   1.08644  150.069
 4564.00    1.07793   1.08142  146.118
 4565.00    1.06227   1.08568   -1.000
 4566.00    1.09425   1.09530  141.379
 4567.00    1.10646   1.10345  143.271
 4568.00    1.10181   1.10557  147.054
 4569.00    1.09208   1.10044  150.528
 4570.00    1.08472   1.08950  148.852
 4571.00    1.09504   1.07800  144.357
 4572.00    1.07761   1.07455  142.613
 4573.00    1.07537   1.08205  142.860
 4574.00    1.08727   1.09287  143.564
 4575.00    1.10644   1.09823  144.544
 4576.00    1.10896   1.09768  147.278
 4577.00    1.09375   1.09487  151.706
 4578.00    1.09584   1.09073  154.448
 4579.00    1.09502   1.08422  153.666
 4580.00    1.07429   1.07615  151.490
 4581.00    1.07463   1.06827  150.569
 4582.00    1.06696   1.06126  151.149
 4583.00    1.06846   1.05735  151.856
 4584.00    1.07372   1.05999  149.411
 4585.00    1.07694   1.06828  145.447
 4586.00    1.06922   1.07700  142.657
 4587.00    1.10274   1.08224  142.808
 4588.00    1.11877   1.08352   -1.000
 4589.00    1.09821   1.08279  147.814
 4590.00    1.08400   1.08258  150.173
 4591.00    1.08082   1.08347  150.047
 4592.00    1.07835   1.08517  148.701
 4593.00    1.08811   1.08819  147.611
 4594.00    1.09987   1.09295  147.267
 4595.00    1.08367   1.09871  146.958
 4596.00    1.08523   1.10383  146.780
 4597.00    1.10400   1.10611  148.170
 4598.00    1.10656   1.10466  149.416
 4599.00    1.10854   1.10029  149.589
 4600.00    1.10392   1.09476  147.881
 4601.00    1.09423   1.09015  146.401
 4602.00    1.08152   1.08828  146.702
 4603.00    1.09045   1.08965  146.291
 4604.00    1.11240   1.09302  144.491
 4605.00    1.09490   1.09640  141.537
 4606.00    1.08952   1.09926  138.627
 4607.00    1.11657   1.10198  137.290
 4608.00    1.12169   1.10476  138.153
 4609.00    1.11030   1.10698  140.096
 4610.00    1.12047   1.10755  141.565
 4611.00    1.12779   1.10627   -1.000
 4612.00    1.11204   1.10444  141.431
 4613.00    1.09635   1.10327  140.210
 4614.00    1.10848   1.10221  139.843
 4615.00    1.10937   1.09978  140.876
 4616.00    1.10477   1.09608  141.804
 4617.00    1.09563   1.09249  141.473
 4618.00    1.09706   1.09025  139.956
 4619.00    1.10526   1.09057  137.909
 4620.00    1.10096   1.09456  138.031
 4621.00    1.09768   1.10122  138.389
 4622.00    1.10523   1.10717  138.764
 4623.00    1.12646   1.10935  140.002
 4624.00    1.11522   1.10781  140.243
 4625.00    1.11780   1.10480  140.255
 4626.00    1.11308   1.10198  141.156
 4627.00    1.10371   1.09898  141.310
 4628.00    1.11311   1.09566  140.441
 4629.00    1.11510   1.09430  139.012
 4630.00    1.11029   1.09726  139.919
 4631.00    1.11940   1.10262  141.994
 4632.00    1.10814   1.10596  143.340
 4633.00    1.10690   1.10539  143.261
 4634.00    1.11251   1.10355  144.587
 4635.00    1.09420   1.10345  146.401
 4636.00    1.10126   1.10505  146.832
 4637.00    1.09476   1.10678  146.315
 4638.00    1.10022   1.10866  143.574
 4639.00    1.11428   1.11197  140.170
 4640.00    1.12389   1.11690  138.621
 4641.00    1.11811   1.12171  139.556
 4642.00    1.11684   1.12471  142.431
 4643.00    1.10272   1.12501   -1.000
 4644.00    1.10750   1.12247  150.181
 4645.00    1.11752   1.11708  150.229
 4646.00    1.10428   1.11017  147.287
 4647.00    1.08884   1.10531  143.964
 4648.00    1.08469   1.10553  142.276
 4649.00    1.10201   1.10977  142.114
 4650.00    1.10675   1.11453  142.051
 4651.00    1.10470   1.11709  144.052
 4652.00    1.10991   1.11650  147.298
 4653.00    1.09698   1.11291  148.528
 4654.00    1.08908   1.10796  146.653
 4655.00    1.09589   1.10368  141.673
 4656.00    1.10896   1.10188  136.465
 4657.00    1.10520   1.10493  133.885
 4658.00    1.11416   1.11382  134.129
 4659.00    1.12802   1.12492  136.100
 4660.00    1.12370   1.13218  139.468
 4661.00    1.12242   1.13274  141.871
 4662.00    1.11002   1.12859  142.317
 4663.00    1.10871   1.12302  145.251
 4664.00    1.12152   1.11699  151.722
 4665.00    1.10107   1.10901  157.243
 4666.00    1.08624   1.09819  156.397
 4667.00    1.08973   1.08769  151.093
 4668.00    1.07537   1.08280  144.963
 4669.00    1.08370   1.08546  141.560
 4670.00    1.10094   1.09329  141.006
 4671.00    1.10641   1.10249  141.129
 4672.00    1.10969   1.10990  140.738
 4673.00    1.12718   1.11480  138.769
 4674.00    1.12136   1.11842  137.031
 4675.00    1.13156   1.12158  138.182
 4676.00    1.11147   1.12297  141.288
 4677.00    1.12111   1.12057  144.005
 4678.00    1.11727   1.11490  146.229
 4679.00    1.09024   1.10825  147.147
 4680.00    1.10029   1.10256  144.870
 4681.00    1.10248   1.09950  141.348
 4682.00    1.11282   1.10022  139.911
 4683.00    1.12227   1.10395  140.458
 4684.00    1.12168   1.10818  140.587
 4685.00    1.12337   1.11101  141.327
 4686.00    1.13118   1.11221  141.288
 4687.00    1.13467   1.11265   -1.000
 4688.00    1.11928   1.11297  142.424
 4689.00    1.10919   1.11273  142.395
 4690.00    1.11855   1.11129  140.531
 4691.00    1.10657   1.10965  138.264
 4692.00    1.10501   1.10956  135.307
 4693.00    1.12814   1.11093  133.993
 4694.00    1.13565   1.11251   -1.000
 4695.00    1.14868   1.11369   -1.000
 4696.00    1.12903   1.11317  143.220
 4697.00    1.11600   1.10943  144.331
 4698.00    1.12457   1.10337   -1.000
 4699.00    1.11351   1.09771  144.759
 4700.00    1.10481   1.09325  147.150
 4701.00    1.11544   1.08883   -1.000
 4702.00    1.09676   1.08420  144.383
 4703.00    1.09788   1.08195  142.894
 4704.00    1.09166   1.08412  145.251
 4705.00    1.11399   1.08827   -1.000
 4706.00    1.12189   1.08949   -1.000
 4707.00    1.10083   1.08614  147.561
 4708.00    1.09587   1.08202  143.059
 4709.00    1.09973   1.08218  139.533
 4710.00    1.10346   1.08770  138.690
 4711.00    1.10085   1.09488  140.362
 4712.00    1.11336   1.09886  142.699
 4713.00    1.12362   1.09812   -1.000
 4714.00    1.11016   1.09559  139.150
 4715.00    1.11362   1.09569  136.761
 4716.00    1.12234   1.09963   -1.000
 4717.00    1.11047   1.10463  135.605
 4718.00    1.11841   1.10815  135.390
 4719.00    1.12957   1.11004  136.608
 4720.00    1.12791   1.11084  137.290
 4721.00    1.11809   1.11074  136.279
 4722.00    1.09474   1.11073  135.026
 4723.00    1.10708   1.11239  135.804
 4724.00    1.11678   1.11548  139.571
 4725.00    1.10256   1.11767  144.672
 4726.00    1.11423   1.11701  147.188
 4727.00    1.12449   1.11320  146.287
 4728.00    1.12253   1.10779  144.799
 4729.00    1.13117   1.10236   -1.000
 4730.00    1.12344   1.09762   -1.000
 4731.00    1.09531   1.09528  140.756
 4732.00    1.10544   1.09702  139.980
 4733.00    1.11684   1.10120  139.568
 4734.00    1.12588   1.10413   -1.000
 4735.00    1.11707   1.10389  140.758
 4736.00    1.12639   1.10175   -1.000
 4737.00    1.10716   1.10027  139.421
 4738.00    1.12586   1.10052   -1.000
 4739.00    1.12067   1.10168  140.102
 4740.00    1.12523   1.10302   -1.000
 4741.00    1.13570   1.10480   -1.000
 4742.00    1.15840   1.10768   -1.000
 4743.00    1.12985   1.11138  137.864
 4744.00    1.11330   1.11483  136.707
 4745.00    1.12716   1.11773  135.486
 4746.00    1.12101   1.12077  135.344
 4747.00    1.13542   1.12461  135.556
 4748.00    1.14751   1.12842  135.790
 4749.00    1.15203   1.13122  136.924
 4750.00    1.13105   1.13306  138.443
 4751.00    1.13233   1.13416  139.547
 4752.00    1.12599   1.13377  140.287
 4753.00    1.11981   1.13180  140.111
 4754.00    1.11400   1.12930  140.789
 4755.00    1.11607   1.12776  141.709
 4756.00    1.12805   1.12792  141.583
 4757.00    1.14346   1.12927  140.495
 4758.00    1.14563   1.13027  140.712
 4759.00    1.12579   1.12971  143.278
 4760.00    1.11198   1.12639  146.646
 4761.00    1.11254   1.11950  148.146
 4762.00    1.12700   1.11046  148.190
 4763.00    1.10641   1.10313  147.727
 4764.00    1.09521   1.10106  146.469
 4765.00    1.09441   1.10496  144.153
 4766.00    1.10315   1.11267  141.032
 4767.00    1.11732   1.12133  139.531
 4768.00    1.11898   1.12915  140.046
 4769.00    1.11073   1.13479   -1.000
 4770.00    1.09976   1.13670   -1.000
 4771.00    1.11680   1.13491  139.975
 4772.00    1.12563   1.13212  137.274
 4773.00    1.11616   1.13163  136.630
 4774.00    1.11529   1.13400  136.842
 4775.00    1.11417   1.13681   -1.000
 4776.00    1.13045   1.13797  138.391
 4777.00    1.13116   1.13678  139.852
 4778.00    1.11972   1.13291  140.551
 4779.00    1.12107   1.12760  140.942
 4780.00    1.11888   1.12462  141.733
 4781.00    1.11256   1.12609  142.682
 4782.00    1.10040   1.12921   -1.000
 4783.00    1.12055   1.13028  143.345
 4784.00    1.12519   1.12884  144.715
 4785.00    1.12832   1.12593  145.334
 4786.00    1.11463   1.12253  145.033
 4787.00    1.09729   1.12020   -1.000
 4788.00    1.11067   1.12001  143.241
 4789.00    1.12897   1.12165  141.548
 4790.00    1.13618   1.12486  139.021
 4791.00    1.13454   1.12974  136.010
 4792.00    1.13498   1.13549  134.062
 4793.00    1.13320   1.14115  134.006
 4794.00    1.13942   1.14531  135.706
 4795.00    1.13293   1.14635  138.485
 4796.00    1.12645   1.14373  140.890
 4797.00    1.12832   1.13879  141.957
 4798.00    1.13487   1.13407  140.249
 4799.00    1.13908   1.13243  137.490
 4800.00    1.12111   1.13503  135.977
 4801.00    1.11866   1.13996  136.595
 4802.00    1.12816   1.14303  138.493
 4803.00    1.12433   1.14016  140.162
 4804.00    1.10409   1.13229   -1.000
 4805.00    1.11135   1.12529  140.994
 4806.00    1.12120   1.12388  140.570
 4807.00    1.12886   1.12772  139.796
 4808.00    1.13375   1.13326  138.548
 4809.00    1.13727   1.13691  137.625
 4810.00    1.14675   1.13765  137.046
 4811.00    1.13395   1.13735  136.898
 4812.00    1.12590   1.13862  136.521
 4813.00    1.14697   1.14229  135.948
 4814.00    1.14225   1.14655  135.075
 4815.00    1.13133   1.14922  134.296
 4816.00    1.13414   1.15015  133.864
 4817.00    1.13499   1.15013  133.850
 4818.00    1.13218   1.14912  134.093
 4819.00    1.12336   1.14707   -1.000
 4820.00    1.12704   1.14423  139.325
 4821.00    1.13909   1.13982  141.337
 4822.00    1.13233   1.13246  140.472
 4823.00    1.11284   1.12350  137.948
 4824.00    1.11625   1.11740  136.381
 4825.00    1.11761   1.11730  137.289
 4826.00    1.11739   1.12139  138.809
 4827.00    1.13591   1.12526  139.449
 4828.00    1.13720   1.12633  139.645
 4829.00    1.14381   1.12531  140.789
 4830.00    1.13524   1.12396  140.450
 4831.00    1.11812   1.12286  138.165
 4832.00    1.12274   1.12203  136.626
 4833.00    1.12978   1.12156  136.332
 4834.00    1.13005   1.12115  136.679
 4835.00    1.12182   1.12013  137.605
 4836.00    1.11590   1.11877  139.671
 4837.00    1.11917   1.11788  141.699
 4838.00    1.12047   1.11716  141.590
 4839.00    1.10799   1.11571  141.188
 4840.00    1.10827   1.11409  140.386
 4841.00    1.11653   1.11318  139.244
 4842.00    1.11636   1.11239  137.664
 4843.00    1.11412   1.11082  135.772
 4844.00    1.10368   1.10866  135.866
 4845.00    1.10515   1.10654  138.637
 4846.00    1.10029   1.10359  140.225
 4847.00    1.09961   1.09821  139.695
 4848.00    1.08880   1.09152  138.000
 4849.00    1.08254   1.08663  137.990
 4850.00    1.07607   1.08408  138.910
 4851.00    1.07434   1.08133  140.741
 4852.00    1.07935   1.07535  145.055
 4853.00    1.05915   1.06378  148.196
 4854.00    1.05328   1.04609  147.416
 4855.00    1.05288   1.02563   -1.000
 4856.00    1.03397   1.00589   -1.000
 4857.00    1.02027   0.98298   -1.000
 4858.00    0.98740   0.94502   -1.000
 4859.00    0.91697   0.88201   -1.000
 4860.00    0.83107   0.80508   -1.000
 4861.00    0.74730   0.74952  160.975
 4862.00    0.74006   0.74955  152.507
 4863.00    0.82325   0.80394  147.730
 4864.00    0.92993   0.87837   -1.000
 4865.00    0.99049   0.94107   -1.000
 4866.00    1.01502   0.98416   -1.000
 4867.00    1.04003   1.01350   -1.000
 4868.00    1.05418   1.03350   -1.000
 4869.00    1.04632   1.04373  152.401
 4870.00    1.05101   1.04417  150.210
 4871.00    1.04527   1.04034  146.183
 4872.00    1.03328   1.04085  144.029
 4873.00    1.05442   1.04970  143.036
 4874.00    1.07196   1.06276  142.335
 4875.00    1.07932   1.07340  141.501
 4876.00    1.09138   1.07913  139.500
 4877.00    1.08966   1.08254  138.652
 4878.00    1.07328   1.08786  140.229
 4879.00    1.07168   1.09690   -1.000
 4880.00    1.08697   1.10657  142.748
 4881.00    1.10527   1.11113  142.501
 4882.00    1.10983   1.10891  143.647
 4883.00    1.10067   1.10429  145.598
 4884.00    1.10074   1.10254  145.962
 4885.00    1.10877   1.10470  145.259
 4886.00    1.12265   1.10824  145.621
 4887.00    1.11774   1.11005  148.117
 4888.00    1.09989   1.10787  150.463
 4889.00    1.10646   1.10118  148.106
 4890.00    1.10445   1.09268  141.754
 4891.00    1.07874   1.08927  135.687
 4892.00    1.09364   1.09680  132.101
 4893.00    1.11269   1.11278  130.098
 4894.00    1.12627   1.12923  129.743
 4895.00    1.13868   1.14092  130.642
 4896.00    1.14428   1.14730  133.635
 4897.00    1.14283   1.14913  136.424
 4898.00    1.13707   1.14666  137.362
 4899.00    1.13140   1.14102  136.822
 4900.00    1.12404   1.13548  137.399
 4901.00    1.12449   1.13268  138.391
 4902.00    1.12024   1.13177  136.424
 4903.00    1.11888   1.13142  133.888
 4904.00    1.11415   1.13344  133.447
 4905.00    1.13281   1.13932  135.229
 4906.00    1.13823   1.14562  138.729
 4907.00    1.13151   1.14747  142.248
 4908.00    1.14273   1.14398  143.091
 4909.00    1.14676   1.13729  140.919
 4910.00    1.12839   1.13033  138.489
 4911.00    1.11421   1.12650  136.632
 4912.00    1.14214   1.12792  134.991
 4913.00    1.15074   1.13332  134.257
 4914.00    1.13990   1.13962  135.919
 4915.00    1.14649   1.14356  141.458
 4916.00    1.13577   1.14177  149.111
 4917.00    1.12301   1.13158  154.901
 4918.00    1.11800   1.11404  154.815
 4919.00    1.09582   1.09475  149.435
 4920.00    1.09153   1.08126  144.775
 4921.00    1.10256   1.07763   -1.000
 4922.00    1.10272   1.08059   -1.000
 4923.00    1.09955   1.08429  140.352
 4924.00    1.08923   1.08903  136.908
 4925.00    1.10569   1.09926  134.780
 4926.00    1.14248   1.11452   -1.000
 4927.00    1.15164   1.12912   -1.000
 4928.00    1.15455   1.13930  132.473
 4929.00    1.15940   1.14505  134.411
 4930.00    1.15689   1.14642  138.461
 4931.00    1.14281   1.14182  142.388
 4932.00    1.11665   1.13041  141.868
 4933.00    1.10232   1.11580  139.847
 4934.00    1.10816   1.10635  140.867
 4935.00    1.11799   1.10694  145.101
 4936.00    1.13520   1.11242   -1.000
 4937.00    1.14602   1.11419   -1.000
 4938.00    1.12951   1.11087  140.369
 4939.00    1.11471   1.10894  136.360
 4940.00    1.11364   1.11425  134.212
 4941.00    1.12604   1.12640  133.354
 4942.00    1.14879   1.13983  133.705
 4943.00    1.14348   1.14928  134.517
 4944.00    1.14561   1.15291  134.401
 4945.00    1.13646   1.15218  133.046
 4946.00    1.13010   1.15026  131.757
 4947.00    1.13728   1.15002  131.350
 4948.00    1.14110   1.15201  131.110
 4949.00    1.14349   1.15442  131.886
 4950.00    1.15451   1.15540  132.961
 4951.00    1.14866   1.15481  134.552
 4952.00    1.14888   1.15358  136.726
 4953.00    1.14759   1.15189  141.311
 4954.00    1.14867   1.14744  148.337
 4955.00    1.12873   1.13604  151.916
 4956.00    1.11504   1.11703  147.086
 4957.00    1.08360   1.09935  139.397
 4958.00    1.09828   1.09606  135.652
 4959.00    1.12762   1.10976  135.134
 4960.00    1.14053   1.13033  135.927
 4961.00    1.15072   1.14680  137.165
 4962.00    1.15981   1.15536  139.144
 4963.00    1.15962   1.15725  141.845
 4964.00    1.15802   1.15439  143.180
 4965.00    1.13935   1.14850  143.049
 4966.00    1.12705   1.14253  142.448
 4967.00    1.13965   1.13918  141.251
 4968.00    1.13500   1.13876  139.723
 4969.00    1.13643   1.14048  138.177
 4970.00    1.14506   1.14388  136.611
 4971.00    1.14945   1.14797  135.527
 4972.00    1.16189   1.15152  135.393
 4973.00    1.15601   1.15381  136.505
 4974.00    1.14501   1.15448  138.071
 4975.00    1.15316   1.15353  140.063
 4976.00    1.15266   1.15112  142.214
 4977.00    1.13882   1.14765  144.024
 4978.00    1.14524   1.14416  146.798
 4979.00    1.13696   1.14016  151.703
 4980.00    1.11029   1.13271   -1.000
 4981.00    1.10695   1.12067  154.374
 4982.00    1.10152   1.10752  151.001
 4983.00    1.08880   1.09931  146.561
 4984.00    1.10115   1.09971  142.173
 4985.00    1.09587   1.10767  139.667
 4986.00    1.10753   1.11974  140.402
 4987.00    1.11614   1.13202  142.357
 4988.00    1.12610   1.13978  143.422
 4989.00    1.12530   1.13978  143.077
 4990.00    1.11303   1.13372  141.953
 4991.00    1.11594   1.12727  141.517
 4992.00    1.11905   1.12502  141.278
 4993.00    1.13490   1.12734  140.538
 4994.00    1.13270   1.13243  140.271
 4995.00    1.12591   1.13858  141.445
 4996.00    1.13547   1.14311  143.640
 4997.00    1.14506   1.14232  146.269
 4998.00    1.15016   1.13375  147.594
 4999.00    1.13333   1.11973  147.232
 5000.00    1.11252   1.10890  145.918
 5001.00    1.10532   1.10803  145.818
 5002.00    1.13037   1.11413  148.445
 5003.00    1.13081   1.11909  151.454
 5004.00    1.12584   1.11732  150.918
 5005.00    1.12183   1.10943  146.851
 5006.00    1.11065   1.10199  143.175
 5007.00    1.10805   1.10225  142.672
 5008.00    1.10444   1.11037  145.303
 5009.00    1.12013   1.11919  150.049
 5010.00    1.13913   1.12169  155.124
 5011.00    1.13750   1.11631   -1.000
 5012.00    1.12589   1.10664   -1.000
 5013.00    1.10382   1.09829  152.322
 5014.00    1.09373   1.09544  149.870
 5015.00    1.09950   1.09752  149.486
 5016.00    1.10381   1.09899  149.028
 5017.00    1.11326   1.09529  147.426
 5018.00    1.11062   1.08982   -1.000
 5019.00    1.09833   1.09118  147.371
 5020.00    1.11013   1.10149  147.347
 5021.00    1.12129   1.11402  146.263
 5022.00    1.12141   1.12317  144.862
 5023.00    1.13175   1.12959  144.388
 5024.00    1.14765   1.13547  145.120
 5025.00    1.13318   1.14021  145.219
 5026.00    1.13113   1.14204  143.419
 5027.00    1.13857   1.14127  140.874
 5028.00    1.14954   1.13988  138.794
 5029.00    1.14239   1.13895  136.724
 5030.00    1.13733   1.13879  135.694
 5031.00    1.14456   1.14047  137.161
 5032.00    1.14111   1.14394  141.991
 5033.00    1.12793   1.14600  146.710
 5034.00    1.13276   1.14344  148.495
 5035.00    1.14322   1.13717  149.362
 5036.00    1.13419   1.13140  152.428
 5037.00    1.10767   1.12792  158.612
 5038.00    1.11793   1.12313  163.178
 5039.00    1.11354   1.11290  160.616
 5040.00    1.11345   1.09921  151.975
 5041.00    0.85647   1.09070   -1.000
 5042.00    0.17893   1.09477   -1.000
 5043.00   -0.03176   1.10991    0.000
 5044.00    0.08852   1.12841   -1.000
 5045.00    0.52310   1.14358   -1.000
 5046.00    1.03201   1.15226   -1.000
 5047.00    1.17303   1.15314   -1.000
 5048.00    1.15873   1.14646  144.485
 5049.00    1.15309   1.13488   -1.000
 5050.00    1.13833   1.12270  141.971
 5051.00    1.12693   1.11470  138.680
 5052.00    1.13039   1.11566  136.550
 5053.00    1.13903   1.12662  135.545
 5054.00    1.14030   1.14173  135.341
 5055.00    1.15537   1.15339  135.608
 5056.00    1.16533   1.15922  135.766
 5057.00    1.16302   1.16136  135.431
 5058.00    1.16443   1.16220  134.793
 5059.00    1.16230   1.16272  135.435
 5060.00    1.16073   1.16307  137.967
 5061.00    1.16140   1.16272  142.337
 5062.00    1.16858   1.16022  146.388
 5063.00    1.16765   1.15428  146.885
 5064.00    1.15031   1.14602  144.866
 5065.00    1.13339   1.13917  143.203
 5066.00    1.13069   1.13639  142.724
 5067.00    1.13408   1.13656  141.954
 5068.00    1.13505   1.13733  141.664
 5069.00    1.14129   1.13818  142.866
 5070.00    1.13568   1.13931  143.072
 5071.00    1.14467   1.13975  141.431
 5072.00    1.15715   1.13850  140.635
 5073.00    1.14411   1.13631  140.497
 5074.00    1.14321   1.13478  140.857
 5075.00    1.14724   1.13436  143.388
 5076.00    1.14737   1.13346  149.087
 5077.00    1.14429   1.12914  154.560
 5078.00    1.13477   1.12045  154.545
 5079.00    1.12693   1.11145  151.130
 5080.00    1.12583   1.10812   -1.000
 5081.00    1.12825   1.11152  146.063
 5082.00    1.12221   1.11752  143.358
 5083.00    1.13355   1.12345  141.374
 5084.00    1.14542   1.13012  140.669
 5085.00    1.15412   1.13745  140.330
 5086.00    1.15704   1.14315  139.504
 5087.00    1.15863   1.14613  138.564
 5088.00    1.19868   1.14781   -1.000
 5089.00    1.26432   1.14997   -1.000
 5090.00    1.20006   1.15277   -1.000
 5091.00    1.15781   1.15553  134.919
 5092.00    1.16205   1.15811  136.746
 5093.00    1.17374   1.16038  139.690
 5094.00    1.19496   1.16120   -1.000
 5095.00    1.18257   1.15886   -1.000
 5096.00    1.15945   1.15253  148.359
 5097.00    1.15109   1.14335  147.366
 5098.00    1.14869   1.13461  143.402
 5099.00    1.14376   1.13070  140.188
 5100.00    1.14677   1.13383  139.725
 5101.00    1.15582   1.14150  140.949
 5102.00    1.15696   1.14898  142.818
 5103.00    1.16258   1.15315  144.606
 5104.00    1.16848   1.15310  146.390
 5105.00    1.16833   1.14851   -1.000
 5106.00    1.15759   1.13979   -1.000
 5107.00    1.14100   1.13007  146.004
 5108.00    1.13503   1.12394  144.593
 5109.00    1.12906   1.12333  142.583
 5110.00    1.13097   1.12754  140.848
 5111.00    1.13545   1.13556  139.282
 5112.00    1.14985   1.14558  138.212
 5113.00    1.16571   1.15441  137.240
 5114.00    1.17097   1.15987  135.868
 5115.00    1.17854   1.16265  135.264
 5116.00    1.18820   1.16473   -1.000
 5117.00    1.18080   1.16664  138.101
 5118.00    1.16904   1.16725  140.262
 5119.00    1.16818   1.16550  143.027
 5120.00    1.16719   1.16121  146.980
 5121.00    1.15791   1.15460  150.274
 5122.00    1.15339   1.14635  150.382
 5123.00    1.15387   1.13837  149.179
 5124.00    1.14219   1.13336  148.414
 5125.00    1.13679   1.13218  147.902
 5126.00    1.13991   1.13236  148.032
 5127.00    1.14564   1.13126  147.255
 5128.00    1.14517   1.12937  145.066
 5129.00    1.14408   1.12930  143.021
 5130.00    1.14269   1.13246  141.831
 5131.00    1.14391   1.13755  140.505
 5132.00    1.15210   1.14230  139.577
 5133.00    1.16975   1.14584   -1.000
 5134.00    1.15604   1.14816  143.182
 5135.00    1.15927   1.14842  146.290
 5136.00    1.17170   1.14520   -1.000
 5137.00    1.16183   1.13834   -1.000
 5138.00    1.14614   1.13019  146.897
 5139.00    1.12412   1.12469  148.534
 5140.00    1.12003   1.12407  149.837
 5141.00    1.13414   1.12665  148.258
 5142.00    1.14014   1.12971  146.408
 5143.00    1.14551   1.13332  146.634
 5144.00    1.14681   1.13847  147.714
 5145.00    1.14452   1.14356  147.258
 5146.00    1.15182   1.14624  145.724
 5147.00    1.16048   1.14656  145.872
 5148.00    1.16899   1.14547   -1.000
 5149.00    1.16057   1.14258   -1.000
 5150.00    1.13769   1.13726  150.501
 5151.00    1.13796   1.13098  148.908
 5152.00    1.14182   1.12699  145.641
 5153.00    1.14128   1.12734  141.906
 5154.00    1.13809   1.13171  138.645
 5155.00    1.13906   1.13911  136.650
 5156.00    1.15721   1.14803  136.051
 5157.00    1.17131   1.15597  136.235
 5158.00    1.18438   1.16093   -1.000
 5159.00    1.18538   1.16266   -1.000
 5160.00    1.17820   1.16180  139.697
 5161.00    1.17699   1.15920  143.024
 5162.00    1.17342   1.15558   -1.000
 5163.00    1.16973   1.14971   -1.000
 5164.00    1.16164   1.13653   -1.000
 5165.00    1.13544   1.10989   -1.000
 5166.00    1.10049   1.07118   -1.000
 5167.00    1.05717   1.03448   -1.000
 5168.00    1.03901   1.01731   -1.000
 5169.00    1.06305   1.02307   -1.000
 5170.00    1.09349   1.03678   -1.000
 5171.00    1.10563   1.04185   -1.000
 5172.00    1.08960   1.04007   -1.000
 5173.00    1.06915   1.04818   -1.000
 5174.00    1.09280   1.07486   -1.000
 5175.00    1.13816   1.11019   -1.000
 5176.00    1.16516   1.13855   -1.000
 5177.00    1.18364   1.15408   -1.000
 5178.00    1.19169   1.16002   -1.000
 5179.00    1.18622   1.15929   -1.000
 5180.00    1.17806   1.14976   -1.000
 5181.00    1.15133   1.12717   -1.000
 5182.00    1.12726   1.09337   -1.000
 5183.00    1.10164   1.06211   -1.000
 5184.00    1.08100   1.05142   -1.000
 5185.00    1.09962   1.06654   -1.000
 5186.00    1.12955   1.09327   -1.000
 5187.00    1.15345   1.11350   -1.000
 5188.00    1.17303   1.12173   -1.000
 5189.00    1.16571   1.12249   -1.000
 5190.00    1.13873   1.11966   -1.000
 5191.00    1.12495   1.11424  152.169
 5192.00    1.12678   1.10891   -1.000
 5193.00    1.14193   1.10770   -1.000
 5194.00    1.17013   1.11097   -1.000
 5195.00    1.19705   1.11568   -1.000
 5196.00    1.21630   1.12010   -1.000
 5197.00    1.19038   1.12486   -1.000
 5198.00    1.15966   1.13076   -1.000
 5199.00    1.16285   1.13714   -1.000
 5200.00    1.16436   1.14166   -1.000
 5201.00    1.17637   1.14159   -1.000
 5202.00    1.16593   1.13534   -1.000
 5203.00    1.15800   1.12334   -1.000
 5204.00    1.14900   1.10899   -1.000
 5205.00    1.13001   1.09777   -1.000
 5206.00    1.12573   1.09327   -1.000
 5207.00    1.12594   1.09415   -1.000
 5208.00    1.12901   1.09722   -1.000
 5209.00    1.13459   1.10266   -1.000
 5210.00    1.14814   1.11293   -1.000
 5211.00    1.16660   1.12697   -1.000
 5212.00    1.18471   1.13958   -1.000
 5213.00    1.19362   1.14571   -1.000
 5214.00    1.17610   1.14352   -1.000
 5215.00    1.15557   1.13596   -1.000
 5216.00    1.14344   1.12966  137.416
 5217.00    1.14658   1.13033  135.777
 5218.00    1.16658   1.13837   -1.000
 5219.00    1.18583   1.14928   -1.000
 5220.00    1.19162   1.15831   -1.000
 5221.00    1.19528   1.16325   -1.000
 5222.00    1.19000   1.16314   -1.000
 5223.00    1.17601   1.15621   -1.000
 5224.00    1.16500   1.14036   -1.000
 5225.00    1.15094   1.11694   -1.000
 5226.00    1.14050   1.09465   -1.000
 5227.00    1.13045   1.08596   -1.000
 5228.00    1.13447   1.09557   -1.000
 5229.00    1.15683   1.11483   -1.000
 5230.00    1.17318   1.13015   -1.000
 5231.00    1.17493   1.13404   -1.000
 5232.00    1.16975   1.12839   -1.000
 5233.00    1.16232   1.12086   -1.000
 5234.00    1.15001   1.11918   -1.000
 5235.00    1.15222   1.12584   -1.000
 5236.00    1.16863   1.13717   -1.000
 5237.00    1.18279   1.14763   -1.000
 5238.00    1.18069   1.15419   -1.000
 5239.00    1.17361   1.15728  133.140
 5240.00    1.17680   1.15861  133.192
 5241.00    1.18640   1.15924   -1.000
 5242.00    1.19858   1.15950   -1.000
 5243.00    1.19478   1.15979   -1.000
 5244.00    1.19167   1.16004   -1.000
 5245.00    1.19935   1.15882   -1.000
 5246.00    1.19212   1.15469   -1.000
 5247.00    1.17507   1.14868   -1.000
 5248.00    1.16448   1.14327   -1.000
 5249.00    1.15747   1.13957   -1.000
 5250.00    1.15127   1.13768  141.202
 5251.00    1.15504   1.13810  140.420
 5252.00    1.15897   1.14028   -1.000
 5253.00    1.16378   1.14222   -1.000
 5254.00    1.16584   1.14317   -1.000
 5255.00    1.16676   1.14506   -1.000
 5256.00    1.18344   1.15005   -1.000
 5257.00    1.19943   1.15708   -1.000
 5258.00    1.19644   1.16217   -1.000
 5259.00    1.19672   1.16165   -1.000
 5260.00    1.20058   1.15392   -1.000
 5261.00    1.17784   1.13996   -1.000
 5262.00    1.15735   1.12322   -1.000
 5263.00    1.15147   1.10780   -1.000
 5264.00    1.13911   1.09665   -1.000
 5265.00    1.13412   1.09141   -1.000
 5266.00    1.13610   1.09108   -1.000
 5267.00    1.13684   1.09060   -1.000
 5268.00    1.13164   1.08430   -1.000
 5269.00    1.11436   1.07422   -1.000
 5270.00    1.09801   1.07102   -1.000
 5271.00    1.11010   1.08191   -1.000
 5272.00    1.14746   1.10105   -1.000
 5273.00    1.16890   1.11624   -1.000
 5274.00    1.16837   1.12247   -1.000
 5275.00    1.15980   1.12444   -1.000
 5276.00    1.16329   1.12908   -1.000
 5277.00    1.18519   1.13859   -1.000
 5278.00    1.20398   1.14890   -1.000
 5279.00    1.20636   1.15412   -1.000
 5280.00    1.17380   1.15176   -1.000
 5281.00    1.16117   1.14390  140.885
 5282.00    1.16589   1.13494   -1.000
 5283.00    1.15286   1.12973   -1.000
 5284.00    1.15869   1.13204   -1.000
 5285.00    1.18401   1.14198   -1.000
 5286.00    1.19732   1.15501   -1.000
 5287.00    1.19859   1.16531   -1.000
 5288.00    1.20879   1.17080   -1.000
 5289.00    1.21073   1.17296   -1.000
 5290.00    1.19864   1.17328   -1.000
 5291.00    1.19270   1.17233   -1.000
 5292.00    1.19645   1.17077   -1.000
 5293.00    1.19823   1.16901   -1.000
 5294.00    1.19840   1.16617   -1.000
 5295.00    1.19412   1.16068   -1.000
 5296.00    1.18707   1.15246   -1.000
 5297.00    1.17314   1.14416   -1.000
 5298.00    1.15948   1.13965   -1.000
 5299.00    1.16377   1.14063   -1.000
 5300.00    1.18372   1.14491   -1.000
 5301.00    1.18840   1.14929   -1.000
 5302.00    1.19034   1.15305   -1.000
 5303.00    1.18926   1.15710   -1.000
 5304.00    1.19305   1.16105   -1.000
 5305.00    1.19713   1.16319   -1.000
 5306.00    1.18476   1.16298   -1.000
 5307.00    1.17085   1.16207  129.300
 5308.00    1.17945   1.16254  128.922
 5309.00    1.19170   1.16482   -1.000
 5310.00    1.19215   1.16745   -1.000
 5311.00    1.20187   1.16870   -1.000
 5312.00    1.21380   1.16778   -1.000
 5313.00    1.21046   1.16428   -1.000
 5314.00    1.20277   1.15767   -1.000
 5315.00    1.20179   1.14883   -1.000
 5316.00    1.19524   1.14145   -1.000
 5317.00    1.17613   1.14012   -1.000
 5318.00    1.16946   1.14575   -1.000
 5319.00    1.18072   1.15425   -1.000
 5320.00    1.19695   1.16011   -1.000
 5321.00    1.20733   1.16016   -1.000
 5322.00    1.20277   1.15436   -1.000
 5323.00    1.19226   1.14538   -1.000
 5324.00    1.18987   1.13672   -1.000
 5325.00    1.18534   1.12860   -1.000
 5326.00    1.16600   1.11722   -1.000
 5327.00    1.15282   1.10202   -1.000
 5328.00    1.12327   1.09137   -1.000
 5329.00    1.12195   1.09548   -1.000
 5330.00    1.15410   1.11377   -1.000
 5331.00    1.16887   1.13442   -1.000
 5332.00    1.18275   1.14746   -1.000
 5333.00    1.19251   1.15204   -1.000
 5334.00    1.18752   1.15181   -1.000
 5335.00    1.17769   1.14953   -1.000
 5336.00    1.18217   1.14656   -1.000
 5337.00    1.18994   1.14362   -1.000
 5338.00    1.18201   1.14033   -1.000
 5339.00    1.18096   1.13613   -1.000
 5340.00    1.17534   1.13275   -1.000
 5341.00    1.16574   1.13376   -1.000
 5342.00    1.17280   1.14005   -1.000
 5343.00    1.17751   1.14768   -1.000
 5344.00    1.18384   1.15200   -1.000
 5345.00    1.19002   1.15184   -1.000
 5346.00    1.18341   1.14913   -1.000
 5347.00    1.17886   1.14623   -1.000
 5348.00    1.17860   1.14449   -1.000
 5349.00    1.18404   1.14487   -1.000
 5350.00    1.19654   1.14811   -1.000
 5351.00    1.19733   1.15327   -1.000
 5352.00    1.20663   1.15812   -1.000
 5353.00    1.21758   1.16165   -1.000
 5354.00    1.20815   1.16462   -1.000
 5355.00    1.20464   1.16779   -1.000
 5356.00    1.20990   1.17071   -1.000
 5357.00    1.20854   1.17242   -1.000
 5358.00    1.20712   1.17257   -1.000
 5359.00    1.21219   1.17108   -1.000
 5360.00    1.22012   1.16772   -1.000
 5361.00    1.21751   1.16250   -1.000
 5362.00    1.20435   1.15629   -1.000
 5363.00    1.19593   1.15057   -1.000
 5364.00    1.18739   1.14670   -1.000
 5365.00    1.18074   1.14528   -1.000
 5366.00    1.18154   1.14555   -1.000
 5367.00    1.17605   1.14522   -1.000
 5368.00    1.16857   1.14160   -1.000
 5369.00    1.16854   1.13358   -1.000
 5370.00    1.16967   1.12364   -1.000
 5371.00    1.15732   1.11812   -1.000
 5372.00    1.15775   1.12267   -1.000
 5373.00    1.18328   1.13610   -1.000
 5374.00    1.19580   1.15115   -1.000
 5375.00    1.19472   1.16162   -1.000
 5376.00    1.20054   1.16642   -1.000
 5377.00    1.20895   1.16760   -1.000
 5378.00    1.21368   1.16653   -1.000
 5379.00    1.20717   1.16322   -1.000
 5380.00    1.20320   1.15820   -1.000
 5381.00    1.20337   1.15327   -1.000
 5382.00    1.19656   1.15039   -1.000
 5383.00    1.19436   1.15055   -1.000
 5384.00    1.19401   1.15363   -1.000
 5385.00    1.19831   1.15870   -1.000
 5386.00    1.20296   1.16387   -1.000
 5387.00    1.20469   1.16691   -1.000
 5388.00    1.20832   1.16659   -1.000
 5389.00    1.20206   1.16324   -1.000
 5390.00    1.20287   1.15834   -1.000
 5391.00    1.20164   1.15332   -1.000
 5392.00    1.18783   1.14897   -1.000
 5393.00    1.18289   1.14556   -1.000
 5394.00    1.19303   1.14205   -1.000
 5395.00    1.18923   1.13629   -1.000
 5396.00    1.16206   1.12848   -1.000
 5397.00    1.14546   1.12357   -1.000
 5398.00    1.16287   1.12643   -1.000
 5399.00    1.19417   1.13557   -1.000
 5400.00    1.20673   1.14486   -1.000
 5401.00    1.20669   1.14912   -1.000
 5402.00    1.20359   1.14634   -1.000
 5403.00    1.18370   1.13697   -1.000
 5404.00    1.15940   1.12442   -1.000
 5405.00    1.14910   1.11514   -1.000
 5406.00    1.15442   1.11440   -1.000
 5407.00    1.17148   1.12085   -1.000
 5408.00    1.18276   1.12784   -1.000
 5409.00    1.18439   1.13104   -1.000
 5410.00    1.18220   1.13258   -1.000
 5411.00    1.17736   1.13644   -1.000
 5412.00    1.18302   1.14213   -1.000
 5413.00    1.19980   1.14586   -1.000
 5414.00    1.20779   1.14647   -1.000
 5415.00    1.19844   1.14640   -1.000
 5416.00    1.19071   1.14802   -1.000
 5417.00    1.18571   1.15101   -1.000
 5418.00    1.18208   1.15368   -1.000
 5419.00    1.18692   1.15532   -1.000
 5420.00    1.18067   1.15586   -1.000
 5421.00    1.17969   1.15477   -1.000
 5422.00    1.19893   1.15157   -1.000
 5423.00    1.20170   1.14718   -1.000
 5424.00    1.18969   1.14416   -1.000
 5425.00    1.19352   1.14490   -1.000
 5426.00    1.19765   1.14828   -1.000
 5427.00    1.19031   1.14945   -1.000
 5428.00    1.18859   1.14505   -1.000
 5429.00    1.18151   1.13817   -1.000
 5430.00    1.16892   1.13495   -1.000
 5431.00    1.17396   1.13636   -1.000
 5432.00    1.18560   1.13748   -1.000
 5433.00    1.18164   1.13475   -1.000
 5434.00    1.16826   1.13101   -1.000
 5435.00    1.16725   1.13227   -1.000
 5436.00    1.17924   1.14042   -1.000
 5437.00    1.18901   1.15168   -1.000
 5438.00    1.19209   1.16119   -1.000
 5439.00    1.19326   1.16685   -1.000
 5440.00    1.19242   1.16943   -1.000
 5441.00    1.19693   1.17021   -1.000
 5442.00    1.20323   1.16905   -1.000
 5443.00    1.19724   1.16431   -1.000
 5444.00    1.18922   1.15441   -1.000
 5445.00    1.17922   1.14048   -1.000
 5446.00    1.16544   1.12811   -1.000
 5447.00    1.16112   1.12434   -1.000
 5448.00    1.17276   1.13128   -1.000
 5449.00    1.18291   1.14417   -1.000
 5450.00    1.19115   1.15584   -1.000
 5451.00    1.20455   1.16168   -1.000
 5452.00    1.20004   1.16039   -1.000
 5453.00    1.18998   1.15251   -1.000
 5454.00    1.17392   1.14084   -1.000
 5455.00    1.15734   1.13156   -1.000
 5456.00    1.16120   1.13130   -1.000
 5457.00    1.16955   1.14100   -1.000
 5458.00    1.17454   1.15454   -1.000
 5459.00    1.17612   1.16451  137.944
 5460.00    1.17975   1.16784  139.182
 5461.00    1.18800   1.16555   -1.000
 5462.00    1.18385   1.16034   -1.000
 5463.00    1.18347   1.15579   -1.000
 5464.00    1.19616   1.15475   -1.000
 5465.00    1.19179   1.15710   -1.000
 5466.00    1.18790   1.16050   -1.000
 5467.00    1.20085   1.16333   -1.000
 5468.00    1.21191   1.16560   -1.000
 5469.00    1.20489   1.16754   -1.000
 5470.00    1.20225   1.16835   -1.000
 5471.00    1.21048   1.16701   -1.000
 5472.00    1.21494   1.16364   -1.000
 5473.00    1.20962   1.15865   -1.000
 5474.00    1.18275   1.15157   -1.000
 5475.00    1.17080   1.14244   -1.000
 5476.00    1.17820   1.13429   -1.000
 5477.00    1.17567   1.13228   -1.000
 5478.00    1.17826   1.13814   -1.000
 5479.00    1.19364   1.14739   -1.000
 5480.00    1.20221   1.15427   -1.000
 5481.00    1.20070   1.15729   -1.000
 5482.00    1.19395   1.15865   -1.000
 5483.00    1.19308   1.16073   -1.000
 5484.00    1.20461   1.16381   -1.000
 5485.00    1.21224   1.16634   -1.000
 5486.00    1.20340   1.16684   -1.000
 5487.00    1.19509   1.16539   -1.000
 5488.00    1.19947   1.16327   -1.000
 5489.00    1.20360   1.16181   -1.000
 5490.00    1.20363   1.16179   -1.000
 5491.00    1.20113   1.16315   -1.000
 5492.00    1.20066   1.16489   -1.000
 5493.00    1.20515   1.16561   -1.000
 5494.00    1.20376   1.16434   -1.000
 5495.00    1.19991   1.16072   -1.000
 5496.00    1.19410   1.15545   -1.000
 5497.00    1.18135   1.15095   -1.000
 5498.00    1.18042   1.14955   -1.000
 5499.00    1.18466   1.15026   -1.000
 5500.00    1.17769   1.14994   -1.000
 5501.00    1.17586   1.14801   -1.000
 5502.00    1.18924   1.14729   -1.000
 5503.00    1.19867   1.14930   -1.000
 5504.00    1.19552   1.15117   -1.000
 5505.00    1.19556   1.14943   -1.000
 5506.00    1.18710   1.14528   -1.000
 5507.00    1.17277   1.14335   -1.000
 5508.00    1.17764   1.14615   -1.000
 5509.00    1.19076   1.15128   -1.000
 5510.00    1.20350   1.15447   -1.000
 5511.00    1.20395   1.15427   -1.000
 5512.00    1.19292   1.15242   -1.000
 5513.00    1.18477   1.15128   -1.000
 5514.00    1.17888   1.15221   -1.000
 5515.00    1.18039   1.15531   -1.000
 5516.00    1.18781   1.15976   -1.000
 5517.00    1.19100   1.16427   -1.000
 5518.00    1.19102   1.16756   -1.000
 5519.00    1.19474   1.16896   -1.000
 5520.00    1.20188   1.16875   -1.000
 5521.00    1.20815   1.16804   -1.000
 5522.00    1.21349   1.16761   -1.000
 5523.00    1.20674   1.16663   -1.000
 5524.00    1.19175   1.16289   -1.000
 5525.00    1.18950   1.15457   -1.000
 5526.00    1.18520   1.14263   -1.000
 5527.00    1.17217   1.13175   -1.000
 5528.00    1.16300   1.12772   -1.000
 5529.00    1.16567   1.13274   -1.000
 5530.00    1.17604   1.14320   -1.000
 5531.00    1.18128   1.15251   -1.000
 5532.00    1.18798   1.15610   -1.000
 5533.00    1.18914   1.15420   -1.000
 5534.00    1.17726   1.15085   -1.000
 5535.00    1.17725   1.15050   -1.000
 5536.00    1.18929   1.15437   -1.000
 5537.00    1.19969   1.16009   -1.000
 5538.00    1.20712   1.16479   -1.000
 5539.00    1.20759   1.16745   -1.000
 5540.00    1.19962   1.16840   -1.000
 5541.00    1.19127   1.16803   -1.000
 5542.00    1.18493   1.16657   -1.000
 5543.00    1.18840   1.16465   -1.000
 5544.00    1.20088   1.16341   -1.000
 5545.00    1.21104   1.16354   -1.000
 5546.00    1.20877   1.16489   -1.000
 5547.00    1.19821   1.16714   -1.000
 5548.00    1.19242   1.16998   -1.000
 5549.00    1.19196   1.17247   -1.000
 5550.00    1.20610   1.17344   -1.000
 5551.00    1.21531   1.17272   -1.000
 5552.00    1.20336   1.17132   -1.000
 5553.00    1.19631   1.17016   -1.000
 5554.00    1.20563   1.16949   -1.000
 5555.00    1.21418   1.16942   -1.000
 5556.00    1.21091   1.16994   -1.000
 5557.00    1.21601   1.17076   -1.000
 5558.00    1.21797   1.17147   -1.000
 5559.00    1.20518   1.17192   -1.000
 5560.00    1.19358   1.17182   -1.000
 5561.00    1.19602   1.17063   -1.000
 5562.00    1.20344   1.16863   -1.000
 5563.00    1.20068   1.16686   -1.000
 5564.00    1.19404   1.16589   -1.000
 5565.00    1.19298   1.16514   -1.000
 5566.00    1.19714   1.16375   -1.000
 5567.00    1.19384   1.16152   -1.000
 5568.00    1.19332   1.15890   -1.000
 5569.00    1.19446   1.15658   -1.000
 5570.00    1.19457   1.15460   -1.000
 5571.00    1.27968   1.15225   -1.000
 5572.00    1.29270   1.15002   -1.000
 5573.00    0.58740   1.14963   -1.000
 5574.00   -0.88565   1.15157    0.000
 5575.00   -1.76306   1.15471    0.000
 5576.00   -0.85234   1.15788    0.000
 5577.00    0.73734   1.16062   -1.000
 5578.00    1.26197   1.16277   -1.000
 5579.00    1.16763   1.16398  136.516
 5580.00    1.18348   1.16389   -1.000
 5581.00    1.20043   1.16303   -1.000
 5582.00    1.19845   1.16254   -1.000
 5583.00    1.19196   1.16202   -1.000
 5584.00    1.18157   1.15909   -1.000
 5585.00    1.17570   1.15189   -1.000
 5586.00    1.17191   1.14181   -1.000
 5587.00    1.16188   1.13292   -1.000
 5588.00    1.15563   1.12888   -1.000
 5589.00    1.14984   1.13088   -1.000
 5590.00    1.16208   1.13730   -1.000
 5591.00    1.17504   1.14454   -1.000
 5592.00    1.18130   1.14904   -1.000
 5593.00    1.18920   1.15012   -1.000
 5594.00    1.18208   1.15016   -1.000
 5595.00    1.17813   1.15132   -1.000
 5596.00    1.18513   1.15257   -1.000
 5597.00    1.19593   1.15181   -1.000
 5598.00    1.20104   1.14938   -1.000
 5599.00    1.19718   1.14668   -1.000
 5600.00    1.19879   1.14369   -1.000
 5601.00    1.19418   1.14090   -1.000
 5602.00    1.18411   1.14101   -1.000
 5603.00    1.18169   1.14616   -1.000
 5604.00    1.19174   1.15511   -1.000
 5605.00    1.19625   1.16431   -1.000
 5606.00    1.20096   1.17094   -1.000
 5607.00    1.20851   1.17452   -1.000
 5608.00    1.20850   1.17622   -1.000
 5609.00    1.20387   1.17730   -1.000
 5610.00    1.20874   1.17807   -1.000
 5611.00    1.21446   1.17747   -1.000
 5612.00    1.21454   1.17359   -1.000
 5613.00    1.20622   1.16535   -1.000
 5614.00    1.18539   1.15490   -1.000
 5615.00    1.17552   1.14789   -1.000
 5616.00    1.17956   1.14883   -1.000
 5617.00    1.18665   1.15633   -1.000
 5618.00    1.19235   1.16490   -1.000
 5619.00    1.20655   1.17047   -1.000
 5620.00    1.22976   1.17268   -1.000
 5621.00    1.22518   1.17270   -1.000
 5622.00    1.20697   1.17106   -1.000
 5623.00    1.20241   1.16822   -1.000
 5624.00    1.19493   1.16569   -1.000
 5625.00    1.19816   1.16527   -1.000
 5626.00    1.20643   1.16729   -1.000
 5627.00    1.20863   1.17039   -1.000
 5628.00    1.21668   1.17322   -1.000
 5629.00    1.22358   1.17533   -1.000
 5630.00    1.21614   1.17657   -1.000
 5631.00    1.20723   1.17686   -1.000
 5632.00    1.20152   1.17632   -1.000
 5633.00    1.20497   1.17546   -1.000
 5634.00    1.21272   1.17465   -1.000
 5635.00    1.21154   1.17364   -1.000
 5636.00    1.20878   1.17210   -1.000
 5637.00    1.19895   1.17028   -1.000
 5638.00    1.18100   1.16860  138.416
 5639.00    1.16856   1.16710  138.066
 5640.00    1.18170   1.16576  137.427
 5641.00    1.19649   1.16508   -1.000
 5642.00    1.19533   1.16565   -1.000
 5643.00    1.20080   1.16730   -1.000
 5644.00    1.20545   1.16916   -1.000
 5645.00    1.20726   1.17054   -1.000
 5646.00    1.20452   1.17132   -1.000
 5647.00    1.20552   1.17176   -1.000
 5648.00    1.20228   1.17199   -1.000
 5649.00    1.19821   1.17189   -1.000
 5650.00    1.20570   1.17154   -1.000
 5651.00    1.20888   1.17125   -1.000
 5652.00    1.21320   1.17109   -1.000
 5653.00    1.21425   1.17064   -1.000
 5654.00    1.20600   1.16889   -1.000
 5655.00    1.20104   1.16416   -1.000
 5656.00    1.19625   1.15566   -1.000
 5657.00    1.18876   1.14612   -1.000
 5658.00    1.17952   1.14081   -1.000
 5659.00    1.17562   1.14242   -1.000
 5660.00    1.17860   1.14829   -1.000
 5661.00    1.18589   1.15398   -1.000
 5662.00    1.19052   1.15822   -1.000
 5663.00    1.19557   1.16253   -1.000
 5664.00    1.19955   1.16669   -1.000
 5665.00    1.19321   1.16817   -1.000
 5666.00    1.19306   1.16594   -1.000
 5667.00    1.20018   1.16217   -1.000
 5668.00    1.19707   1.16004   -1.000
 5669.00    1.18953   1.16093   -1.000
 5670.00    1.19175   1.16394   -1.000
 5671.00    1.19734   1.16734   -1.000
 5672.00    1.19632   1.17000   -1.000
 5673.00    1.19538   1.17160   -1.000
 5674.00    1.20604   1.17245   -1.000
 5675.00    1.21686   1.17308   -1.000
 5676.00    1.22360   1.17370   -1.000
 5677.00    1.20838   1.17399   -1.000
 5678.00    1.19656   1.17341   -1.000
 5679.00    1.19849   1.17172   -1.000
 5680.00    1.19226   1.16879   -1.000
 5681.00    1.18626   1.16462   -1.000
 5682.00    1.17618   1.15987  137.283
 5683.00    1.16396   1.15615  137.523
 5684.00    1.15345   1.15496  138.888
 5685.00    1.15604   1.15624  139.787
 5686.00    1.17043   1.15834  138.827
 5687.00    1.16276   1.15964  136.499
 5688.00    1.14694   1.15994  134.759
 5689.00    1.15490   1.16029  133.826
 5690.00    1.17331   1.16176  133.394
 5691.00    1.17725   1.16436  133.453
 5692.00    1.17256   1.16723  133.592
 5693.00    1.19251   1.16955   -1.000
 5694.00    1.21575   1.17105   -1.000
 5695.00    1.21738   1.17190   -1.000
 5696.00    1.20350   1.17218   -1.000
 5697.00    1.19353   1.17157   -1.000
 5698.00    1.19212   1.16960   -1.000
 5699.00    1.18962   1.16643   -1.000
 5700.00    1.18733   1.16321   -1.000
 5701.00    1.18204   1.16137   -1.000
 5702.00    1.17253   1.16166  138.014
 5703.00    1.18361   1.16338   -1.000
 5704.00    1.19151   1.16474   -1.000
 5705.00    1.17980   1.16415   -1.000
 5706.00    1.17715   1.16109   -1.000
 5707.00    1.18870   1.15588   -1.000
 5708.00    1.18671   1.14967   -1.000
 5709.00    1.17037   1.14460   -1.000
 5710.00    1.16986   1.14290   -1.000
 5711.00    1.17007   1.14556   -1.000
 5712.00    1.17810   1.15131   -1.000
 5713.00    1.19629   1.15750   -1.000
 5714.00    1.19461   1.16217   -1.000
 5715.00    1.20072   1.16518   -1.000
 5716.00    1.21048   1.16731   -1.000
 5717.00    1.20245   1.16900   -1.000
 5718.00    1.20094   1.17040   -1.000
 5719.00    1.20097   1.17163   -1.000
 5720.00    1.18945   1.17266  131.568
 5721.00    1.18663   1.17325  131.738
 5722.00    1.19622   1.17345   -1.000
 5723.00    1.20162   1.17346   -1.000
 5724.00    1.20405   1.17307   -1.000
 5725.00    1.20834   1.17179   -1.000
 5726.00    1.20387   1.16974   -1.000
 5727.00    1.20415   1.16775   -1.000
 5728.00    1.20959   1.16664   -1.000
 5729.00    1.20839   1.16668   -1.000
 5730.00    1.20323   1.16759   -1.000
 5731.00    1.21050   1.16882   -1.000
 5732.00    1.20157   1.17007   -1.000
 5733.00    1.19703   1.17143   -1.000
 5734.00    1.20269   1.17271   -1.000
 5735.00    1.19941   1.17340   -1.000
 5736.00    1.21099   1.17351   -1.000
 5737.00    1.20666   1.17351   -1.000
 5738.00    1.20167   1.17358   -1.000
 5739.00    1.20220   1.17375   -1.000
 5740.00    1.20099   1.17393   -1.000
 5741.00    1.21650   1.17393   -1.000
 5742.00    1.21397   1.17371   -1.000
 5743.00    1.19439   1.17356   -1.000
 5744.00    1.20029   1.17348   -1.000
 5745.00    1.19905   1.17314   -1.000
 5746.00    1.19602   1.17244   -1.000
 5747.00    1.19972   1.17187   -1.000
 5748.00    1.19390   1.17197   -1.000
 5749.00    1.19065   1.17242   -1.000
 5750.00    1.18732   1.17213  136.792
 5751.00    1.18995   1.17032   -1.000
 5752.00    1.19792   1.16750   -1.000
 5753.00    1.20050   1.16533   -1.000
 5754.00    1.19540   1.16541   -1.000
 5755.00    1.19213   1.16787   -1.000
 5756.00    1.19299   1.17153   -1.000
 5757.00    1.19620   1.17500   -1.000
 5758.00    1.19777   1.17717   -1.000
 5759.00    1.19585   1.17727   -1.000
 5760.00    1.19385   1.17530   -1.000
 5761.00    1.18961   1.17231   -1.000
 5762.00    1.19267   1.17017   -1.000
 5763.00    1.19249   1.17050   -1.000
 5764.00    1.19144   1.17317   -1.000
 5765.00    1.19905   1.17621   -1.000
 5766.00    1.18649   1.17785  131.281
 5767.00    1.17973   1.17795  131.692
 5768.00    1.19264   1.17729  132.346
 5769.00    1.19982   1.17647   -1.000
 5770.00    1.20515   1.17570   -1.000
 5771.00    1.20400   1.17499   -1.000
 5772.00    1.21159   1.17414   -1.000
 5773.00    1.21264   1.17282   -1.000
 5774.00    1.20102   1.17104   -1.000
 5775.00    1.19204   1.16946   -1.000
 5776.00    1.18766   1.16848   -1.000
 5777.00    1.17692   1.16753  137.418
 5778.00    1.16126   1.16590  139.629
 5779.00    1.16003   1.16377  139.904
 5780.00    1.16789   1.16176  139.365
 5781.00    1.18005   1.16036   -1.000
 5782.00    1.18648   1.15988   -1.000
 5783.00    1.19744   1.16035   -1.000
 5784.00    1.19280   1.16146   -1.000
 5785.00    1.18918   1.16270   -1.000
 5786.00    1.19287   1.16371   -1.000
 5787.00    1.19404   1.16449   -1.000
 5788.00    1.19572   1.16530   -1.000
 5789.00    1.19526   1.16615   -1.000
 5790.00    1.20104   1.16681   -1.000
 5791.00    1.20753   1.16743   -1.000
 5792.00    1.19631   1.16858   -1.000
 5793.00    1.18659   1.17051  132.030
 5794.00    1.18526   1.17268  132.893
 5795.00    1.18423   1.17409  132.669
 5796.00    1.18725   1.17421  131.208
 5797.00    1.20381   1.17366   -1.000
 5798.00    1.20796   1.17363   -1.000
 5799.00    1.20460   1.17442   -1.000
 5800.00    1.20251   1.17551   -1.000
 5801.00    1.20882   1.17638   -1.000
 5802.00    1.21491   1.17682   -1.000
 5803.00    1.21219   1.17677   -1.000
 5804.00    1.21060   1.17660   -1.000
 5805.00    1.20345   1.17688   -1.000
 5806.00    1.20086   1.17780   -1.000
 5807.00    1.21176   1.17901   -1.000
 5808.00    1.21962   1.17996   -1.000
 5809.00    1.21333   1.18048   -1.000
 5810.00    1.20969   1.18086   -1.000
 5811.00    1.20826   1.18134   -1.000
 5812.00    1.20888   1.18159   -1.000
 5813.00    1.21192   1.18111   -1.000
 5814.00    1.20345   1.17995   -1.000
 5815.00    1.19423   1.17896  130.034
 5816.00    1.19887   1.17896   -1.000
 5817.00    1.21331   1.17997   -1.000
 5818.00    1.22680   1.18127   -1.000
 5819.00    1.22485   1.18223   -1.000
 5820.00    1.21660   1.18287   -1.000
 5821.00    1.22065   1.18346   -1.000
 5822.00    1.22120   1.18407   -1.000
 5823.00    1.21521   1.18447   -1.000
 5824.00    1.21207   1.18456   -1.000
 5825.00    1.21830   1.18459   -1.000
 5826.00    1.23110   1.18488   -1.000
 5827.00    1.22118   1.18550   -1.000
 5828.00    1.21729   1.18628   -1.000
 5829.00    1.22068   1.18683   -1.000
 5830.00    1.22187   1.18680   -1.000
 5831.00    1.23176   1.18622   -1.000
 5832.00    1.22079   1.18530   -1.000
 5833.00    1.20739   1.18426   -1.000
 5834.00    1.21175   1.18351   -1.000
 5835.00    1.22649   1.18340   -1.000
 5836.00    1.21692   1.18405   -1.000
 5837.00    1.20728   1.18536   -1.000
 5838.00    1.21783   1.18700   -1.000
 5839.00    1.21519   1.18834   -1.000
 5840.00    1.20842   1.18866   -1.000
 5841.00    1.21261   1.18774   -1.000
 5842.00    1.21549   1.18592   -1.000
 5843.00    1.22098   1.18377   -1.000
 5844.00    1.21790   1.18184   -1.000
 5845.00    1.21549   1.18049   -1.000
 5846.00    1.20789   1.17980   -1.000
 5847.00    1.19765   1.17958   -1.000
 5848.00    1.21260   1.17936   -1.000
 5849.00    1.21365   1.17844   -1.000
 5850.00    1.21396   1.17627   -1.000
 5851.00    1.22543   1.17267   -1.000
 5852.00    1.21456   1.16833   -1.000
 5853.00    1.19435   1.16473   -1.000
 5854.00    1.19503   1.16254   -1.000
 5855.00    1.18463   1.16061   -1.000
 5856.00    1.17836   1.15787   -1.000
 5857.00    1.18112   1.15542   -1.000
 5858.00    1.18321   1.15540   -1.000
 5859.00    1.18892   1.15831   -1.000
 5860.00    1.20440   1.16263   -1.000
 5861.00    1.22889   1.16662   -1.000
 5862.00    1.23819   1.16961   -1.000
 5863.00    1.21395   1.17143   -1.000
 5864.00    1.20266   1.17183   -1.000
 5865.00    1.19671   1.17089   -1.000
 5866.00    1.18378   1.16967  131.851
 5867.00    1.19945   1.16954   -1.000
 5868.00    1.21716   1.17083   -1.000
 5869.00    1.21635   1.17277   -1.000
 5870.00    1.21464   1.17439   -1.000
 5871.00    1.20596   1.17502   -1.000
 5872.00    1.20428   1.17443   -1.000
 5873.00    1.21348   1.17280   -1.000
 5874.00    1.21261   1.17064   -1.000
 5875.00    1.20683   1.16865   -1.000
 5876.00    1.20496   1.16736   -1.000
 5877.00    1.20669   1.16645   -1.000
 5878.00    1.19574   1.16518   -1.000
 5879.00    1.19323   1.16344   -1.000
 5880.00    1.20831   1.16152   -1.000
 5881.00    1.21438   1.15931   -1.000
 5882.00    1.21650   1.15642   -1.000
 5883.00    1.22122   1.15291   -1.000
 5884.00    1.22092   1.14904   -1.000
 5885.00    1.21207   1.14392   -1.000
 5886.00    1.08630   1.13431   -1.000
 5887.00    0.79690   1.11666   -1.000
 5888.00    0.65110   1.09276   -1.000
 5889.00    0.76200   1.07255   -1.000
 5890.00    0.97857   1.06659   -1.000
 5891.00    1.08664   1.07534  151.076
 5892.00    1.06563   1.08843  155.004
 5893.00    0.91748   1.09419   -1.000
 5894.00    0.84208   1.08944   -1.000
 5895.00    0.89377   1.08159   -1.000
 5896.00    0.99844   1.08096   -1.000
 5897.00    1.09385   1.09079  138.752
 5898.00    1.15477   1.10600   -1.000
 5899.00    1.18641   1.12057   -1.000
 5900.00    1.20318   1.13202   -1.000
 5901.00    1.20218   1.14045   -1.000
 5902.00    1.19090   1.14651   -1.000
 5903.00    1.20068   1.15074   -1.000
 5904.00    1.20387   1.15364   -1.000
 5905.00    1.18210   1.15558   -1.000
 5906.00    1.17471   1.15679   -1.000
 5907.00    1.18900   1.15747   -1.000
 5908.00    1.19121   1.15797   -1.000
 5909.00    1.20780   1.15840   -1.000
 5910.00    1.20655   1.15831   -1.000
 5911.00    1.20912   1.15712   -1.000
 5912.00    1.20415   1.15462   -1.000
 5913.00    1.17516   1.15121   -1.000
 5914.00    1.15100   1.14788  137.210
 5915.00    1.15042   1.14571  136.659
 5916.00    1.16236   1.14514   -1.000
 5917.00    1.17060   1.14602   -1.000
 5918.00    1.17448   1.14788   -1.000
 5919.00    1.17178   1.14997   -1.000
 5920.00    1.16838   1.15164   -1.000
 5921.00    1.18711   1.15280   -1.000
 5922.00    1.17826   1.15370   -1.000
 5923.00    1.16956   1.15473  134.597
 5924.00    1.18270   1.15620   -1.000
 5925.00    1.19381   1.15794   -1.000
 5926.00    1.18623   1.15934   -1.000
 5927.00    1.18328   1.15968   -1.000
 5928.00    1.18959   1.15866   -1.000
 5929.00    1.19048   1.15705   -1.000
 5930.00    1.19997   1.15621   -1.000
 5931.00    1.18651   1.15659   -1.000
 5932.00    1.17474   1.15748   -1.000
 5933.00    1.18734   1.15799   -1.000
 5934.00    1.19946   1.15787   -1.000
 5935.00    1.21194   1.15761   -1.000
 5936.00    1.19764   1.15765   -1.000
 5937.00    1.18545   1.15760   -1.000
 5938.00    1.19093   1.15662   -1.000
 5939.00    1.17239   1.15460   -1.000
 5940.00    1.17091   1.15245   -1.000
 5941.00    1.18448   1.15092   -1.000
 5942.00    1.18853   1.15013   -1.000
 5943.00    1.18517   1.15020   -1.000
 5944.00    1.17247   1.15109   -1.000
 5945.00    1.15420   1.15205  137.651
 5946.00    1.16568   1.15218  138.162
 5947.00    1.18267   1.15170   -1.000
 5948.00    1.18886   1.15184   -1.000
 5949.00    1.18568   1.15326   -1.000
 5950.00    1.18349   1.15523   -1.000
 5951.00    1.18266   1.15674   -1.000
 5952.00    1.18538   1.15756   -1.000
 5953.00    1.19213   1.15762   -1.000
 5954.00    1.17414   1.15672   -1.000
 5955.00    1.17046   1.15515  137.298
 5956.00    1.16624   1.15397  135.867
 5957.00    1.16926   1.15412  134.491
 5958.00    1.17154   1.15567  133.844
 5959.00    1.19418   1.15788   -1.000
 5960.00    1.19618   1.15998   -1.000
 5961.00    1.19684   1.16154   -1.000
 5962.00    1.17613   1.16221  135.092
 5963.00    1.16943   1.16173  135.568
 5964.00    1.17520   1.16025  135.388
 5965.00    1.17188   1.15845  134.444
 5966.00    1.17327   1.15715  133.988
 5967.00    1.16970   1.15678  133.928
 5968.00    1.17838   1.15727   -1.000
 5969.00    1.18822   1.15831   -1.000
 5970.00    1.19554   1.15953   -1.000
 5971.00    1.18244   1.16051   -1.000
 5972.00    1.18499   1.16099   -1.000
 5973.00    1.17745   1.16090   -1.000
 5974.00    1.17915   1.16015   -1.000
 5975.00    1.18339   1.15869   -1.000
 5976.00    1.17586   1.15707   -1.000
 5977.00    1.17857   1.15622   -1.000
 5978.00    1.18212   1.15669   -1.000
 5979.00    1.16734   1.15816  136.870
 5980.00    1.17498   1.15955  138.081
 5981.00    1.18758   1.15981   -1.000
 5982.00    1.18400   1.15871   -1.000
 5983.00    1.18182   1.15699   -1.000
 5984.00    1.17791   1.15567   -1.000
 5985.00    1.17351   1.15537   -1.000
 5986.00    1.15870   1.15595  135.124
 5987.00    1.16113   1.15686  135.196
 5988.00    1.17350   1.15757  135.519
 5989.00    1.18424   1.15771   -1.000
 5990.00    1.18242   1.15750   -1.000
 5991.00    1.17626   1.15780   -1.000
 5992.00    1.19440   1.15926   -1.000
 5993.00    1.20038   1.16152   -1.000
 5994.00    1.17792   1.16345  135.773
 5995.00    1.16998   1.16417  136.096
 5996.00    1.17206   1.16377  135.924
 5997.00    1.18029   1.16307   -1.000
 5998.00    1.19709   1.16270   -1.000
 5999.00    1.19341   1.16255   -1.000
 6000.00    1.19545   1.16202   -1.000
 6001.00    1.20059   1.16097   -1.000
 6002.00    1.19857   1.15978   -1.000
 6003.00    1.18310   1.15878   -1.000
 6004.00    1.16365   1.15781  139.159
 6005.00    1.16159   1.15646  139.356
 6006.00    1.17034   1.15470   -1.000
 6007.00    1.17013   1.15328   -1.000
 6008.00    1.18209   1.15321   -1.000
 6009.00    1.16974   1.15472  137.264
 6010.00    1.15980   1.15681  138.053
 6011.00    1.16868   1.15827  137.552
 6012.00    1.17590   1.15893   -1.000
 6013.00    1.18431   1.15942   -1.000
 6014.00    1.17703   1.16008   -1.000
 6015.00    1.18551   1.16047   -1.000
 6016.00    1.17917   1.16009   -1.000
 6017.00    1.18580   1.15893   -1.000
 6018.00    1.16892   1.15735  138.809
 6019.00    1.17245   1.15585   -1.000
 6020.00    1.18088   1.15478   -1.000
 6021.00    1.17288   1.15412   -1.000
 6022.00    1.16912   1.15380  136.580
 6023.00    1.17702   1.15418   -1.000
 6024.00    1.16748   1.15555  135.313
 6025.00    1.16260   1.15760  134.676
 6026.00    1.17673   1.15961   -1.000
 6027.00    1.17988   1.16114   -1.000
 6028.00    1.18089   1.16215   -1.000
 6029.00    1.17976   1.16277   -1.000
 6030.00    1.16701   1.16324  134.007
 6031.00    1.17623   1.16363  133.628
 6032.00    1.17464   1.16393  133.540
 6033.00    1.19028   1.16436   -1.000
 6034.00    1.18741   1.16517   -1.000
 6035.00    1.18589   1.16594   -1.000
 6036.00    1.18997   1.16573   -1.000
 6037.00    1.18325   1.16420   -1.000
 6038.00    1.16786   1.16188  134.655
 6039.00    1.17461   1.15944  134.445
 6040.00    1.17781   1.15675   -1.000
 6041.00    1.16216   1.15303  132.786
 6042.00    1.16380   1.14892  132.715
 6043.00    1.17325   1.14761   -1.000
 6044.00    1.16882   1.15121   -1.000
 6045.00    1.16789   1.15738  132.667
 6046.00    1.19118   1.16218   -1.000
 6047.00    1.18794   1.16411   -1.000
 6048.00    1.17404   1.16390  133.564
 6049.00    1.16614   1.16271  133.801
 6050.00    1.17520   1.16151  134.319
 6051.00    1.17858   1.16090   -1.000
 6052.00    1.18484   1.16084   -1.000
 6053.00    1.18925   1.16082   -1.000
 6054.00    1.18525   1.16039   -1.000
 6055.00    1.17687   1.15959   -1.000
 6056.00    1.15425   1.15881  134.377
 6057.00    1.09049   1.15829   -1.000
 6058.00    1.08665   1.15807   -1.000
 6059.00    0.62943   1.15815   -1.000
 6060.00    0.50520   1.15813   -1.000
 6061.00    0.93761   1.15715   -1.000
 6062.00    1.08113   1.15448   -1.000
 6063.00    1.12871   1.15050   50.021
 6064.00    1.22214   1.14694   -1.000
 6065.00    0.68680   1.14583   -1.000
 6066.00    0.49278   1.14796   -1.000
 6067.00    1.06149   1.15214   -1.000
 6068.00    1.18358   1.15626   -1.000
 6069.00    1.17845   1.15910   -1.000
 6070.00    1.18201   1.16078   -1.000
 6071.00    1.18550   1.16192   -1.000
 6072.00    1.17999   1.16284   -1.000
 6073.00    1.16700   1.16332  134.368
 6074.00    1.16617   1.16298  135.134
 6075.00    1.18180   1.16179   -1.000
 6076.00    1.18075   1.16028   -1.000
 6077.00    1.16598   1.15914  137.179
 6078.00    1.17302   1.15865  137.285
 6079.00    1.18095   1.15852   -1.000
 6080.00    1.16867   1.15819  137.695
 6081.00    1.16797   1.15735  137.596
 6082.00    1.17384   1.15623   -1.000
 6083.00    1.16822   1.15548  137.083
 6084.00    1.17087   1.15550  136.541
 6085.00    1.15972   1.15615  136.715
 6086.00    1.15533   1.15708  137.500
 6087.00    1.18701   1.15808   -1.000
 6088.00    1.18508   1.15882   -1.000
 6089.00    1.17931   1.15885   -1.000
 6090.00    1.17048   1.15807  136.589
 6091.00    1.16786   1.15713  135.830
 6092.00    1.15931   1.15692  135.219
 6093.00    1.16580   1.15774  135.201
 6094.00    1.17236   1.15927  135.519
 6095.00    1.17394   1.16109  135.637
 6096.00    1.17812   1.16286  135.650
 6097.00    1.18645   1.16401   -1.000
 6098.00    1.17169   1.16356  140.312
 6099.00    1.15751   1.16058  142.730
 6100.00    1.16717   1.15496  142.039
 6101.00    1.15866   1.14813  139.449
 6102.00    1.14620   1.14292  137.263
 6103.00    1.14561   1.14179  136.627
 6104.00    1.14115   1.14487  137.068
 6105.00    1.14652   1.15007  137.439
 6106.00    1.15952   1.15514  137.419
 6107.00    1.16620   1.15911  137.140
 6108.00    1.16363   1.16191  136.564
 6109.00    1.17000   1.16343  136.472
 6110.00    1.16136   1.16356  135.827
 6111.00    1.16489   1.16261  135.445
 6112.00    1.16060   1.16139  135.889
 6113.00    1.16870   1.16065  136.768
 6114.00    1.16928   1.16062  137.036
 6115.00    1.16317   1.16101  137.642
 6116.00    1.16421   1.16112  139.517
 6117.00    1.15916   1.15969  141.374
 6118.00    1.16631   1.15544  142.766
 6119.00    1.15605   1.14832  143.001
 6120.00    1.14939   1.14004  140.901
 6121.00    1.13998   1.13365  139.008
 6122.00    1.14512   1.13237  138.799
 6123.00    1.13700   1.13705  139.552
 6124.00    1.13610   1.14479  139.482
 6125.00    1.14380   1.15149  139.173
 6126.00    1.15288   1.15495  138.114
 6127.00    1.14753   1.15537  136.813
 6128.00    1.14247   1.15476  136.430
 6129.00    1.13908   1.15549  136.655
 6130.00    1.14712   1.15813  137.860
 6131.00    1.15600   1.16103  140.829
 6132.00    1.15096   1.16190  144.952
 6133.00    1.15240   1.15886  148.677
 6134.00    1.15353   1.15098  149.417
 6135.00    1.14698   1.13977  146.005
 6136.00    1.12407   1.12979  141.859
 6137.00    1.11144   1.12545  140.060
 6138.00    1.12545   1.12675  140.174
 6139.00    1.12249   1.12962  140.427
 6140.00    1.13444   1.13105  139.150
 6141.00    1.13683   1.13228  137.479
 6142.00    1.11594   1.13593  137.142
 6143.00    1.12385   1.14189  137.722
 6144.00    1.15913   1.14743  138.588
 6145.00    1.16460   1.15031  139.585
 6146.00    1.15989   1.15037  140.419
 6147.00    1.16393   1.14886  140.496
 6148.00    1.14650   1.14730  140.013
 6149.00    1.12860   1.14677  139.065
 6150.00    1.12786   1.14756  138.823
 6151.00    1.12800   1.14915  139.905
 6152.00    1.12844   1.15066  140.679
 6153.00    1.14300   1.15128  140.822
 6154.00    1.15390   1.15074  141.364
 6155.00    1.15297   1.14929  142.804
 6156.00    1.14752   1.14747  145.451
 6157.00    1.13325   1.14540  149.760
 6158.00    1.12196   1.14220  154.153
 6159.00    1.12519   1.13622  155.872
 6160.00    1.11938   1.12711  153.817
 6161.00    1.09880   1.11780  149.661
 6162.00    1.08085   1.11283   -1.000
 6163.00    1.09194   1.11415  146.483
 6164.00    1.12119   1.11948  146.807
 6165.00    1.12440   1.12495  148.628
 6166.00    1.13506   1.12822  150.181
 6167.00    1.13406   1.12899  149.256
 6168.00    1.12740   1.12820  146.448
 6169.00    1.11735   1.12746  144.332
 6170.00    1.11294   1.12834  144.332
 6171.00    1.12415   1.13127  144.469
 6172.00    1.12577   1.13536  144.140
 6173.00    1.11696   1.13948  143.857
 6174.00    1.13191   1.14304  143.475
 6175.00    1.13406   1.14565  142.782
 6176.00    1.13338   1.14700  142.251
 6177.00    1.12679   1.14722  141.795
 6178.00    1.13477   1.14682  141.145
 6179.00    1.13451   1.14642  140.769
 6180.00    1.13215   1.14646  141.017
 6181.00    1.13408   1.14697  141.508
 6182.00    1.14720   1.14760  142.608
 6183.00    1.13273   1.14806  144.156
 6184.00    1.13011   1.14828  145.655
 6185.00    1.14592   1.14803  147.046
 6186.00    1.13663   1.14686  148.127
 6187.00    1.14050   1.14422  150.030
 6188.00    1.14360   1.13964  151.049
 6189.00    1.14388   1.13355  149.492
 6190.00    1.12432   1.12805  145.841
 6191.00    1.10437   1.12605  143.391
 6192.00    1.09872   1.12884   -1.000
 6193.00    1.10843   1.13488  142.212
 6194.00    1.12746   1.14116  143.092
 6195.00    1.13917   1.14559  144.739
 6196.00    1.13460   1.14761  145.945
 6197.00    1.10228   1.14747   -1.000
 6198.00    1.11007   1.14597   -1.000
 6199.00    1.11931   1.14460  142.620
 6200.00    1.11291   1.14485   -1.000
 6201.00    1.11811   1.14695   -1.000
 6202.00    1.12359   1.14983  141.934
 6203.00    1.11685   1.15224   -1.000
 6204.00    1.12273   1.15363   -1.000
 6205.00    1.12148   1.15418   -1.000
 6206.00    1.12824   1.15429  143.066
 6207.00    1.13786   1.15417  144.363
 6208.00    1.14394   1.15376  145.500
 6209.00    1.12591   1.15284   -1.000
 6210.00    1.11557   1.15112   -1.000
 6211.00    1.10273   1.14843   -1.000
 6212.00    1.11026   1.14503   -1.000
 6213.00    1.11558   1.14176  149.198
 6214.00    1.11136   1.13952   -1.000
 6215.00    1.12715   1.13838  149.508
 6216.00    1.11701   1.13756  149.017
 6217.00    1.03461   1.13632   -1.000
 6218.00    1.07211   1.13484   -1.000
 6219.00    1.12064   1.13413  159.570
 6220.00    1.11756   1.13502  154.948
 6221.00    1.10784   1.13726   -1.000
 6222.00    1.10716   1.13973   -1.000
 6223.00    1.13041   1.14150  147.208
 6224.00    1.12179   1.14244  148.016
 6225.00    1.12110   1.14268  150.010
 6226.00    1.11105   1.14180   -1.000
 6227.00    1.11268   1.13891   -1.000
 6228.00    1.11647   1.13369  153.892
 6229.00    1.12267   1.12745  151.709
 6230.00    1.11680   1.12284  148.847
 6231.00    1.10780   1.12214  146.411
 6232.00    1.11286   1.12555  145.685
 6233.00    1.10709   1.13103  146.622
 6234.00    1.09336   1.13581   -1.000
 6235.00    1.09723   1.13806   -1.000
 6236.00    1.09831   1.13756   -1.000
 6237.00    1.10560   1.13541   -1.000
 6238.00    1.11169   1.13314  151.822
 6239.00    1.10804   1.13184  152.904
 6240.00    1.10362   1.13149   -1.000
 6241.00    1.11129   1.13107  153.852
 6242.00    1.10614   1.12934  152.889
 6243.00    1.09843   1.12594   -1.000
 6244.00    1.09755   1.12182  149.459
 6245.00    1.08867   1.11899   -1.000
 6246.00    1.08798   1.11925   -1.000
 6247.00    1.10269   1.12275  149.039
 6248.00    1.10797   1.12754  151.779
 6249.00    1.10581   1.13075  153.680
 6250.00    1.10505   1.13040  154.751
 6251.00    1.10609   1.12680  155.196
 6252.00    1.10394   1.12225  155.144
 6253.00    1.10414   1.11919  156.519
 6254.00    1.10070   1.11855  157.921
 6255.00    1.08250   1.11965   -1.000
 6256.00    1.06571   1.12142   -1.000
 6257.00    1.08314   1.12338   -1.000
 6258.00    1.09565   1.12567   -1.000
 6259.00    1.08180   1.12834   -1.000
 6260.00    1.07564   1.13105   -1.000
 6261.00    1.08995   1.13336   -1.000
 6262.00    1.10844   1.13507  149.575
 6263.00    1.09991   1.13606   -1.000
 6264.00    1.08691   1.13654   -1.000
 6265.00    1.09083   1.13700   -1.000
 6266.00    1.08855   1.13772   -1.000
 6267.00    1.09076   1.13808   -1.000
 6268.00    1.09278   1.13723   -1.000
 6269.00    1.08896   1.13514   -1.000
 6270.00    1.09484   1.13258   -1.000
 6271.00    1.09404   1.12999   -1.000
 6272.00    1.08766   1.12682   -1.000
 6273.00    1.07415   1.12195   -1.000
 6274.00    1.04575   1.11491   -1.000
 6275.00    1.02376   1.10662   -1.000
 6276.00    1.02541   1.09897   -1.000
 6277.00    1.03932   1.09377   -1.000
 6278.00    1.04468   1.09189   -1.000
 6279.00    1.04575   1.09327   -1.000
 6280.00    1.05080   1.09743   -1.000
 6281.00    1.04703   1.10369   -1.000
 6282.00    1.04730   1.11103   -1.000
 6283.00    1.05456   1.11811   -1.000
 6284.00    1.05731   1.12375   -1.000
 6285.00    1.05391   1.12745   -1.000
 6286.00    1.05390   1.12931   -1.000
 6287.00    1.05756   1.12952   -1.000
 6288.00    1.07218   1.12824   -1.000
 6289.00    1.08505   1.12604   -1.000
 6290.00    1.10093   1.12389  150.478
 6291.00    1.12531   1.12255  150.745
 6292.00    1.16225   1.12188   -1.000
 6293.00    1.30836   1.12110   -1.000
 6294.00    1.56880   1.11955   -1.000
 6295.00    1.87680   1.11722   -1.000
 6296.00    2.21481   1.11476   -1.000
 6297.00    2.13494   1.11291   -1.000
 6298.00    1.65090   1.11190   -1.000
 6299.00    1.56246   1.11142   -1.000
 6300.00    1.70745   1.11140   -1.000
 6301.00    1.24203   1.11247   -1.000
 6302.00    1.07210   1.11526   -1.000
 6303.00    1.07508   1.11928   -1.000
 6304.00    1.07678   1.12304   -1.000
 6305.00    1.07107   1.12548   -1.000
 6306.00    1.08549   1.12676   -1.000
 6307.00    1.08374   1.12767   -1.000
 6308.00    1.08262   1.12872   -1.000
 6309.00    1.08816   1.12977   -1.000
 6310.00    1.07473   1.13027   -1.000
 6311.00    1.07816   1.12986   -1.000
 6312.00    1.08221   1.12860   -1.000
 6313.00    1.08576   1.12694   -1.000
 6314.00    1.08439   1.12530   -1.000
 6315.00    1.07412   1.12375   -1.000
 6316.00    1.07403   1.12230   -1.000
 6317.00    1.06880   1.12146   -1.000
 6318.00    1.07052   1.12210   -1.000
 6319.00    1.06813   1.12447   -1.000
 6320.00    1.07939   1.12771   -1.000
 6321.00    1.08100   1.13085   -1.000
 6322.00    1.08393   1.13362   -1.000
 6323.00    1.10205   1.13605   -1.000
 6324.00    1.10566   1.13784   -1.000
 6325.00    1.09803   1.13856   -1.000
 6326.00    1.09954   1.13829   -1.000
 6327.00    1.09159   1.13752   -1.000
 6328.00    1.08411   1.13680   -1.000
 6329.00    1.07953   1.13646   -1.000
 6330.00    1.08635   1.13646   -1.000
 6331.00    1.09228   1.13623   -1.000
 6332.00    1.10193   1.13474   -1.000
 6333.00    1.09490   1.13139   -1.000
 6334.00    1.10066   1.12702  146.941
 6335.00    1.08458   1.12374   -1.000
 6336.00    1.06716   1.12343   -1.000
 6337.00    1.07254   1.12598   -1.000
 6338.00    1.07957   1.12969   -1.000
 6339.00    1.09086   1.13281   -1.000
 6340.00    1.09927   1.13473   -1.000
 6341.00    1.09294   1.13555   -1.000
 6342.00    1.08123   1.13542   -1.000
 6343.00    1.08724   1.13430   -1.000
 6344.00    1.09772   1.13239   -1.000
 6345.00    1.08956   1.13049   -1.000
 6346.00    1.09431   1.12974   -1.000
 6347.00    1.10004   1.13092   -1.000
 6348.00    1.10473   1.13383   -1.000
 6349.00    1.10386   1.13732   -1.000
 6350.00    1.10768   1.13997   -1.000
 6351.00    1.08833   1.14092   -1.000
 6352.00    1.09123   1.14026   -1.000
 6353.00    1.10029   1.13880   -1.000
 6354.00    1.10295   1.13740   -1.000
 6355.00    1.09921   1.13641   -1.000
 6356.00    1.14928   1.13564   -1.000
 6357.00    1.20832   1.13481   -1.000
 6358.00    1.27906   1.13389   -1.000
 6359.00    1.44150   1.13300   -1.000
 6360.00    1.48613   1.13215   -1.000
 6361.00    1.32478   1.13131   -1.000
 6362.00    1.18615   1.13085   -1.000
 6363.00    1.07386   1.13126   -1.000
 6364.00    1.01643   1.13249   -1.000
 6365.00    1.08594   1.13387   -1.000
 6366.00    1.09459   1.13468   -1.000
 6367.00    1.07870   1.13450   -1.000
 6368.00    1.09108   1.13332   -1.000
 6369.00    1.08379   1.13153   -1.000
 6370.00    1.08267   1.12993   -1.000
 6371.00    1.08399   1.12943   -1.000
 6372.00    1.06265   1.13036   -1.000
 6373.00    1.05514   1.13205   -1.000
 6374.00    1.07528   1.13340   -1.000
 6375.00    1.08031   1.13372   -1.000
 6376.00    1.06415   1.13321   -1.000
 6377.00    1.06112   1.13238   -1.000
 6378.00    1.06317   1.13147   -1.000
 6379.00    1.06231   1.13048   -1.000
 6380.00    1.07250   1.12949   -1.000
 6381.00    1.06695   1.12882   -1.000
 6382.00    1.04966   1.12874   -1.000
 6383.00    1.05245   1.12924   -1.000
 6384.00    1.03325   1.13017   -1.000
 6385.00    1.02884   1.13131   -1.000
 6386.00    1.03778   1.13244   -1.000
 6387.00    1.04403   1.13317   -1.000
 6388.00    1.01936   1.13304   -1.000
 6389.00    1.01531   1.13157   -1.000
 6390.00    1.00909   1.12850   -1.000
 6391.00    1.01099   1.12428   -1.000
 6392.00    0.98721   1.12049   -1.000
 6393.00    0.97718   1.11905   -1.000
 6394.00    0.98539   1.12059   -1.000
 6395.00    1.00081   1.12356   -1.000
 6396.00    0.98486   1.12536   -1.000
 6397.00    0.96778   1.12442   -1.000
 6398.00    0.97151   1.12154   -1.000
 6399.00    0.95632   1.11920   -1.000
 6400.00    0.92934   1.11956   -1.000
 6401.00    0.93618   1.12281   -1.000
 6402.00    0.94665   1.12720   -1.000
 6403.00    0.95724   1.13048   -1.000
 6404.00    0.93841   1.13123   -1.000
 6405.00    0.96616   1.12917   -1.000
 6406.00    0.94112   1.12487   -1.000
 6407.00    0.93288   1.12006   -1.000
 6408.00    0.91784   1.11718   -1.000
 6409.00    0.90113   1.11742   -1.000
 6410.00    0.89839   1.11977   -1.000
 6411.00    0.88491   1.12228   -1.000
 6412.00    0.88499   1.12394   -1.000
 6413.00    0.89059   1.12487   -1.000
 6414.00    0.88066   1.12556   -1.000
 6415.00    0.88877   1.12633   -1.000
 6416.00    0.87952   1.12715   -1.000
 6417.00    0.83614   1.12738   -1.000
 6418.00    0.84061   1.12624   -1.000
 6419.00    0.84165   1.12405   -1.000
 6420.00    0.83285   1.12240   -1.000
 6421.00    0.82279   1.12291   -1.000
 6422.00    0.81236   1.12578   -1.000
 6423.00    0.81172   1.12985   -1.000
 6424.00    0.79428   1.13362   -1.000
 6425.00    0.79023   1.13617   -1.000
 6426.00    0.78915   1.13690   -1.000
 6427.00    0.77849   1.13526   -1.000
 6428.00    0.06075   1.13127   -1.000
