###################################################################
## OUTPUT of StarlightChains_v04.for    [Cid@UFSC - 01/Apr/2007] ##
###################################################################

## Some input info
NGC2298_b_1.cxt                          [arq_obs]
Base.BC03.S                              [arq_base]
NGC2298_b_1.msk                          [arq_masks]
StCv04.C11.config                        [arq_config]
  150                                    [N_base]
    0                                    [N_YAV_components = # of components with extra extinction!]
    0                                    [i_FitPowerLaw (1/0 = Yes/No)]
-9.99                                    [alpha_PowerLaw]
CCM                                      [red_law_option]
 1.458241                                [q_norm = A(l_norm)/A(V)]

## (Re)Sampling Parameters
 3359.00                                 [l_ini (A)]
 6428.00                                 [l_fin (A)]
    1.00                                 [dl    (A)]     (OBS: dl_cushion =    50.00 A)

## Normalization info
 4020.00                                 [l_norm (A) - for base]
 4010.00                                 [llow_norm (A) - window for f_obs]
 4060.00                                 [lupp_norm (A) - window for f_obs]
6.358602E-15                             [fobs_norm (in input units)]

## S/N
 4730.00                                 [llow_SN (A) - window for S/N]
 4780.00                                 [lupp_SN (A) - window for S/N]
 100.550                                 [S/N in S/N window]
  93.926                                 [S/N in norm. window]
 257.092                                 [S/N_err in S/N window]
 240.154                                 [S/N_err in norm. window]
  1.0000                                 [fscale_chi2]

## etc...
  2147483643                             [idum_orig]
  3065                                   [NOl_eff]
  1079                                   [Nl_eff]
  1986    NSIGMA                         [Ntot_cliped & clip_method]
  1502620                                [Nglobal_steps]
   7                                     [N_chains]
  16                                     [NEX0s_base = N_base in EX0s-fits]
 0   0   1      257   2.0   5.053E+02    [Clip-Bug, RC-Crash & Burn-In warning-flags, n_censored_weights, wei_nsig_threshold & wei_limit]
    90     89.856     89.848      0.008  [idt_all, wdt_TotTime, wdt_UsrTime & wdt_SysTime (sec)]

## Synthesis Results - Best model ##

 2.59718E+00                             [chi2/Nl_eff]
     0.64663                             [adev (%)]

   100.33623                             [sum-of-x (%)]
 1.72441E-14                             [Flux_tot (units of input spectrum!)]
 2.24851E-10                             [Mini_tot (???)]
 1.11101E-10                             [Mcor_tot (???)]

 -17.98                                  [v0_min  (km/s)]
  67.87                                  [vd_min  (km/s)]
 0.7403                                  [AV_min  (mag)]
 0.0000                                  [YAV_min (mag)]

# j     x_j(%)      Mini_j(%)     Mcor_j(%)     age_j(yr)     Z_j      (L/M)_j    YAV?  Mstars   component_j        a/Fe...       SSP_chi2r SSP_adev(%)   SSP_AV   SSP_x(%)
  1      0.0000     0.0000E+00    0.0000E+00    1.000000E+06  0.00010  8.160E-03    0   1.0000   age020_m22            0.0000     1.1619E+03    10.9119   3.7501    77.0062
  2     21.6854     3.4829E-02    7.0488E-02    3.160000E+06  0.00010  4.759E-02    0   1.0000   age045_m22            0.0000     1.0146E+02     3.2388   1.7398    96.3306
  3      0.0000     0.0000E+00    0.0000E+00    5.010000E+06  0.00010  1.932E-02    0   0.9582   age055_m22            0.0000     1.0275E+03    10.8068   2.0518    83.4541
  4      0.0000     0.0000E+00    0.0000E+00    6.610000E+06  0.00010  9.973E-03    0   0.9297   age061_m22            0.0000     1.1215E+03    11.1636   3.7118    79.9231
  5      0.0000     0.0000E+00    0.0000E+00    8.710000E+06  0.00010  7.690E-03    0   0.9030   age067_m22            0.0000     1.0576E+03    10.8347   3.7044    80.3174
  6      0.0000     0.0000E+00    0.0000E+00    1.000000E+07  0.00010  6.375E-03    0   0.8902   age070_m22            0.0000     1.0085E+03    10.5553   3.7177    80.4781
  7      0.0000     0.0000E+00    0.0000E+00    1.445000E+07  0.00010  4.874E-03    0   0.8589   age078_m22            0.0000     7.2078E+02     8.9473   3.5359    83.2076
  8      0.0000     0.0000E+00    0.0000E+00    2.512000E+07  0.00010  4.103E-03    0   0.8174   age090_m22            0.0000     2.6197E+02     5.6267   3.1255    89.4539
  9      0.8669     1.8133E-02    2.8735E-02    4.000000E+07  0.00010  3.654E-03    0   0.7830   age104_m22            0.0000     1.0583E+02     3.4062   2.8256    94.1285
 10      1.3454     3.3248E-02    5.1119E-02    5.500000E+07  0.00010  3.093E-03    0   0.7597   age110_m22            0.0000     9.3380E+01     3.0175   2.7237    95.6577
 11      4.0917     1.2865E-01    1.8585E-01    1.015200E+08  0.00010  2.431E-03    0   0.7138   age116_m22            0.0000     1.3417E+02     3.1512   2.3739    98.6124
 12      0.0000     0.0000E+00    0.0000E+00    1.609000E+08  0.00010  1.319E-03    0   0.6775   age120_m22            0.0000     1.3109E+02     2.8803   1.8988   100.7498
 13      0.0000     0.0000E+00    0.0000E+00    2.861200E+08  0.00010  1.075E-03    0   0.6412   age125_m22            0.0000     5.8647E+02     6.8274   1.9623   104.3599
 14      0.0000     0.0000E+00    0.0000E+00    5.088000E+08  0.00010  7.183E-04    0   0.6083   age130_m22            0.0000     7.8861E+02     8.0749   1.7311   106.0645
 15      0.0000     0.0000E+00    0.0000E+00    9.047900E+08  0.00010  4.524E-04    0   0.5785   age135_m22            0.0000     8.1067E+02     8.2629   1.5284   107.2753
 16      0.0000     0.0000E+00    0.0000E+00    1.278050E+09  0.00010  3.018E-04    0   0.5588   age138_m22            0.0000     3.1190E+02     5.2823   0.9943   105.4721
 17      0.0000     0.0000E+00    0.0000E+00    1.434000E+09  0.00010  2.691E-04    0   0.5532   age139_m22            0.0000     2.3883E+02     4.6922   0.8385   104.8659
 18      0.0000     0.0000E+00    0.0000E+00    2.500000E+09  0.00010  1.582E-04    0   0.5296   age150_m22            0.0000     1.7616E+02     3.8862   0.7266   105.5614
 19      0.0000     0.0000E+00    0.0000E+00    4.250000E+09  0.00010  1.007E-04    0   0.5110   age158_m22            0.0000     6.2892E+01     2.4708   0.5753   103.7579
 20      0.0000     0.0000E+00    0.0000E+00    6.250000E+09  0.00010  6.869E-05    0   0.4985   age166_m22            0.0000     1.5752E+01     1.3793   0.5183   100.9046
 21      0.2591     3.3726E-01    3.3657E-01    7.500000E+09  0.00010  5.873E-05    0   0.4931   age171_m22            0.0000     1.1348E+01     1.1340   0.5070   100.3693
 22      0.3478     5.9327E-01    5.8281E-01    1.000000E+10  0.00010  4.481E-05    0   0.4854   age181_m22            0.0000     1.1832E+01     1.1518   0.4691    99.9870
 23      0.3500     7.6683E-01    7.4353E-01    1.300000E+10  0.00010  3.489E-05    0   0.4791   age193_m22            0.0000     1.4299E+01     1.2573   0.4125    99.4055
 24      3.5572     8.9586E+00    8.6411E+00    1.500000E+10  0.00010  3.035E-05    0   0.4766   age201_m22            0.0000     1.5551E+01     1.2963   0.3737    99.1922
 25     10.0783     3.0690E+01    2.9410E+01    1.800000E+10  0.00010  2.510E-05    0   0.4735   age213_m22            0.0000     2.0636E+01     1.4149   0.3056    98.5392
 26      0.0000     0.0000E+00    0.0000E+00    1.000000E+06  0.00040  8.458E-03    0   1.0000   age020_m32            0.0000     1.1392E+03    10.9164   3.7643    77.7081
 27      0.0000     0.0000E+00    0.0000E+00    3.160000E+06  0.00040  3.973E-02    0   1.0000   age045_m32            0.0000     3.0303E+02     6.0268   3.0207    89.5542
 28      0.0000     0.0000E+00    0.0000E+00    5.010000E+06  0.00040  1.935E-02    0   0.9532   age055_m32            0.0000     8.1641E+02     9.7529   3.2536    83.7767
 29      0.0000     0.0000E+00    0.0000E+00    6.610000E+06  0.00040  1.204E-02    0   0.9243   age061_m32            0.0000     9.1457E+02    10.1274   3.5706    81.8204
 30      0.0000     0.0000E+00    0.0000E+00    8.710000E+06  0.00040  9.433E-03    0   0.9001   age067_m32            0.0000     8.0881E+02     9.5336   3.5410    82.7018
 31      0.0000     0.0000E+00    0.0000E+00    1.000000E+07  0.00040  8.053E-03    0   0.8877   age070_m32            0.0000     7.6788E+02     9.2928   3.5048    83.1420
 32      0.0000     0.0000E+00    0.0000E+00    1.445000E+07  0.00040  7.027E-03    0   0.8578   age078_m32            0.0000     4.1732E+02     7.1036   2.9763    88.2838
 33      0.0000     0.0000E+00    0.0000E+00    2.512000E+07  0.00040  4.707E-03    0   0.8166   age090_m32            0.0000     2.0555E+02     5.1049   2.6799    92.1012
 34      0.0000     0.0000E+00    0.0000E+00    4.000000E+07  0.00040  3.714E-03    0   0.7827   age104_m32            0.0000     9.3437E+01     3.2679   2.4752    95.4393
 35      0.1142     2.9275E-03    4.4987E-03    5.500000E+07  0.00040  2.982E-03    0   0.7593   age110_m32            0.0000     8.1751E+01     2.7917   2.4131    96.6190
 36      1.6019     5.5961E-02    8.0898E-02    1.015200E+08  0.00040  2.188E-03    0   0.7143   age116_m32            0.0000     2.3291E+02     4.0689   2.1464   100.9033
 37      0.0000     0.0000E+00    0.0000E+00    1.609000E+08  0.00040  1.690E-03    0   0.6856   age120_m32            0.0000     4.2356E+02     5.4860   1.9408   103.6183
 38      0.0000     0.0000E+00    0.0000E+00    2.861200E+08  0.00040  1.152E-03    0   0.6509   age125_m32            0.0000     6.3956E+02     7.1888   1.7147   105.5299
 39      0.0000     0.0000E+00    0.0000E+00    5.088000E+08  0.00040  7.331E-04    0   0.6182   age130_m32            0.0000     7.3266E+02     7.8535   1.5493   106.2302
 40      0.0000     0.0000E+00    0.0000E+00    9.047900E+08  0.00040  3.960E-04    0   0.5890   age135_m32            0.0000     3.5340E+02     5.9016   1.0848   104.6961
 41      0.0000     0.0000E+00    0.0000E+00    1.278050E+09  0.00040  2.854E-04    0   0.5687   age138_m32            0.0000     2.2958E+02     4.5761   0.7929   106.4841
 42      0.0000     0.0000E+00    0.0000E+00    1.434000E+09  0.00040  2.531E-04    0   0.5632   age139_m32            0.0000     2.1900E+02     4.4102   0.7322   106.4706
 43     26.6592     1.3694E+01    1.4927E+01    2.500000E+09  0.00040  1.488E-04    0   0.5386   age150_m32            0.0000     1.3163E+02     3.5377   0.4759   104.7096
 44     17.2678     1.4533E+01    1.5291E+01    4.250000E+09  0.00040  9.082E-05    0   0.5199   age158_m32            0.0000     2.9481E+01     1.9301   0.3791   101.1529
 45      2.5961     3.1190E+00    3.2041E+00    6.250000E+09  0.00040  6.362E-05    0   0.5076   age166_m32            0.0000     5.7903E+01     1.9718   0.3413    97.5409
 46      0.0000     0.0000E+00    0.0000E+00    7.500000E+09  0.00040  5.289E-05    0   0.5027   age171_m32            0.0000     8.0625E+01     2.2788   0.3054    96.2421
 47      0.0000     0.0000E+00    0.0000E+00    1.000000E+10  0.00040  3.972E-05    0   0.4948   age181_m32            0.0000     1.0338E+02     2.6133   0.2429    94.8673
 48      3.1557     7.3470E+00    7.2413E+00    1.300000E+10  0.00040  3.283E-05    0   0.4870   age193_m32            0.0000     5.3570E+01     2.2033   0.1985    97.6184
 49      0.0000     0.0000E+00    0.0000E+00    1.500000E+10  0.00040  2.925E-05    0   0.4854   age201_m32            0.0000     4.0096E+01     2.1213   0.1801    99.2235
 50      6.3594     1.9687E+01    1.9201E+01    1.800000E+10  0.00040  2.469E-05    0   0.4819   age213_m32            0.0000     4.0958E+01     2.2217   0.1403    99.7329
 51      0.0000     0.0000E+00    0.0000E+00    1.000000E+06  0.00400  1.114E-02    0   1.0000   age020_m42            0.0000     1.0910E+03    10.6097   3.6938    78.1001
 52      0.0000     0.0000E+00    0.0000E+00    3.160000E+06  0.00400  4.073E-02    0   0.9999   age045_m42            0.0000     1.7884E+02     4.4884   2.7214    92.2083
 53      0.0000     0.0000E+00    0.0000E+00    5.010000E+06  0.00400  2.534E-02    0   0.9488   age055_m42            0.0000     5.1666E+02     7.5631   3.1285    85.9016
 54      0.0000     0.0000E+00    0.0000E+00    6.610000E+06  0.00400  2.583E-02    0   0.9220   age061_m42            0.0000     1.2087E+02     3.7511   2.5337    93.0429
 55      0.0000     0.0000E+00    0.0000E+00    8.710000E+06  0.00400  1.706E-02    0   0.8983   age067_m42            0.0000     2.6849E+02     5.6954   2.3606    91.1097
 56      0.0000     0.0000E+00    0.0000E+00    1.000000E+07  0.00400  1.271E-02    0   0.8862   age070_m42            0.0000     4.4019E+02     7.4712   2.3482    89.6376
 57      0.0000     0.0000E+00    0.0000E+00    1.445000E+07  0.00400  7.666E-03    0   0.8571   age078_m42            0.0000     6.1615E+02     8.3653   2.7516    86.3695
 58      0.0000     0.0000E+00    0.0000E+00    2.512000E+07  0.00400  5.070E-03    0   0.8174   age090_m42            0.0000     3.6933E+02     6.7635   2.2172    91.1940
 59      0.0000     0.0000E+00    0.0000E+00    4.000000E+07  0.00400  3.505E-03    0   0.7851   age104_m42            0.0000     2.0009E+02     4.7443   1.8979    94.0632
 60      0.0000     0.0000E+00    0.0000E+00    5.500000E+07  0.00400  3.059E-03    0   0.7629   age110_m42            0.0000     5.9869E+01     2.1843   1.9513    98.7099
 61      0.0000     0.0000E+00    0.0000E+00    1.015200E+08  0.00400  2.268E-03    0   0.7207   age116_m42            0.0000     3.6128E+02     5.3555   1.8581   103.9898
 62      0.0000     0.0000E+00    0.0000E+00    1.609000E+08  0.00400  1.720E-03    0   0.6930   age120_m42            0.0000     4.3249E+02     6.1161   1.7161   105.6464
 63      0.0000     0.0000E+00    0.0000E+00    2.861200E+08  0.00400  1.079E-03    0   0.6613   age125_m42            0.0000     4.5314E+02     6.2802   1.3657   105.9406
 64      0.0000     0.0000E+00    0.0000E+00    5.088000E+08  0.00400  6.261E-04    0   0.6313   age130_m42            0.0000     5.4588E+02     6.7984   1.1729   108.7177
 65      0.0000     0.0000E+00    0.0000E+00    9.047900E+08  0.00400  3.535E-04    0   0.6024   age135_m42            0.0000     2.9350E+02     5.3904   0.7741   108.6397
 66      0.0000     0.0000E+00    0.0000E+00    1.278050E+09  0.00400  2.677E-04    0   0.5837   age138_m42            0.0000     2.7174E+02     5.9903   0.1020   105.0118
 67      0.0000     0.0000E+00    0.0000E+00    1.434000E+09  0.00400  1.910E-04    0   0.5716   age139_m42            0.0000     2.4365E+02     5.7025   0.2630   106.2878
 68      0.0000     0.0000E+00    0.0000E+00    2.500000E+09  0.00400  9.818E-05    0   0.5463   age150_m42            0.0000     3.0889E+02     5.8138   0.0039   100.8778
 69      0.0000     0.0000E+00    0.0000E+00    4.250000E+09  0.00400  5.491E-05    0   0.5269   age158_m42            0.0000     3.8962E+02     6.1318  -0.1114    97.7942
 70      0.0000     0.0000E+00    0.0000E+00    6.250000E+09  0.00400  3.857E-05    0   0.5151   age166_m42            0.0000     5.1139E+02     6.9025  -0.2299    96.1150
 71      0.0000     0.0000E+00    0.0000E+00    7.500000E+09  0.00400  3.243E-05    0   0.5110   age171_m42            0.0000     5.9244E+02     7.3940  -0.3031    95.3616
 72      0.0000     0.0000E+00    0.0000E+00    1.000000E+10  0.00400  2.424E-05    0   0.5028   age181_m42            0.0000     7.0477E+02     8.0002  -0.3753    94.4664
 73      0.0000     0.0000E+00    0.0000E+00    1.300000E+10  0.00400  1.883E-05    0   0.4927   age193_m42            0.0000     7.9030E+02     8.4224  -0.4095    93.9612
 74      0.0000     0.0000E+00    0.0000E+00    1.500000E+10  0.00400  1.685E-05    0   0.4919   age201_m42            0.0000     7.6575E+02     8.2919  -0.4052    94.0320
 75      0.0000     0.0000E+00    0.0000E+00    1.800000E+10  0.00400  1.452E-05    0   0.4874   age213_m42            0.0000     7.2024E+02     8.0720  -0.3925    94.4139
 76      0.0000     0.0000E+00    0.0000E+00    1.000000E+06  0.00800  1.286E-02    0   1.0000   age020_m52            0.0000     9.4544E+02     9.9853   3.6718    79.8549
 77      0.0000     0.0000E+00    0.0000E+00    3.160000E+06  0.00800  3.147E-02    0   0.9966   age045_m52            0.0000     8.8877E+02     9.7913   3.5825    81.4052
 78      0.0000     0.0000E+00    0.0000E+00    5.010000E+06  0.00800  2.664E-02    0   0.9443   age055_m52            0.0000     6.1767E+02     8.1241   3.2491    84.8024
 79      0.0000     0.0000E+00    0.0000E+00    6.610000E+06  0.00800  2.151E-02    0   0.9177   age061_m52            0.0000     3.8869E+02     6.2884   1.9431    91.0294
 80      0.0000     0.0000E+00    0.0000E+00    8.710000E+06  0.00800  1.628E-02    0   0.8948   age067_m52            0.0000     3.2793E+02     6.1988   2.3186    91.4538
 81      0.0000     0.0000E+00    0.0000E+00    1.000000E+07  0.00800  1.215E-02    0   0.8827   age070_m52            0.0000     4.1630E+02     6.9929   2.6621    89.6069
 82      0.0000     0.0000E+00    0.0000E+00    1.445000E+07  0.00800  8.739E-03    0   0.8552   age078_m52            0.0000     3.0790E+02     5.9823   2.7014    90.9200
 83      0.0000     0.0000E+00    0.0000E+00    2.512000E+07  0.00800  5.676E-03    0   0.8162   age090_m52            0.0000     1.5649E+02     4.3260   2.3016    95.7264
 84      0.0000     0.0000E+00    0.0000E+00    4.000000E+07  0.00800  3.939E-03    0   0.7841   age104_m52            0.0000     1.0039E+02     2.9645   2.1390    98.2313
 85      0.0000     0.0000E+00    0.0000E+00    5.500000E+07  0.00800  3.155E-03    0   0.7627   age110_m52            0.0000     1.1023E+02     2.5267   2.1057    99.9290
 86      0.0000     0.0000E+00    0.0000E+00    1.015200E+08  0.00800  2.206E-03    0   0.7226   age116_m52            0.0000     2.3890E+02     4.2963   1.9143   103.7713
 87      0.0000     0.0000E+00    0.0000E+00    1.609000E+08  0.00800  1.596E-03    0   0.6963   age120_m52            0.0000     3.2731E+02     5.3047   1.6992   105.4175
 88      0.0000     0.0000E+00    0.0000E+00    2.861200E+08  0.00800  1.002E-03    0   0.6665   age125_m52            0.0000     6.2938E+02     7.6749   1.4078   108.0463
 89      0.0000     0.0000E+00    0.0000E+00    5.088000E+08  0.00800  5.759E-04    0   0.6377   age130_m52            0.0000     7.5141E+02     8.7010   1.0597   111.7918
 90      0.0000     0.0000E+00    0.0000E+00    9.047900E+08  0.00800  2.972E-04    0   0.6086   age135_m52            0.0000     5.2614E+02     7.9251   0.5242   110.1236
 91      0.0000     0.0000E+00    0.0000E+00    1.278050E+09  0.00800  2.242E-04    0   0.5907   age138_m52            0.0000     4.6247E+02     7.4520  -0.0738   107.7264
 92      0.0000     0.0000E+00    0.0000E+00    1.434000E+09  0.00800  1.645E-04    0   0.5787   age139_m52            0.0000     3.8549E+02     6.8204   0.0739   107.2371
 93      0.0000     0.0000E+00    0.0000E+00    2.500000E+09  0.00800  7.723E-05    0   0.5519   age150_m52            0.0000     5.4390E+02     7.5242  -0.2482   102.6832
 94      0.0000     0.0000E+00    0.0000E+00    4.250000E+09  0.00800  4.151E-05    0   0.5320   age158_m52            0.0000     6.0180E+02     7.6107  -0.3114    99.9355
 95      0.0000     0.0000E+00    0.0000E+00    6.250000E+09  0.00800  3.010E-05    0   0.5197   age166_m52            0.0000     8.0858E+02     8.6559  -0.4934    98.0587
 96      0.0000     0.0000E+00    0.0000E+00    7.500000E+09  0.00800  2.467E-05    0   0.5139   age171_m52            0.0000     8.6501E+02     8.9405  -0.5322    97.5438
 97      0.0000     0.0000E+00    0.0000E+00    1.000000E+10  0.00800  1.862E-05    0   0.5054   age181_m52            0.0000     1.0433E+03     9.8309  -0.6551    96.8375
 98      0.0000     0.0000E+00    0.0000E+00    1.300000E+10  0.00800  1.433E-05    0   0.4988   age193_m52            0.0000     1.2486E+03    10.7285  -0.7419    97.0406
 99      0.0000     0.0000E+00    0.0000E+00    1.500000E+10  0.00800  1.244E-05    0   0.4936   age201_m52            0.0000     1.3308E+03    11.0494  -0.7666    97.3098
100      0.0000     0.0000E+00    0.0000E+00    1.800000E+10  0.00800  1.070E-05    0   0.4888   age213_m52            0.0000     1.3886E+03    11.3042  -0.7988    97.0621
101      0.0000     0.0000E+00    0.0000E+00    1.000000E+06  0.02000  1.989E-02    0   1.0000   age020_m62            0.0000     1.0879E+03    10.5671   3.6517    78.9081
102      0.0000     0.0000E+00    0.0000E+00    3.160000E+06  0.02000  3.772E-02    0   0.9858   age045_m62            0.0000     9.5214E+02     9.9621   3.5108    81.1164
103      0.0000     0.0000E+00    0.0000E+00    5.010000E+06  0.02000  3.227E-02    0   0.9342   age055_m62            0.0000     3.1374E+02     5.9689   2.9786    88.8273
104      0.0000     0.0000E+00    0.0000E+00    6.610000E+06  0.02000  2.387E-02    0   0.9090   age061_m62            0.0000     5.3776E+02     8.0340   2.7324    88.2341
105      0.0000     0.0000E+00    0.0000E+00    8.710000E+06  0.02000  1.102E-02    0   0.8861   age067_m62            0.0000     1.6659E+03    14.6293   2.3725    83.5838
106      0.0000     0.0000E+00    0.0000E+00    1.000000E+07  0.02000  1.011E-02    0   0.8751   age070_m62            0.0000     1.1346E+03    11.9224   2.3889    86.0593
107      0.0000     0.0000E+00    0.0000E+00    1.445000E+07  0.02000  7.331E-03    0   0.8472   age078_m62            0.0000     7.7620E+02     9.6286   2.4035    87.4769
108      0.0000     0.0000E+00    0.0000E+00    2.512000E+07  0.02000  4.206E-03    0   0.8099   age090_m62            0.0000     7.9684E+02     9.6129   2.3135    86.9150
109      0.0000     0.0000E+00    0.0000E+00    4.000000E+07  0.02000  3.373E-03    0   0.7799   age104_m62            0.0000     1.5653E+02     4.2264   2.1071    95.7779
110      0.0000     0.0000E+00    0.0000E+00    5.500000E+07  0.02000  2.747E-03    0   0.7595   age110_m62            0.0000     1.0045E+02     2.8088   2.0377    99.3173
111      0.0000     0.0000E+00    0.0000E+00    1.015200E+08  0.02000  1.878E-03    0   0.7221   age116_m62            0.0000     2.8703E+02     4.4175   1.8928   104.3348
112      0.0000     0.0000E+00    0.0000E+00    1.609000E+08  0.02000  1.378E-03    0   0.6978   age120_m62            0.0000     4.9979E+02     6.2057   1.7362   107.0188
113      0.0000     0.0000E+00    0.0000E+00    2.861200E+08  0.02000  8.869E-04    0   0.6700   age125_m62            0.0000     9.0604E+02     8.6152   1.3643   111.3562
114      0.0000     0.0000E+00    0.0000E+00    5.088000E+08  0.02000  4.834E-04    0   0.6430   age130_m62            0.0000     8.5289E+02     9.1377   0.9240   113.4401
115      0.0000     0.0000E+00    0.0000E+00    9.047900E+08  0.02000  2.312E-04    0   0.6152   age135_m62            0.0000     4.7907E+02     7.7986   0.3229   112.1310
116      0.0000     0.0000E+00    0.0000E+00    1.278050E+09  0.02000  1.387E-04    0   0.5927   age138_m62            0.0000     4.0007E+02     6.9597  -0.0396   106.8864
117      0.0000     0.0000E+00    0.0000E+00    1.434000E+09  0.02000  1.168E-04    0   0.5865   age139_m62            0.0000     4.1814E+02     6.9558  -0.0619   105.0953
118      0.0000     0.0000E+00    0.0000E+00    2.500000E+09  0.02000  5.505E-05    0   0.5610   age150_m62            0.0000     7.0679E+02     8.4942  -0.4140   101.2167
119      0.0000     0.0000E+00    0.0000E+00    4.250000E+09  0.02000  3.070E-05    0   0.5407   age158_m62            0.0000     1.1149E+03    10.5251  -0.6924   100.3704
120      0.0000     0.0000E+00    0.0000E+00    6.250000E+09  0.02000  2.104E-05    0   0.5277   age166_m62            0.0000     1.3545E+03    11.5072  -0.8166   100.4062
121      0.0000     0.0000E+00    0.0000E+00    7.500000E+09  0.02000  1.770E-05    0   0.5223   age171_m62            0.0000     1.4787E+03    12.0169  -0.8998   100.5678
122      0.0000     0.0000E+00    0.0000E+00    1.000000E+10  0.02000  1.297E-05    0   0.5121   age181_m62            0.0000     1.7522E+03    12.8843  -1.0000    99.4729
123      0.0000     0.0000E+00    0.0000E+00    1.300000E+10  0.02000  9.691E-06    0   0.5047   age193_m62            0.0000     1.9627E+03    13.3132  -1.0000    97.6992
124      0.0000     0.0000E+00    0.0000E+00    1.500000E+10  0.02000  8.360E-06    0   0.4999   age201_m62            0.0000     2.1623E+03    13.7232  -1.0000    96.1072
125      0.0000     0.0000E+00    0.0000E+00    1.800000E+10  0.02000  6.911E-06    0   0.4946   age213_m62            0.0000     2.4199E+03    14.2797  -1.0000    94.4129
126      0.0000     0.0000E+00    0.0000E+00    1.000000E+06  0.05000  2.651E-02    0   0.9998   age020_m72            0.0000     1.0169E+03    10.1179   3.6517    79.7295
127      0.0000     0.0000E+00    0.0000E+00    3.160000E+06  0.05000  4.817E-02    0   0.9577   age045_m72            0.0000     6.5918E+02     8.2885   3.3591    84.3267
128      0.0000     0.0000E+00    0.0000E+00    5.010000E+06  0.05000  3.101E-02    0   0.9147   age055_m72            0.0000     5.9040E+02     7.9367   3.0088    86.9799
129      0.0000     0.0000E+00    0.0000E+00    6.610000E+06  0.05000  1.472E-02    0   0.8877   age061_m72            0.0000     1.2939E+03    12.2223   2.5899    84.9522
130      0.0000     0.0000E+00    0.0000E+00    8.710000E+06  0.05000  1.050E-02    0   0.8638   age067_m72            0.0000     8.8204E+02     9.6504   2.9704    85.4822
131      0.0000     0.0000E+00    0.0000E+00    1.000000E+07  0.05000  8.954E-03    0   0.8524   age070_m72            0.0000     6.5015E+02     8.0785   3.2431    85.4837
132      0.0000     0.0000E+00    0.0000E+00    1.445000E+07  0.05000  6.392E-03    0   0.8262   age078_m72            0.0000     5.4367E+02     7.3639   3.1869    86.5452
133      0.0000     0.0000E+00    0.0000E+00    2.512000E+07  0.05000  4.207E-03    0   0.7902   age090_m72            0.0000     2.6822E+02     5.2244   2.8027    91.1770
134      0.0000     0.0000E+00    0.0000E+00    4.000000E+07  0.05000  3.198E-03    0   0.7618   age104_m72            0.0000     1.5536E+02     3.3913   2.2793    99.5702
135      0.0000     0.0000E+00    0.0000E+00    5.500000E+07  0.05000  2.593E-03    0   0.7432   age110_m72            0.0000     2.2235E+02     4.0144   2.1819   101.6887
136      0.0000     0.0000E+00    0.0000E+00    1.015200E+08  0.05000  1.716E-03    0   0.7092   age116_m72            0.0000     3.9555E+02     5.3816   1.9851   104.5399
137      0.0000     0.0000E+00    0.0000E+00    1.609000E+08  0.05000  1.218E-03    0   0.6876   age120_m72            0.0000     6.3876E+02     7.1706   1.7102   107.3981
138      0.0000     0.0000E+00    0.0000E+00    2.861200E+08  0.05000  7.047E-04    0   0.6618   age125_m72            0.0000     9.2311E+02     9.1966   1.1625   111.4325
139      0.0000     0.0000E+00    0.0000E+00    5.088000E+08  0.05000  3.590E-04    0   0.6356   age130_m72            0.0000     8.0440E+02     9.3408   0.5778   113.9224
140      0.0000     0.0000E+00    0.0000E+00    9.047900E+08  0.05000  1.484E-04    0   0.6088   age135_m72            0.0000     5.8389E+02     8.4225  -0.1339   106.0935
141      0.0000     0.0000E+00    0.0000E+00    1.278050E+09  0.05000  9.435E-05    0   0.5924   age138_m72            0.0000     9.0749E+02    10.0033  -0.5183   102.0975
142      0.0000     0.0000E+00    0.0000E+00    1.434000E+09  0.05000  7.827E-05    0   0.5847   age139_m72            0.0000     9.1471E+02     9.9057  -0.4989   101.3095
143      0.0000     0.0000E+00    0.0000E+00    2.500000E+09  0.05000  3.759E-05    0   0.5583   age150_m72            0.0000     1.3224E+03    11.4778  -0.8027    99.6269
144      0.0000     0.0000E+00    0.0000E+00    4.250000E+09  0.05000  1.842E-05    0   0.5374   age158_m72            0.0000     1.7344E+03    12.6270  -1.0000    96.3248
145      0.0000     0.0000E+00    0.0000E+00    6.250000E+09  0.05000  1.207E-05    0   0.5242   age166_m72            0.0000     2.3253E+03    14.0219  -1.0000    90.1156
146      0.0000     0.0000E+00    0.0000E+00    7.500000E+09  0.05000  9.993E-06    0   0.5183   age171_m72            0.0000     2.4391E+03    14.3112  -1.0000    88.9989
147      0.0000     0.0000E+00    0.0000E+00    1.000000E+10  0.05000  7.291E-06    0   0.5081   age181_m72            0.0000     2.8993E+03    15.5052  -1.0000    85.8069
148      0.0000     0.0000E+00    0.0000E+00    1.300000E+10  0.05000  5.316E-06    0   0.5018   age193_m72            0.0000     3.6784E+03    17.4017  -1.0000    81.1059
149      0.0000     0.0000E+00    0.0000E+00    1.500000E+10  0.05000  4.497E-06    0   0.4972   age201_m72            0.0000     4.0453E+03    18.2044  -1.0000    79.4698
150      0.0000     0.0000E+00    0.0000E+00    1.800000E+10  0.05000  3.739E-06    0   0.4924   age213_m72            0.0000     4.5679E+03    19.2183  -1.0000    76.9508


## Synthesis Results - Average & Chains ##

# j      x_j: min, <> & last-chain-values for 1 ...  7 chains
  1      0.0000      0.0091      0.0025      0.0000      0.0000      0.0000      0.0000      0.0000      0.0000
  2     21.6854     19.5818     19.7298     19.7465     19.5218     20.0204     19.8155     20.1308     20.7792
  3      0.0000      0.0315      0.0114      0.0776      0.0943      0.0000      0.0000      0.0000      0.0960
  4      0.0000      0.0091      0.0000      0.0000      0.0000      0.0000      0.0000      0.0000      0.0000
  5      0.0000      0.0047      0.0000      0.0000      0.0000      0.0072      0.0000      0.0000      0.0000
  6      0.0000      0.0058      0.0000      0.0000      0.0000      0.0000      0.0000      0.0078      0.0000
  7      0.0000      0.0109      0.0000      0.0000      0.0000      0.0000      0.0070      0.0000      0.0000
  8      0.0000      0.0112      0.0000      0.0000      0.0000      0.0822      0.0000      0.0048      0.0000
  9      0.8669      0.5588      0.4261      0.5608      0.7395      0.5909      0.5572      0.4925      0.7301
 10      1.3454      1.0075      1.0908      0.9874      1.0474      0.9772      1.0102      1.1986      1.0071
 11      4.0917      3.9095      4.0167      3.8511      3.8731      3.9339      4.0339      4.0329      3.8432
 12      0.0000      0.0295      0.0000      0.0184      0.0000      0.0000      0.0000      0.0000      0.0972
 13      0.0000      0.0260      0.0810      0.0000      0.0000      0.1020      0.0000      0.0000      0.0000
 14      0.0000      0.0366      0.0000      0.1568      0.1551      0.0000      0.0000      0.0000      0.0000
 15      0.0000      0.0150      0.0236      0.0252      0.0543      0.0000      0.0236      0.0000      0.0000
 16      0.0000      0.0196      0.0099      0.0000      0.0000      0.0000      0.0000      0.0107      0.0000
 17      0.0000      0.0366      0.0000      0.0000      0.0029      0.0152      0.0000      0.0523      0.0301
 18      0.0000      0.0756      0.2481      0.0000      0.0000      0.0079      0.0000      0.0540      0.0000
 19      0.0000      0.1593      0.0000      0.0000      0.0000      0.0000      0.0000      0.0000      0.0000
 20      0.0000      0.1046      0.0000      0.0098      0.0668      0.0149      0.0424      0.1418      0.0000
 21      0.2591      0.2672      0.2515      0.5241      0.8307      0.1511      0.2084      0.2922      0.0899
 22      0.3478      0.2288      0.0000      0.6510      0.8949      0.1329      0.0000      0.7775      0.1264
 23      0.3500      0.2394      0.1054      0.0425      0.0000      0.4332      0.1976      0.2721      0.0000
 24      3.5572      4.5237      4.6146      4.2094      4.1190      4.2970      4.9454      4.6601      4.1331
 25     10.0783      9.4302      9.5633      9.6597      9.4490      9.3985      9.6445      9.1605      9.4642
 26      0.0000      0.0050      0.0243      0.0128      0.0008      0.0000      0.0000      0.0000      0.0290
 27      0.0000      0.0287      0.0000      0.0000      0.0000      0.1136      0.0000      0.0808      0.0000
 28      0.0000      0.0310      0.0000      0.0000      0.0000      0.0000      0.0179      0.0396      0.0000
 29      0.0000      0.0117      0.0000      0.0196      0.0154      0.0000      0.0000      0.0078      0.0523
 30      0.0000      0.0074      0.0045      0.0000      0.0000      0.0000      0.0000      0.0000      0.0239
 31      0.0000      0.0161      0.0000      0.0000      0.0000      0.0000      0.0000      0.0000      0.0000
 32      0.0000      0.0257      0.0000      0.0000      0.0818      0.0000      0.0000      0.0000      0.0000
 33      0.0000      0.0360      0.0149      0.0000      0.0000      0.3693      0.1364      0.0000      0.0000
 34      0.0000      0.0717      0.1395      0.1065      0.2100      0.0798      0.1825      0.0292      0.0173
 35      0.1142      0.0854      0.1724      0.0384      0.0532      0.0267      0.0000      0.1879      0.0000
 36      1.6019      1.6335      1.5376      1.5537      1.5915      1.9027      1.9787      1.4568      1.6622
 37      0.0000      0.0946      0.1566      0.1648      0.1903      0.0000      0.1431      0.0935      0.0945
 38      0.0000      0.0579      0.2317      0.0000      0.0000      0.0000      0.1603      0.0922      0.2120
 39      0.0000      0.0234      0.0026      0.0299      0.1255      0.0000      0.0000      0.0000      0.0000
 40      0.0000      0.0124      0.0116      0.0000      0.0262      0.0000      0.0000      0.0000      0.0000
 41      0.0000      0.0428      0.0000      0.0000      0.0000      0.0000      0.0000      0.0782      0.0000
 42      0.0000      0.0764      0.0000      0.0000      0.0000      0.0407      0.0000      0.1617      0.4333
 43     26.6592     25.8420     25.7992     26.0259     25.5966     26.2198     25.7643     25.8456     26.2134
 44     17.2678     16.9702     17.4126     16.8301     16.8202     17.0979     17.0789     16.5942     16.8436
 45      2.5961      3.0293      3.0387      3.2543      2.8980      3.0473      3.0555      3.3647      2.9668
 46      0.0000      0.0652      0.1723      0.0716      0.2274      0.0006      0.0478      0.0000      0.0016
 47      0.0000      0.0222      0.0000      0.0000      0.0000      0.0000      0.0000      0.0000      0.0000
 48      3.1557      4.1422      3.8747      3.8346      4.0739      4.4265      4.1501      3.9956      4.3705
 49      0.0000      0.1591      0.0000      0.2153      0.1839      0.0719      0.1406      0.0000      0.1392
 50      6.3594      6.1995      6.3102      6.2487      6.2824      6.0188      6.3674      6.0063      6.3519
 51      0.0000      0.0037      0.0000      0.0000      0.0000      0.0000      0.0000      0.0000      0.0000
 52      0.0000      0.1043      0.1527      0.2336      0.1061      0.1139      0.0494      0.0718      0.0411
 53      0.0000      0.0095      0.0000      0.0000      0.0000      0.0000      0.0000      0.0000      0.0000
 54      0.0000      0.0725      0.2025      0.1147      0.0183      0.0000      0.0000      0.1443      0.0000
 55      0.0000      0.0207      0.0000      0.0586      0.0045      0.0000      0.0000      0.0000      0.0257
 56      0.0000      0.0169      0.0000      0.0000      0.0000      0.0000      0.0000      0.0000      0.0209
 57      0.0000      0.0078      0.0000      0.0000      0.0000      0.0000      0.0000      0.0000      0.0000
 58      0.0000      0.0151      0.0111      0.0824      0.0383      0.0054      0.1437      0.0000      0.0000
 59      0.0000      0.0161      0.0000      0.0000      0.0000      0.0877      0.0527      0.0000      0.0000
 60      0.0000      0.0183      0.0104      0.0000      0.0000      0.0000      0.0000      0.0000      0.0000
 61      0.0000      0.0364      0.0000      0.0000      0.0346      0.1246      0.0000      0.0000      0.0000
 62      0.0000      0.0283      0.0000      0.1359      0.0119      0.1193      0.0000      0.0000      0.0000
 63      0.0000      0.0165      0.0000      0.0000      0.0000      0.0000      0.0000      0.0000      0.0054
 64      0.0000      0.0415      0.0112      0.0000      0.1966      0.0260      0.0000      0.1804      0.0000
 65      0.0000      0.0326      0.0000      0.0000      0.0000      0.0000      0.0000      0.0744      0.0000
 66      0.0000      0.0068      0.0000      0.0000      0.0000      0.0000      0.0000      0.0000      0.0000
 67      0.0000      0.0090      0.0000      0.0000      0.0000      0.0000      0.0000      0.0000      0.0000
 68      0.0000      0.0050      0.0008      0.0000      0.0000      0.0000      0.0000      0.0000      0.0000
 69      0.0000      0.0054      0.0000      0.0000      0.0000      0.0000      0.0000      0.0000      0.0000
 70      0.0000      0.0039      0.0000      0.0000      0.0000      0.0000      0.0000      0.0000      0.0054
 71      0.0000      0.0058      0.0000      0.0000      0.0000      0.0000      0.0000      0.0000      0.0000
 72      0.0000      0.0027      0.0000      0.0000      0.0054      0.0000      0.0000      0.0000      0.0000
 73      0.0000      0.0032      0.0000      0.0000      0.0000      0.0000      0.0000      0.0000      0.0000
 74      0.0000      0.0031      0.0000      0.0000      0.0000      0.0000      0.0000      0.0000      0.0398
 75      0.0000      0.0052      0.0000      0.0000      0.0000      0.0000      0.0000      0.0000      0.0000
 76      0.0000      0.0073      0.0000      0.0000      0.0042      0.0000      0.0000      0.0000      0.0000
 77      0.0000      0.0060      0.0652      0.0000      0.0114      0.0000      0.0000      0.0000      0.0000
 78      0.0000      0.0061      0.0000      0.0056      0.0000      0.0021      0.0000      0.0000      0.0000
 79      0.0000      0.0077      0.0000      0.0000      0.0000      0.0000      0.0000      0.0000      0.0000
 80      0.0000      0.0111      0.1480      0.0000      0.0555      0.0000      0.0648      0.0000      0.0000
 81      0.0000      0.0133      0.0226      0.0003      0.2172      0.0000      0.0000      0.0000      0.0000
 82      0.0000      0.0126      0.0858      0.0000      0.0605      0.0000      0.0000      0.0314      0.0000
 83      0.0000      0.1186      0.1133      0.0762      0.1408      0.1039      0.0000      0.0782      0.1365
 84      0.0000      0.0679      0.0000      0.0000      0.0000      0.0601      0.0000      0.1250      0.0000
 85      0.0000      0.0632      0.0802      0.2399      0.0000      0.0000      0.0133      0.0000      0.0000
 86      0.0000      0.0265      0.0000      0.0000      0.0000      0.0000      0.0000      0.1261      0.0000
 87      0.0000      0.0212      0.0000      0.0000      0.0000      0.0000      0.0000      0.0000      0.0000
 88      0.0000      0.0078      0.0000      0.0000      0.0000      0.0000      0.0000      0.0000      0.0000
 89      0.0000      0.0070      0.0000      0.0003      0.0000      0.0000      0.0000      0.0000      0.0000
 90      0.0000      0.0042      0.0000      0.0137      0.0000      0.0000      0.0000      0.0000      0.0000
 91      0.0000      0.0026      0.0000      0.0000      0.0000      0.0000      0.0000      0.0000      0.0000
 92      0.0000      0.0036      0.0000      0.0000      0.0000      0.0000      0.0000      0.0000      0.0000
 93      0.0000      0.0036      0.0000      0.0000      0.0000      0.0000      0.0000      0.0000      0.0000
 94      0.0000      0.0039      0.0000      0.0000      0.0000      0.0000      0.0000      0.0000      0.0000
 95      0.0000      0.0032      0.0000      0.0000      0.0000      0.0000      0.0000      0.0000      0.0000
 96      0.0000      0.0025      0.0000      0.0000      0.0000      0.0000      0.0000      0.0000      0.0000
 97      0.0000      0.0031      0.0000      0.0000      0.0000      0.0175      0.0000      0.0000      0.0000
 98      0.0000      0.0022      0.0000      0.0000      0.0000      0.0000      0.0000      0.0000      0.0000
 99      0.0000      0.0032      0.0000      0.0000      0.0000      0.0000      0.0000      0.0000      0.0000
100      0.0000      0.0027      0.0000      0.0000      0.0000      0.0000      0.0000      0.0000      0.0000
101      0.0000      0.0044      0.0000      0.0000      0.0000      0.0000      0.0000      0.0000      0.0000
102      0.0000      0.0098      0.0000      0.0002      0.0000      0.0000      0.0000      0.0000      0.0000
103      0.0000      0.0110      0.0333      0.0000      0.0000      0.0026      0.0000      0.0000      0.0441
104      0.0000      0.0186      0.0000      0.0000      0.0000      0.0000      0.0000      0.0000      0.0006
105      0.0000      0.0346      0.0240      0.1575      0.0000      0.0000      0.1897      0.0945      0.0000
106      0.0000      0.0184      0.0585      0.0708      0.0000      0.0035      0.0000      0.0000      0.0000
107      0.0000      0.0115      0.0000      0.0079      0.0075      0.0000      0.0000      0.0000      0.0000
108      0.0000      0.0083      0.0000      0.0000      0.0000      0.0000      0.0000      0.0000      0.0000
109      0.0000      0.0099      0.0000      0.0000      0.0038      0.0000      0.0000      0.0000      0.0000
110      0.0000      0.0184      0.0000      0.0053      0.0055      0.0378      0.0602      0.0000      0.0000
111      0.0000      0.0127      0.0000      0.0820      0.0000      0.0000      0.0000      0.0000      0.0000
112      0.0000      0.0186      0.0723      0.0281      0.0000      0.0000      0.0000      0.0000      0.0136
113      0.0000      0.0120      0.0000      0.0000      0.0000      0.0000      0.0000      0.0000      0.0479
114      0.0000      0.0036      0.0000      0.0389      0.0000      0.0000      0.0000      0.0000      0.0000
115      0.0000      0.0037      0.0000      0.0000      0.0000      0.0000      0.0000      0.0000      0.0000
116      0.0000      0.0035      0.0000      0.0000      0.0000      0.0000      0.0000      0.0000      0.0000
117      0.0000      0.0024      0.0000      0.0000      0.0000      0.0442      0.0000      0.0000      0.0000
118      0.0000      0.0029      0.0000      0.0000      0.0000      0.0000      0.0000      0.0000      0.0000
119      0.0000      0.0033      0.0000      0.0000      0.0233      0.0000      0.0000      0.0000      0.0000
120      0.0000      0.0024      0.0000      0.0000      0.0000      0.0000      0.0000      0.0000      0.0000
121      0.0000      0.0015      0.0000      0.0000      0.0000      0.0000      0.0000      0.0000      0.0000
122      0.0000      0.0013      0.0000      0.0004      0.0000      0.0000      0.0000      0.0000      0.0000
123      0.0000      0.0006      0.0000      0.0000      0.0000      0.0000      0.0000      0.0000      0.0000
124      0.0000      0.0024      0.0000      0.0000      0.0000      0.0000      0.0000      0.0000      0.0000
125      0.0000      0.0015      0.0144      0.0000      0.0000      0.0000      0.0000      0.0000      0.0000
126      0.0000      0.0045      0.0387      0.0000      0.0000      0.0000      0.0000      0.0000      0.0000
127      0.0000      0.0127      0.0000      0.0000      0.0000      0.0000      0.0000      0.0000      0.0000
128      0.0000      0.0173      0.0088      0.0000      0.0000      0.0198      0.0000      0.0000      0.0000
129      0.0000      0.0149      0.0000      0.0000      0.0117      0.0000      0.0000      0.0000      0.0000
130      0.0000      0.0050      0.0000      0.0000      0.0000      0.0000      0.0000      0.0908      0.0715
131      0.0000      0.0048      0.0000      0.0000      0.0000      0.0000      0.0000      0.0000      0.0000
132      0.0000      0.0072      0.0000      0.0000      0.0000      0.0000      0.0000      0.0008      0.0000
133      0.0000      0.0052      0.0038      0.0000      0.0499      0.0000      0.0000      0.0000      0.0027
134      0.0000      0.0148      0.0000      0.0000      0.0000      0.0000      0.0000      0.0000      0.0000
135      0.0000      0.0150      0.0412      0.0000      0.0000      0.0000      0.0019      0.0000      0.0103
136      0.0000      0.0139      0.0000      0.0584      0.0608      0.0000      0.0000      0.0000      0.0000
137      0.0000      0.0118      0.0000      0.0000      0.0000      0.0014      0.0174      0.0000      0.0000
138      0.0000      0.0100      0.0000      0.0000      0.0000      0.0000      0.0000      0.0000      0.0194
139      0.0000      0.0060      0.0000      0.0000      0.0000      0.0000      0.0000      0.0000      0.0000
140      0.0000      0.0041      0.0000      0.0000      0.0000      0.0000      0.0000      0.0000      0.0000
141      0.0000      0.0023      0.0000      0.0000      0.0000      0.0000      0.0000      0.0000      0.0000
142      0.0000      0.0019      0.0000      0.0000      0.0000      0.0000      0.0000      0.0000      0.0000
143      0.0000      0.0031      0.0000      0.0000      0.0000      0.0000      0.0000      0.0000      0.0000
144      0.0000      0.0041      0.0000      0.0000      0.0125      0.0000      0.0000      0.0000      0.0000
145      0.0000      0.0042      0.0000      0.0000      0.0000      0.0056      0.0000      0.0000      0.0000
146      0.0000      0.0039      0.0000      0.0000      0.0000      0.0000      0.0000      0.0000      0.0586
147      0.0000      0.0125      0.0196      0.0000      0.0000      0.0000      0.0000      0.0000      0.0000
148      0.0000      0.0039      0.0000      0.0000      0.0000      0.0000      0.0000      0.0000      0.0000
149      0.0000      0.0128      0.0318      0.0000      0.0278      0.0000      0.0000      0.0000      0.0000
150      0.0000      0.0031      0.0000      0.0000      0.0000      0.0000      0.0000      0.0000      0.0000

# j      m_j: min, <> & last-chain-values for 1 ...  7 chains
  1  0.0000E+00  1.6757E-04  4.5141E-05  0.0000E+00  0.0000E+00  0.0000E+00  0.0000E+00  0.0000E+00  0.0000E+00
  2  7.0488E-02  6.1551E-02  6.2273E-02  6.2574E-02  6.1439E-02  6.3840E-02  6.2022E-02  6.4346E-02  6.6175E-02
  3  0.0000E+00  2.3367E-04  8.4587E-05  5.8065E-04  7.0059E-04  0.0000E+00  0.0000E+00  0.0000E+00  7.2146E-04
  4  0.0000E+00  1.2678E-04  0.0000E+00  0.0000E+00  0.0000E+00  0.0000E+00  0.0000E+00  0.0000E+00  0.0000E+00
  5  0.0000E+00  8.2984E-05  0.0000E+00  0.0000E+00  0.0000E+00  1.2891E-04  0.0000E+00  0.0000E+00  0.0000E+00
  6  0.0000E+00  1.2169E-04  0.0000E+00  0.0000E+00  0.0000E+00  0.0000E+00  0.0000E+00  1.6504E-04  0.0000E+00
  7  0.0000E+00  2.8728E-04  0.0000E+00  0.0000E+00  0.0000E+00  0.0000E+00  1.8324E-04  0.0000E+00  0.0000E+00
  8  0.0000E+00  3.3321E-04  0.0000E+00  0.0000E+00  0.0000E+00  2.4854E-03  0.0000E+00  1.4642E-04  0.0000E+00
  9  2.8735E-02  1.7912E-02  1.3714E-02  1.8121E-02  2.3735E-02  1.9214E-02  1.7786E-02  1.6053E-02  2.3712E-02
 10  5.1119E-02  3.7016E-02  4.0243E-02  3.6575E-02  3.8532E-02  3.6425E-02  3.6961E-02  4.4782E-02  3.7491E-02
 11  1.8585E-01  1.7172E-01  1.7715E-01  1.7053E-01  1.7033E-01  1.7529E-01  1.7643E-01  1.8013E-01  1.7103E-01
 12  0.0000E+00  2.2696E-03  0.0000E+00  1.4259E-03  0.0000E+00  0.0000E+00  0.0000E+00  0.0000E+00  7.5688E-03
 13  0.0000E+00  2.3242E-03  7.2546E-03  0.0000E+00  0.0000E+00  9.2333E-03  0.0000E+00  0.0000E+00  0.0000E+00
 14  0.0000E+00  4.6332E-03  0.0000E+00  2.0031E-02  1.9670E-02  0.0000E+00  0.0000E+00  0.0000E+00  0.0000E+00
 15  0.0000E+00  2.8725E-03  4.5281E-03  4.8594E-03  1.0404E-02  0.0000E+00  4.4951E-03  0.0000E+00  0.0000E+00
 16  0.0000E+00  5.4256E-03  2.7579E-03  0.0000E+00  0.0000E+00  0.0000E+00  0.0000E+00  3.0173E-03  0.0000E+00
 17  0.0000E+00  1.1259E-02  0.0000E+00  0.0000E+00  8.9560E-04  4.7505E-03  0.0000E+00  1.6342E-02  9.3672E-03
 18  0.0000E+00  3.7879E-02  1.2474E-01  0.0000E+00  0.0000E+00  4.0135E-03  0.0000E+00  2.7476E-02  0.0000E+00
 19  0.0000E+00  1.2091E-01  0.0000E+00  0.0000E+00  0.0000E+00  0.0000E+00  0.0000E+00  0.0000E+00  0.0000E+00
 20  0.0000E+00  1.1351E-01  0.0000E+00  1.0714E-02  7.2605E-02  1.6366E-02  4.5828E-02  1.5655E-01  0.0000E+00
 21  3.3657E-01  3.3565E-01  3.1720E-01  6.6356E-01  1.0446E+00  1.9248E-01  2.6065E-01  3.7314E-01  1.1441E-01
 22  5.8281E-01  3.7069E-01  0.0000E+00  1.0635E+00  1.4519E+00  2.1845E-01  0.0000E+00  1.2812E+00  2.0750E-01
 23  7.4353E-01  4.9177E-01  2.1741E-01  8.8015E-02  0.0000E+00  9.0281E-01  4.0416E-01  5.6839E-01  0.0000E+00
 24  8.6411E+00  1.0627E+01  1.0885E+01  9.9685E+00  9.6879E+00  1.0240E+01  1.1568E+01  1.1132E+01  9.8368E+00
 25  2.9410E+01  2.6611E+01  2.7098E+01  2.7481E+01  2.6698E+01  2.6906E+01  2.7101E+01  2.6287E+01  2.7059E+01
 26  0.0000E+00  8.9164E-05  4.3090E-04  2.2771E-04  1.4810E-05  0.0000E+00  0.0000E+00  0.0000E+00  5.2051E-04
 27  0.0000E+00  1.0792E-04  0.0000E+00  0.0000E+00  0.0000E+00  4.3394E-04  0.0000E+00  3.0942E-04  0.0000E+00
 28  0.0000E+00  2.2834E-04  0.0000E+00  0.0000E+00  0.0000E+00  0.0000E+00  1.3169E-04  2.9652E-04  0.0000E+00
 29  0.0000E+00  1.3484E-04  0.0000E+00  2.2705E-04  1.7673E-04  0.0000E+00  0.0000E+00  9.1625E-05  6.0883E-04
 30  0.0000E+00  1.0631E-04  6.4913E-05  0.0000E+00  0.0000E+00  0.0000E+00  0.0000E+00  0.0000E+00  3.4505E-04
 31  0.0000E+00  2.6597E-04  0.0000E+00  0.0000E+00  0.0000E+00  0.0000E+00  0.0000E+00  0.0000E+00  0.0000E+00
 32  0.0000E+00  4.6866E-04  0.0000E+00  0.0000E+00  1.4954E-03  0.0000E+00  0.0000E+00  0.0000E+00  0.0000E+00
 33  0.0000E+00  9.3325E-04  3.8773E-04  0.0000E+00  0.0000E+00  9.7227E-03  3.5257E-03  0.0000E+00  0.0000E+00
 34  0.0000E+00  2.2599E-03  4.4149E-03  3.3834E-03  6.6272E-03  2.5507E-03  5.7289E-03  9.3753E-04  5.5138E-04
 35  4.4987E-03  3.2509E-03  6.5948E-03  1.4757E-03  2.0302E-03  1.0328E-03  0.0000E+00  7.2780E-03  0.0000E+00
 36  8.0898E-02  7.9771E-02  7.5397E-02  7.6495E-02  7.7817E-02  9.4260E-02  9.6219E-02  7.2345E-02  8.2241E-02
 37  0.0000E+00  5.7426E-03  9.5415E-03  1.0083E-02  1.1561E-02  0.0000E+00  8.6488E-03  5.7692E-03  5.8125E-03
 38  0.0000E+00  4.8914E-03  1.9666E-02  0.0000E+00  0.0000E+00  0.0000E+00  1.3491E-02  7.9218E-03  1.8157E-02
 39  0.0000E+00  2.9524E-03  3.2935E-04  3.7988E-03  1.5852E-02  0.0000E+00  0.0000E+00  0.0000E+00  0.0000E+00
 40  0.0000E+00  2.7551E-03  2.5816E-03  0.0000E+00  5.8347E-03  0.0000E+00  0.0000E+00  0.0000E+00  0.0000E+00
 41  0.0000E+00  1.2743E-02  0.0000E+00  0.0000E+00  0.0000E+00  0.0000E+00  0.0000E+00  2.3704E-02  0.0000E+00
 42  0.0000E+00  2.5425E-02  0.0000E+00  0.0000E+00  0.0000E+00  1.3760E-02  0.0000E+00  5.4732E-02  1.4612E-01
 43  1.4927E+01  1.3992E+01  1.4027E+01  1.4206E+01  1.3877E+01  1.4402E+01  1.3891E+01  1.4231E+01  1.4380E+01
 44  1.5291E+01  1.4532E+01  1.4972E+01  1.4529E+01  1.4422E+01  1.4853E+01  1.4563E+01  1.4450E+01  1.4614E+01
 45  3.2041E+00  3.6155E+00  3.6417E+00  3.9156E+00  3.4631E+00  3.6896E+00  3.6313E+00  4.0837E+00  3.5875E+00
 46  0.0000E+00  9.2633E-02  2.4598E-01  1.0263E-01  3.2374E-01  8.9329E-04  6.7708E-02  0.0000E+00  2.3714E-03
 47  0.0000E+00  4.1374E-02  0.0000E+00  0.0000E+00  0.0000E+00  0.0000E+00  0.0000E+00  0.0000E+00  0.0000E+00
 48  7.2413E+00  9.1914E+00  8.6336E+00  8.5783E+00  9.0514E+00  9.9644E+00  9.1701E+00  9.0160E+00  9.8259E+00
 49  0.0000E+00  3.9495E-01  0.0000E+00  5.3874E-01  4.5706E-01  1.8109E-01  3.4743E-01  0.0000E+00  3.5018E-01
 50  1.9201E+01  1.8100E+01  1.8500E+01  1.8393E+01  1.8365E+01  1.7827E+01  1.8512E+01  1.7833E+01  1.8790E+01
 51  0.0000E+00  4.9285E-05  0.0000E+00  0.0000E+00  0.0000E+00  0.0000E+00  0.0000E+00  0.0000E+00  0.0000E+00
 52  0.0000E+00  3.8293E-04  5.6299E-04  8.6475E-04  3.9004E-04  4.2437E-04  1.8067E-04  2.6806E-04  1.5311E-04
 53  0.0000E+00  5.3026E-05  0.0000E+00  0.0000E+00  0.0000E+00  0.0000E+00  0.0000E+00  0.0000E+00  0.0000E+00
 54  0.0000E+00  3.8735E-04  1.0858E-03  6.1731E-04  9.8006E-05  0.0000E+00  0.0000E+00  7.8363E-04  0.0000E+00
 55  0.0000E+00  1.6336E-04  0.0000E+00  4.6535E-04  3.5189E-05  0.0000E+00  0.0000E+00  0.0000E+00  2.0513E-04
 56  0.0000E+00  1.7615E-04  0.0000E+00  0.0000E+00  0.0000E+00  0.0000E+00  0.0000E+00  0.0000E+00  2.2097E-04
 57  0.0000E+00  1.3073E-04  0.0000E+00  0.0000E+00  0.0000E+00  0.0000E+00  0.0000E+00  0.0000E+00  0.0000E+00
 58  0.0000E+00  3.6452E-04  2.6922E-04  2.0031E-03  9.2438E-04  1.3226E-04  3.4502E-03  0.0000E+00  0.0000E+00
 59  0.0000E+00  5.4057E-04  0.0000E+00  0.0000E+00  0.0000E+00  2.9811E-03  1.7588E-03  0.0000E+00  0.0000E+00
 60  0.0000E+00  6.8312E-04  3.8969E-04  0.0000E+00  0.0000E+00  0.0000E+00  0.0000E+00  0.0000E+00  0.0000E+00
 61  0.0000E+00  1.7317E-03  0.0000E+00  0.0000E+00  1.6457E-03  6.0092E-03  0.0000E+00  0.0000E+00  0.0000E+00
 62  0.0000E+00  1.7059E-03  0.0000E+00  8.2560E-03  7.2069E-04  7.2918E-03  0.0000E+00  0.0000E+00  0.0000E+00
 63  0.0000E+00  1.5142E-03  0.0000E+00  0.0000E+00  0.0000E+00  0.0000E+00  0.0000E+00  0.0000E+00  4.9696E-04
 64  0.0000E+00  6.2598E-03  1.6896E-03  0.0000E+00  2.9687E-02  3.9763E-03  0.0000E+00  2.7675E-02  0.0000E+00
 65  0.0000E+00  8.3082E-03  0.0000E+00  0.0000E+00  0.0000E+00  0.0000E+00  0.0000E+00  1.9278E-02  0.0000E+00
 66  0.0000E+00  2.2034E-03  0.0000E+00  0.0000E+00  0.0000E+00  0.0000E+00  0.0000E+00  0.0000E+00  0.0000E+00
 67  0.0000E+00  4.0136E-03  0.0000E+00  0.0000E+00  0.0000E+00  0.0000E+00  0.0000E+00  0.0000E+00  0.0000E+00
 68  0.0000E+00  4.1306E-03  6.2719E-04  0.0000E+00  0.0000E+00  0.0000E+00  0.0000E+00  0.0000E+00  0.0000E+00
 69  0.0000E+00  7.7636E-03  0.0000E+00  0.0000E+00  0.0000E+00  0.0000E+00  0.0000E+00  0.0000E+00  0.0000E+00
 70  0.0000E+00  7.7320E-03  0.0000E+00  0.0000E+00  0.0000E+00  0.0000E+00  0.0000E+00  0.0000E+00  1.0974E-02
 71  0.0000E+00  1.3718E-02  0.0000E+00  0.0000E+00  0.0000E+00  0.0000E+00  0.0000E+00  0.0000E+00  0.0000E+00
 72  0.0000E+00  8.4534E-03  0.0000E+00  0.0000E+00  1.6888E-02  0.0000E+00  0.0000E+00  0.0000E+00  0.0000E+00
 73  0.0000E+00  1.2419E-02  0.0000E+00  0.0000E+00  0.0000E+00  0.0000E+00  0.0000E+00  0.0000E+00  0.0000E+00
 74  0.0000E+00  1.3482E-02  0.0000E+00  0.0000E+00  0.0000E+00  0.0000E+00  0.0000E+00  0.0000E+00  1.7599E-01
 75  0.0000E+00  2.6213E-02  0.0000E+00  0.0000E+00  0.0000E+00  0.0000E+00  0.0000E+00  0.0000E+00  0.0000E+00
 76  0.0000E+00  8.5392E-05  0.0000E+00  0.0000E+00  4.8442E-05  0.0000E+00  0.0000E+00  0.0000E+00  0.0000E+00
 77  0.0000E+00  2.8527E-05  3.1008E-04  0.0000E+00  5.4264E-05  0.0000E+00  0.0000E+00  0.0000E+00  0.0000E+00
 78  0.0000E+00  3.2342E-05  0.0000E+00  2.9905E-05  0.0000E+00  1.1082E-05  0.0000E+00  0.0000E+00  0.0000E+00
 79  0.0000E+00  4.9209E-05  0.0000E+00  0.0000E+00  0.0000E+00  0.0000E+00  0.0000E+00  0.0000E+00  0.0000E+00
 80  0.0000E+00  9.1278E-05  1.2220E-03  0.0000E+00  4.5675E-04  0.0000E+00  5.3033E-04  0.0000E+00  0.0000E+00
 81  0.0000E+00  1.4427E-04  2.4658E-04  3.2100E-06  2.3639E-03  0.0000E+00  0.0000E+00  0.0000E+00  0.0000E+00
 82  0.0000E+00  1.8389E-04  1.2611E-03  0.0000E+00  8.8685E-04  0.0000E+00  0.0000E+00  4.6768E-04  0.0000E+00
 83  0.0000E+00  2.5509E-03  2.4476E-03  1.6530E-03  3.0324E-03  2.2666E-03  0.0000E+00  1.7100E-03  2.9744E-03
 84  0.0000E+00  2.0222E-03  0.0000E+00  0.0000E+00  0.0000E+00  1.8163E-03  0.0000E+00  3.7841E-03  0.0000E+00
 85  0.0000E+00  2.2855E-03  2.9134E-03  8.7448E-03  0.0000E+00  0.0000E+00  4.7721E-04  0.0000E+00  0.0000E+00
 86  0.0000E+00  1.3008E-03  0.0000E+00  0.0000E+00  0.0000E+00  0.0000E+00  0.0000E+00  6.2829E-03  0.0000E+00
 87  0.0000E+00  1.3816E-03  0.0000E+00  0.0000E+00  0.0000E+00  0.0000E+00  0.0000E+00  0.0000E+00  0.0000E+00
 88  0.0000E+00  7.7915E-04  0.0000E+00  0.0000E+00  0.0000E+00  0.0000E+00  0.0000E+00  0.0000E+00  0.0000E+00
 89  0.0000E+00  1.1523E-03  0.0000E+00  4.5397E-05  0.0000E+00  0.0000E+00  0.0000E+00  0.0000E+00  0.0000E+00
 90  0.0000E+00  1.2715E-03  0.0000E+00  4.2338E-03  0.0000E+00  0.0000E+00  0.0000E+00  0.0000E+00  0.0000E+00
 91  0.0000E+00  1.0353E-03  0.0000E+00  0.0000E+00  0.0000E+00  0.0000E+00  0.0000E+00  0.0000E+00  0.0000E+00
 92  0.0000E+00  1.9061E-03  0.0000E+00  0.0000E+00  0.0000E+00  0.0000E+00  0.0000E+00  0.0000E+00  0.0000E+00
 93  0.0000E+00  3.8702E-03  0.0000E+00  0.0000E+00  0.0000E+00  0.0000E+00  0.0000E+00  0.0000E+00  0.0000E+00
 94  0.0000E+00  7.4835E-03  0.0000E+00  0.0000E+00  0.0000E+00  0.0000E+00  0.0000E+00  0.0000E+00  0.0000E+00
 95  0.0000E+00  8.1452E-03  0.0000E+00  0.0000E+00  0.0000E+00  0.0000E+00  0.0000E+00  0.0000E+00  0.0000E+00
 96  0.0000E+00  7.9236E-03  0.0000E+00  0.0000E+00  0.0000E+00  0.0000E+00  0.0000E+00  0.0000E+00  0.0000E+00
 97  0.0000E+00  1.2403E-02  0.0000E+00  0.0000E+00  0.0000E+00  7.1898E-02  0.0000E+00  0.0000E+00  0.0000E+00
 98  0.0000E+00  1.1226E-02  0.0000E+00  0.0000E+00  0.0000E+00  0.0000E+00  0.0000E+00  0.0000E+00  0.0000E+00
 99  0.0000E+00  1.9022E-02  0.0000E+00  0.0000E+00  0.0000E+00  0.0000E+00  0.0000E+00  0.0000E+00  0.0000E+00
100  0.0000E+00  1.8707E-02  0.0000E+00  0.0000E+00  0.0000E+00  0.0000E+00  0.0000E+00  0.0000E+00  0.0000E+00
101  0.0000E+00  3.2880E-05  0.0000E+00  0.0000E+00  0.0000E+00  0.0000E+00  0.0000E+00  0.0000E+00  0.0000E+00
102  0.0000E+00  3.8122E-05  0.0000E+00  9.3329E-07  0.0000E+00  0.0000E+00  0.0000E+00  0.0000E+00  0.0000E+00
103  0.0000E+00  4.7655E-05  1.4474E-04  0.0000E+00  0.0000E+00  1.1320E-05  0.0000E+00  0.0000E+00  1.9352E-04
104  0.0000E+00  1.0612E-04  0.0000E+00  0.0000E+00  0.0000E+00  0.0000E+00  0.0000E+00  0.0000E+00  3.4568E-06
105  0.0000E+00  4.1635E-04  2.9004E-04  1.9104E-03  0.0000E+00  0.0000E+00  2.2719E-03  1.1557E-03  0.0000E+00
106  0.0000E+00  2.3870E-04  7.6081E-04  9.2421E-04  0.0000E+00  4.5393E-05  0.0000E+00  0.0000E+00  0.0000E+00
107  0.0000E+00  1.9839E-04  0.0000E+00  1.3789E-04  1.2933E-04  0.0000E+00  0.0000E+00  0.0000E+00  0.0000E+00
108  0.0000E+00  2.3819E-04  0.0000E+00  0.0000E+00  0.0000E+00  0.0000E+00  0.0000E+00  0.0000E+00  0.0000E+00
109  0.0000E+00  3.4329E-04  0.0000E+00  0.0000E+00  1.3283E-04  0.0000E+00  0.0000E+00  0.0000E+00  0.0000E+00
110  0.0000E+00  7.6003E-04  0.0000E+00  2.1982E-04  2.2601E-04  1.5874E-03  2.4812E-03  0.0000E+00  0.0000E+00
111  0.0000E+00  7.3164E-04  0.0000E+00  4.7565E-03  0.0000E+00  0.0000E+00  0.0000E+00  0.0000E+00  0.0000E+00
112  0.0000E+00  1.4089E-03  5.5010E-03  2.1426E-03  0.0000E+00  0.0000E+00  0.0000E+00  0.0000E+00  1.0401E-03
113  0.0000E+00  1.3557E-03  0.0000E+00  0.0000E+00  0.0000E+00  0.0000E+00  0.0000E+00  0.0000E+00  5.4839E-03
114  0.0000E+00  7.1642E-04  0.0000E+00  7.7958E-03  0.0000E+00  0.0000E+00  0.0000E+00  0.0000E+00  0.0000E+00
115  0.0000E+00  1.4648E-03  0.0000E+00  0.0000E+00  0.0000E+00  0.0000E+00  0.0000E+00  0.0000E+00  0.0000E+00
116  0.0000E+00  2.2679E-03  0.0000E+00  0.0000E+00  0.0000E+00  0.0000E+00  0.0000E+00  0.0000E+00  0.0000E+00
117  0.0000E+00  1.7744E-03  0.0000E+00  0.0000E+00  0.0000E+00  3.3665E-02  0.0000E+00  0.0000E+00  0.0000E+00
118  0.0000E+00  4.3502E-03  0.0000E+00  0.0000E+00  0.0000E+00  0.0000E+00  0.0000E+00  0.0000E+00  0.0000E+00
119  0.0000E+00  8.7657E-03  0.0000E+00  0.0000E+00  6.1547E-02  0.0000E+00  0.0000E+00  0.0000E+00  0.0000E+00
120  0.0000E+00  9.0061E-03  0.0000E+00  0.0000E+00  0.0000E+00  0.0000E+00  0.0000E+00  0.0000E+00  0.0000E+00
121  0.0000E+00  6.5251E-03  0.0000E+00  0.0000E+00  0.0000E+00  0.0000E+00  0.0000E+00  0.0000E+00  0.0000E+00
122  0.0000E+00  7.5752E-03  0.0000E+00  2.5706E-03  0.0000E+00  0.0000E+00  0.0000E+00  0.0000E+00  0.0000E+00
123  0.0000E+00  4.3897E-03  0.0000E+00  0.0000E+00  0.0000E+00  0.0000E+00  0.0000E+00  0.0000E+00  0.0000E+00
124  0.0000E+00  2.1331E-02  0.0000E+00  0.0000E+00  0.0000E+00  0.0000E+00  0.0000E+00  0.0000E+00  0.0000E+00
125  0.0000E+00  1.5947E-02  1.5449E-01  0.0000E+00  0.0000E+00  0.0000E+00  0.0000E+00  0.0000E+00  0.0000E+00
126  0.0000E+00  2.5589E-05  2.1902E-04  0.0000E+00  0.0000E+00  0.0000E+00  0.0000E+00  0.0000E+00  0.0000E+00
127  0.0000E+00  3.7851E-05  0.0000E+00  0.0000E+00  0.0000E+00  0.0000E+00  0.0000E+00  0.0000E+00  0.0000E+00
128  0.0000E+00  7.6335E-05  3.8771E-05  0.0000E+00  0.0000E+00  8.8621E-05  0.0000E+00  0.0000E+00  0.0000E+00
129  0.0000E+00  1.3482E-04  0.0000E+00  0.0000E+00  1.0531E-04  0.0000E+00  0.0000E+00  0.0000E+00  0.0000E+00
130  0.0000E+00  6.1046E-05  0.0000E+00  0.0000E+00  0.0000E+00  0.0000E+00  0.0000E+00  1.1365E-03  8.9182E-04
131  0.0000E+00  6.7780E-05  0.0000E+00  0.0000E+00  0.0000E+00  0.0000E+00  0.0000E+00  0.0000E+00  0.0000E+00
132  0.0000E+00  1.3972E-04  0.0000E+00  0.0000E+00  0.0000E+00  0.0000E+00  0.0000E+00  1.6166E-05  0.0000E+00
133  0.0000E+00  1.4721E-04  1.0802E-04  0.0000E+00  1.4027E-03  0.0000E+00  0.0000E+00  0.0000E+00  7.5808E-05
134  0.0000E+00  5.2780E-04  0.0000E+00  0.0000E+00  0.0000E+00  0.0000E+00  0.0000E+00  0.0000E+00  0.0000E+00
135  0.0000E+00  6.4497E-04  1.7734E-03  0.0000E+00  0.0000E+00  0.0000E+00  7.9081E-05  0.0000E+00  4.4927E-04
136  0.0000E+00  8.5861E-04  0.0000E+00  3.6410E-03  3.7649E-03  0.0000E+00  0.0000E+00  0.0000E+00  0.0000E+00
137  0.0000E+00  9.9557E-04  0.0000E+00  0.0000E+00  0.0000E+00  1.2317E-04  1.4623E-03  0.0000E+00  0.0000E+00
138  0.0000E+00  1.4080E-03  0.0000E+00  0.0000E+00  0.0000E+00  0.0000E+00  0.0000E+00  0.0000E+00  2.7616E-03
139  0.0000E+00  1.5854E-03  0.0000E+00  0.0000E+00  0.0000E+00  0.0000E+00  0.0000E+00  0.0000E+00  0.0000E+00
140  0.0000E+00  2.5302E-03  0.0000E+00  0.0000E+00  0.0000E+00  0.0000E+00  0.0000E+00  0.0000E+00  0.0000E+00
141  0.0000E+00  2.1141E-03  0.0000E+00  0.0000E+00  0.0000E+00  0.0000E+00  0.0000E+00  0.0000E+00  0.0000E+00
142  0.0000E+00  2.1688E-03  0.0000E+00  0.0000E+00  0.0000E+00  0.0000E+00  0.0000E+00  0.0000E+00  0.0000E+00
143  0.0000E+00  6.8683E-03  0.0000E+00  0.0000E+00  0.0000E+00  0.0000E+00  0.0000E+00  0.0000E+00  0.0000E+00
144  0.0000E+00  1.7924E-02  0.0000E+00  0.0000E+00  5.4513E-02  0.0000E+00  0.0000E+00  0.0000E+00  0.0000E+00
145  0.0000E+00  2.7349E-02  0.0000E+00  0.0000E+00  0.0000E+00  3.6704E-02  0.0000E+00  0.0000E+00  0.0000E+00
146  0.0000E+00  3.0018E-02  0.0000E+00  0.0000E+00  0.0000E+00  0.0000E+00  0.0000E+00  0.0000E+00  4.6031E-01
147  0.0000E+00  1.3043E-01  2.0467E-01  0.0000E+00  0.0000E+00  0.0000E+00  0.0000E+00  0.0000E+00  0.0000E+00
148  0.0000E+00  5.5365E-02  0.0000E+00  0.0000E+00  0.0000E+00  0.0000E+00  0.0000E+00  0.0000E+00  0.0000E+00
149  0.0000E+00  2.1146E-01  5.2843E-01  0.0000E+00  4.6022E-01  0.0000E+00  0.0000E+00  0.0000E+00  0.0000E+00
150  0.0000E+00  6.0311E-02  0.0000E+00  0.0000E+00  0.0000E+00  0.0000E+00  0.0000E+00  0.0000E+00  0.0000E+00

# AV, chi2 & Mass for <> & i_chain = 1 ...  7 solutions
AV       0.7403      0.7221      0.7272      0.7255      0.7255      0.7280      0.7235      0.7299      0.7265
chi2 2.5972E+00  2.6714E+00  2.6464E+00  2.6479E+00  2.6552E+00  2.6423E+00  2.6495E+00  2.6350E+00  2.6417E+00
Mass 1.1110E-10  1.1211E-10  1.1243E-10  1.1173E-10  1.1249E-10  1.1139E-10  1.1281E-10  1.1141E-10  1.1131E-10
 -17.98                                  [v0_min (km/s) before EX0s...]
  67.87                                  [vd_min (km/s) before EX0s...]


## Synthetic spectrum (Best Model) ##l_obs f_obs f_syn wei
 3070    [Nl_obs]
 3359.00    0.27666   0.44847   -1.000
 3360.00    0.26890   0.44216   -1.000
 3361.00    0.26614   0.45247   -1.000
 3362.00    0.27359   0.47261   -1.000
 3363.00    0.29860   0.49303   -1.000
 3364.00    0.28461   0.50324   -1.000
 3365.00    0.29166   0.50091   -1.000
 3366.00    0.33225   0.49413   -1.000
 3367.00    0.33662   0.48791   -1.000
 3368.00    0.32895   0.48176   -1.000
 3369.00    0.31916   0.47350   -1.000
 3370.00    0.30202   0.46247   -1.000
 3371.00    0.30661   0.45499   -1.000
 3372.00    0.31927   0.45757   -1.000
 3373.00    0.30221   0.47066   -1.000
 3374.00    0.31978   0.48847   -1.000
 3375.00    0.36004   0.50414   -1.000
 3376.00    0.36297   0.51105   -1.000
 3377.00    0.35897   0.50792   -1.000
 3378.00    0.39011   0.49989   -1.000
 3379.00    0.36054   0.49513   -1.000
 3380.00    0.35099   0.49712   -1.000
 3381.00    0.37684   0.50288   -1.000
 3382.00    0.39137   0.50835   -1.000
 3383.00    0.38651   0.51213   -1.000
 3384.00    0.37665   0.51485   -1.000
 3385.00    0.38537   0.51570   -1.000
 3386.00    0.41295   0.51152   -1.000
 3387.00    0.40959   0.50513   -1.000
 3388.00    0.39222   0.50349   -1.000
 3389.00    0.41670   0.50836   -1.000
 3390.00    0.42425   0.51519   -1.000
 3391.00    0.42368   0.51823   -1.000
 3392.00    0.41992   0.51556   -1.000
 3393.00    0.42232   0.51385   -1.000
 3394.00    0.44440   0.51832   -1.000
 3395.00    0.43766   0.52735   -1.000
 3396.00    0.42276   0.53712   -1.000
 3397.00    0.43468   0.54453   -1.000
 3398.00    0.44030   0.54781   -1.000
 3399.00    0.45260   0.54540   -1.000
 3400.00    0.45833   0.53849   -1.000
 3401.00    0.44356   0.52785   -1.000
 3402.00    0.45254   0.51608   -1.000
 3403.00    0.44031   0.50928   -1.000
 3404.00    0.41128   0.50844   -1.000
 3405.00    0.42133   0.51089   -1.000
 3406.00    0.42792   0.51086   -1.000
 3407.00    0.41366   0.50745   -1.000
 3408.00    0.39747   0.50453   -1.000
 3409.00    0.40540   0.50615   -1.000
 3410.00    0.43739   0.50993   -1.000
 3411.00    0.45351   0.50984   -1.000
 3412.00    0.45811   0.50677   -1.000
 3413.00    0.43775   0.50457   -1.000
 3414.00    0.43160   0.50768   -1.000
 3415.00    0.44340   0.51588   -1.000
 3416.00    0.44139   0.52457   -1.000
 3417.00    0.44099   0.53175   -1.000
 3418.00    0.46621   0.53787   -1.000
 3419.00    0.45360   0.54305   -1.000
 3420.00    0.45659   0.54600   -1.000
 3421.00    0.47332   0.54323   -1.000
 3422.00    0.45850   0.53406   -1.000
 3423.00    0.45796   0.52463   -1.000
 3424.00    0.46217   0.52117   -1.000
 3425.00    0.44345   0.52397   -1.000
 3426.00    0.45644   0.53013   -1.000
 3427.00    0.47891   0.53906   -1.000
 3428.00    0.48551   0.55016   -1.000
 3429.00    0.47176   0.55906   -1.000
 3430.00    0.48253   0.55852   -1.000
 3431.00    0.48335   0.54765   -1.000
 3432.00    0.49385   0.53625   -1.000
 3433.00    0.50261   0.53404   -1.000
 3434.00    0.48369   0.54247   -1.000
 3435.00    0.48585   0.55263   -1.000
 3436.00    0.49007   0.55468   -1.000
 3437.00    0.48145   0.54760   -1.000
 3438.00    0.48317   0.53600   -1.000
 3439.00    0.47040   0.52305   -1.000
 3440.00    0.45955   0.50995   -1.000
 3441.00    0.45944   0.49898   -1.000
 3442.00    0.46353   0.49401   75.064
 3443.00    0.45346   0.49611   70.924
 3444.00    0.46064   0.50381   67.564
 3445.00    0.46857   0.51580   -1.000
 3446.00    0.47875   0.53135   -1.000
 3447.00    0.50961   0.54721   -1.000
 3448.00    0.51451   0.55852   -1.000
 3449.00    0.50831   0.55915   -1.000
 3450.00    0.51281   0.54690   -1.000
 3451.00    0.49334   0.53037   -1.000
 3452.00    0.49525   0.51997   -1.000
 3453.00    0.49669   0.51888   -1.000
 3454.00    0.49617   0.52396   -1.000
 3455.00    0.50838   0.52981   -1.000
 3456.00    0.53483   0.53255  143.216
 3457.00    0.51691   0.53092   64.795
 3458.00    0.50963   0.52566   65.163
 3459.00    0.51147   0.51860   99.514
 3460.00    0.50414   0.51220   -1.000
 3461.00    0.50827   0.51160  505.286
 3462.00    0.51442   0.51861  505.286
 3463.00    0.52294   0.52678  505.286
 3464.00    0.52781   0.52928  505.286
 3465.00    0.52220   0.52784  505.286
 3466.00    0.51237   0.52938   -1.000
 3467.00    0.52347   0.53663   -1.000
 3468.00    0.54775   0.54709  505.286
 3469.00    0.56583   0.55578   -1.000
 3470.00    0.56972   0.55843   -1.000
 3471.00    0.56227   0.55414   -1.000
 3472.00    0.55736   0.54417  141.140
 3473.00    0.54239   0.53036   65.955
 3474.00    0.52488   0.51808   66.847
 3475.00    0.51688   0.51230  102.368
 3476.00    0.50938   0.51493  505.286
 3477.00    0.51031   0.52392   -1.000
 3478.00    0.51846   0.53385   -1.000
 3479.00    0.53036   0.54277   -1.000
 3480.00    0.54740   0.54965  505.286
 3481.00    0.54929   0.55126  505.286
 3482.00    0.52493   0.54787   -1.000
 3483.00    0.52516   0.54418   -1.000
 3484.00    0.53247   0.54555   -1.000
 3485.00    0.52754   0.55286   -1.000
 3486.00    0.53478   0.55973   -1.000
 3487.00    0.55616   0.56024  505.286
 3488.00    0.55777   0.55379  505.286
 3489.00    0.53612   0.54353   -1.000
 3490.00    0.50478   0.53664   -1.000
 3491.00    0.51698   0.53806   -1.000
 3492.00    0.53476   0.54351   -1.000
 3493.00    0.53266   0.54504   -1.000
 3494.00    0.52756   0.54035   -1.000
 3495.00    0.52364   0.53210   -1.000
 3496.00    0.51276   0.52693   -1.000
 3497.00    0.51347   0.52891   -1.000
 3498.00    0.53470   0.53465  505.286
 3499.00    0.56888   0.53921   -1.000
 3500.00    0.57398   0.53933   -1.000
 3501.00    0.54867   0.53856   -1.000
 3502.00    0.54595   0.54056  505.286
 3503.00    0.54589   0.54254  505.286
 3504.00    0.54448   0.54129  505.286
 3505.00    0.55655   0.53672   -1.000
 3506.00    0.55692   0.53188   -1.000
 3507.00    0.56186   0.52920   -1.000
 3508.00    0.55055   0.52921   -1.000
 3509.00    0.53557   0.53065  505.286
 3510.00    0.53952   0.53075   -1.000
 3511.00    0.53869   0.52840   -1.000
 3512.00    0.53818   0.52417   -1.000
 3513.00    0.53426   0.52125   -1.000
 3514.00    0.53082   0.52356   -1.000
 3515.00    0.54121   0.53319   -1.000
 3516.00    0.56807   0.54741   -1.000
 3517.00    0.58460   0.55775   -1.000
 3518.00    0.58506   0.55787   -1.000
 3519.00    0.57078   0.54900   -1.000
 3520.00    0.54874   0.53873   -1.000
 3521.00    0.55218   0.53186  131.611
 3522.00    0.55446   0.52739   65.420
 3523.00    0.52784   0.52207   66.568
 3524.00    0.51104   0.51549  108.136
 3525.00    0.50814   0.51268  505.286
 3526.00    0.51238   0.51760  505.286
 3527.00    0.52603   0.52813  505.286
 3528.00    0.54702   0.54090   -1.000
 3529.00    0.56747   0.55224   -1.000
 3530.00    0.56300   0.55967  505.286
 3531.00    0.56534   0.56196  505.286
 3532.00    0.56462   0.55743   -1.000
 3533.00    0.55609   0.54823   -1.000
 3534.00    0.56277   0.54133   -1.000
 3535.00    0.56048   0.54255   -1.000
 3536.00    0.55893   0.55193   -1.000
 3537.00    0.56792   0.56316  505.286
 3538.00    0.57015   0.57122  505.286
 3539.00    0.56740   0.57509   -1.000
 3540.00    0.55926   0.57536   -1.000
 3541.00    0.55649   0.57421   -1.000
 3542.00    0.54791   0.57485   -1.000
 3543.00    0.55934   0.57827   -1.000
 3544.00    0.57358   0.58095   -1.000
 3545.00    0.55600   0.58039   -1.000
 3546.00    0.56460   0.57798   -1.000
 3547.00    0.56735   0.57585   -1.000
 3548.00    0.54793   0.57541   -1.000
 3549.00    0.55042   0.57712   -1.000
 3550.00    0.55346   0.58037   -1.000
 3551.00    0.54358   0.58189   -1.000
 3552.00    0.54744   0.57819   -1.000
 3553.00    0.55032   0.57106   -1.000
 3554.00    0.54165   0.56629   -1.000
 3555.00    0.53490   0.56726   -1.000
 3556.00    0.53216   0.57299   -1.000
 3557.00    0.54490   0.58001   -1.000
 3558.00    0.54638   0.58403   -1.000
 3559.00    0.54164   0.58447   -1.000
 3560.00    0.54445   0.58387   -1.000
 3561.00    0.54273   0.58329   -1.000
 3562.00    0.54897   0.58021   -1.000
 3563.00    0.56951   0.57169   66.294
 3564.00    0.57469   0.55855   67.388
 3565.00    0.54183   0.54571   66.777
 3566.00    0.51736   0.53832   67.629
 3567.00    0.50642   0.53700   69.469
 3568.00    0.51033   0.53745   69.092
 3569.00    0.52149   0.53422   66.456
 3570.00    0.51219   0.52654  111.163
 3571.00    0.50804   0.51938   -1.000
 3572.00    0.51712   0.51698  505.286
 3573.00    0.52063   0.51876  505.286
 3574.00    0.51254   0.52337   -1.000
 3575.00    0.51812   0.53003   -1.000
 3576.00    0.53711   0.53709  128.124
 3577.00    0.54415   0.54275   69.701
 3578.00    0.54891   0.54439   74.482
 3579.00    0.54264   0.54015   76.848
 3580.00    0.52592   0.53209   77.237
 3581.00    0.51403   0.52425   78.329
 3582.00    0.51206   0.52039   80.612
 3583.00    0.51757   0.51963   82.557
 3584.00    0.50462   0.51524   81.079
 3585.00    0.48978   0.50443   76.830
 3586.00    0.49246   0.49342   72.918
 3587.00    0.49280   0.49072   67.870
 3588.00    0.50502   0.49904  112.543
 3589.00    0.53080   0.51418   -1.000
 3590.00    0.53964   0.52874   -1.000
 3591.00    0.52663   0.53801   -1.000
 3592.00    0.52485   0.54196   -1.000
 3593.00    0.54912   0.54421  505.286
 3594.00    0.56474   0.54863   -1.000
 3595.00    0.57180   0.55585   -1.000
 3596.00    0.57343   0.56313   -1.000
 3597.00    0.56972   0.56819  486.117
 3598.00    0.58743   0.57081   -1.000
 3599.00    0.58596   0.57112   -1.000
 3600.00    0.56698   0.56729  505.286
 3601.00    0.56062   0.55916  505.286
 3602.00    0.56326   0.55091   -1.000
 3603.00    0.56333   0.54668   -1.000
 3604.00    0.55437   0.54778   -1.000
 3605.00    0.55533   0.55024  505.286
 3606.00    0.55125   0.54995  505.286
 3607.00    0.55019   0.54706  505.286
 3608.00    0.54851   0.54378  505.286
 3609.00    0.54509   0.54194  505.286
 3610.00    0.55226   0.54184   -1.000
 3611.00    0.55466   0.54388   -1.000
 3612.00    0.55370   0.54778   -1.000
 3613.00    0.55073   0.55297  505.286
 3614.00    0.55568   0.56084  505.286
 3615.00    0.56565   0.56912  505.286
 3616.00    0.56423   0.57105  117.007
 3617.00    0.54697   0.56442  115.334
 3618.00    0.52584   0.55373   -1.000
 3619.00    0.52850   0.54791   -1.000
 3620.00    0.53448   0.55192   -1.000
 3621.00    0.54168   0.56171   -1.000
 3622.00    0.56115   0.57100   -1.000
 3623.00    0.56682   0.57728   -1.000
 3624.00    0.57755   0.58369  457.071
 3625.00    0.59962   0.59395  458.110
 3626.00    0.60165   0.60626  476.552
 3627.00    0.60345   0.61312   -1.000
 3628.00    0.60719   0.60721  505.286
 3629.00    0.59220   0.58937  505.286
 3630.00    0.55098   0.56835   -1.000
 3631.00    0.52164   0.55555   -1.000
 3632.00    0.53013   0.55619   -1.000
 3633.00    0.55368   0.56592   -1.000
 3634.00    0.56300   0.57491   -1.000
 3635.00    0.55344   0.57793   -1.000
 3636.00    0.55546   0.57908   -1.000
 3637.00    0.56915   0.58377   -1.000
 3638.00    0.58737   0.59078  471.390
 3639.00    0.58618   0.59523   -1.000
 3640.00    0.57499   0.59438   -1.000
 3641.00    0.58296   0.58845  505.286
 3642.00    0.57540   0.57983  505.286
 3643.00    0.55797   0.57211   -1.000
 3644.00    0.55972   0.56713   -1.000
 3645.00    0.55210   0.56427   -1.000
 3646.00    0.54364   0.56267   -1.000
 3647.00    0.55604   0.56247  505.286
 3648.00    0.56248   0.56319  505.286
 3649.00    0.55745   0.56438   -1.000
 3650.00    0.55959   0.56690   -1.000
 3651.00    0.58250   0.57227   -1.000
 3652.00    0.59409   0.58076   -1.000
 3653.00    0.58323   0.59026   -1.000
 3654.00    0.58697   0.59936   -1.000
 3655.00    0.60864   0.60715  445.363
 3656.00    0.61750   0.61227  442.035
 3657.00    0.60576   0.61401   -1.000
 3658.00    0.59953   0.61294   -1.000
 3659.00    0.60067   0.61003   -1.000
 3660.00    0.60927   0.60565  456.215
 3661.00    0.61444   0.60034   -1.000
 3662.00    0.60387   0.59594   -1.000
 3663.00    0.59389   0.59450  457.761
 3664.00    0.59459   0.59617  463.161
 3665.00    0.59007   0.59870   -1.000
 3666.00    0.59483   0.59977  479.172
 3667.00    0.61310   0.59832   -1.000
 3668.00    0.60264   0.59514   -1.000
 3669.00    0.57912   0.59259   -1.000
 3670.00    0.58304   0.59275   -1.000
 3671.00    0.60168   0.59652  452.320
 3672.00    0.60242   0.60189  452.854
 3673.00    0.59925   0.60475  460.959
 3674.00    0.60232   0.60306  475.472
 3675.00    0.60662   0.59708   -1.000
 3676.00    0.60329   0.58805   -1.000
 3677.00    0.58849   0.57888   -1.000
 3678.00    0.57986   0.57369   -1.000
 3679.00    0.58192   0.57471   -1.000
 3680.00    0.58223   0.57939  477.648
 3681.00    0.58610   0.58352  482.112
 3682.00    0.58916   0.58488  498.481
 3683.00    0.59341   0.58342   -1.000
 3684.00    0.59594   0.57969   -1.000
 3685.00    0.57921   0.57455  505.286
 3686.00    0.57207   0.57217  502.787
 3687.00    0.58520   0.57820   -1.000
 3688.00    0.59429   0.59271  447.643
 3689.00    0.59899   0.60700   -1.000
 3690.00    0.60518   0.61314   -1.000
 3691.00    0.60943   0.61299  461.334
 3692.00    0.61013   0.61361  462.896
 3693.00    0.61627   0.61773  459.598
 3694.00    0.62044   0.62151  454.608
 3695.00    0.61287   0.61982   -1.000
 3696.00    0.59715   0.61318   -1.000
 3697.00    0.59146   0.61102   -1.000
 3698.00    0.60423   0.62197   -1.000
 3699.00    0.62573   0.64220   -1.000
 3700.00    0.64437   0.65648   -1.000
 3701.00    0.64902   0.64945  505.286
 3702.00    0.63016   0.62074   -1.000
 3703.00    0.60344   0.58508   -1.000
 3704.00    0.57665   0.56079   -1.000
 3705.00    0.55670   0.55727  505.286
 3706.00    0.56041   0.57128   -1.000
 3707.00    0.58299   0.59092   -1.000
 3708.00    0.60802   0.60212   -1.000
 3709.00    0.61176   0.59726   -1.000
 3710.00    0.59360   0.58156   -1.000
 3711.00    0.57459   0.56879  422.382
 3712.00    0.57320   0.57171  417.271
 3713.00    0.59683   0.59483  423.100
 3714.00    0.63557   0.63010  438.939
 3715.00    0.67286   0.66284   -1.000
 3716.00    0.67765   0.68274  505.286
 3717.00    0.65982   0.68424   -1.000
 3718.00    0.65228   0.66203  106.941
 3719.00    0.60967   0.61676  132.546
 3720.00    0.55811   0.56400   -1.000
 3721.00    0.53762   0.52824   -1.000
 3722.00    0.54299   0.52476   -1.000
 3723.00    0.56828   0.55479   -1.000
 3724.00    0.60659   0.60421  477.685
 3725.00    0.65479   0.64864   -1.000
 3726.00    0.68305   0.67500   -1.000
 3727.00    0.68461   0.68768  482.976
 3728.00    0.68091   0.69430   -1.000
 3729.00    0.68558   0.69522   -1.000
 3730.00    0.66987   0.68227  102.975
 3731.00    0.63760   0.64625   68.488
 3732.00    0.59490   0.59123   73.526
 3733.00    0.54903   0.53578   72.428
 3734.00    0.51096   0.49930   66.830
 3735.00    0.49245   0.49561  131.768
 3736.00    0.51400   0.52542   -1.000
 3737.00    0.56148   0.57573   -1.000
 3738.00    0.60780   0.63162   -1.000
 3739.00    0.65433   0.68101   -1.000
 3740.00    0.69617   0.71245   -1.000
 3741.00    0.70505   0.72235   -1.000
 3742.00    0.69166   0.71570   -1.000
 3743.00    0.67629   0.70041   -1.000
 3744.00    0.66444   0.68005  103.709
 3745.00    0.63990   0.65428   67.546
 3746.00    0.60442   0.62140   69.790
 3747.00    0.56818   0.58172  146.599
 3748.00    0.53420   0.54022  505.286
 3749.00    0.51400   0.50958  505.286
 3750.00    0.51448   0.50680   -1.000
 3751.00    0.54739   0.53794   -1.000
 3752.00    0.59883   0.59159  430.680
 3753.00    0.66354   0.64849   -1.000
 3754.00    0.71174   0.69312   -1.000
 3755.00    0.72062   0.71896  505.286
 3756.00    0.71896   0.72435  505.286
 3757.00    0.71340   0.71273  505.286
 3758.00    0.69327   0.69604  505.286
 3759.00    0.69691   0.68636   -1.000
 3760.00    0.71763   0.68832   -1.000
 3761.00    0.72854   0.69907   -1.000
 3762.00    0.72924   0.71052   -1.000
 3763.00    0.73351   0.71519   -1.000
 3764.00    0.72675   0.71021   -1.000
 3765.00    0.71078   0.69597   -1.000
 3766.00    0.69492   0.67271   -1.000
 3767.00    0.66700   0.63899   -1.000
 3768.00    0.63049   0.59719   -1.000
 3769.00    0.59437   0.55756   -1.000
 3770.00    0.55613   0.53573   -1.000
 3771.00    0.56850   0.54445   -1.000
 3772.00    0.61932   0.58051   -1.000
 3773.00    0.64869   0.62625   -1.000
 3774.00    0.67288   0.66500   -1.000
 3775.00    0.70399   0.69330   -1.000
 3776.00    0.73426   0.71709   -1.000
 3777.00    0.75500   0.74285   -1.000
 3778.00    0.76678   0.77006  409.850
 3779.00    0.79643   0.79465  407.311
 3780.00    0.81903   0.81332  406.525
 3781.00    0.83184   0.82300   -1.000
 3782.00    0.83175   0.82397   -1.000
 3783.00    0.83406   0.81972   -1.000
 3784.00    0.82399   0.81263   -1.000
 3785.00    0.80201   0.80172  501.071
 3786.00    0.77809   0.78663   -1.000
 3787.00    0.76703   0.77116  498.249
 3788.00    0.77317   0.76098   -1.000
 3789.00    0.76741   0.75681   -1.000
 3790.00    0.76623   0.75382   -1.000
 3791.00    0.77063   0.74583   -1.000
 3792.00    0.75091   0.72844   -1.000
 3793.00    0.72380   0.69939   -1.000
 3794.00    0.68362   0.65830   -1.000
 3795.00    0.64994   0.60922   -1.000
 3796.00    0.61235   0.55989   -1.000
 3797.00    0.56424   0.52245   -1.000
 3798.00    0.54084   0.51356   -1.000
 3799.00    0.55761   0.54262   -1.000
 3800.00    0.61114   0.60036   -1.000
 3801.00    0.66841   0.66435  453.084
 3802.00    0.71826   0.71665  456.660
 3803.00    0.75952   0.75117   -1.000
 3804.00    0.77800   0.77080   -1.000
 3805.00    0.78601   0.77990  477.971
 3806.00    0.78771   0.78593  461.244
 3807.00    0.78856   0.79613   -1.000
 3808.00    0.79826   0.81237   -1.000
 3809.00    0.82430   0.83056  474.551
 3810.00    0.83691   0.84189  502.941
 3811.00    0.82892   0.83791   -1.000
 3812.00    0.82002   0.81887  505.286
 3813.00    0.79872   0.79581  505.286
 3814.00    0.79016   0.78158   -1.000
 3815.00    0.79170   0.78233   -1.000
 3816.00    0.79626   0.79371  505.286
 3817.00    0.81899   0.80457   -1.000
 3818.00    0.81646   0.80410   -1.000
 3819.00    0.79523   0.79165  505.286
 3820.00    0.79758   0.77824   -1.000
 3821.00    0.80422   0.77432   -1.000
 3822.00    0.80671   0.77720   -1.000
 3823.00    0.79408   0.77262   68.236
 3824.00    0.77404   0.75519   68.348
 3825.00    0.75070   0.73441   67.400
 3826.00    0.74601   0.71869   66.292
 3827.00    0.73880   0.70751   66.457
 3828.00    0.72764   0.69653   68.742
 3829.00    0.71180   0.68267   73.455
 3830.00    0.69688   0.66196   77.009
 3831.00    0.67294   0.62970   -1.000
 3832.00    0.63225   0.58444   -1.000
 3833.00    0.57635   0.53318   -1.000
 3834.00    0.53590   0.49239   -1.000
 3835.00    0.52546   0.47585   -1.000
 3836.00    0.53249   0.48688   -1.000
 3837.00    0.56384   0.51990   -1.000
 3838.00    0.59660   0.56328   -1.000
 3839.00    0.62831   0.60684   -1.000
 3840.00    0.66994   0.64855   -1.000
 3841.00    0.70822   0.68919   -1.000
 3842.00    0.73709   0.72783   -1.000
 3843.00    0.76949   0.76195   -1.000
 3844.00    0.79112   0.78811  505.286
 3845.00    0.80556   0.80682  505.286
 3846.00    0.81917   0.82063  505.286
 3847.00    0.83182   0.82980  505.286
 3848.00    0.82704   0.83274  505.286
 3849.00    0.81597   0.83139   -1.000
 3850.00    0.81127   0.83340   -1.000
 3851.00    0.83274   0.84388   -1.000
 3852.00    0.85742   0.85846  505.286
 3853.00    0.85904   0.86821   -1.000
 3854.00    0.86201   0.86778  505.286
 3855.00    0.84412   0.85898   91.446
 3856.00    0.82703   0.84813   66.400
 3857.00    0.82903   0.83959   66.740
 3858.00    0.82301   0.83432  161.158
 3859.00    0.82630   0.83458   -1.000
 3860.00    0.83133   0.84222   -1.000
 3861.00    0.84450   0.85398   -1.000
 3862.00    0.87594   0.86335   -1.000
 3863.00    0.88536   0.86730   -1.000
 3864.00    0.89294   0.86730   -1.000
 3865.00    0.89475   0.86669   -1.000
 3866.00    0.89323   0.86920   -1.000
 3867.00    0.88636   0.87512   -1.000
 3868.00    0.88337   0.87928   91.725
 3869.00    0.88615   0.87490  162.122
 3870.00    0.85920   0.86005  505.286
 3871.00    0.82617   0.83898   -1.000
 3872.00    0.81243   0.82037   -1.000
 3873.00    0.81122   0.81297  505.286
 3874.00    0.82345   0.81670   -1.000
 3875.00    0.84822   0.82147   -1.000
 3876.00    0.84230   0.81598   -1.000
 3877.00    0.80966   0.80029   -1.000
 3878.00    0.78696   0.78531  505.286
 3879.00    0.78298   0.77931  505.286
 3880.00    0.79134   0.77860   -1.000
 3881.00    0.78797   0.77265   -1.000
 3882.00    0.77068   0.75755   -1.000
 3883.00    0.75598   0.73513   -1.000
 3884.00    0.74440   0.70389   -1.000
 3885.00    0.71937   0.66055   -1.000
 3886.00    0.66892   0.60661   -1.000
 3887.00    0.61412   0.55375   -1.000
 3888.00    0.57191   0.52012   -1.000
 3889.00    0.55503   0.51910   -1.000
 3890.00    0.59769   0.55229   -1.000
 3891.00    0.65857   0.60579   -1.000
 3892.00    0.70356   0.65795   -1.000
 3893.00    0.72510   0.69551   -1.000
 3894.00    0.73746   0.71972   -1.000
 3895.00    0.76313   0.73833   -1.000
 3896.00    0.77709   0.75680   -1.000
 3897.00    0.79339   0.77369   -1.000
 3898.00    0.80775   0.78482   -1.000
 3899.00    0.80659   0.79145   -1.000
 3900.00    0.81763   0.80023   -1.000
 3901.00    0.83039   0.81266   -1.000
 3902.00    0.84963   0.82329   -1.000
 3903.00    0.86329   0.82782   -1.000
 3904.00    0.84762   0.82734   -1.000
 3905.00    0.82781   0.82769  416.022
 3906.00    0.84343   0.83571   -1.000
 3907.00    0.87370   0.85459   -1.000
 3908.00    0.88007   0.87929  392.128
 3909.00    0.89284   0.89985  389.400
 3910.00    0.91284   0.90993  392.068
 3911.00    0.91497   0.90933  399.304
 3912.00    0.90516   0.90069  408.458
 3913.00    0.89479   0.88853  414.909
 3914.00    0.89253   0.87982   -1.000
 3915.00    0.89026   0.87862   -1.000
 3916.00    0.88137   0.88132  448.160
 3917.00    0.88109   0.88198  469.310
 3918.00    0.88277   0.87852  482.591
 3919.00    0.85668   0.87342   -1.000
 3920.00    0.86374   0.87009  474.211
 3921.00    0.86884   0.86908  474.472
 3922.00    0.87222   0.86958  492.747
 3923.00    0.89287   0.87041   -1.000
 3924.00    0.88573   0.86865   -1.000
 3925.00    0.86836   0.85905   95.930
 3926.00    0.84138   0.83838   79.611
 3927.00    0.81785   0.80756   93.212
 3928.00    0.77632   0.76803  109.936
 3929.00    0.73587   0.71993  129.101
 3930.00    0.67058   0.65887  143.971
 3931.00    0.56690   0.58323  143.065
 3932.00    0.48507   0.50718  127.264
 3933.00    0.43242   0.45962  106.414
 3934.00    0.44765   0.46531   87.487
 3935.00    0.51645   0.52137   73.121
 3936.00    0.60491   0.60108  191.900
 3937.00    0.67555   0.67958  505.286
 3938.00    0.74780   0.74470   -1.000
 3939.00    0.79346   0.79238  505.286
 3940.00    0.82934   0.82386   -1.000
 3941.00    0.85215   0.84150   -1.000
 3942.00    0.86389   0.84908   -1.000
 3943.00    0.86829   0.85250   -1.000
 3944.00    0.86389   0.85668   -1.000
 3945.00    0.86791   0.86354  436.735
 3946.00    0.88275   0.87099   -1.000
 3947.00    0.89036   0.87419   -1.000
 3948.00    0.88208   0.87130   -1.000
 3949.00    0.88772   0.86533   -1.000
 3950.00    0.88262   0.86013   -1.000
 3951.00    0.88338   0.85740   -1.000
 3952.00    0.89576   0.85846   -1.000
 3953.00    0.91256   0.86236   -1.000
 3954.00    0.90221   0.86379   -1.000
 3955.00    0.88330   0.85854   -1.000
 3956.00    0.87998   0.84803   -1.000
 3957.00    0.87117   0.83829   -1.000
 3958.00    0.85479   0.83192   -1.000
 3959.00    0.85066   0.82249   -1.000
 3960.00    0.83892   0.80321   -1.000
 3961.00    0.80161   0.77384   87.865
 3962.00    0.74837   0.73857   75.287
 3963.00    0.72182   0.69927   91.615
 3964.00    0.68502   0.64936   -1.000
 3965.00    0.61186   0.58162   -1.000
 3966.00    0.51995   0.49646   -1.000
 3967.00    0.40944   0.40869  104.899
 3968.00    0.33700   0.34559   86.192
 3969.00    0.33871   0.32931   71.814
 3970.00    0.38983   0.36388   -1.000
 3971.00    0.46929   0.43467   -1.000
 3972.00    0.56310   0.51784   -1.000
 3973.00    0.65077   0.59495   -1.000
 3974.00    0.71388   0.65993   -1.000
 3975.00    0.75862   0.71242   -1.000
 3976.00    0.79599   0.75408   -1.000
 3977.00    0.82818   0.78685   -1.000
 3978.00    0.85421   0.81302   -1.000
 3979.00    0.87668   0.83249   -1.000
 3980.00    0.88984   0.84353   -1.000
 3981.00    0.88011   0.84849   -1.000
 3982.00    0.88674   0.85359   -1.000
 3983.00    0.90615   0.86404   -1.000
 3984.00    0.91550   0.87896   -1.000
 3985.00    0.91775   0.89266   -1.000
 3986.00    0.93003   0.90185   -1.000
 3987.00    0.95437   0.90905   -1.000
 3988.00    0.95345   0.91616   -1.000
 3989.00    0.94780   0.92220   -1.000
 3990.00    0.95680   0.92812   -1.000
 3991.00    0.96839   0.93549   -1.000
 3992.00    0.98664   0.94396   -1.000
 3993.00    0.99857   0.95010   -1.000
 3994.00    0.98283   0.94921   -1.000
 3995.00    0.95575   0.94023   -1.000
 3996.00    0.93681   0.92819  331.658
 3997.00    0.94629   0.92141   -1.000
 3998.00    0.95309   0.92414   -1.000
 3999.00    0.95424   0.93336   -1.000
 4000.00    0.97037   0.94274   -1.000
 4001.00    0.98215   0.94796   -1.000
 4002.00    0.99054   0.94792   -1.000
 4003.00    1.00325   0.94334   -1.000
 4004.00    0.97125   0.93618   -1.000
 4005.00    0.94046   0.93184  319.129
 4006.00    0.95329   0.93593   -1.000
 4007.00    0.94675   0.94789  309.708
 4008.00    0.98118   0.96110   -1.000
 4009.00    0.99381   0.96939   -1.000
 4010.00    0.98341   0.97177   -1.000
 4011.00    0.97964   0.97020  310.073
 4012.00    0.97525   0.96765  306.038
 4013.00    0.97502   0.96751  307.225
 4014.00    0.98705   0.97132   -1.000
 4015.00    0.98889   0.97779   -1.000
 4016.00    0.99751   0.98462   -1.000
 4017.00    0.99228   0.99069  305.850
 4018.00    1.00749   0.99600   -1.000
 4019.00    1.01505   0.99972   -1.000
 4020.00    1.00909   0.99969  314.031
 4021.00    1.00703   0.99454   -1.000
 4022.00    1.00372   0.98548   -1.000
 4023.00    1.00592   0.97554   -1.000
 4024.00    1.01146   0.96933   -1.000
 4025.00    1.01430   0.97124   -1.000
 4026.00    1.01940   0.98001   -1.000
 4027.00    1.01732   0.98754   -1.000
 4028.00    1.01695   0.98736   -1.000
 4029.00    0.98316   0.97962  345.232
 4030.00    0.97547   0.96890  342.408
 4031.00    0.97354   0.96118   -1.000
 4032.00    0.96368   0.95973  316.886
 4033.00    0.96543   0.96431  301.171
 4034.00    0.95858   0.97391   -1.000
 4035.00    0.98435   0.98736  286.968
 4036.00    1.01530   1.00273   -1.000
 4037.00    1.01843   1.01564  298.692
 4038.00    1.02467   1.02125  302.697
 4039.00    1.01609   1.01949  304.476
 4040.00    0.99206   1.01436   -1.000
 4041.00    1.00000   1.00900   -1.000
 4042.00    0.99942   1.00179  373.205
 4043.00    0.99430   0.98851  365.765
 4044.00    0.98051   0.97017   -1.000
 4045.00    0.94637   0.95574   -1.000
 4046.00    0.94812   0.95605  300.147
 4047.00    0.96776   0.97136  295.808
 4048.00    0.98901   0.99029  296.893
 4049.00    1.01018   1.00291  304.018
 4050.00    1.01824   1.00764  312.058
 4051.00    1.01339   1.00652  317.496
 4052.00    1.00472   1.00141  320.438
 4053.00    1.00677   0.99531   -1.000
 4054.00    0.99774   0.99180  325.842
 4055.00    1.00308   0.99198   -1.000
 4056.00    1.00886   0.99433   -1.000
 4057.00    0.99944   0.99812  305.608
 4058.00    1.00849   1.00415  308.924
 4059.00    1.00777   1.00907  328.648
 4060.00    1.00894   1.00627  351.942
 4061.00    1.00525   0.99421   -1.000
 4062.00    0.97443   0.97745  335.861
 4063.00    0.95447   0.96194  326.202
 4064.00    0.96574   0.95245   -1.000
 4065.00    0.96825   0.95146   -1.000
 4066.00    0.97914   0.95647   -1.000
 4067.00    0.99830   0.96197   -1.000
 4068.00    0.99865   0.96453   -1.000
 4069.00    0.99934   0.96193   -1.000
 4070.00    0.99612   0.95288   -1.000
 4071.00    0.97661   0.94207   -1.000
 4072.00    0.98161   0.93741   -1.000
 4073.00    0.98924   0.94019   -1.000
 4074.00    0.99368   0.94257   -1.000
 4075.00    0.97302   0.93537   -1.000
 4076.00    0.95014   0.91954   -1.000
 4077.00    0.94015   0.90639   -1.000
 4078.00    0.93828   0.90735   -1.000
 4079.00    0.94306   0.92280   -1.000
 4080.00    0.95718   0.94165   -1.000
 4081.00    0.95746   0.95304  317.569
 4082.00    0.96865   0.95379   -1.000
 4083.00    0.96000   0.94707   -1.000
 4084.00    0.96243   0.93831   -1.000
 4085.00    0.96322   0.93278   -1.000
 4086.00    0.96180   0.93317   -1.000
 4087.00    0.97196   0.93808   -1.000
 4088.00    0.98403   0.94316   -1.000
 4089.00    0.98037   0.94403   -1.000
 4090.00    0.96723   0.93981   -1.000
 4091.00    0.95627   0.93201   -1.000
 4092.00    0.96165   0.92030   -1.000
 4093.00    0.93107   0.90454   -1.000
 4094.00    0.91306   0.88545   -1.000
 4095.00    0.88478   0.86270   -1.000
 4096.00    0.85580   0.83523   -1.000
 4097.00    0.85118   0.80074   -1.000
 4098.00    0.82584   0.75657   -1.000
 4099.00    0.76738   0.70110   -1.000
 4100.00    0.68841   0.64275   -1.000
 4101.00    0.64425   0.60309   -1.000
 4102.00    0.63942   0.60382   -1.000
 4103.00    0.68642   0.64660   -1.000
 4104.00    0.75712   0.71095   -1.000
 4105.00    0.79882   0.77093   -1.000
 4106.00    0.83850   0.81329   -1.000
 4107.00    0.87274   0.83946   -1.000
 4108.00    0.87587   0.85585   -1.000
 4109.00    0.88887   0.86829   -1.000
 4110.00    0.91210   0.88058   -1.000
 4111.00    0.92765   0.89495   -1.000
 4112.00    0.93846   0.91128   -1.000
 4113.00    0.95336   0.92788   -1.000
 4114.00    0.96544   0.94289   -1.000
 4115.00    0.96594   0.95335   -1.000
 4116.00    0.97013   0.95657   -1.000
 4117.00    0.96866   0.95301   -1.000
 4118.00    0.96196   0.94675   -1.000
 4119.00    0.96513   0.94311   -1.000
 4120.00    0.95982   0.94427   -1.000
 4121.00    0.96899   0.94804   -1.000
 4122.00    0.96949   0.95232   -1.000
 4123.00    0.96570   0.95817  311.289
 4124.00    0.99730   0.96575   -1.000
 4125.00    0.99325   0.97140   -1.000
 4126.00    0.99160   0.97131   -1.000
 4127.00    0.97874   0.96635   -1.000
 4128.00    0.97196   0.96120   -1.000
 4129.00    0.97127   0.95837   -1.000
 4130.00    0.98669   0.95612   -1.000
 4131.00    0.97892   0.95302   -1.000
 4132.00    0.96798   0.95237   -1.000
 4133.00    0.97456   0.95869   -1.000
 4134.00    0.98798   0.97113   -1.000
 4135.00    0.98724   0.98506  300.594
 4136.00    1.00190   0.99749  299.004
 4137.00    1.00464   1.00799  304.334
 4138.00    1.01422   1.01657  319.353
 4139.00    1.01702   1.02095  345.394
 4140.00    1.01346   1.01760  365.079
 4141.00    0.99914   1.00552   -1.000
 4142.00    0.98730   0.98885  334.406
 4143.00    0.97644   0.97644  321.060
 4144.00    0.97247   0.97566  316.820
 4145.00    0.97611   0.98553   -1.000
 4146.00    0.99658   0.99728  330.720
 4147.00    1.01072   1.00336  335.414
 4148.00    1.00418   1.00384  333.628
 4149.00    0.99499   1.00311   -1.000
 4150.00    1.00561   1.00390  334.218
 4151.00    1.02692   1.00458   -1.000
 4152.00    1.20646   1.00253   -1.000
 4153.00    1.28150   0.99802   -1.000
 4154.00    0.76223   0.99408   -1.000
 4155.00    0.76568   0.99378   -1.000
 4156.00    1.03924   0.99776   -1.000
 4157.00    1.03443   1.00471   -1.000
 4158.00    0.99986   1.01178   -1.000
 4159.00    1.00540   1.01582   -1.000
 4160.00    1.01279   1.01589  307.938
 4161.00    1.02086   1.01414  312.767
 4162.00    1.02328   1.01414  317.504
 4163.00    1.01852   1.01766  324.474
 4164.00    1.01213   1.02344   -1.000
 4165.00    0.99274   1.02736   -1.000
 4166.00    1.00496   1.02670   -1.000
 4167.00    1.00397   1.02336   -1.000
 4168.00    0.99527   1.01962   -1.000
 4169.00    0.99918   1.01358   -1.000
 4170.00    0.98573   1.00045   -1.000
 4171.00    0.97042   0.98068   -1.000
 4172.00    0.96532   0.96314  341.940
 4173.00    0.96677   0.95739   -1.000
 4174.00    0.95730   0.96589   -1.000
 4175.00    0.96818   0.97974   -1.000
 4176.00    0.97650   0.98687   -1.000
 4177.00    0.98055   0.98532  332.810
 4178.00    0.97143   0.98327   -1.000
 4179.00    0.98009   0.98809  329.540
 4180.00    0.98851   0.99684   -1.000
 4181.00    1.00565   1.00212  317.303
 4182.00    1.00504   1.00355  317.301
 4183.00    0.98928   1.00484   -1.000
 4184.00    0.98382   1.00645   -1.000
 4185.00    1.00897   1.00579  334.886
 4186.00    0.98039   1.00151   -1.000
 4187.00    0.95926   0.99712   -1.000
 4188.00    0.95990   0.99661   -1.000
 4189.00    0.97770   0.99882   -1.000
 4190.00    0.98365   1.00052   -1.000
 4191.00    0.98900   1.00167   -1.000
 4192.00    1.01136   1.00434  334.341
 4193.00    1.00544   1.00811  345.927
 4194.00    1.01409   1.00807  352.368
 4195.00    1.00947   1.00063  353.473
 4196.00    0.98955   0.98781  349.864
 4197.00    0.95655   0.97418   -1.000
 4198.00    0.94912   0.96422   -1.000
 4199.00    0.95573   0.96075  340.965
 4200.00    0.96888   0.96217  335.745
 4201.00    0.97658   0.96464   -1.000
 4202.00    0.97615   0.96765  326.899
 4203.00    0.97880   0.97281  318.774
 4204.00    0.97735   0.97931  312.454
 4205.00    0.98327   0.98579  310.657
 4206.00    0.98638   0.99242  311.819
 4207.00    0.98946   0.99824   -1.000
 4208.00    0.99073   1.00135   -1.000
 4209.00    0.99418   1.00259   -1.000
 4210.00    0.99478   1.00443   -1.000
 4211.00    0.99499   1.00785   -1.000
 4212.00    0.99564   1.00996   -1.000
 4213.00    0.98984   1.00546   -1.000
 4214.00    0.96964   0.99411   -1.000
 4215.00    0.96986   0.98268   -1.000
 4216.00    0.97139   0.97972  290.352
 4217.00    0.97688   0.98732   -1.000
 4218.00    0.99597   0.99934  289.345
 4219.00    1.00194   1.00923  300.913
 4220.00    1.00265   1.01482   -1.000
 4221.00    0.99051   1.01482   -1.000
 4222.00    0.98977   1.00702   -1.000
 4223.00    0.97772   0.98918   -1.000
 4224.00    0.96802   0.96398  409.788
 4225.00    0.92764   0.93965   -1.000
 4226.00    0.90288   0.92751   -1.000
 4227.00    0.90321   0.93637   -1.000
 4228.00    0.93650   0.96445   -1.000
 4229.00    0.96540   0.99599   -1.000
 4230.00    0.98971   1.01319   -1.000
 4231.00    0.99516   1.01155   -1.000
 4232.00    0.97872   0.99912   -1.000
 4233.00    0.97476   0.98660   -1.000
 4234.00    0.96648   0.98127   -1.000
 4235.00    0.95258   0.98334   -1.000
 4236.00    0.96045   0.98820   -1.000
 4237.00    0.97569   0.99373   -1.000
 4238.00    0.97541   1.00022   -1.000
 4239.00    0.97006   1.00750   -1.000
 4240.00    0.98789   1.01457   -1.000
 4241.00    0.99031   1.01988   -1.000
 4242.00    0.99209   1.02255   -1.000
 4243.00    0.99255   1.02209   -1.000
 4244.00    1.00153   1.01758   -1.000
 4245.00    0.99068   1.00791   -1.000
 4246.00    0.96585   0.99510   -1.000
 4247.00    0.94466   0.98456   -1.000
 4248.00    0.92927   0.97975   -1.000
 4249.00    0.92988   0.97926   -1.000
 4250.00    0.94563   0.98211   -1.000
 4251.00    0.95832   0.98863   -1.000
 4252.00    0.97341   0.99606   -1.000
 4253.00    0.97316   1.00083   -1.000
 4254.00    0.96454   1.00295   -1.000
 4255.00    0.95908   1.00496   -1.000
 4256.00    0.97215   1.00700   -1.000
 4257.00    0.97501   1.00539   -1.000
 4258.00    0.97059   0.99868   -1.000
 4259.00    0.96971   0.99095   -1.000
 4260.00    0.96161   0.98821   -1.000
 4261.00    0.95851   0.99410   -1.000
 4262.00    0.96752   1.00717   -1.000
 4263.00    0.97963   1.02091   -1.000
 4264.00    0.99591   1.02875   -1.000
 4265.00    0.99539   1.02952   -1.000
 4266.00    0.97822   1.02591   -1.000
 4267.00    0.95671   1.01922   -1.000
 4268.00    0.95609   1.00903   -1.000
 4269.00    0.96808   0.99452   -1.000
 4270.00    0.95805   0.97740   -1.000
 4271.00    0.92974   0.96325   -1.000
 4272.00    0.91286   0.95789   -1.000
 4273.00    0.92335   0.96231   -1.000
 4274.00    0.92830   0.97337   -1.000
 4275.00    0.95396   0.98791   -1.000
 4276.00    0.97112   1.00369   -1.000
 4277.00    0.97766   1.01625   -1.000
 4278.00    0.99074   1.02107   -1.000
 4279.00    0.97453   1.01752   -1.000
 4280.00    0.95204   1.00919   -1.000
 4281.00    0.95173   1.00127   -1.000
 4282.00    0.95665   0.99699   -1.000
 4283.00    0.95856   0.99657   -1.000
 4284.00    0.96428   0.99699   -1.000
 4285.00    0.94973   0.99342   -1.000
 4286.00    0.93469   0.98290   -1.000
 4287.00    0.93337   0.96673   -1.000
 4288.00    0.91048   0.94882   -1.000
 4289.00    0.90274   0.93535   -1.000
 4290.00    0.90221   0.93283   -1.000
 4291.00    0.90617   0.94137   -1.000
 4292.00    0.92548   0.95161   -1.000
 4293.00    0.93150   0.95436   -1.000
 4294.00    0.93812   0.95119   -1.000
 4295.00    0.94094   0.94811   -1.000
 4296.00    0.93719   0.94393   -1.000
 4297.00    0.91716   0.93351   -1.000
 4298.00    0.87765   0.91510   -1.000
 4299.00    0.85051   0.89321   -1.000
 4300.00    0.84863   0.87620   -1.000
 4301.00    0.84215   0.86988   -1.000
 4302.00    0.84123   0.87424   -1.000
 4303.00    0.85457   0.88586   -1.000
 4304.00    0.87750   0.89801   -1.000
 4305.00    0.87222   0.90258   -1.000
 4306.00    0.85011   0.89764   -1.000
 4307.00    0.82857   0.88945   -1.000
 4308.00    0.82249   0.88666   -1.000
 4309.00    0.83166   0.89260   -1.000
 4310.00    0.84619   0.90310   -1.000
 4311.00    0.85517   0.91050   -1.000
 4312.00    0.86978   0.91130   -1.000
 4313.00    0.88884   0.91172   -1.000
 4314.00    0.89677   0.92146   -1.000
 4315.00    0.93594   0.94420  269.518
 4316.00    0.97035   0.97243  273.910
 4317.00    0.98914   0.99385  280.218
 4318.00    0.99003   1.00201   -1.000
 4319.00    0.97979   0.99889   -1.000
 4320.00    0.96140   0.99052   -1.000
 4321.00    0.95087   0.98137   -1.000
 4322.00    0.94133   0.97064   -1.000
 4323.00    0.92843   0.95504   -1.000
 4324.00    0.89574   0.93643   -1.000
 4325.00    0.88350   0.92565   -1.000
 4326.00    0.90666   0.93062   -1.000
 4327.00    0.92156   0.94572   -1.000
 4328.00    0.94272   0.95789   -1.000
 4329.00    0.93875   0.95968   -1.000
 4330.00    0.93670   0.95433   -1.000
 4331.00    0.93360   0.94795   -1.000
 4332.00    0.93846   0.94105  278.117
 4333.00    0.92365   0.92973  296.851
 4334.00    0.90863   0.90990  326.418
 4335.00    0.86919   0.87792   -1.000
 4336.00    0.85347   0.83076   -1.000
 4337.00    0.79904   0.76931   -1.000
 4338.00    0.74153   0.70426   -1.000
 4339.00    0.67026   0.65298   -1.000
 4340.00    0.62940   0.63331  307.397
 4341.00    0.64679   0.65527   -1.000
 4342.00    0.70731   0.71062  290.132
 4343.00    0.78265   0.77532  285.386
 4344.00    0.81688   0.83004   -1.000
 4345.00    0.86973   0.87114  277.709
 4346.00    0.87784   0.90291   -1.000
 4347.00    0.90656   0.92644   -1.000
 4348.00    0.92352   0.93885   -1.000
 4349.00    0.93307   0.93816  321.241
 4350.00    0.92268   0.92905  307.019
 4351.00    0.90214   0.92201   -1.000
 4352.00    0.90513   0.92619   -1.000
 4353.00    0.93048   0.94289   -1.000
 4354.00    0.94927   0.96529   -1.000
 4355.00    0.94548   0.98425   -1.000
 4356.00    0.96254   0.99483   -1.000
 4357.00    0.96027   0.99769   -1.000
 4358.00    0.94915   0.99717   -1.000
 4359.00    0.94561   0.99845   -1.000
 4360.00    0.95202   1.00382   -1.000
 4361.00    0.98364   1.01189   -1.000
 4362.00    1.00527   1.01986   -1.000
 4363.00    0.99215   1.02538   -1.000
 4364.00    0.99588   1.02694   -1.000
 4365.00    0.99808   1.02379   -1.000
 4366.00    0.99295   1.01602   -1.000
 4367.00    0.97654   1.00639   -1.000
 4368.00    0.96874   0.99922   -1.000
 4369.00    0.98217   0.99624   -1.000
 4370.00    0.98023   0.99569   -1.000
 4371.00    0.98564   0.99355  311.089
 4372.00    1.00046   0.98610   -1.000
 4373.00    0.98714   0.97336   -1.000
 4374.00    0.97674   0.96228   -1.000
 4375.00    0.95133   0.96242   -1.000
 4376.00    0.94478   0.97626   -1.000
 4377.00    0.96767   0.99568   -1.000
 4378.00    0.99743   1.00973   -1.000
 4379.00    0.99044   1.01336   -1.000
 4380.00    0.97934   1.00632   -1.000
 4381.00    0.99349   0.98828  371.814
 4382.00    0.96691   0.96205  335.283
 4383.00    0.93784   0.93772  304.152
 4384.00    0.91583   0.92713   -1.000
 4385.00    0.93966   0.93480  296.612
 4386.00    0.96993   0.95384   -1.000
 4387.00    0.98691   0.97272   -1.000
 4388.00    0.98857   0.98466  294.244
 4389.00    0.98195   0.98913  287.824
 4390.00    0.98713   0.98956  290.513
 4391.00    0.98033   0.98920  297.053
 4392.00    0.98867   0.98652  294.957
 4393.00    0.99229   0.97838   -1.000
 4394.00    0.97484   0.96861  273.381
 4395.00    0.96238   0.96655  278.253
 4396.00    0.97287   0.97412  288.975
 4397.00    0.99552   0.98251   -1.000
 4398.00    0.99021   0.98351  292.570
 4399.00    0.97861   0.97889  287.767
 4400.00    0.98662   0.97698  299.298
 4401.00    0.97604   0.98136  316.795
 4402.00    0.98376   0.98716  317.710
 4403.00    0.97962   0.98887   -1.000
 4404.00    0.96711   0.98723   -1.000
 4405.00    0.96225   0.98671   -1.000
 4406.00    0.96698   0.98883   -1.000
 4407.00    0.98189   0.99132  275.017
 4408.00    0.98501   0.99360  266.132
 4409.00    0.99701   0.99841  263.857
 4410.00    0.99283   1.00649   -1.000
 4411.00    0.99900   1.01370   -1.000
 4412.00    1.01997   1.01421  297.578
 4413.00    1.01389   1.00498  294.614
 4414.00    0.97771   0.98817   -1.000
 4415.00    0.95625   0.97143   -1.000
 4416.00    0.97439   0.96351  264.964
 4417.00    0.97549   0.96903  267.414
 4418.00    0.97402   0.98543   -1.000
 4419.00    0.99357   1.00422   -1.000
 4420.00    1.01165   1.01641  277.217
 4421.00    1.00023   1.01963   -1.000
 4422.00    0.98561   1.01872   -1.000
 4423.00    0.99089   1.01811   -1.000
 4424.00    1.00122   1.01727   -1.000
 4425.00    0.99510   1.01504   -1.000
 4426.00    0.98522   1.01300   -1.000
 4427.00    0.98942   1.01353   -1.000
 4428.00    0.99542   1.01674   -1.000
 4429.00    0.99854   1.02050   -1.000
 4430.00    0.98607   1.02298   -1.000
 4431.00    1.00058   1.02370   -1.000
 4432.00    1.01190   1.02186   -1.000
 4433.00    0.99661   1.01658   -1.000
 4434.00    0.97731   1.01002   -1.000
 4435.00    0.97811   1.00835   -1.000
 4436.00    0.98134   1.01643   -1.000
 4437.00    1.01014   1.03116   -1.000
 4438.00    1.02634   1.04328   -1.000
 4439.00    1.02494   1.04448   -1.000
 4440.00    1.01020   1.03284   -1.000
 4441.00    1.01508   1.01291  279.460
 4442.00    0.98308   0.99402   -1.000
 4443.00    0.96083   0.98639   -1.000
 4444.00    0.98402   0.99447  264.115
 4445.00    1.00391   1.01215  264.806
 4446.00    1.01830   1.02802  267.911
 4447.00    1.03025   1.03576  270.175
 4448.00    1.02320   1.03657   -1.000
 4449.00    1.02007   1.03442   -1.000
 4450.00    1.02543   1.03299  281.609
 4451.00    1.02330   1.03373   -1.000
 4452.00    1.01160   1.03396   -1.000
 4453.00    1.01818   1.02950   -1.000
 4454.00    1.01027   1.02155   -1.000
 4455.00    0.97488   1.01688   -1.000
 4456.00    0.98862   1.01942   -1.000
 4457.00    0.99931   1.02560   -1.000
 4458.00    1.01361   1.02969   -1.000
 4459.00    1.01583   1.02975   -1.000
 4460.00    1.00674   1.02774   -1.000
 4461.00    1.00443   1.02684   -1.000
 4462.00    0.99983   1.02828   -1.000
 4463.00    1.00731   1.03056   -1.000
 4464.00    1.01812   1.03149   -1.000
 4465.00    1.01570   1.02923   -1.000
 4466.00    1.00994   1.02214   -1.000
 4467.00    1.00932   1.01136  277.102
 4468.00    0.99289   1.00259  267.970
 4469.00    0.99639   1.00214  258.833
 4470.00    1.00771   1.01138  252.368
 4471.00    1.02237   1.02590  250.767
 4472.00    1.03165   1.03998  251.142
 4473.00    1.04142   1.05019  248.821
 4474.00    1.03823   1.05566   -1.000
 4475.00    1.04237   1.05754   -1.000
 4476.00    1.04621   1.05793   -1.000
 4477.00    1.03894   1.05670   -1.000
 4478.00    1.03474   1.05021   -1.000
 4479.00    1.04873   1.03633  274.171
 4480.00    1.03311   1.02016  262.172
 4481.00    1.01127   1.01177  252.785
 4482.00    1.00565   1.01753   -1.000
 4483.00    1.00951   1.03407   -1.000
 4484.00    1.03449   1.05177   -1.000
 4485.00    1.04027   1.06267   -1.000
 4486.00    1.03955   1.06359   -1.000
 4487.00    1.03554   1.05557   -1.000
 4488.00    1.02614   1.04441   -1.000
 4489.00    1.02663   1.03775   -1.000
 4490.00    1.02860   1.03909   -1.000
 4491.00    1.02968   1.04548   -1.000
 4492.00    1.03013   1.05062   -1.000
 4493.00    1.02771   1.05105   -1.000
 4494.00    1.01537   1.04894   -1.000
 4495.00    1.01644   1.04802   -1.000
 4496.00    1.02725   1.04940   -1.000
 4497.00    1.02997   1.05128   -1.000
 4498.00    1.03172   1.05039   -1.000
 4499.00    1.02564   1.04440   -1.000
 4500.00    1.01506   1.03644   -1.000
 4501.00    1.02048   1.03415   -1.000
 4502.00    1.04565   1.04164  238.740
 4503.00    1.05323   1.05466  243.565
 4504.00    1.04692   1.06501   -1.000
 4505.00    1.05371   1.06784   -1.000
 4506.00    1.06511   1.06399  243.351
 4507.00    1.05570   1.05806  242.116
 4508.00    1.04340   1.05531   -1.000
 4509.00    1.04385   1.05763   -1.000
 4510.00    1.05657   1.06192  253.803
 4511.00    1.05786   1.06415  254.855
 4512.00    1.04246   1.06295   -1.000
 4513.00    1.04394   1.05885   -1.000
 4514.00    1.04225   1.05348   -1.000
 4515.00    1.03793   1.04943   -1.000
 4516.00    1.04568   1.04773  252.786
 4517.00    1.04217   1.04632  248.479
 4518.00    1.02900   1.04300   -1.000
 4519.00    1.03253   1.03887  256.396
 4520.00    1.04900   1.03598   -1.000
 4521.00    1.04937   1.03372   -1.000
 4522.00    1.02462   1.03112  268.530
 4523.00    1.01475   1.02998   -1.000
 4524.00    1.02873   1.03166  284.134
 4525.00    1.02236   1.03368   -1.000
 4526.00    1.02714   1.03219  283.736
 4527.00    1.03399   1.02642  278.547
 4528.00    1.00739   1.01995   -1.000
 4529.00    0.99949   1.01738   -1.000
 4530.00    1.00292   1.01913   -1.000
 4531.00    1.00330   1.01968   -1.000
 4532.00    1.00849   1.01350  283.949
 4533.00    1.00627   1.00317  266.979
 4534.00    0.99535   0.99837  252.405
 4535.00    0.99730   1.00576  247.341
 4536.00    1.01988   1.02267  250.751
 4537.00    1.03061   1.04088  256.141
 4538.00    1.03161   1.05315   -1.000
 4539.00    1.04678   1.05668  253.451
 4540.00    0.92290   1.05379   -1.000
 4541.00    0.16998   1.04963   -1.000
 4542.00   -0.02062   1.04779    0.000
 4543.00    0.13969   1.04780   -1.000
 4544.00    0.76233   1.04759   -1.000
 4545.00    0.34698   1.04665   -1.000
 4546.00    0.79801   1.04387   -1.000
 4547.00    1.07269   1.03547   -1.000
 4548.00    1.01104   1.02077  263.640
 4549.00    1.00137   1.00790  265.676
 4550.00    0.99699   1.00693  269.727
 4551.00    1.00827   1.01624  271.117
 4552.00    1.02744   1.02319  265.768
 4553.00    1.01606   1.02017  255.581
 4554.00    1.00717   1.01286  246.124
 4555.00    1.00970   1.01180  242.974
 4556.00    1.02713   1.02071  244.390
 4557.00    1.04792   1.03439   -1.000
 4558.00    1.05454   1.04618  245.159
 4559.00    1.05585   1.05441  251.261
 4560.00    1.04930   1.05944  257.256
 4561.00    1.04342   1.05887   -1.000
 4562.00    1.04020   1.05115   -1.000
 4563.00    1.03220   1.04135  249.781
 4564.00    1.02363   1.03770   -1.000
 4565.00    1.02215   1.04305   -1.000
 4566.00    1.03477   1.05269   -1.000
 4567.00    1.05360   1.06004  252.392
 4568.00    1.06076   1.06133  257.661
 4569.00    1.05536   1.05589  254.345
 4570.00    1.04388   1.04523  247.022
 4571.00    1.02818   1.03469  244.317
 4572.00    1.02236   1.03223  244.803
 4573.00    1.03276   1.03970  246.029
 4574.00    1.05168   1.04919  247.938
 4575.00    1.06301   1.05312  252.874
 4576.00    1.05059   1.05216  260.265
 4577.00    1.04204   1.04980  264.474
 4578.00    1.04750   1.04631  262.912
 4579.00    1.04750   1.04047  259.352
 4580.00    1.04053   1.03296  257.991
 4581.00    1.04135   1.02514   -1.000
 4582.00    1.03591   1.01774   -1.000
 4583.00    1.02490   1.01377  255.368
 4584.00    1.03336   1.01714   -1.000
 4585.00    1.03612   1.02639  244.359
 4586.00    1.02757   1.03529  244.925
 4587.00    1.04330   1.03964  248.895
 4588.00    1.03952   1.03967  253.551
 4589.00    1.03963   1.03820  257.238
 4590.00    1.04393   1.03796  256.830
 4591.00    1.03420   1.03945  254.553
 4592.00    1.02931   1.04205   -1.000
 4593.00    1.03148   1.04581   -1.000
 4594.00    1.04590   1.05079  251.685
 4595.00    1.04834   1.05631  251.623
 4596.00    1.04900   1.06093   -1.000
 4597.00    1.05778   1.06279  255.993
 4598.00    1.05193   1.06108  255.990
 4599.00    1.05529   1.05677  253.073
 4600.00    1.03415   1.05165   -1.000
 4601.00    1.04260   1.04766  251.252
 4602.00    1.03898   1.04625  250.345
 4603.00    1.03952   1.04757  247.076
 4604.00    1.04663   1.05038  241.994
 4605.00    1.05030   1.05319  237.231
 4606.00    1.05584   1.05565  235.280
 4607.00    1.06246   1.05804  236.938
 4608.00    1.06584   1.06037  240.202
 4609.00    1.06532   1.06206  242.623
 4610.00    1.07014   1.06239  243.603
 4611.00    1.06023   1.06136  242.070
 4612.00    1.05429   1.06009  240.097
 4613.00    1.06555   1.05938  239.696
 4614.00    1.06720   1.05834  241.469
 4615.00    1.06358   1.05552  242.871
 4616.00    1.06257   1.05123  242.121
 4617.00    1.05538   1.04714  239.390
 4618.00    1.04933   1.04459  236.246
 4619.00    1.05296   1.04479  236.496
 4620.00    1.06441   1.04873   -1.000
 4621.00    1.07370   1.05531   -1.000
 4622.00    1.05602   1.06125  239.859
 4623.00    1.05367   1.06371  240.215
 4624.00    1.06956   1.06267  240.399
 4625.00    1.06810   1.06003  241.833
 4626.00    1.06360   1.05695  241.937
 4627.00    1.05904   1.05296  240.306
 4628.00    1.05575   1.04860  238.239
 4629.00    1.04574   1.04696  240.004
 4630.00    1.05391   1.05034  243.465
 4631.00    1.06116   1.05616  245.498
 4632.00    1.05535   1.05950  245.595
 4633.00    1.06187   1.05875  247.976
 4634.00    1.05836   1.05686  250.858
 4635.00    1.05574   1.05707  251.476
 4636.00    1.06137   1.05937  250.210
 4637.00    1.05753   1.06202  245.353
 4638.00    1.05556   1.06467  239.812
 4639.00    1.06365   1.06820  237.566
 4640.00    1.07108   1.07270  239.481
 4641.00    1.07566   1.07688  244.624
 4642.00    1.06603   1.07927   -1.000
 4643.00    1.05751   1.07919   -1.000
 4644.00    1.06484   1.07649   -1.000
 4645.00    1.06078   1.07134  251.716
 4646.00    1.04362   1.06521   -1.000
 4647.00    1.04341   1.06125   -1.000
 4648.00    1.04439   1.06179   -1.000
 4649.00    1.05766   1.06570  243.623
 4650.00    1.06779   1.06989  247.314
 4651.00    1.06581   1.07210  252.571
 4652.00    1.06585   1.07142  254.178
 4653.00    1.05748   1.06809  250.384
 4654.00    1.04910   1.06350   -1.000
 4655.00    1.04540   1.05949   -1.000
 4656.00    1.04356   1.05803   -1.000
 4657.00    1.05577   1.06133  230.048
 4658.00    1.06443   1.06977  233.700
 4659.00    1.08595   1.07950  239.348
 4660.00    1.08377   1.08512  243.048
 4661.00    1.07747   1.08470  244.193
 4662.00    1.06627   1.08047   -1.000
 4663.00    1.07824   1.07545  260.934
 4664.00    1.06089   1.07018  269.309
 4665.00    1.05188   1.06293   -1.000
 4666.00    1.05130   1.05324  257.678
 4667.00    1.03929   1.04443  247.653
 4668.00    1.03564   1.04085  242.374
 4669.00    1.03379   1.04363  241.564
 4670.00    1.05358   1.05065  241.718
 4671.00    1.06973   1.05895  240.739
 4672.00    1.07142   1.06579  237.337
 4673.00    1.07406   1.07019  234.878
 4674.00    1.07037   1.07329  237.237
 4675.00    1.07787   1.07592  242.494
 4676.00    1.08419   1.07682  247.079
 4677.00    1.07222   1.07434  250.718
 4678.00    1.05927   1.06903  251.694
 4679.00    1.05628   1.06311  247.478
 4680.00    1.06248   1.05830  241.811
 4681.00    1.05680   1.05577  239.770
 4682.00    1.05430   1.05624  240.601
 4683.00    1.05925   1.05891  240.970
 4684.00    1.06276   1.06189  242.079
 4685.00    1.06764   1.06386  242.023
 4686.00    1.08005   1.06478   -1.000
 4687.00    1.07889   1.06544  244.009
 4688.00    1.07405   1.06622  243.586
 4689.00    1.06797   1.06653  240.338
 4690.00    1.05935   1.06578  236.259
 4691.00    1.06520   1.06482  231.474
 4692.00    1.06512   1.06495  229.669
 4693.00    1.06384   1.06602  232.385
 4694.00    1.07848   1.06710  239.472
 4695.00    1.08168   1.06768   -1.000
 4696.00    1.07265   1.06663  246.986
 4697.00    1.07491   1.06279  245.758
 4698.00    1.07682   1.05740   -1.000
 4699.00    1.07008   1.05289   -1.000
 4700.00    1.06941   1.04946   -1.000
 4701.00    1.07164   1.04557   -1.000
 4702.00    1.05960   1.04144   -1.000
 4703.00    1.04789   1.03968  249.352
 4704.00    1.05277   1.04183  253.760
 4705.00    1.06942   1.04531   -1.000
 4706.00    1.06570   1.04576   -1.000
 4707.00    1.05375   1.04229  244.307
 4708.00    1.04914   1.03867  238.782
 4709.00    1.05575   1.03924   -1.000
 4710.00    1.06748   1.04445   -1.000
 4711.00    1.07262   1.05052   -1.000
 4712.00    1.07119   1.05336   -1.000
 4713.00    1.07334   1.05224   -1.000
 4714.00    1.06831   1.05018   -1.000
 4715.00    1.05909   1.05085  232.991
 4716.00    1.06498   1.05469  232.195
 4717.00    1.07524   1.05897   -1.000
 4718.00    1.07716   1.06152   -1.000
 4719.00    1.07598   1.06260  234.994
 4720.00    1.07443   1.06307  233.144
 4721.00    1.07352   1.06319  231.356
 4722.00    1.07992   1.06369   -1.000
 4723.00    1.07691   1.06551  240.108
 4724.00    1.07026   1.06814  248.407
 4725.00    1.06715   1.06966  251.973
 4726.00    1.06371   1.06858  250.279
 4727.00    1.05885   1.06501  247.815
 4728.00    1.05811   1.06015  245.599
 4729.00    1.05785   1.05501  242.818
 4730.00    1.06644   1.05044   -1.000
 4731.00    1.06224   1.04834   -1.000
 4732.00    1.06018   1.05037  239.394
 4733.00    1.06987   1.05474   -1.000
 4734.00    1.07760   1.05760   -1.000
 4735.00    1.07680   1.05725   -1.000
 4736.00    1.06207   1.05523  238.991
 4737.00    1.06008   1.05391  240.133
 4738.00    1.06767   1.05405   -1.000
 4739.00    1.07613   1.05488   -1.000
 4740.00    1.07860   1.05589   -1.000
 4741.00    1.07405   1.05747   -1.000
 4742.00    1.07226   1.06001  235.930
 4743.00    1.07273   1.06320  233.888
 4744.00    1.07778   1.06633  232.038
 4745.00    1.07712   1.06915  231.885
 4746.00    1.08117   1.07226  232.217
 4747.00    1.07835   1.07593  232.813
 4748.00    1.07387   1.07947  234.867
 4749.00    1.08919   1.08213  237.377
 4750.00    1.08784   1.08381  239.228
 4751.00    1.07917   1.08453  240.238
 4752.00    1.08474   1.08381  240.126
 4753.00    1.07945   1.08183  241.385
 4754.00    1.06568   1.07959   -1.000
 4755.00    1.06779   1.07830  242.262
 4756.00    1.07294   1.07854  240.621
 4757.00    1.07753   1.07967  241.517
 4758.00    1.07401   1.08029  246.178
 4759.00    1.06080   1.07927   -1.000
 4760.00    1.06122   1.07569   -1.000
 4761.00    1.05913   1.06895  253.771
 4762.00    1.05736   1.06054  252.821
 4763.00    1.05108   1.05421  250.452
 4764.00    1.04134   1.05322  246.207
 4765.00    1.04278   1.05781   -1.000
 4766.00    1.05724   1.06549  239.088
 4767.00    1.07292   1.07337  240.154
 4768.00    1.07664   1.07993  242.294
 4769.00    1.07541   1.08427  242.892
 4770.00    1.07203   1.08543   -1.000
 4771.00    1.06431   1.08369   -1.000
 4772.00    1.05898   1.08140   -1.000
 4773.00    1.07398   1.08114  234.492
 4774.00    1.07792   1.08315  235.468
 4775.00    1.08447   1.08547  237.398
 4776.00    1.08793   1.08625  239.726
 4777.00    1.08187   1.08470  240.827
 4778.00    1.06922   1.08054  241.580
 4779.00    1.06366   1.07536  243.035
 4780.00    1.06331   1.07291  244.377
 4781.00    1.06724   1.07481  244.480
 4782.00    1.06665   1.07816  245.866
 4783.00    1.06260   1.07949   -1.000
 4784.00    1.07242   1.07829  248.906
 4785.00    1.07131   1.07561  248.270
 4786.00    1.06753   1.07260  246.906
 4787.00    1.06853   1.07068  245.026
 4788.00    1.06208   1.07071  241.939
 4789.00    1.05851   1.07244   -1.000
 4790.00    1.06170   1.07558   -1.000
 4791.00    1.06541   1.07992   -1.000
 4792.00    1.06302   1.08474   -1.000
 4793.00    1.07316   1.08916   -1.000
 4794.00    1.08370   1.09217  237.784
 4795.00    1.08002   1.09254   -1.000
 4796.00    1.07929   1.08984  242.846
 4797.00    1.07936   1.08534  239.577
 4798.00    1.07775   1.08149  235.079
 4799.00    1.07618   1.08074  232.996
 4800.00    1.07483   1.08369  234.411
 4801.00    1.07678   1.08812  237.625
 4802.00    1.08172   1.08993  240.369
 4803.00    1.07941   1.08617  241.768
 4804.00    1.06571   1.07853   -1.000
 4805.00    1.06386   1.07268  240.643
 4806.00    1.07353   1.07245  239.164
 4807.00    1.07890   1.07680  237.103
 4808.00    1.08349   1.08210  235.588
 4809.00    1.08335   1.08523  234.730
 4810.00    1.07831   1.08556  234.420
 4811.00    1.08378   1.08511  233.740
 4812.00    1.08873   1.08640  232.669
 4813.00    1.08484   1.08993  231.184
 4814.00    1.07806   1.09378   -1.000
 4815.00    1.07363   1.09600   -1.000
 4816.00    1.08261   1.09661   -1.000
 4817.00    1.09147   1.09644  229.984
 4818.00    1.09976   1.09553  233.481
 4819.00    1.09306   1.09362  239.253
 4820.00    1.08518   1.09061  242.002
 4821.00    1.08014   1.08570  240.005
 4822.00    1.07276   1.07822  235.798
 4823.00    1.06246   1.07007  233.783
 4824.00    1.06779   1.06540  235.562
 4825.00    1.06944   1.06641  237.964
 4826.00    1.07852   1.07082  238.849
 4827.00    1.08531   1.07448  239.527
 4828.00    1.08158   1.07536  241.206
 4829.00    1.07563   1.07436  240.013
 4830.00    1.07449   1.07311  236.237
 4831.00    1.08206   1.07207  233.932
 4832.00    1.08056   1.07114  233.594
 4833.00    1.07465   1.07034  234.284
 4834.00    1.06787   1.06938  236.174
 4835.00    1.07473   1.06790  239.851
 4836.00    1.07060   1.06651  242.710
 4837.00    1.06452   1.06593  242.460
 4838.00    1.05884   1.06562  241.672
 4839.00    1.05684   1.06468  240.215
 4840.00    1.06274   1.06353  238.176
 4841.00    1.06496   1.06280  235.274
 4842.00    1.06479   1.06180  232.422
 4843.00    1.06066   1.05984  233.441
 4844.00    1.05567   1.05744  237.963
 4845.00    1.06016   1.05496  240.167
 4846.00    1.05664   1.05126  238.783
 4847.00    1.04331   1.04520  236.332
 4848.00    1.03835   1.03840  236.576
 4849.00    1.03783   1.03385  238.238
 4850.00    1.03332   1.03162  242.141
 4851.00    1.02610   1.02871  249.460
 4852.00    1.02081   1.02196  253.712
 4853.00    1.01477   1.00929  252.131
 4854.00    1.00024   0.99086  252.944
 4855.00    0.98486   0.97019   -1.000
 4856.00    0.97082   0.94999   -1.000
 4857.00    0.94806   0.92568   -1.000
 4858.00    0.91256   0.88590   -1.000
 4859.00    0.84995   0.82397   -1.000
 4860.00    0.76606   0.75307   -1.000
 4861.00    0.70951   0.70638  259.909
 4862.00    0.73209   0.71184   -1.000
 4863.00    0.81165   0.76489   -1.000
 4864.00    0.88381   0.83415   -1.000
 4865.00    0.93363   0.89242   -1.000
 4866.00    0.96097   0.93355   -1.000
 4867.00    0.98274   0.96234   -1.000
 4868.00    0.99640   0.98202   -1.000
 4869.00    1.00979   0.99213   -1.000
 4870.00    1.01250   0.99343   -1.000
 4871.00    0.99387   0.99148  246.446
 4872.00    0.99902   0.99370  244.820
 4873.00    1.01383   1.00274  243.696
 4874.00    1.02171   1.01452  241.834
 4875.00    1.02473   1.02357  238.583
 4876.00    1.02616   1.02862  237.849
 4877.00    1.02589   1.03254  240.809
 4878.00    1.03304   1.03875  243.884
 4879.00    1.03830   1.04776  244.380
 4880.00    1.04103   1.05606   -1.000
 4881.00    1.04452   1.05904   -1.000
 4882.00    1.04680   1.05615  249.584
 4883.00    1.05184   1.05184  249.805
 4884.00    1.05591   1.05091  248.777
 4885.00    1.05275   1.05403  250.023
 4886.00    1.05474   1.05833  254.575
 4887.00    1.06288   1.06041  257.426
 4888.00    1.05118   1.05822  252.053
 4889.00    1.04320   1.05172  241.039
 4890.00    1.04043   1.04423  231.388
 4891.00    1.03025   1.04218  225.643
 4892.00    1.03617   1.04994  222.707
 4893.00    1.06055   1.06450  222.326
 4894.00    1.08511   1.07870  224.549
 4895.00    1.09038   1.08846  229.737
 4896.00    1.08238   1.09370  234.063
 4897.00    1.07919   1.09494   -1.000
 4898.00    1.08094   1.09227  234.431
 4899.00    1.08072   1.08696  235.824
 4900.00    1.08155   1.08215  236.619
 4901.00    1.08024   1.07999  232.879
 4902.00    1.07526   1.07954  229.087
 4903.00    1.07529   1.07982  228.940
 4904.00    1.07751   1.08242  232.522
 4905.00    1.08110   1.08813  238.700
 4906.00    1.08186   1.09356  244.118
 4907.00    1.07800   1.09457   -1.000
 4908.00    1.07409   1.09069   -1.000
 4909.00    1.06988   1.08413   -1.000
 4910.00    1.06301   1.07775   -1.000
 4911.00    1.07085   1.07469  230.915
 4912.00    1.08301   1.07657  230.166
 4913.00    1.08352   1.08181  234.124
 4914.00    1.08806   1.08733  244.385
 4915.00    1.09724   1.09018  257.287
 4916.00    1.10016   1.08753   -1.000
 4917.00    1.08184   1.07736  263.727
 4918.00    1.05873   1.06104  254.452
 4919.00    1.04360   1.04388  247.435
 4920.00    1.02850   1.03233  245.294
 4921.00    1.03077   1.02909  243.932
 4922.00    1.04883   1.03080   -1.000
 4923.00    1.07092   1.03320   -1.000
 4924.00    1.06646   1.03787   -1.000
 4925.00    1.06025   1.04883  228.651
 4926.00    1.07162   1.06426  227.173
 4927.00    1.08265   1.07805  227.300
 4928.00    1.09240   1.08701  231.263
 4929.00    1.09603   1.09167  238.563
 4930.00    1.08689   1.09225  243.954
 4931.00    1.07464   1.08733  242.265
 4932.00    1.06944   1.07648  239.549
 4933.00    1.06388   1.06369  242.480
 4934.00    1.06199   1.05649  249.645
 4935.00    1.06833   1.05824  252.706
 4936.00    1.07456   1.06338  247.545
 4937.00    1.08021   1.06453   -1.000
 4938.00    1.07105   1.06160  232.880
 4939.00    1.05780   1.06073  229.564
 4940.00    1.06508   1.06648  228.468
 4941.00    1.07445   1.07755  229.307
 4942.00    1.07354   1.08891   -1.000
 4943.00    1.08119   1.09635   -1.000
 4944.00    1.08656   1.09871  227.447
 4945.00    1.08615   1.09756  225.593
 4946.00    1.08743   1.09584  224.837
 4947.00    1.08138   1.09587   -1.000
 4948.00    1.08313   1.09773   -1.000
 4949.00    1.09135   1.09974  228.199
 4950.00    1.08985   1.10045  230.957
 4951.00    1.09303   1.09987  235.257
 4952.00    1.09725   1.09872  244.131
 4953.00    1.08888   1.09687  255.760
 4954.00    1.08372   1.09195  259.252
 4955.00    1.07844   1.08047  249.378
 4956.00    1.05835   1.06299  237.400
 4957.00    1.03840   1.04845  232.098
 4958.00    1.03343   1.04773   -1.000
 4959.00    1.05439   1.06154  233.153
 4960.00    1.08220   1.08006  235.428
 4961.00    1.08709   1.09403  239.209
 4962.00    1.08674   1.10081   -1.000
 4963.00    1.08841   1.10173   -1.000
 4964.00    1.08220   1.09859   -1.000
 4965.00    1.08152   1.09319  243.692
 4966.00    1.07877   1.08818  241.505
 4967.00    1.07023   1.08575   -1.000
 4968.00    1.07477   1.08596  236.201
 4969.00    1.08213   1.08793  233.631
 4970.00    1.08812   1.09111  231.995
 4971.00    1.09015   1.09471  232.212
 4972.00    1.09007   1.09776  234.253
 4973.00    1.09018   1.09974  237.063
 4974.00    1.09053   1.10028  240.593
 4975.00    1.09227   1.09923  244.113
 4976.00    1.08575   1.09678  247.308
 4977.00    1.09055   1.09347  252.891
 4978.00    1.09012   1.09026  261.295
 4979.00    1.07084   1.08659   -1.000
 4980.00    1.06540   1.07986   -1.000
 4981.00    1.05752   1.06928  257.358
 4982.00    1.04308   1.05830   -1.000
 4983.00    1.04283   1.05210  242.474
 4984.00    1.05474   1.05342  239.313
 4985.00    1.06590   1.06095  241.138
 4986.00    1.07166   1.07149  244.281
 4987.00    1.06852   1.08154   -1.000
 4988.00    1.06878   1.08723   -1.000
 4989.00    1.07472   1.08619  242.984
 4990.00    1.07452   1.08037  242.398
 4991.00    1.06984   1.07475  241.775
 4992.00    1.07909   1.07309  240.523
 4993.00    1.08619   1.07562  240.549
 4994.00    1.07452   1.08066  242.872
 4995.00    1.07048   1.08637   -1.000
 4996.00    1.07715   1.09007   -1.000
 4997.00    1.07589   1.08855   -1.000
 4998.00    1.07129   1.08034  251.759
 4999.00    1.07148   1.06828  249.660
 5000.00    1.06396   1.05964  250.445
 5001.00    1.06140   1.05944  255.441
 5002.00    1.06367   1.06461  259.664
 5003.00    1.05919   1.06808  257.323
 5004.00    1.05530   1.06563  250.138
 5005.00    1.04925   1.05856  244.808
 5006.00    1.04719   1.05296  244.995
 5007.00    1.05578   1.05443  250.251
 5008.00    1.07207   1.06195  258.743
 5009.00    1.07887   1.06888  266.805
 5010.00    1.08002   1.06972  269.410
 5011.00    1.06453   1.06399  265.742
 5012.00    1.04451   1.05523  259.922
 5013.00    1.04348   1.04830  256.547
 5014.00    1.04334   1.04632  256.080
 5015.00    1.04073   1.04794  254.728
 5016.00    1.04934   1.04789  252.162
 5017.00    1.05572   1.04294   -1.000
 5018.00    1.04948   1.03754   -1.000
 5019.00    1.05440   1.03976   -1.000
 5020.00    1.06576   1.05063   -1.000
 5021.00    1.07006   1.06321  247.841
 5022.00    1.07190   1.07231  247.563
 5023.00    1.08263   1.07864  248.802
 5024.00    1.08278   1.08405  248.309
 5025.00    1.07206   1.08808   -1.000
 5026.00    1.06658   1.08942   -1.000
 5027.00    1.06921   1.08855   -1.000
 5028.00    1.07452   1.08713  233.705
 5029.00    1.08013   1.08596  232.526
 5030.00    1.08132   1.08546  236.375
 5031.00    1.08445   1.08677  245.000
 5032.00    1.08771   1.08970  252.039
 5033.00    1.08010   1.09123  254.510
 5034.00    1.07117   1.08870   -1.000
 5035.00    1.06521   1.08325   -1.000
 5036.00    1.06368   1.07848   -1.000
 5037.00    1.06593   1.07542  279.471
 5038.00    1.06361   1.07071  272.485
 5039.00    1.05087   1.06126  257.177
 5040.00    1.05857   1.04964  243.921
 5041.00    0.89892   1.04356   -1.000
 5042.00    0.36777   1.04871   -1.000
 5043.00   -0.00787   1.06290    0.000
 5044.00    0.07256   1.07909   -1.000
 5045.00    0.48404   1.09167   -1.000
 5046.00    0.95700   1.09822   -1.000
 5047.00    1.09442   1.09798  248.395
 5048.00    1.08373   1.09139  248.021
 5049.00    1.08015   1.08078  242.005
 5050.00    1.07135   1.06968  236.735
 5051.00    1.07186   1.06234  233.492
 5052.00    1.07658   1.06352   -1.000
 5053.00    1.08499   1.07424  231.921
 5054.00    1.09434   1.08840  232.373
 5055.00    1.09512   1.09864  232.538
 5056.00    1.10073   1.10329  231.671
 5057.00    1.10296   1.10491  230.932
 5058.00    1.10182   1.10581  232.614
 5059.00    1.10146   1.10666  237.661
 5060.00    1.09458   1.10724   -1.000
 5061.00    1.09670   1.10682  251.264
 5062.00    1.09843   1.10416  250.970
 5063.00    1.08764   1.09852  247.412
 5064.00    1.08204   1.09134  245.172
 5065.00    1.07758   1.08579  244.250
 5066.00    1.07636   1.08370  242.844
 5067.00    1.08444   1.08390  243.073
 5068.00    1.08664   1.08451  245.098
 5069.00    1.08265   1.08525  244.443
 5070.00    1.08598   1.08625  241.904
 5071.00    1.09120   1.08660  240.851
 5072.00    1.09110   1.08555  240.628
 5073.00    1.09027   1.08386  241.759
 5074.00    1.08529   1.08276  247.317
 5075.00    1.08218   1.08242  257.749
 5076.00    1.08458   1.08131  265.273
 5077.00    1.08128   1.07705  263.551
 5078.00    1.06998   1.06929  257.780
 5079.00    1.05873   1.06192  253.354
 5080.00    1.05986   1.05978  249.247
 5081.00    1.06749   1.06321  244.732
 5082.00    1.06857   1.06853  241.843
 5083.00    1.07229   1.07372  240.905
 5084.00    1.07703   1.07951  240.129
 5085.00    1.07723   1.08553  238.615
 5086.00    1.08541   1.08991  237.096
 5087.00    1.09341   1.09214  235.838
 5088.00    1.10776   1.09371   -1.000
 5089.00    1.14533   1.09598   -1.000
 5090.00    1.13649   1.09877   -1.000
 5091.00    1.10802   1.10136  235.231
 5092.00    1.10675   1.10364  240.309
 5093.00    1.10852   1.10547  245.853
 5094.00    1.12485   1.10580   -1.000
 5095.00    1.12281   1.10318   -1.000
 5096.00    1.10054   1.09714  251.108
 5097.00    1.08903   1.08898  244.176
 5098.00    1.08401   1.08176  239.753
 5099.00    1.08181   1.07911  239.657
 5100.00    1.09091   1.08238  242.093
 5101.00    1.10292   1.08909   -1.000
 5102.00    1.09752   1.09534  248.311
 5103.00    1.09283   1.09863  251.395
 5104.00    1.09954   1.09811  252.618
 5105.00    1.09565   1.09352  251.477
 5106.00    1.07842   1.08554  249.731
 5107.00    1.07107   1.07724  246.934
 5108.00    1.07336   1.07250  243.630
 5109.00    1.07529   1.07268  240.662
 5110.00    1.07608   1.07700  238.149
 5111.00    1.08351   1.08445  236.500
 5112.00    1.09090   1.09334  234.561
 5113.00    1.09546   1.10094  232.340
 5114.00    1.10315   1.10563  231.867
 5115.00    1.10483   1.10809  233.916
 5116.00    1.10071   1.10989  237.295
 5117.00    1.09937   1.11127  241.074
 5118.00    1.10188   1.11124  246.308
 5119.00    1.11095   1.10915  253.328
 5120.00    1.11404   1.10499  257.722
 5121.00    1.10323   1.09894  257.083
 5122.00    1.09245   1.09165  255.289
 5123.00    1.08213   1.08487  253.908
 5124.00    1.07693   1.08087  253.444
 5125.00    1.07886   1.08000  253.518
 5126.00    1.08459   1.07985  251.520
 5127.00    1.08207   1.07836  247.588
 5128.00    1.07497   1.07645  244.596
 5129.00    1.08847   1.07666   -1.000
 5130.00    1.09960   1.08004   -1.000
 5131.00    1.09391   1.08507  238.974
 5132.00    1.09150   1.08955  241.181
 5133.00    1.08844   1.09275  246.524
 5134.00    1.09251   1.09470  251.395
 5135.00    1.09812   1.09464  253.266
 5136.00    1.09142   1.09144  252.019
 5137.00    1.08422   1.08525  252.067
 5138.00    1.07299   1.07833  255.326
 5139.00    1.06661   1.07406  256.285
 5140.00    1.07627   1.07406  253.014
 5141.00    1.08337   1.07666  250.644
 5142.00    1.06931   1.07952  251.709
 5143.00    1.07234   1.08263  253.139
 5144.00    1.08870   1.08670  251.541
 5145.00    1.09299   1.09045  249.339
 5146.00    1.09511   1.09229  250.579
 5147.00    1.10006   1.09239  254.653
 5148.00    1.09825   1.09127  257.618
 5149.00    1.09275   1.08840  257.489
 5150.00    1.08380   1.08341  253.978
 5151.00    1.07452   1.07773  248.092
 5152.00    1.07508   1.07419  241.741
 5153.00    1.08292   1.07454  236.546
 5154.00    1.08923   1.07877  233.733
 5155.00    1.09934   1.08607   -1.000
 5156.00    1.11022   1.09462   -1.000
 5157.00    1.11569   1.10181   -1.000
 5158.00    1.11939   1.10597   -1.000
 5159.00    1.11960   1.10712   -1.000
 5160.00    1.10769   1.10603  247.049
 5161.00    1.09481   1.10354  262.976
 5162.00    1.08941   1.10013  288.394
 5163.00    1.08044   1.09396   -1.000
 5164.00    1.07886   1.07968  316.912
 5165.00    1.06674   1.05244   -1.000
 5166.00    1.02520   1.01566   -1.000
 5167.00    0.99638   0.98337   -1.000
 5168.00    0.99698   0.97017   -1.000
 5169.00    1.01138   0.97687   -1.000
 5170.00    1.02375   0.98926   -1.000
 5171.00    1.02333   0.99389   -1.000
 5172.00    1.01852   0.99406   -1.000
 5173.00    1.02934   1.00420   -1.000
 5174.00    1.06078   1.03010   -1.000
 5175.00    1.08974   1.06183   -1.000
 5176.00    1.10288   1.08609   -1.000
 5177.00    1.11134   1.09890   -1.000
 5178.00    1.12060   1.10345   -1.000
 5179.00    1.10947   1.10178  324.608
 5180.00    1.10293   1.09156   -1.000
 5181.00    1.08773   1.06942   -1.000
 5182.00    1.05381   1.03847   -1.000
 5183.00    1.03192   1.01191   -1.000
 5184.00    1.03088   1.00501   -1.000
 5185.00    1.05753   1.02033   -1.000
 5186.00    1.08191   1.04415   -1.000
 5187.00    1.09138   1.06123   -1.000
 5188.00    1.08721   1.06784   -1.000
 5189.00    1.08323   1.06827   -1.000
 5190.00    1.08731   1.06576   -1.000
 5191.00    1.07832   1.06121   -1.000
 5192.00    1.06545   1.05713  251.753
 5193.00    1.05813   1.05678  247.198
 5194.00    1.06109   1.05994  242.667
 5195.00    1.07837   1.06382   -1.000
 5196.00    1.07737   1.06720  239.053
 5197.00    1.07616   1.07103  240.207
 5198.00    1.08813   1.07623   -1.000
 5199.00    1.09600   1.08204   -1.000
 5200.00    1.10060   1.08601   -1.000
 5201.00    1.09843   1.08553   -1.000
 5202.00    1.09517   1.07929   -1.000
 5203.00    1.08325   1.06803   -1.000
 5204.00    1.06431   1.05527  270.309
 5205.00    1.06089   1.04595   -1.000
 5206.00    1.06173   1.04277   -1.000
 5207.00    1.05149   1.04413  251.330
 5208.00    1.04992   1.04730  241.339
 5209.00    1.06469   1.05263   -1.000
 5210.00    1.08515   1.06210   -1.000
 5211.00    1.10376   1.07443   -1.000
 5212.00    1.10785   1.08504   -1.000
 5213.00    1.10652   1.08971   -1.000
 5214.00    1.10678   1.08717   -1.000
 5215.00    1.10300   1.08046   -1.000
 5216.00    1.09627   1.07559   -1.000
 5217.00    1.09993   1.07722   -1.000
 5218.00    1.11133   1.08503   -1.000
 5219.00    1.11714   1.09475   -1.000
 5220.00    1.12224   1.10231   -1.000
 5221.00    1.12634   1.10593   -1.000
 5222.00    1.12509   1.10469   -1.000
 5223.00    1.11779   1.09692   -1.000
 5224.00    1.09722   1.08114   -1.000
 5225.00    1.07573   1.05959   -1.000
 5226.00    1.06243   1.04095   -1.000
 5227.00    1.05694   1.03586   -1.000
 5228.00    1.06776   1.04666   -1.000
 5229.00    1.09171   1.06438   -1.000
 5230.00    1.10728   1.07699   -1.000
 5231.00    1.10709   1.07879   -1.000
 5232.00    1.09168   1.07240   -1.000
 5233.00    1.07797   1.06521   -1.000
 5234.00    1.08703   1.06408   -1.000
 5235.00    1.10907   1.07072   -1.000
 5236.00    1.11647   1.08133   -1.000
 5237.00    1.12097   1.09084   -1.000
 5238.00    1.11833   1.09678   -1.000
 5239.00    1.11510   1.09969   -1.000
 5240.00    1.12006   1.10116   -1.000
 5241.00    1.12807   1.10208   -1.000
 5242.00    1.12577   1.10268   -1.000
 5243.00    1.11422   1.10311  243.223
 5244.00    1.11491   1.10312   -1.000
 5245.00    1.11665   1.10147   -1.000
 5246.00    1.10856   1.09723   -1.000
 5247.00    1.10177   1.09160  246.872
 5248.00    1.09939   1.08672   -1.000
 5249.00    1.10121   1.08352   -1.000
 5250.00    1.10268   1.08217   -1.000
 5251.00    1.09780   1.08289   -1.000
 5252.00    1.09751   1.08483   -1.000
 5253.00    1.10412   1.08624   -1.000
 5254.00    1.10510   1.08692   -1.000
 5255.00    1.10703   1.08888   -1.000
 5256.00    1.11309   1.09386   -1.000
 5257.00    1.12076   1.10043   -1.000
 5258.00    1.12032   1.10474   -1.000
 5259.00    1.11196   1.10346  261.084
 5260.00    1.10438   1.09554  267.586
 5261.00    1.09435   1.08237   -1.000
 5262.00    1.07960   1.06730   -1.000
 5263.00    1.06427   1.05385   -1.000
 5264.00    1.06008   1.04453   -1.000
 5265.00    1.06399   1.04062   -1.000
 5266.00    1.07379   1.04068   -1.000
 5267.00    1.06739   1.03974   -1.000
 5268.00    1.04959   1.03337   -1.000
 5269.00    1.03905   1.02478   -1.000
 5270.00    1.04534   1.02365   -1.000
 5271.00    1.06519   1.03485   -1.000
 5272.00    1.08675   1.05183   -1.000
 5273.00    1.08979   1.06399   -1.000
 5274.00    1.09409   1.06809   -1.000
 5275.00    1.09979   1.06927   -1.000
 5276.00    1.10744   1.07384   -1.000
 5277.00    1.11360   1.08303   -1.000
 5278.00    1.11992   1.09242   -1.000
 5279.00    1.11957   1.09669   -1.000
 5280.00    1.10071   1.09409  240.023
 5281.00    1.09333   1.08685  233.280
 5282.00    1.09639   1.07902   -1.000
 5283.00    1.09877   1.07499   -1.000
 5284.00    1.09927   1.07796   -1.000
 5285.00    1.10990   1.08759   -1.000
 5286.00    1.12374   1.09937   -1.000
 5287.00    1.13409   1.10820   -1.000
 5288.00    1.13428   1.11265   -1.000
 5289.00    1.12647   1.11423  224.396
 5290.00    1.12453   1.11420  227.141
 5291.00    1.12827   1.11304   -1.000
 5292.00    1.13008   1.11139   -1.000
 5293.00    1.12695   1.10966   -1.000
 5294.00    1.12646   1.10704   -1.000
 5295.00    1.11984   1.10215   -1.000
 5296.00    1.10763   1.09504   -1.000
 5297.00    1.10576   1.08820   -1.000
 5298.00    1.10599   1.08487   -1.000
 5299.00    1.11070   1.08614   -1.000
 5300.00    1.11296   1.08987   -1.000
 5301.00    1.10702   1.09349   -1.000
 5302.00    1.11456   1.09668   -1.000
 5303.00    1.12846   1.10015   -1.000
 5304.00    1.13194   1.10337   -1.000
 5305.00    1.12803   1.10490   -1.000
 5306.00    1.12122   1.10451   -1.000
 5307.00    1.11972   1.10377   -1.000
 5308.00    1.12443   1.10438   -1.000
 5309.00    1.12462   1.10651   -1.000
 5310.00    1.12382   1.10877   -1.000
 5311.00    1.12326   1.10958   -1.000
 5312.00    1.13368   1.10823   -1.000
 5313.00    1.12812   1.10426   -1.000
 5314.00    1.11662   1.09730   -1.000
 5315.00    1.11868   1.08858   -1.000
 5316.00    1.11112   1.08199   -1.000
 5317.00    1.11440   1.08175   -1.000
 5318.00    1.12259   1.08809   -1.000
 5319.00    1.11716   1.09660   -1.000
 5320.00    1.11373   1.10202   -1.000
 5321.00    1.11003   1.10168  237.865
 5322.00    1.09996   1.09596  242.515
 5323.00    1.10042   1.08763   -1.000
 5324.00    1.10458   1.07970   -1.000
 5325.00    1.10858   1.07191   -1.000
 5326.00    1.09234   1.06112   -1.000
 5327.00    1.06603   1.04788   -1.000
 5328.00    1.06113   1.04015   -1.000
 5329.00    1.06939   1.04604   -1.000
 5330.00    1.09151   1.06345   -1.000
 5331.00    1.11308   1.08155   -1.000
 5332.00    1.11376   1.09225   -1.000
 5333.00    1.11388   1.09532   -1.000
 5334.00    1.12146   1.09413   -1.000
 5335.00    1.11935   1.09127   -1.000
 5336.00    1.11142   1.08822   -1.000
 5337.00    1.11013   1.08568   -1.000
 5338.00    1.10955   1.08315   -1.000
 5339.00    1.10472   1.08007   -1.000
 5340.00    1.10407   1.07802   -1.000
 5341.00    1.10754   1.07991   -1.000
 5342.00    1.10867   1.08596   -1.000
 5343.00    1.11444   1.09242   -1.000
 5344.00    1.11705   1.09550   -1.000
 5345.00    1.11093   1.09468   -1.000
 5346.00    1.10903   1.09197   -1.000
 5347.00    1.10910   1.08951   -1.000
 5348.00    1.10292   1.08839   -1.000
 5349.00    1.10510   1.08932   -1.000
 5350.00    1.11382   1.09266   -1.000
 5351.00    1.13149   1.09732   -1.000
 5352.00    1.12628   1.10143   -1.000
 5353.00    1.11821   1.10435   -1.000
 5354.00    1.12318   1.10687   -1.000
 5355.00    1.13065   1.10952   -1.000
 5356.00    1.13572   1.11180   -1.000
 5357.00    1.13114   1.11298   -1.000
 5358.00    1.13002   1.11281   -1.000
 5359.00    1.13107   1.11110   -1.000
 5360.00    1.13323   1.10753   -1.000
 5361.00    1.12540   1.10221   -1.000
 5362.00    1.11597   1.09630   -1.000
 5363.00    1.11619   1.09148   -1.000
 5364.00    1.10961   1.08888   -1.000
 5365.00    1.10634   1.08855   -1.000
 5366.00    1.11046   1.08924   -1.000
 5367.00    1.11484   1.08871   -1.000
 5368.00    1.10854   1.08479   -1.000
 5369.00    1.09494   1.07709   -1.000
 5370.00    1.09051   1.06850   -1.000
 5371.00    1.08688   1.06479   -1.000
 5372.00    1.09705   1.07022   -1.000
 5373.00    1.11575   1.08280   -1.000
 5374.00    1.12527   1.09596   -1.000
 5375.00    1.13105   1.10470   -1.000
 5376.00    1.13272   1.10849   -1.000
 5377.00    1.12945   1.10913   -1.000
 5378.00    1.12691   1.10773   -1.000
 5379.00    1.12223   1.10434   -1.000
 5380.00    1.11846   1.09965   -1.000
 5381.00    1.11849   1.09539   -1.000
 5382.00    1.11552   1.09332   -1.000
 5383.00    1.11845   1.09414   -1.000
 5384.00    1.12528   1.09749   -1.000
 5385.00    1.12778   1.10224   -1.000
 5386.00    1.12446   1.10660   -1.000
 5387.00    1.12265   1.10876   -1.000
 5388.00    1.12501   1.10792   -1.000
 5389.00    1.12466   1.10464   -1.000
 5390.00    1.12936   1.10021   -1.000
 5391.00    1.12783   1.09579   -1.000
 5392.00    1.11943   1.09203   -1.000
 5393.00    1.11236   1.08898   -1.000
 5394.00    1.10908   1.08547   -1.000
 5395.00    1.11376   1.07980   -1.000
 5396.00    1.10473   1.07294   -1.000
 5397.00    1.09860   1.06958   -1.000
 5398.00    1.10314   1.07324   -1.000
 5399.00    1.11423   1.08175   -1.000
 5400.00    1.11794   1.08951   -1.000
 5401.00    1.11894   1.09229   -1.000
 5402.00    1.11780   1.08874   -1.000
 5403.00    1.10608   1.07973   -1.000
 5404.00    1.09337   1.06876   -1.000
 5405.00    1.08012   1.06151   -1.000
 5406.00    1.08316   1.06186   -1.000
 5407.00    1.09856   1.06773   -1.000
 5408.00    1.11326   1.07324   -1.000
 5409.00    1.10757   1.07538   -1.000
 5410.00    1.10500   1.07650   -1.000
 5411.00    1.10463   1.07983   -1.000
 5412.00    1.11080   1.08449   -1.000
 5413.00    1.11836   1.08735   -1.000
 5414.00    1.11716   1.08792   -1.000
 5415.00    1.11170   1.08846   -1.000
 5416.00    1.11313   1.09058   -1.000
 5417.00    1.11386   1.09356   -1.000
 5418.00    1.11916   1.09592   -1.000
 5419.00    1.12798   1.09728   -1.000
 5420.00    1.11679   1.09766   -1.000
 5421.00    1.11038   1.09655   -1.000
 5422.00    1.11235   1.09360   -1.000
 5423.00    1.10243   1.08983   -1.000
 5424.00    1.10495   1.08759   -1.000
 5425.00    1.11598   1.08868   -1.000
 5426.00    1.11987   1.09152   -1.000
 5427.00    1.11604   1.09175   -1.000
 5428.00    1.10577   1.08719   -1.000
 5429.00    1.09510   1.08124   -1.000
 5430.00    1.08694   1.07893  242.615
 5431.00    1.09436   1.08026   -1.000
 5432.00    1.10115   1.08082   -1.000
 5433.00    1.09709   1.07827   -1.000
 5434.00    1.09921   1.07570   -1.000
 5435.00    1.09767   1.07806   -1.000
 5436.00    1.10624   1.08615   -1.000
 5437.00    1.12513   1.09625   -1.000
 5438.00    1.13490   1.10431   -1.000
 5439.00    1.12447   1.10889   -1.000
 5440.00    1.12802   1.11084   -1.000
 5441.00    1.13504   1.11118   -1.000
 5442.00    1.12252   1.10961   -1.000
 5443.00    1.11446   1.10465  244.852
 5444.00    1.11051   1.09514   -1.000
 5445.00    1.10378   1.08266   -1.000
 5446.00    1.09136   1.07250   -1.000
 5447.00    1.09127   1.07043   -1.000
 5448.00    1.10151   1.07738   -1.000
 5449.00    1.12073   1.08868   -1.000
 5450.00    1.13025   1.09827   -1.000
 5451.00    1.12900   1.10252   -1.000
 5452.00    1.12049   1.10044   -1.000
 5453.00    1.10881   1.09272   -1.000
 5454.00    1.09802   1.08232   -1.000
 5455.00    1.07891   1.07506  227.479
 5456.00    1.07966   1.07631  229.626
 5457.00    1.10689   1.08590   -1.000
 5458.00    1.12186   1.09797   -1.000
 5459.00    1.12058   1.10628   -1.000
 5460.00    1.12542   1.10865   -1.000
 5461.00    1.13137   1.10624   -1.000
 5462.00    1.11959   1.10161   -1.000
 5463.00    1.11057   1.09790   -1.000
 5464.00    1.11768   1.09733   -1.000
 5465.00    1.12374   1.09954   -1.000
 5466.00    1.12724   1.10254   -1.000
 5467.00    1.12559   1.10505   -1.000
 5468.00    1.12549   1.10713   -1.000
 5469.00    1.12913   1.10880   -1.000
 5470.00    1.12725   1.10927   -1.000
 5471.00    1.12736   1.10778   -1.000
 5472.00    1.12592   1.10455   -1.000
 5473.00    1.11812   1.09986   -1.000
 5474.00    1.11010   1.09325   -1.000
 5475.00    1.11197   1.08505   -1.000
 5476.00    1.10155   1.07838   -1.000
 5477.00    1.10080   1.07764   -1.000
 5478.00    1.11019   1.08357   -1.000
 5479.00    1.12321   1.09170   -1.000
 5480.00    1.12377   1.09721   -1.000
 5481.00    1.12002   1.09938   -1.000
 5482.00    1.12147   1.10044   -1.000
 5483.00    1.12433   1.10241   -1.000
 5484.00    1.11042   1.10522  235.527
 5485.00    1.11001   1.10737  235.710
 5486.00    1.11918   1.10768   -1.000
 5487.00    1.12800   1.10631   -1.000
 5488.00    1.11664   1.10442   -1.000
 5489.00    1.11489   1.10318   -1.000
 5490.00    1.12513   1.10325   -1.000
 5491.00    1.12218   1.10448   -1.000
 5492.00    1.12621   1.10593   -1.000
 5493.00    1.12634   1.10638   -1.000
 5494.00    1.12506   1.10503   -1.000
 5495.00    1.12065   1.10162   -1.000
 5496.00    1.10497   1.09694  233.056
 5497.00    1.09797   1.09325  236.677
 5498.00    1.10162   1.09231  237.504
 5499.00    1.10439   1.09287   -1.000
 5500.00    1.09628   1.09232  235.073
 5501.00    1.09539   1.09055  237.874
 5502.00    1.10544   1.09007   -1.000
 5503.00    1.10567   1.09175   -1.000
 5504.00    1.11321   1.09288   -1.000
 5505.00    1.11566   1.09081   -1.000
 5506.00    1.10950   1.08710   -1.000
 5507.00    1.10583   1.08583   -1.000
 5508.00    1.10269   1.08876   -1.000
 5509.00    1.11295   1.09336   -1.000
 5510.00    1.12055   1.09601   -1.000
 5511.00    1.11706   1.09582   -1.000
 5512.00    1.11958   1.09452   -1.000
 5513.00    1.12118   1.09406   -1.000
 5514.00    1.11073   1.09535   -1.000
 5515.00    1.11085   1.09831   -1.000
 5516.00    1.12380   1.10223   -1.000
 5517.00    1.12363   1.10609   -1.000
 5518.00    1.12671   1.10893   -1.000
 5519.00    1.13351   1.11015   -1.000
 5520.00    1.12940   1.10998   -1.000
 5521.00    1.13256   1.10937   -1.000
 5522.00    1.12899   1.10883   -1.000
 5523.00    1.12118   1.10743   -1.000
 5524.00    1.12161   1.10315   -1.000
 5525.00    1.11770   1.09467   -1.000
 5526.00    1.10502   1.08355   -1.000
 5527.00    1.09755   1.07448   -1.000
 5528.00    1.09121   1.07235   -1.000
 5529.00    1.10206   1.07818   -1.000
 5530.00    1.11020   1.08794   -1.000
 5531.00    1.12074   1.09569   -1.000
 5532.00    1.12030   1.09786   -1.000
 5533.00    1.11123   1.09534   -1.000
 5534.00    1.11716   1.09221   -1.000
 5535.00    1.12216   1.09234   -1.000
 5536.00    1.12034   1.09635   -1.000
 5537.00    1.11702   1.10178   -1.000
 5538.00    1.12620   1.10607   -1.000
 5539.00    1.13743   1.10836   -1.000
 5540.00    1.14012   1.10902   -1.000
 5541.00    1.13016   1.10848   -1.000
 5542.00    1.12738   1.10701   -1.000
 5543.00    1.12297   1.10527   -1.000
 5544.00    1.11715   1.10428   -1.000
 5545.00    1.12319   1.10460   -1.000
 5546.00    1.13214   1.10605   -1.000
 5547.00    1.12402   1.10820   -1.000
 5548.00    1.12405   1.11060   -1.000
 5549.00    1.13656   1.11239   -1.000
 5550.00    1.13386   1.11281   -1.000
 5551.00    1.12668   1.11206   -1.000
 5552.00    1.12142   1.11102  230.293
 5553.00    1.12125   1.11026  229.875
 5554.00    1.13098   1.10987   -1.000
 5555.00    1.13255   1.10994   -1.000
 5556.00    1.12623   1.11048   -1.000
 5557.00    1.12678   1.11114   -1.000
 5558.00    1.13047   1.11160   -1.000
 5559.00    1.13351   1.11179   -1.000
 5560.00    1.14120   1.11148   -1.000
 5561.00    1.13544   1.11028   -1.000
 5562.00    1.10979   1.10848  236.374
 5563.00    1.10933   1.10700  235.920
 5564.00    1.12031   1.10619   -1.000
 5565.00    1.11264   1.10548  236.033
 5566.00    1.10845   1.10415  235.920
 5567.00    1.11738   1.10209   -1.000
 5568.00    1.11638   1.09970   -1.000
 5569.00    1.10944   1.09756   -1.000
 5570.00    1.11315   1.09562   -1.000
 5571.00    1.11832   1.09338   -1.000
 5572.00    1.04790   1.09157   -1.000
 5573.00    0.64061   1.09167   -1.000
 5574.00    0.15942   1.09384   -1.000
 5575.00   -0.00949   1.09692    0.000
 5576.00    0.46950   1.09987   -1.000
 5577.00    0.89180   1.10234   -1.000
 5578.00    1.04517   1.10425   -1.000
 5579.00    1.10055   1.10525  232.446
 5580.00    1.11319   1.10505  233.720
 5581.00    1.10693   1.10419  238.777
 5582.00    1.11973   1.10358   -1.000
 5583.00    1.12161   1.10271   -1.000
 5584.00    1.11045   1.09945   -1.000
 5585.00    1.09960   1.09247  249.669
 5586.00    1.09896   1.08342   -1.000
 5587.00    1.09056   1.07597   -1.000
 5588.00    1.08598   1.07310   -1.000
 5589.00    1.08809   1.07547   -1.000
 5590.00    1.09250   1.08137   -1.000
 5591.00    1.10916   1.08753   -1.000
 5592.00    1.11166   1.09115   -1.000
 5593.00    1.10721   1.09204   -1.000
 5594.00    1.10827   1.09241   -1.000
 5595.00    1.11259   1.09380   -1.000
 5596.00    1.11638   1.09497   -1.000
 5597.00    1.11129   1.09419   -1.000
 5598.00    1.11001   1.09192   -1.000
 5599.00    1.10967   1.08933   -1.000
 5600.00    1.10324   1.08651   -1.000
 5601.00    1.10046   1.08424   -1.000
 5602.00    1.09912   1.08488   -1.000
 5603.00    1.10127   1.08994   -1.000
 5604.00    1.11289   1.09803   -1.000
 5605.00    1.11759   1.10599   -1.000
 5606.00    1.11972   1.11149  227.557
 5607.00    1.12429   1.11427  226.846
 5608.00    1.11678   1.11541  227.883
 5609.00    1.12102   1.11605  232.542
 5610.00    1.12913   1.11640   -1.000
 5611.00    1.12549   1.11545   -1.000
 5612.00    1.11433   1.11149  244.445
 5613.00    1.10896   1.10377  238.575
 5614.00    1.10228   1.09468  235.229
 5615.00    1.09608   1.08936  234.646
 5616.00    1.10834   1.09123   -1.000
 5617.00    1.11347   1.09840   -1.000
 5618.00    1.11781   1.10588   -1.000
 5619.00    1.13615   1.11042   -1.000
 5620.00    1.13226   1.11201   -1.000
 5621.00    1.12348   1.11173   -1.000
 5622.00    1.11697   1.11004  237.380
 5623.00    1.10658   1.10743  233.932
 5624.00    1.10637   1.10531  231.217
 5625.00    1.12081   1.10520   -1.000
 5626.00    1.12029   1.10721   -1.000
 5627.00    1.11926   1.11006  227.935
 5628.00    1.13278   1.11259   -1.000
 5629.00    1.13303   1.11432   -1.000
 5630.00    1.12867   1.11512   -1.000
 5631.00    1.12501   1.11496  233.090
 5632.00    1.12577   1.11409   -1.000
 5633.00    1.12166   1.11309  236.409
 5634.00    1.12651   1.11236   -1.000
 5635.00    1.13763   1.11163   -1.000
 5636.00    1.12897   1.11046   -1.000
 5637.00    1.11860   1.10895  237.109
 5638.00    1.11773   1.10736  236.146
 5639.00    1.12259   1.10577   -1.000
 5640.00    1.12577   1.10443   -1.000
 5641.00    1.12677   1.10394   -1.000
 5642.00    1.12732   1.10472   -1.000
 5643.00    1.12839   1.10637   -1.000
 5644.00    1.13169   1.10809   -1.000
 5645.00    1.12817   1.10939   -1.000
 5646.00    1.12740   1.11018   -1.000
 5647.00    1.12987   1.11061   -1.000
 5648.00    1.12401   1.11073   -1.000
 5649.00    1.11933   1.11049  230.425
 5650.00    1.12249   1.11012   -1.000
 5651.00    1.12277   1.10995   -1.000
 5652.00    1.11384   1.10994  239.123
 5653.00    1.12243   1.10955   -1.000
 5654.00    1.12716   1.10763   -1.000
 5655.00    1.11525   1.10263   -1.000
 5656.00    1.11004   1.09430   -1.000
 5657.00    1.10961   1.08573   -1.000
 5658.00    1.09570   1.08173   -1.000
 5659.00    1.11744   1.08399   -1.000
 5660.00    1.11318   1.08954   -1.000
 5661.00    1.11034   1.09450   -1.000
 5662.00    1.12144   1.09829   -1.000
 5663.00    1.12543   1.10229   -1.000
 5664.00    1.12181   1.10591   -1.000
 5665.00    1.13551   1.10677   -1.000
 5666.00    1.12985   1.10426   -1.000
 5667.00    1.11135   1.10066  232.566
 5668.00    1.11721   1.09889   -1.000
 5669.00    1.11919   1.09998   -1.000
 5670.00    1.11996   1.10295   -1.000
 5671.00    1.11986   1.10619   -1.000
 5672.00    1.12987   1.10866   -1.000
 5673.00    1.12857   1.11013   -1.000
 5674.00    1.13485   1.11092   -1.000
 5675.00    1.13168   1.11150   -1.000
 5676.00    1.13662   1.11198   -1.000
 5677.00    1.13254   1.11209   -1.000
 5678.00    1.12702   1.11145   -1.000
 5679.00    1.12608   1.10985   -1.000
 5680.00    1.13330   1.10714   -1.000
 5681.00    1.12205   1.10327   -1.000
 5682.00    1.11796   1.09896   -1.000
 5683.00    1.11347   1.09580   -1.000
 5684.00    1.11044   1.09510   -1.000
 5685.00    1.11972   1.09661   -1.000
 5686.00    1.12129   1.09867   -1.000
 5687.00    1.11326   1.09983   -1.000
 5688.00    1.10652   1.10008  228.759
 5689.00    1.10791   1.10043  228.405
 5690.00    1.12485   1.10174   -1.000
 5691.00    1.12595   1.10396   -1.000
 5692.00    1.11593   1.10637  229.575
 5693.00    1.11813   1.10829  231.951
 5694.00    1.12163   1.10948   -1.000
 5695.00    1.13007   1.11003   -1.000
 5696.00    1.12613   1.11007   -1.000
 5697.00    1.11870   1.10939  240.279
 5698.00    1.11673   1.10760  238.307
 5699.00    1.11647   1.10486   -1.000
 5700.00    1.11743   1.10213   -1.000
 5701.00    1.10935   1.10063  237.055
 5702.00    1.12269   1.10096   -1.000
 5703.00    1.11438   1.10240   -1.000
 5704.00    1.11266   1.10336  248.880
 5705.00    1.12202   1.10258   -1.000
 5706.00    1.10931   1.09970   -1.000
 5707.00    1.10174   1.09506  246.728
 5708.00    1.09534   1.08977  241.446
 5709.00    1.10437   1.08571   -1.000
 5710.00    1.10937   1.08473   -1.000
 5711.00    1.11357   1.08747   -1.000
 5712.00    1.10835   1.09265   -1.000
 5713.00    1.11448   1.09796   -1.000
 5714.00    1.12925   1.10188   -1.000
 5715.00    1.12856   1.10446   -1.000
 5716.00    1.12260   1.10634   -1.000
 5717.00    1.13060   1.10784   -1.000
 5718.00    1.12607   1.10902   -1.000
 5719.00    1.12627   1.11001   -1.000
 5720.00    1.12999   1.11076   -1.000
 5721.00    1.13252   1.11112   -1.000
 5722.00    1.13092   1.11121   -1.000
 5723.00    1.13996   1.11119   -1.000
 5724.00    1.13396   1.11082   -1.000
 5725.00    1.12815   1.10965   -1.000
 5726.00    1.12909   1.10786   -1.000
 5727.00    1.12947   1.10621   -1.000
 5728.00    1.12235   1.10536   -1.000
 5729.00    1.12395   1.10546   -1.000
 5730.00    1.12927   1.10621   -1.000
 5731.00    1.13412   1.10718   -1.000
 5732.00    1.13392   1.10825   -1.000
 5733.00    1.13652   1.10956   -1.000
 5734.00    1.14041   1.11081   -1.000
 5735.00    1.12669   1.11149   -1.000
 5736.00    1.13227   1.11163   -1.000
 5737.00    1.13393   1.11156   -1.000
 5738.00    1.12471   1.11148   -1.000
 5739.00    1.12278   1.11148   -1.000
 5740.00    1.12176   1.11157  226.666
 5741.00    1.12983   1.11158   -1.000
 5742.00    1.13591   1.11146   -1.000
 5743.00    1.12892   1.11139   -1.000
 5744.00    1.12681   1.11136   -1.000
 5745.00    1.14283   1.11108   -1.000
 5746.00    1.13689   1.11051   -1.000
 5747.00    1.12788   1.11011   -1.000
 5748.00    1.13465   1.11034   -1.000
 5749.00    1.12644   1.11084   -1.000
 5750.00    1.12734   1.11060   -1.000
 5751.00    1.13319   1.10896   -1.000
 5752.00    1.12273   1.10648   -1.000
 5753.00    1.13146   1.10471   -1.000
 5754.00    1.13144   1.10499   -1.000
 5755.00    1.13383   1.10733   -1.000
 5756.00    1.12987   1.11062   -1.000
 5757.00    1.13544   1.11359   -1.000
 5758.00    1.15121   1.11519   -1.000
 5759.00    1.13875   1.11483   -1.000
 5760.00    1.12442   1.11276   -1.000
 5761.00    1.12983   1.11017   -1.000
 5762.00    1.11843   1.10876  225.129
 5763.00    1.12288   1.10965   -1.000
 5764.00    1.13118   1.11223   -1.000
 5765.00    1.13406   1.11465   -1.000
 5766.00    1.12426   1.11568  225.859
 5767.00    1.12827   1.11548   -1.000
 5768.00    1.12930   1.11480   -1.000
 5769.00    1.12942   1.11412   -1.000
 5770.00    1.12920   1.11353   -1.000
 5771.00    1.11950   1.11294  228.753
 5772.00    1.12237   1.11210  227.524
 5773.00    1.12430   1.11075   -1.000
 5774.00    1.12052   1.10904   -1.000
 5775.00    1.12290   1.10761   -1.000
 5776.00    1.10633   1.10667  237.404
 5777.00    1.09737   1.10549  240.170
 5778.00    1.10194   1.10354  239.331
 5779.00    1.11309   1.10116   -1.000
 5780.00    1.11004   1.09906   -1.000
 5781.00    1.11852   1.09781   -1.000
 5782.00    1.11333   1.09768   -1.000
 5783.00    1.11805   1.09856   -1.000
 5784.00    1.12488   1.09996   -1.000
 5785.00    1.12333   1.10131   -1.000
 5786.00    1.12548   1.10230   -1.000
 5787.00    1.12784   1.10304   -1.000
 5788.00    1.13530   1.10379   -1.000
 5789.00    1.12986   1.10454   -1.000
 5790.00    1.12892   1.10516   -1.000
 5791.00    1.12795   1.10588   -1.000
 5792.00    1.12597   1.10716   -1.000
 5793.00    1.12925   1.10902   -1.000
 5794.00    1.12255   1.11085   -1.000
 5795.00    1.12205   1.11178  223.626
 5796.00    1.11965   1.11158  220.545
 5797.00    1.12758   1.11107   -1.000
 5798.00    1.14342   1.11124   -1.000
 5799.00    1.14622   1.11217   -1.000
 5800.00    1.13995   1.11329   -1.000
 5801.00    1.13364   1.11410   -1.000
 5802.00    1.13263   1.11442   -1.000
 5803.00    1.14658   1.11431   -1.000
 5804.00    1.14144   1.11423   -1.000
 5805.00    1.13647   1.11467   -1.000
 5806.00    1.13823   1.11565   -1.000
 5807.00    1.13802   1.11674   -1.000
 5808.00    1.13826   1.11749   -1.000
 5809.00    1.13854   1.11789   -1.000
 5810.00    1.14789   1.11824   -1.000
 5811.00    1.13540   1.11862   -1.000
 5812.00    1.13223   1.11869   -1.000
 5813.00    1.14312   1.11810   -1.000
 5814.00    1.14315   1.11707   -1.000
 5815.00    1.14658   1.11635   -1.000
 5816.00    1.14337   1.11649   -1.000
 5817.00    1.14472   1.11741   -1.000
 5818.00    1.14903   1.11850   -1.000
 5819.00    1.13696   1.11934   -1.000
 5820.00    1.14138   1.11995   -1.000
 5821.00    1.14290   1.12048   -1.000
 5822.00    1.14808   1.12092   -1.000
 5823.00    1.14394   1.12115   -1.000
 5824.00    1.15425   1.12120   -1.000
 5825.00    1.15642   1.12132   -1.000
 5826.00    1.14952   1.12169   -1.000
 5827.00    1.14660   1.12228   -1.000
 5828.00    1.13810   1.12292   -1.000
 5829.00    1.15151   1.12327   -1.000
 5830.00    1.14477   1.12311   -1.000
 5831.00    1.14051   1.12254   -1.000
 5832.00    1.15414   1.12173   -1.000
 5833.00    1.15709   1.12088   -1.000
 5834.00    1.14251   1.12035   -1.000
 5835.00    1.14456   1.12043   -1.000
 5836.00    1.14840   1.12115   -1.000
 5837.00    1.15010   1.12236   -1.000
 5838.00    1.15151   1.12372   -1.000
 5839.00    1.14946   1.12468   -1.000
 5840.00    1.14392   1.12473   -1.000
 5841.00    1.15079   1.12380   -1.000
 5842.00    1.15137   1.12218   -1.000
 5843.00    1.14684   1.12031   -1.000
 5844.00    1.14647   1.11862   -1.000
 5845.00    1.13807   1.11742   -1.000
 5846.00    1.13888   1.11683   -1.000
 5847.00    1.14683   1.11667   -1.000
 5848.00    1.14614   1.11641   -1.000
 5849.00    1.14392   1.11544   -1.000
 5850.00    1.14133   1.11327   -1.000
 5851.00    1.13202   1.10982   -1.000
 5852.00    1.13020   1.10584   -1.000
 5853.00    1.12991   1.10269   -1.000
 5854.00    1.12944   1.10080   -1.000
 5855.00    1.14411   1.09910   -1.000
 5856.00    1.14261   1.09677   -1.000
 5857.00    1.12997   1.09495   -1.000
 5858.00    1.13338   1.09538   -1.000
 5859.00    1.14109   1.09827   -1.000
 5860.00    1.14077   1.10217   -1.000
 5861.00    1.14458   1.10564   -1.000
 5862.00    1.15789   1.10813   -1.000
 5863.00    1.15404   1.10947   -1.000
 5864.00    1.14830   1.10945   -1.000
 5865.00    1.15898   1.10836   -1.000
 5866.00    1.15246   1.10728   -1.000
 5867.00    1.15146   1.10732   -1.000
 5868.00    1.13228   1.10858   -1.000
 5869.00    1.15013   1.11028   -1.000
 5870.00    1.15765   1.11150   -1.000
 5871.00    1.13804   1.11164   -1.000
 5872.00    1.15120   1.11055   -1.000
 5873.00    1.14907   1.10848   -1.000
 5874.00    1.14744   1.10602   -1.000
 5875.00    1.14128   1.10402   -1.000
 5876.00    1.14535   1.10299   -1.000
 5877.00    1.14351   1.10249   -1.000
 5878.00    1.13817   1.10174   -1.000
 5879.00    1.14994   1.10050   -1.000
 5880.00    1.14675   1.09895   -1.000
 5881.00    1.14339   1.09695   -1.000
 5882.00    1.15326   1.09418   -1.000
 5883.00    1.16878   1.09074   -1.000
 5884.00    1.15897   1.08692   -1.000
 5885.00    1.14247   1.08165   -1.000
 5886.00    1.04511   1.07158   -1.000
 5887.00    0.92038   1.05363   -1.000
 5888.00    0.90060   1.03077   -1.000
 5889.00    0.97455   1.01308   -1.000
 5890.00    1.04632   1.00961   -1.000
 5891.00    1.05858   1.01923   -1.000
 5892.00    1.01868   1.03135  265.279
 5893.00    0.96341   1.03545   -1.000
 5894.00    0.94906   1.03002   -1.000
 5895.00    1.00412   1.02320   -1.000
 5896.00    1.05821   1.02429   -1.000
 5897.00    1.09248   1.03495   -1.000
 5898.00    1.11968   1.04977   -1.000
 5899.00    1.13167   1.06324   -1.000
 5900.00    1.13510   1.07342   -1.000
 5901.00    1.13891   1.08072   -1.000
 5902.00    1.14306   1.08595   -1.000
 5903.00    1.14263   1.08967   -1.000
 5904.00    1.14377   1.09226   -1.000
 5905.00    1.14146   1.09397   -1.000
 5906.00    1.13415   1.09496   -1.000
 5907.00    1.13176   1.09550   -1.000
 5908.00    1.13812   1.09589   -1.000
 5909.00    1.13485   1.09612   -1.000
 5910.00    1.13140   1.09576   -1.000
 5911.00    1.14765   1.09440   -1.000
 5912.00    1.14733   1.09197   -1.000
 5913.00    1.14087   1.08894   -1.000
 5914.00    1.14124   1.08624   -1.000
 5915.00    1.13436   1.08466   -1.000
 5916.00    1.13835   1.08438   -1.000
 5917.00    1.12895   1.08522   -1.000
 5918.00    1.12408   1.08680   -1.000
 5919.00    1.13603   1.08857   -1.000
 5920.00    1.13842   1.09005   -1.000
 5921.00    1.12680   1.09110   -1.000
 5922.00    1.13338   1.09192   -1.000
 5923.00    1.14080   1.09291   -1.000
 5924.00    1.14011   1.09430   -1.000
 5925.00    1.12998   1.09591   -1.000
 5926.00    1.13838   1.09717   -1.000
 5927.00    1.14133   1.09741   -1.000
 5928.00    1.14782   1.09644   -1.000
 5929.00    1.11822   1.09513   -1.000
 5930.00    1.12774   1.09459   -1.000
 5931.00    1.14743   1.09504   -1.000
 5932.00    1.14869   1.09576   -1.000
 5933.00    1.13606   1.09596   -1.000
 5934.00    1.14032   1.09558   -1.000
 5935.00    1.13266   1.09522   -1.000
 5936.00    1.12420   1.09528   -1.000
 5937.00    1.12612   1.09520   -1.000
 5938.00    1.12057   1.09415   -1.000
 5939.00    1.12805   1.09213   -1.000
 5940.00    1.12810   1.09002   -1.000
 5941.00    1.13222   1.08849   -1.000
 5942.00    1.13751   1.08779   -1.000
 5943.00    1.13664   1.08801   -1.000
 5944.00    1.12434   1.08893   -1.000
 5945.00    1.12351   1.08974   -1.000
 5946.00    1.12285   1.08979   -1.000
 5947.00    1.12567   1.08947   -1.000
 5948.00    1.14589   1.08985   -1.000
 5949.00    1.15018   1.09125   -1.000
 5950.00    1.14288   1.09296   -1.000
 5951.00    1.14105   1.09430   -1.000
 5952.00    1.12772   1.09511   -1.000
 5953.00    1.11298   1.09519   -1.000
 5954.00    1.11107   1.09433   -1.000
 5955.00    1.11854   1.09289   -1.000
 5956.00    1.12317   1.09183   -1.000
 5957.00    1.12384   1.09197   -1.000
 5958.00    1.13002   1.09329   -1.000
 5959.00    1.13735   1.09522   -1.000
 5960.00    1.13847   1.09715   -1.000
 5961.00    1.13924   1.09865   -1.000
 5962.00    1.13623   1.09933   -1.000
 5963.00    1.13294   1.09889   -1.000
 5964.00    1.13925   1.09752   -1.000
 5965.00    1.14248   1.09590   -1.000
 5966.00    1.14084   1.09475   -1.000
 5967.00    1.13322   1.09443   -1.000
 5968.00    1.12836   1.09490   -1.000
 5969.00    1.13085   1.09587   -1.000
 5970.00    1.13165   1.09696   -1.000
 5971.00    1.13734   1.09776   -1.000
 5972.00    1.13463   1.09810   -1.000
 5973.00    1.13779   1.09790   -1.000
 5974.00    1.13337   1.09707   -1.000
 5975.00    1.12088   1.09568   -1.000
 5976.00    1.11465   1.09425   -1.000
 5977.00    1.13065   1.09358   -1.000
 5978.00    1.14265   1.09412   -1.000
 5979.00    1.13459   1.09552   -1.000
 5980.00    1.13691   1.09675   -1.000
 5981.00    1.14521   1.09690   -1.000
 5982.00    1.12531   1.09585   -1.000
 5983.00    1.12700   1.09437   -1.000
 5984.00    1.13449   1.09343   -1.000
 5985.00    1.12079   1.09348   -1.000
 5986.00    1.11593   1.09421   -1.000
 5987.00    1.11369   1.09506   -1.000
 5988.00    1.11380   1.09550   -1.000
 5989.00    1.12599   1.09535   -1.000
 5990.00    1.12970   1.09504   -1.000
 5991.00    1.11956   1.09545   -1.000
 5992.00    1.12746   1.09705   -1.000
 5993.00    1.13776   1.09934   -1.000
 5994.00    1.14185   1.10120   -1.000
 5995.00    1.13920   1.10188   -1.000
 5996.00    1.12216   1.10155   -1.000
 5997.00    1.12435   1.10096   -1.000
 5998.00    1.13586   1.10062   -1.000
 5999.00    1.13444   1.10038   -1.000
 6000.00    1.13613   1.09980   -1.000
 6001.00    1.12828   1.09882   -1.000
 6002.00    1.11845   1.09776   -1.000
 6003.00    1.12335   1.09681   -1.000
 6004.00    1.12557   1.09578   -1.000
 6005.00    1.12534   1.09437   -1.000
 6006.00    1.11949   1.09271   -1.000
 6007.00    1.13144   1.09157   -1.000
 6008.00    1.12580   1.09176   -1.000
 6009.00    1.11511   1.09327   -1.000
 6010.00    1.11675   1.09512   -1.000
 6011.00    1.12875   1.09636   -1.000
 6012.00    1.12199   1.09696   -1.000
 6013.00    1.11577   1.09750   -1.000
 6014.00    1.12648   1.09810   -1.000
 6015.00    1.12577   1.09839   -1.000
 6016.00    1.12003   1.09799   -1.000
 6017.00    1.12004   1.09690   -1.000
 6018.00    1.11586   1.09543   -1.000
 6019.00    1.11928   1.09408   -1.000
 6020.00    1.11507   1.09316   -1.000
 6021.00    1.10562   1.09261   -1.000
 6022.00    1.12006   1.09247   -1.000
 6023.00    1.12782   1.09304   -1.000
 6024.00    1.11712   1.09448   -1.000
 6025.00    1.11724   1.09636   -1.000
 6026.00    1.11009   1.09810   -1.000
 6027.00    1.11297   1.09941   -1.000
 6028.00    1.12942   1.10023   -1.000
 6029.00    1.13330   1.10073   -1.000
 6030.00    1.13002   1.10110   -1.000
 6031.00    1.12584   1.10138   -1.000
 6032.00    1.12445   1.10162   -1.000
 6033.00    1.12719   1.10211   -1.000
 6034.00    1.11989   1.10294   -1.000
 6035.00    1.11274   1.10353  230.520
 6036.00    1.12392   1.10310   -1.000
 6037.00    1.12795   1.10155   -1.000
 6038.00    1.11791   1.09941   -1.000
 6039.00    1.11432   1.09729   -1.000
 6040.00    1.11879   1.09497   -1.000
 6041.00    1.11511   1.09170   -1.000
 6042.00    1.12221   1.08856   -1.000
 6043.00    1.12224   1.08828   -1.000
 6044.00    1.10956   1.09184   -1.000
 6045.00    1.11086   1.09692   -1.000
 6046.00    1.11541   1.10061   -1.000
 6047.00    1.11910   1.10189   -1.000
 6048.00    1.11822   1.10130   -1.000
 6049.00    1.11883   1.09999   -1.000
 6050.00    1.12059   1.09900   -1.000
 6051.00    1.12477   1.09885   -1.000
 6052.00    1.12970   1.09923   -1.000
 6053.00    1.13157   1.09948   -1.000
 6054.00    1.12144   1.09920   -1.000
 6055.00    1.11589   1.09851   -1.000
 6056.00    1.11159   1.09773   -1.000
 6057.00    1.04950   1.09710   -1.000
 6058.00    0.98068   1.09678   -1.000
 6059.00    0.79367   1.09675   -1.000
 6060.00    0.43756   1.09657   -1.000
 6061.00    1.08868   1.09544  211.654
 6062.00    1.08657   1.09280   79.296
 6063.00    1.04273   1.08916   -1.000
 6064.00    0.99362   1.08609   -1.000
 6065.00    0.81217   1.08536   -1.000
 6066.00    0.34234   1.08748   -1.000
 6067.00    1.02023   1.09123   -1.000
 6068.00    1.14064   1.09485   -1.000
 6069.00    1.11510   1.09736   -1.000
 6070.00    1.11506   1.09885   -1.000
 6071.00    1.12137   1.09984   -1.000
 6072.00    1.12333   1.10059   -1.000
 6073.00    1.12317   1.10094   -1.000
 6074.00    1.12338   1.10055   -1.000
 6075.00    1.12267   1.09945   -1.000
 6076.00    1.11721   1.09812   -1.000
 6077.00    1.11728   1.09716   -1.000
 6078.00    1.11915   1.09674   -1.000
 6079.00    1.11266   1.09656   -1.000
 6080.00    1.10756   1.09610   -1.000
 6081.00    1.10625   1.09512   -1.000
 6082.00    1.11005   1.09399   -1.000
 6083.00    1.11376   1.09338   -1.000
 6084.00    1.10606   1.09359   -1.000
 6085.00    1.10438   1.09441   -1.000
 6086.00    1.11364   1.09545   -1.000
 6087.00    1.11302   1.09644   -1.000
 6088.00    1.11486   1.09704   -1.000
 6089.00    1.11232   1.09691   -1.000
 6090.00    1.11108   1.09614   -1.000
 6091.00    1.11842   1.09543   -1.000
 6092.00    1.12053   1.09542   -1.000
 6093.00    1.11468   1.09620   -1.000
 6094.00    1.11049   1.09747   -1.000
 6095.00    1.10917   1.09898   -1.000
 6096.00    1.10500   1.10052  236.852
 6097.00    1.11471   1.10152   -1.000
 6098.00    1.11426   1.10102   -1.000
 6099.00    1.10776   1.09818   -1.000
 6100.00    1.10774   1.09296   -1.000
 6101.00    1.09921   1.08689   -1.000
 6102.00    1.09100   1.08264  234.173
 6103.00    1.09937   1.08223   -1.000
 6104.00    1.10430   1.08545   -1.000
 6105.00    1.09839   1.09026  235.229
 6106.00    1.10313   1.09475  234.548
 6107.00    1.10800   1.09814   -1.000
 6108.00    1.09851   1.10034  233.479
 6109.00    1.10002   1.10130  232.249
 6110.00    1.11136   1.10102   -1.000
 6111.00    1.11083   1.09993   -1.000
 6112.00    1.10751   1.09881  234.664
 6113.00    1.11227   1.09826   -1.000
 6114.00    1.11680   1.09836   -1.000
 6115.00    1.11180   1.09876   -1.000
 6116.00    1.10525   1.09880  243.319
 6117.00    1.10110   1.09728  245.013
 6118.00    1.10213   1.09315   -1.000
 6119.00    1.10069   1.08659   -1.000
 6120.00    1.09208   1.07913   -1.000
 6121.00    1.08572   1.07375   -1.000
 6122.00    1.07798   1.07339  239.251
 6123.00    1.08112   1.07814  238.683
 6124.00    1.10067   1.08505   -1.000
 6125.00    1.10158   1.09062   -1.000
 6126.00    1.09711   1.09285  233.823
 6127.00    1.09819   1.09207  233.776
 6128.00    1.10545   1.09088   -1.000
 6129.00    1.10941   1.09196   -1.000
 6130.00    1.10909   1.09532   -1.000
 6131.00    1.10566   1.09868  251.295
 6132.00    1.09931   1.09955  255.977
 6133.00    1.09612   1.09627  254.171
 6134.00    1.09763   1.08840   -1.000
 6135.00    1.07918   1.07801  241.059
 6136.00    1.06884   1.06956  239.673
 6137.00    1.06889   1.06650  240.358
 6138.00    1.07573   1.06798  239.933
 6139.00    1.07654   1.07007  237.079
 6140.00    1.07891   1.07081  234.908
 6141.00    1.08124   1.07198   -1.000
 6142.00    1.08885   1.07577   -1.000
 6143.00    1.09042   1.08150   -1.000
 6144.00    1.09990   1.08643   -1.000
 6145.00    1.10129   1.08857   -1.000
 6146.00    1.09295   1.08795  240.383
 6147.00    1.09143   1.08600  239.194
 6148.00    1.09077   1.08440  237.832
 6149.00    1.09345   1.08418   -1.000
 6150.00    1.08936   1.08533  240.393
 6151.00    1.09081   1.08713  241.202
 6152.00    1.08615   1.08863  241.513
 6153.00    1.09248   1.08911  243.074
 6154.00    1.09943   1.08843   -1.000
 6155.00    1.10033   1.08694   -1.000
 6156.00    1.09275   1.08513  259.993
 6157.00    1.08597   1.08316  266.016
 6158.00    1.07984   1.08014  266.131
 6159.00    1.07862   1.07447  260.559
 6160.00    1.06985   1.06612  254.013
 6161.00    1.05535   1.05820  251.323
 6162.00    1.05990   1.05468  250.994
 6163.00    1.05842   1.05667  252.575
 6164.00    1.07251   1.06174   -1.000
 6165.00    1.08879   1.06650   -1.000
 6166.00    1.08990   1.06915   -1.000
 6167.00    1.08059   1.06960   -1.000
 6168.00    1.08443   1.06879   -1.000
 6169.00    1.07687   1.06827   -1.000
 6170.00    1.07444   1.06932  247.300
 6171.00    1.08097   1.07207   -1.000
 6172.00    1.08651   1.07562   -1.000
 6173.00    1.08528   1.07914  245.288
 6174.00    1.07849   1.08213  244.113
 6175.00    1.08179   1.08418  243.308
 6176.00    1.08346   1.08516  242.425
 6177.00    1.08283   1.08525  241.411
 6178.00    1.07742   1.08488  241.203
 6179.00    1.07796   1.08460  241.915
 6180.00    1.08458   1.08481  243.128
 6181.00    1.09127   1.08541  245.422
 6182.00    1.08030   1.08606  248.133
 6183.00    1.07279   1.08656  250.606
 6184.00    1.07539   1.08678  252.793
 6185.00    1.08299   1.08643  255.027
 6186.00    1.08741   1.08514  258.031
 6187.00    1.08057   1.08243  258.005
 6188.00    1.08117   1.07792  253.514
 6189.00    1.07555   1.07224  247.581
 6190.00    1.06609   1.06751  244.637
 6191.00    1.06020   1.06629  243.725
 6192.00    1.06813   1.06933  244.081
 6193.00    1.08359   1.07491   -1.000
 6194.00    1.09101   1.08039   -1.000
 6195.00    1.09733   1.08410   -1.000
 6196.00    1.09504   1.08565   -1.000
 6197.00    1.08742   1.08530  246.002
 6198.00    1.07749   1.08388  243.659
 6199.00    1.08260   1.08285  243.486
 6200.00    1.09115   1.08334  243.396
 6201.00    1.08088   1.08535  243.058
 6202.00    1.08113   1.08790  243.422
 6203.00    1.09178   1.08996  244.151
 6204.00    1.09393   1.09109  244.362
 6205.00    1.09496   1.09151  245.983
 6206.00    1.09560   1.09159  248.243
 6207.00    1.09401   1.09151  250.288
 6208.00    1.08792   1.09114  253.276
 6209.00    1.08524   1.09025  256.860
 6210.00    1.08608   1.08861  258.625
 6211.00    1.07091   1.08607  257.733
 6212.00    1.06142   1.08294   -1.000
 6213.00    1.06830   1.08009  254.810
 6214.00    1.07291   1.07826  256.078
 6215.00    1.07418   1.07738  254.423
 6216.00    1.04997   1.07663   -1.000
 6217.00    0.96344   1.07538   -1.000
 6218.00    0.97268   1.07395   -1.000
 6219.00    1.07850   1.07330  259.385
 6220.00    1.07292   1.07415  251.332
 6221.00    1.07893   1.07620  252.172
 6222.00    1.08007   1.07832  252.651
 6223.00    1.07535   1.07973  254.939
 6224.00    1.08045   1.08039  258.891
 6225.00    1.08356   1.08035  262.911
 6226.00    1.07604   1.07920  264.587
 6227.00    1.07631   1.07617  262.059
 6228.00    1.07333   1.07118  257.651
 6229.00    1.06959   1.06564  252.917
 6230.00    1.07911   1.06196   -1.000
 6231.00    1.08675   1.06199   -1.000
 6232.00    1.09023   1.06555   -1.000
 6233.00    1.09117   1.07063   -1.000
 6234.00    1.07979   1.07476  257.537
 6235.00    1.07525   1.07633  259.712
 6236.00    1.08030   1.07534  260.191
 6237.00    1.07940   1.07294  260.713
 6238.00    1.08615   1.07079   -1.000
 6239.00    1.09082   1.06989   -1.000
 6240.00    1.07992   1.06999   -1.000
 6241.00    1.07155   1.06982  260.746
 6242.00    1.06836   1.06819  257.813
 6243.00    1.06665   1.06496  254.677
 6244.00    1.06091   1.06117  252.953
 6245.00    1.06256   1.05873  253.862
 6246.00    1.06421   1.05915  257.300
 6247.00    1.06509   1.06243  261.711
 6248.00    1.06564   1.06676  264.221
 6249.00    1.06354   1.06954  265.529
 6250.00    1.06855   1.06901  265.870
 6251.00    1.06370   1.06567  266.609
 6252.00    1.05766   1.06175  269.289
 6253.00    1.06202   1.05936  270.342
 6254.00    1.06509   1.05913  267.771
 6255.00    1.06358   1.06035  263.506
 6256.00    1.06195   1.06203  259.723
 6257.00    1.05832   1.06387  256.041
 6258.00    1.06075   1.06604  253.009
 6259.00    1.06752   1.06852  253.217
 6260.00    1.06303   1.07090  255.386
 6261.00    1.06128   1.07289  255.955
 6262.00    1.06573   1.07425  254.283
 6263.00    1.06331   1.07490  253.420
 6264.00    1.06719   1.07509  254.726
 6265.00    1.06151   1.07540  255.409
 6266.00    1.06208   1.07598  254.718
 6267.00    1.06626   1.07610  253.914
 6268.00    1.06885   1.07512  253.821
 6269.00    1.07361   1.07315  255.048
 6270.00    1.06078   1.07086  257.078
 6271.00    1.04438   1.06854   -1.000
 6272.00    1.02328   1.06553   -1.000
 6273.00    1.01127   1.06084   -1.000
 6274.00    1.00904   1.05408   -1.000
 6275.00    1.01195   1.04618   -1.000
 6276.00    1.01594   1.03887   -1.000
 6277.00    1.01534   1.03398   -1.000
 6278.00    1.01726   1.03228  263.638
 6279.00    1.01339   1.03373   -1.000
 6280.00    1.01373   1.03778   -1.000
 6281.00    1.02153   1.04365   -1.000
 6282.00    1.03106   1.05029   -1.000
 6283.00    1.04744   1.05656  251.764
 6284.00    1.06026   1.06154  252.078
 6285.00    1.05898   1.06493  253.883
 6286.00    1.05098   1.06683  255.995
 6287.00    1.04562   1.06726   -1.000
 6288.00    1.05063   1.06625  257.620
 6289.00    1.05868   1.06441  257.966
 6290.00    1.06504   1.06264  259.046
 6291.00    1.06747   1.06159  261.075
 6292.00    1.08071   1.06106   -1.000
 6293.00    1.09724   1.06034   -1.000
 6294.00    1.09682   1.05886   -1.000
 6295.00    1.05021   1.05669  260.303
 6296.00    0.89208   1.05449   -1.000
 6297.00    0.66427   1.05290   -1.000
 6298.00    0.60890   1.05215   -1.000
 6299.00    0.76730   1.05184   -1.000
 6300.00    0.95406   1.05196   -1.000
 6301.00    1.02903   1.05317   -1.000
 6302.00    1.06044   1.05587  252.091
 6303.00    1.06976   1.05943   -1.000
 6304.00    1.06489   1.06255  250.883
 6305.00    1.06541   1.06450  252.336
 6306.00    1.06226   1.06563  253.795
 6307.00    1.06806   1.06654  254.733
 6308.00    1.06838   1.06755  255.471
 6309.00    1.06044   1.06848  256.495
 6310.00    1.06433   1.06887  258.474
 6311.00    1.06930   1.06851  258.811
 6312.00    1.06491   1.06748  258.536
 6313.00    1.06789   1.06609  258.538
 6314.00    1.06755   1.06462  258.415
 6315.00    1.05958   1.06316  256.460
 6316.00    1.05315   1.06176  253.438
 6317.00    1.05518   1.06104  251.639
 6318.00    1.06940   1.06193  250.831
 6319.00    1.07297   1.06436   -1.000
 6320.00    1.07327   1.06740  248.610
 6321.00    1.07662   1.07027  248.144
 6322.00    1.07899   1.07278  247.592
 6323.00    1.08773   1.07493   -1.000
 6324.00    1.08489   1.07642   -1.000
 6325.00    1.08353   1.07692  247.355
 6326.00    1.09700   1.07666   -1.000
 6327.00    1.09303   1.07602   -1.000
 6328.00    1.08574   1.07547   -1.000
 6329.00    1.08386   1.07533   -1.000
 6330.00    1.08173   1.07551  249.861
 6331.00    1.07434   1.07533  253.926
 6332.00    1.07420   1.07384  252.914
 6333.00    1.07800   1.07066   -1.000
 6334.00    1.07077   1.06673  247.788
 6335.00    1.06758   1.06422  245.683
 6336.00    1.07454   1.06450   -1.000
 6337.00    1.08115   1.06715   -1.000
 6338.00    1.08681   1.07051   -1.000
 6339.00    1.08649   1.07319   -1.000
 6340.00    1.08862   1.07475   -1.000
 6341.00    1.09206   1.07529   -1.000
 6342.00    1.08766   1.07483   -1.000
 6343.00    1.07756   1.07337  242.483
 6344.00    1.07973   1.07113   -1.000
 6345.00    1.08430   1.06891   -1.000
 6346.00    1.08821   1.06801   -1.000
 6347.00    1.09520   1.06931   -1.000
 6348.00    1.09530   1.07252   -1.000
 6349.00    1.09976   1.07625   -1.000
 6350.00    1.09857   1.07892   -1.000
 6351.00    1.09260   1.07977   -1.000
 6352.00    1.10422   1.07903   -1.000
 6353.00    1.10608   1.07760   -1.000
 6354.00    1.08987   1.07632   -1.000
 6355.00    1.08356   1.07544   -1.000
 6356.00    1.08967   1.07478   -1.000
 6357.00    1.08439   1.07403   -1.000
 6358.00    1.06817   1.07319  251.258
 6359.00    1.02772   1.07244   -1.000
 6360.00    0.95405   1.07175   -1.000
 6361.00    0.91018   1.07111   -1.000
 6362.00    0.94987   1.07085   -1.000
 6363.00    1.01439   1.07136   -1.000
 6364.00    1.05280   1.07241   -1.000
 6365.00    1.07493   1.07341  242.414
 6366.00    1.07585   1.07381  242.195
 6367.00    1.07797   1.07323  241.242
 6368.00    1.08406   1.07158   -1.000
 6369.00    1.08213   1.06938   -1.000
 6370.00    1.08022   1.06760   -1.000
 6371.00    1.07353   1.06732  242.547
 6372.00    1.07760   1.06881   -1.000
 6373.00    1.08758   1.07108   -1.000
 6374.00    1.07939   1.07278  246.445
 6375.00    1.06753   1.07334  246.988
 6376.00    1.06299   1.07298  247.249
 6377.00    1.06768   1.07227  247.510
 6378.00    1.07607   1.07138  247.136
 6379.00    1.07181   1.07034  247.253
 6380.00    1.06267   1.06932  248.265
 6381.00    1.06208   1.06861  248.433
 6382.00    1.06445   1.06846  248.616
 6383.00    1.06239   1.06887  249.458
 6384.00    1.05167   1.06962   -1.000
 6385.00    1.04566   1.07063   -1.000
 6386.00    1.04631   1.07170   -1.000
 6387.00    1.04055   1.07234   -1.000
 6388.00    1.03386   1.07212   -1.000
 6389.00    1.02757   1.07070   -1.000
 6390.00    1.02159   1.06787   -1.000
 6391.00    1.01535   1.06419   -1.000
 6392.00    1.01091   1.06108   -1.000
 6393.00    1.00532   1.06024   -1.000
 6394.00    1.00128   1.06189   -1.000
 6395.00    1.00709   1.06446   -1.000
 6396.00    1.00729   1.06570   -1.000
 6397.00    0.99102   1.06440   -1.000
 6398.00    0.97353   1.06157   -1.000
 6399.00    0.96473   1.05957   -1.000
 6400.00    0.96546   1.06030   -1.000
 6401.00    0.97095   1.06363   -1.000
 6402.00    0.97227   1.06782   -1.000
 6403.00    0.97151   1.07079   -1.000
 6404.00    0.96856   1.07133   -1.000
 6405.00    0.95907   1.06931   -1.000
 6406.00    0.94591   1.06559   -1.000
 6407.00    0.93850   1.06162   -1.000
 6408.00    0.93598   1.05960   -1.000
 6409.00    0.92803   1.06030   -1.000
 6410.00    0.91905   1.06217   -1.000
 6411.00    0.91529   1.06399   -1.000
 6412.00    0.91323   1.06510   -1.000
 6413.00    0.91597   1.06550   -1.000
 6414.00    0.90863   1.06546   -1.000
 6415.00    0.89569   1.06579   -1.000
 6416.00    0.89181   1.06651   -1.000
 6417.00    0.88527   1.06673   -1.000
 6418.00    0.87154   1.06568   -1.000
 6419.00    0.85644   1.06369   -1.000
 6420.00    0.84408   1.06240   -1.000
 6421.00    0.83607   1.06322   -1.000
 6422.00    0.83358   1.06614   -1.000
 6423.00    0.83524   1.06989   -1.000
 6424.00    0.83173   1.07318   -1.000
 6425.00    0.82269   1.07525   -1.000
 6426.00    0.45987   1.07565   -1.000
 6427.00    0.00000   1.07390   -2.000
 6428.00    0.00000   1.07009   -2.000
