###################################################################
## OUTPUT of StarlightChains_v04.for    [Cid@UFSC - 01/Apr/2007] ##
###################################################################

## Some input info
NGC2808_a_1.cxt                          [arq_obs]
Base.BC03.S                              [arq_base]
NGC2808_a_1.msk                          [arq_masks]
StCv04.C11.config                        [arq_config]
  150                                    [N_base]
    0                                    [N_YAV_components = # of components with extra extinction!]
    0                                    [i_FitPowerLaw (1/0 = Yes/No)]
-9.99                                    [alpha_PowerLaw]
CCM                                      [red_law_option]
 1.458241                                [q_norm = A(l_norm)/A(V)]

## (Re)Sampling Parameters
 3359.00                                 [l_ini (A)]
 6428.00                                 [l_fin (A)]
    1.00                                 [dl    (A)]     (OBS: dl_cushion =    50.00 A)

## Normalization info
 4020.00                                 [l_norm (A) - for base]
 4010.00                                 [llow_norm (A) - window for f_obs]
 4060.00                                 [lupp_norm (A) - window for f_obs]
8.660000E-14                             [fobs_norm (in input units)]

## S/N
 4730.00                                 [llow_SN (A) - window for S/N]
 4780.00                                 [lupp_SN (A) - window for S/N]
  64.505                                 [S/N in S/N window]
  51.490                                 [S/N in norm. window]
 409.712                                 [S/N_err in S/N window]
 327.043                                 [S/N_err in norm. window]
  1.0000                                 [fscale_chi2]

## etc...
  2147483642                             [idum_orig]
  3069                                   [NOl_eff]
   654                                   [Nl_eff]
  2415    NSIGMA                         [Ntot_cliped & clip_method]
  1892240                                [Nglobal_steps]
   7                                     [N_chains]
  20                                     [NEX0s_base = N_base in EX0s-fits]
 0   0   1      258   2.0   6.880E+02    [Clip-Bug, RC-Crash & Burn-In warning-flags, n_censored_weights, wei_nsig_threshold & wei_limit]
    96     96.029     96.001      0.028  [idt_all, wdt_TotTime, wdt_UsrTime & wdt_SysTime (sec)]

## Synthesis Results - Best model ##

 2.91443E+00                             [chi2/Nl_eff]
     0.58986                             [adev (%)]

   100.89117                             [sum-of-x (%)]
 1.99110E-13                             [Flux_tot (units of input spectrum!)]
 4.74499E-09                             [Mini_tot (???)]
 2.38762E-09                             [Mcor_tot (???)]

 -10.41                                  [v0_min  (km/s)]
  50.71                                  [vd_min  (km/s)]
 0.6133                                  [AV_min  (mag)]
 0.0000                                  [YAV_min (mag)]

# j     x_j(%)      Mini_j(%)     Mcor_j(%)     age_j(yr)     Z_j      (L/M)_j    YAV?  Mstars   component_j        a/Fe...       SSP_chi2r SSP_adev(%)   SSP_AV   SSP_x(%)
  1      0.0000     0.0000E+00    0.0000E+00    1.000000E+06  0.00010  8.160E-03    0   1.0000   age020_m22            0.0000     2.2891E+03    13.9997   4.0000    81.4980
  2     17.0911     1.4937E-02    2.9684E-02    3.160000E+06  0.00010  4.759E-02    0   1.0000   age045_m22            0.0000     4.3305E+02     5.6429   2.1582    98.4224
  3      0.0000     0.0000E+00    0.0000E+00    5.010000E+06  0.00010  1.932E-02    0   0.9582   age055_m22            0.0000     2.1079E+03    13.0694   2.4383    85.4237
  4      0.0000     0.0000E+00    0.0000E+00    6.610000E+06  0.00010  9.973E-03    0   0.9297   age061_m22            0.0000     2.3445E+03    14.1385   4.0000    83.7717
  5      0.0000     0.0000E+00    0.0000E+00    8.710000E+06  0.00010  7.690E-03    0   0.9030   age067_m22            0.0000     2.2006E+03    13.7914   4.0000    84.0755
  6      0.0000     0.0000E+00    0.0000E+00    1.000000E+07  0.00010  6.375E-03    0   0.8902   age070_m22            0.0000     2.1206E+03    13.5412   4.0000    84.5432
  7      0.0000     0.0000E+00    0.0000E+00    1.445000E+07  0.00010  4.874E-03    0   0.8589   age078_m22            0.0000     1.4834E+03    11.7393   3.9342    85.1264
  8      0.0000     0.0000E+00    0.0000E+00    2.512000E+07  0.00010  4.103E-03    0   0.8174   age090_m22            0.0000     8.0914E+02     8.9016   3.5359    91.4428
  9      0.0000     0.0000E+00    0.0000E+00    4.000000E+07  0.00010  3.654E-03    0   0.7830   age104_m22            0.0000     7.7859E+02     7.5847   3.2477    96.0771
 10      0.0000     0.0000E+00    0.0000E+00    5.500000E+07  0.00010  3.093E-03    0   0.7597   age110_m22            0.0000     8.4028E+02     7.3670   3.1504    97.6071
 11      0.0000     0.0000E+00    0.0000E+00    1.015200E+08  0.00010  2.431E-03    0   0.7138   age116_m22            0.0000     1.1166E+03     7.8230   2.8019   100.6486
 12      0.0000     0.0000E+00    0.0000E+00    1.609000E+08  0.00010  1.319E-03    0   0.6775   age120_m22            0.0000     1.1012E+03     7.3743   2.3222   103.1215
 13      0.0000     0.0000E+00    0.0000E+00    2.861200E+08  0.00010  1.075E-03    0   0.6412   age125_m22            0.0000     2.5408E+03    10.7831   2.4095   106.3208
 14      0.0000     0.0000E+00    0.0000E+00    5.088000E+08  0.00010  7.183E-04    0   0.6083   age130_m22            0.0000     3.0421E+03    11.7495   2.1797   108.1161
 15      0.0000     0.0000E+00    0.0000E+00    9.047900E+08  0.00010  4.524E-04    0   0.5785   age135_m22            0.0000     3.0622E+03    11.7440   1.9733   109.4932
 16      0.0000     0.0000E+00    0.0000E+00    1.278050E+09  0.00010  3.018E-04    0   0.5588   age138_m22            0.0000     1.5621E+03     8.2197   1.4214   108.1926
 17      0.0000     0.0000E+00    0.0000E+00    1.434000E+09  0.00010  2.691E-04    0   0.5532   age139_m22            0.0000     1.2948E+03     7.4514   1.2602   107.7552
 18      0.0000     0.0000E+00    0.0000E+00    2.500000E+09  0.00010  1.582E-04    0   0.5296   age150_m22            0.0000     1.1399E+03     7.0210   1.1410   108.5939
 19      0.0000     0.0000E+00    0.0000E+00    4.250000E+09  0.00010  1.007E-04    0   0.5110   age158_m22            0.0000     6.6573E+02     5.3892   0.9829   106.9471
 20      0.0000     0.0000E+00    0.0000E+00    6.250000E+09  0.00010  6.869E-05    0   0.4985   age166_m22            0.0000     3.3264E+02     3.8562   0.9212   104.1766
 21      0.0000     0.0000E+00    0.0000E+00    7.500000E+09  0.00010  5.873E-05    0   0.4931   age171_m22            0.0000     3.0728E+02     3.7910   0.9076   103.6432
 22      0.0000     0.0000E+00    0.0000E+00    1.000000E+10  0.00010  4.481E-05    0   0.4854   age181_m22            0.0000     2.9152E+02     3.7120   0.8692   103.2683
 23      0.0000     0.0000E+00    0.0000E+00    1.300000E+10  0.00010  3.489E-05    0   0.4791   age193_m22            0.0000     2.5221E+02     3.4519   0.8116   102.7223
 24      0.2668     3.6563E-01    3.4631E-01    1.500000E+10  0.00010  3.035E-05    0   0.4766   age201_m22            0.0000     2.2987E+02     3.3009   0.7715   102.5537
 25      2.4671     4.0881E+00    3.8469E+00    1.800000E+10  0.00010  2.510E-05    0   0.4735   age213_m22            0.0000     1.8252E+02     2.9515   0.7015   101.9592
 26      0.0000     0.0000E+00    0.0000E+00    1.000000E+06  0.00040  8.458E-03    0   1.0000   age020_m32            0.0000     2.3289E+03    14.0074   4.0000    82.5042
 27      0.0000     0.0000E+00    0.0000E+00    3.160000E+06  0.00040  3.973E-02    0   1.0000   age045_m32            0.0000     8.7385E+02     9.1534   3.4331    91.4493
 28      0.0000     0.0000E+00    0.0000E+00    5.010000E+06  0.00040  1.935E-02    0   0.9532   age055_m32            0.0000     1.7747E+03    12.6749   3.6488    85.6126
 29      0.0000     0.0000E+00    0.0000E+00    6.610000E+06  0.00040  1.204E-02    0   0.9243   age061_m32            0.0000     1.8811E+03    12.9053   3.9653    83.6531
 30      0.0000     0.0000E+00    0.0000E+00    8.710000E+06  0.00040  9.433E-03    0   0.9001   age067_m32            0.0000     1.6884E+03    12.3738   3.9379    84.5710
 31      0.0000     0.0000E+00    0.0000E+00    1.000000E+07  0.00040  8.053E-03    0   0.8877   age070_m32            0.0000     1.6154E+03    12.1696   3.9018    85.0385
 32      0.0000     0.0000E+00    0.0000E+00    1.445000E+07  0.00040  7.027E-03    0   0.8578   age078_m32            0.0000     1.1119E+03    10.4109   3.3792    90.2499
 33      0.0000     0.0000E+00    0.0000E+00    2.512000E+07  0.00040  4.707E-03    0   0.8166   age090_m32            0.0000     8.0394E+02     8.6429   3.0864    94.2120
 34      0.0000     0.0000E+00    0.0000E+00    4.000000E+07  0.00040  3.714E-03    0   0.7827   age104_m32            0.0000     7.5367E+02     7.4861   2.8905    97.5504
 35      0.0000     0.0000E+00    0.0000E+00    5.500000E+07  0.00040  2.982E-03    0   0.7593   age110_m32            0.0000     8.1582E+02     7.3280   2.8315    98.7199
 36      0.0000     0.0000E+00    0.0000E+00    1.015200E+08  0.00040  2.188E-03    0   0.7143   age116_m32            0.0000     1.4623E+03     8.5379   2.5794   102.9592
 37      0.0000     0.0000E+00    0.0000E+00    1.609000E+08  0.00040  1.690E-03    0   0.6856   age120_m32            0.0000     2.0969E+03     9.8101   2.3835   105.6108
 38      0.0000     0.0000E+00    0.0000E+00    2.861200E+08  0.00040  1.152E-03    0   0.6509   age125_m32            0.0000     2.6627E+03    10.9501   2.1633   107.5156
 39      0.0000     0.0000E+00    0.0000E+00    5.088000E+08  0.00040  7.331E-04    0   0.6182   age130_m32            0.0000     2.8568E+03    11.3414   1.9970   108.3215
 40      0.0000     0.0000E+00    0.0000E+00    9.047900E+08  0.00040  3.960E-04    0   0.5890   age135_m32            0.0000     1.6044E+03     8.5295   1.5137   107.4493
 41      0.0000     0.0000E+00    0.0000E+00    1.278050E+09  0.00040  2.854E-04    0   0.5687   age138_m32            0.0000     1.2895E+03     7.4965   1.2099   109.5321
 42      0.0000     0.0000E+00    0.0000E+00    1.434000E+09  0.00040  2.531E-04    0   0.5632   age139_m32            0.0000     1.2593E+03     7.3857   1.1478   109.5532
 43      0.0000     0.0000E+00    0.0000E+00    2.500000E+09  0.00040  1.488E-04    0   0.5386   age150_m32            0.0000     8.9381E+02     6.1760   0.8875   107.9005
 44      0.0000     0.0000E+00    0.0000E+00    4.250000E+09  0.00040  9.082E-05    0   0.5199   age158_m32            0.0000     3.0271E+02     3.5556   0.7805   104.5716
 45     11.2580     7.3599E+00    7.4244E+00    6.250000E+09  0.00040  6.362E-05    0   0.5076   age166_m32            0.0000     8.7984E+01     2.0501   0.7336   101.0766
 46     23.4113     1.8410E+01    1.8392E+01    7.500000E+09  0.00040  5.289E-05    0   0.5027   age171_m32            0.0000     6.1746E+01     1.8029   0.6961    99.7976
 47     17.5511     1.8378E+01    1.8072E+01    1.000000E+10  0.00040  3.972E-05    0   0.4948   age181_m32            0.0000     4.3519E+01     1.6049   0.6326    98.4369
 48      0.1126     1.4262E-01    1.3803E-01    1.300000E+10  0.00040  3.283E-05    0   0.4870   age193_m32            0.0000     8.6427E+01     1.9471   0.5919   101.2362
 49      0.0445     6.3296E-02    6.1058E-02    1.500000E+10  0.00040  2.925E-05    0   0.4854   age201_m32            0.0000     1.4956E+02     2.5636   0.5761   102.8532
 50      0.1648     2.7767E-01    2.6592E-01    1.800000E+10  0.00040  2.469E-05    0   0.4819   age213_m32            0.0000     1.7833E+02     2.8033   0.5370   103.3964
 51      0.0000     0.0000E+00    0.0000E+00    1.000000E+06  0.00400  1.114E-02    0   1.0000   age020_m42            0.0000     2.0666E+03    13.4234   4.0000    81.6120
 52      0.0000     0.0000E+00    0.0000E+00    3.160000E+06  0.00400  4.073E-02    0   0.9999   age045_m42            0.0000     5.9209E+02     7.2650   3.1456    93.9882
 53      0.0000     0.0000E+00    0.0000E+00    5.010000E+06  0.00400  2.534E-02    0   0.9488   age055_m42            0.0000     1.1120E+03    10.4479   3.5336    87.8338
 54      0.0000     0.0000E+00    0.0000E+00    6.610000E+06  0.00400  2.583E-02    0   0.9220   age061_m42            0.0000     5.9449E+02     7.1024   2.9549    95.0000
 55      0.0000     0.0000E+00    0.0000E+00    8.710000E+06  0.00400  1.706E-02    0   0.8983   age067_m42            0.0000     7.8607E+02     8.8314   2.7671    93.2792
 56      0.0000     0.0000E+00    0.0000E+00    1.000000E+07  0.00400  1.271E-02    0   0.8862   age070_m42            0.0000     1.1122E+03    10.6646   2.7488    91.8258
 57      0.0000     0.0000E+00    0.0000E+00    1.445000E+07  0.00400  7.666E-03    0   0.8571   age078_m42            0.0000     1.3381E+03    11.5328   3.1474    88.5639
 58      0.0000     0.0000E+00    0.0000E+00    2.512000E+07  0.00400  5.070E-03    0   0.8174   age090_m42            0.0000     9.3916E+02     9.9345   2.6178    93.5496
 59      0.0000     0.0000E+00    0.0000E+00    4.000000E+07  0.00400  3.505E-03    0   0.7851   age104_m42            0.0000     5.7724E+02     7.7251   2.3044    96.5469
 60      0.0000     0.0000E+00    0.0000E+00    5.500000E+07  0.00400  3.059E-03    0   0.7629   age110_m42            0.0000     6.2413E+02     5.9500   2.3711   101.1830
 61      0.0000     0.0000E+00    0.0000E+00    1.015200E+08  0.00400  2.268E-03    0   0.7207   age116_m42            0.0000     1.7838E+03     8.8778   2.2957   106.3481
 62      0.0000     0.0000E+00    0.0000E+00    1.609000E+08  0.00400  1.720E-03    0   0.6930   age120_m42            0.0000     1.9747E+03     9.4239   2.1619   107.9180
 63      0.0000     0.0000E+00    0.0000E+00    2.861200E+08  0.00400  1.079E-03    0   0.6613   age125_m42            0.0000     1.9599E+03     9.4225   1.8005   108.7277
 64      0.0000     0.0000E+00    0.0000E+00    5.088000E+08  0.00400  6.261E-04    0   0.6313   age130_m42            0.0000     2.2192E+03     9.8582   1.5955   112.0739
 65      0.0000     0.0000E+00    0.0000E+00    9.047900E+08  0.00400  3.535E-04    0   0.6024   age135_m42            0.0000     1.2950E+03     7.5708   1.1794   112.7126
 66      0.0000     0.0000E+00    0.0000E+00    1.278050E+09  0.00400  2.677E-04    0   0.5837   age138_m42            0.0000     5.3826E+02     6.1597   0.4855   110.3070
 67      0.0000     0.0000E+00    0.0000E+00    1.434000E+09  0.00400  1.910E-04    0   0.5716   age139_m42            0.0000     6.6240E+02     6.2164   0.6628   110.9444
 68      0.0000     0.0000E+00    0.0000E+00    2.500000E+09  0.00400  9.818E-05    0   0.5463   age150_m42            0.0000     2.8339E+02     4.6842   0.3943   105.7416
 69      0.0000     0.0000E+00    0.0000E+00    4.250000E+09  0.00400  5.491E-05    0   0.5269   age158_m42            0.0000     2.6882E+02     4.4521   0.2702   102.8522
 70      3.6438     3.9292E+00    4.0222E+00    6.250000E+09  0.00400  3.857E-05    0   0.5151   age166_m42            0.0000     4.1387E+02     5.2116   0.1473   101.3763
 71      0.9181     1.1775E+00    1.1958E+00    7.500000E+09  0.00400  3.243E-05    0   0.5110   age171_m42            0.0000     5.3155E+02     5.7733   0.0714   100.7647
 72      0.0000     0.0000E+00    0.0000E+00    1.000000E+10  0.00400  2.424E-05    0   0.5028   age181_m42            0.0000     7.0590E+02     6.5332  -0.0061   100.1029
 73      0.0000     0.0000E+00    0.0000E+00    1.300000E+10  0.00400  1.883E-05    0   0.4927   age193_m42            0.0000     8.4765E+02     7.1051  -0.0455    99.8095
 74      0.0000     0.0000E+00    0.0000E+00    1.500000E+10  0.00400  1.685E-05    0   0.4919   age201_m42            0.0000     8.0656E+02     6.9180  -0.0396    99.8143
 75      0.0000     0.0000E+00    0.0000E+00    1.800000E+10  0.00400  1.452E-05    0   0.4874   age213_m42            0.0000     7.3263E+02     6.5998  -0.0231   100.0730
 76      0.0000     0.0000E+00    0.0000E+00    1.000000E+06  0.00800  1.286E-02    0   1.0000   age020_m52            0.0000     1.8326E+03    12.7286   4.0000    83.0525
 77      0.0000     0.0000E+00    0.0000E+00    3.160000E+06  0.00800  3.147E-02    0   0.9966   age045_m52            0.0000     1.7623E+03    12.5359   3.9785    83.2608
 78      0.0000     0.0000E+00    0.0000E+00    5.010000E+06  0.00800  2.664E-02    0   0.9443   age055_m52            0.0000     1.2955E+03    11.1229   3.6499    86.7906
 79      0.0000     0.0000E+00    0.0000E+00    6.610000E+06  0.00800  2.151E-02    0   0.9177   age061_m52            0.0000     7.7556E+02     8.7180   2.3451    93.5474
 80      0.0000     0.0000E+00    0.0000E+00    8.710000E+06  0.00800  1.628E-02    0   0.8948   age067_m52            0.0000     8.6164E+02     9.3684   2.7251    93.7169
 81      0.0000     0.0000E+00    0.0000E+00    1.000000E+07  0.00800  1.215E-02    0   0.8827   age070_m52            0.0000     1.0473E+03    10.3293   3.0693    91.6989
 82      0.0000     0.0000E+00    0.0000E+00    1.445000E+07  0.00800  8.739E-03    0   0.8552   age078_m52            0.0000     8.8852E+02     9.4240   3.1113    93.0093
 83      0.0000     0.0000E+00    0.0000E+00    2.512000E+07  0.00800  5.676E-03    0   0.8162   age090_m52            0.0000     7.9757E+02     8.0508   2.7169    97.8910
 84      0.0000     0.0000E+00    0.0000E+00    4.000000E+07  0.00800  3.939E-03    0   0.7841   age104_m52            0.0000     7.9189E+02     7.1299   2.5588   100.4293
 85      0.0000     0.0000E+00    0.0000E+00    5.500000E+07  0.00800  3.155E-03    0   0.7627   age110_m52            0.0000     9.1917E+02     6.9730   2.5278   102.2223
 86      0.0000     0.0000E+00    0.0000E+00    1.015200E+08  0.00800  2.206E-03    0   0.7226   age116_m52            0.0000     1.3866E+03     7.8009   2.3488   106.1275
 87      0.0000     0.0000E+00    0.0000E+00    1.609000E+08  0.00800  1.596E-03    0   0.6963   age120_m52            0.0000     1.6450E+03     8.4815   2.1359   107.9367
 88      0.0000     0.0000E+00    0.0000E+00    2.861200E+08  0.00800  1.002E-03    0   0.6665   age125_m52            0.0000     2.3951E+03    10.6370   1.8485   110.8958
 89      0.0000     0.0000E+00    0.0000E+00    5.088000E+08  0.00800  5.759E-04    0   0.6377   age130_m52            0.0000     2.5415E+03    11.2027   1.4968   115.2503
 90      0.0000     0.0000E+00    0.0000E+00    9.047900E+08  0.00800  2.972E-04    0   0.6086   age135_m52            0.0000     1.4456E+03     9.0011   0.9432   114.5432
 91      0.0000     0.0000E+00    0.0000E+00    1.278050E+09  0.00800  2.242E-04    0   0.5907   age138_m52            0.0000     7.1235E+02     6.9619   0.3175   113.2383
 92      0.0000     0.0000E+00    0.0000E+00    1.434000E+09  0.00800  1.645E-04    0   0.5787   age139_m52            0.0000     5.8577E+02     6.2571   0.4691   112.4301
 93      0.0000     0.0000E+00    0.0000E+00    2.500000E+09  0.00800  7.723E-05    0   0.5519   age150_m52            0.0000     5.5600E+02     6.3872   0.1326   108.3683
 94      9.4581     9.4767E+00    1.0019E+01    4.250000E+09  0.00800  4.151E-05    0   0.5320   age158_m52            0.0000     5.7284E+02     6.3262   0.0665   105.5776
 95      2.4719     3.4156E+00    3.5277E+00    6.250000E+09  0.00800  3.010E-05    0   0.5197   age166_m52            0.0000     8.7329E+02     7.5095  -0.1243   104.1161
 96      2.0791     3.5051E+00    3.5797E+00    7.500000E+09  0.00800  2.467E-05    0   0.5139   age171_m52            0.0000     9.6618E+02     7.8557  -0.1668   103.7439
 97      2.6454     5.9091E+00    5.9351E+00    1.000000E+10  0.00800  1.862E-05    0   0.5054   age181_m52            0.0000     1.2815E+03     8.9632  -0.2963   103.3707
 98      0.6477     1.8798E+00    1.8634E+00    1.300000E+10  0.00800  1.433E-05    0   0.4988   age193_m52            0.0000     1.6471E+03    10.0961  -0.3932   104.0962
 99      5.3764     1.7975E+01    1.7633E+01    1.500000E+10  0.00800  1.244E-05    0   0.4936   age201_m52            0.0000     1.7947E+03    10.5015  -0.4235   104.6261
100      0.4866     1.8913E+00    1.8373E+00    1.800000E+10  0.00800  1.070E-05    0   0.4888   age213_m52            0.0000     1.9126E+03    10.8249  -0.4569   104.4403
101      0.0000     0.0000E+00    0.0000E+00    1.000000E+06  0.02000  1.989E-02    0   1.0000   age020_m62            0.0000     2.0369E+03    13.1873   4.0000    81.6489
102      0.0000     0.0000E+00    0.0000E+00    3.160000E+06  0.02000  3.772E-02    0   0.9858   age045_m62            0.0000     1.8480E+03    12.8057   3.9018    83.0505
103      0.0000     0.0000E+00    0.0000E+00    5.010000E+06  0.02000  3.227E-02    0   0.9342   age055_m62            0.0000     8.2733E+02     9.1658   3.3865    90.8667
104      0.0000     0.0000E+00    0.0000E+00    6.610000E+06  0.02000  2.387E-02    0   0.9090   age061_m62            0.0000     1.2658E+03    11.2756   3.1343    90.3411
105      0.0000     0.0000E+00    0.0000E+00    8.710000E+06  0.02000  1.102E-02    0   0.8861   age067_m62            0.0000     3.4915E+03    17.4041   2.7745    85.5017
106      0.0000     0.0000E+00    0.0000E+00    1.000000E+07  0.02000  1.011E-02    0   0.8751   age070_m62            0.0000     2.3631E+03    14.6558   2.7937    88.0906
107      0.0000     0.0000E+00    0.0000E+00    1.445000E+07  0.02000  7.331E-03    0   0.8472   age078_m62            0.0000     1.6084E+03    12.3906   2.8087    89.6292
108      0.0000     0.0000E+00    0.0000E+00    2.512000E+07  0.02000  4.206E-03    0   0.8099   age090_m62            0.0000     1.6300E+03    12.4033   2.7206    89.0466
109      0.0000     0.0000E+00    0.0000E+00    4.000000E+07  0.02000  3.373E-03    0   0.7799   age104_m62            0.0000     6.7887E+02     7.5881   2.5255    98.1636
110      0.0000     0.0000E+00    0.0000E+00    5.500000E+07  0.02000  2.747E-03    0   0.7595   age110_m62            0.0000     8.0624E+02     6.7953   2.4597   101.8249
111      0.0000     0.0000E+00    0.0000E+00    1.015200E+08  0.02000  1.878E-03    0   0.7221   age116_m62            0.0000     1.5952E+03     8.3569   2.3259   106.8137
112      0.0000     0.0000E+00    0.0000E+00    1.609000E+08  0.02000  1.378E-03    0   0.6978   age120_m62            0.0000     2.2314E+03     9.7096   2.1765   109.4860
113      0.0000     0.0000E+00    0.0000E+00    2.861200E+08  0.02000  8.869E-04    0   0.6700   age125_m62            0.0000     3.2730E+03    11.9056   1.8129   113.9568
114      0.0000     0.0000E+00    0.0000E+00    5.088000E+08  0.02000  4.834E-04    0   0.6430   age130_m62            0.0000     2.7984E+03    11.5618   1.3635   116.9046
115      0.0000     0.0000E+00    0.0000E+00    9.047900E+08  0.02000  2.312E-04    0   0.6152   age135_m62            0.0000     1.3136E+03     8.3847   0.7441   116.4788
116      0.0000     0.0000E+00    0.0000E+00    1.278050E+09  0.02000  1.387E-04    0   0.5927   age138_m62            0.0000     6.4503E+02     6.4903   0.3710   111.6253
117      0.0000     0.0000E+00    0.0000E+00    1.434000E+09  0.02000  1.168E-04    0   0.5865   age139_m62            0.0000     5.6939E+02     6.2491   0.3441   109.9435
118      0.0000     0.0000E+00    0.0000E+00    2.500000E+09  0.02000  5.505E-05    0   0.5610   age150_m62            0.0000     7.9437E+02     7.3696  -0.0285   106.9483
119      0.0000     0.0000E+00    0.0000E+00    4.250000E+09  0.02000  3.070E-05    0   0.5407   age158_m62            0.0000     1.4560E+03     9.7121  -0.3255   107.0456
120      0.0000     0.0000E+00    0.0000E+00    6.250000E+09  0.02000  2.104E-05    0   0.5277   age166_m62            0.0000     1.8793E+03    10.9371  -0.4594   107.6150
121      0.7276     1.7096E+00    1.7746E+00    7.500000E+09  0.02000  1.770E-05    0   0.5223   age171_m62            0.0000     2.1211E+03    11.5665  -0.5480   108.0510
122      0.0000     0.0000E+00    0.0000E+00    1.000000E+10  0.02000  1.297E-05    0   0.5121   age181_m62            0.0000     2.6551E+03    12.8200  -0.7063   108.6307
123      0.0000     0.0000E+00    0.0000E+00    1.300000E+10  0.02000  9.691E-06    0   0.5047   age193_m62            0.0000     3.0312E+03    13.5879  -0.7902   109.1027
124      0.0000     0.0000E+00    0.0000E+00    1.500000E+10  0.02000  8.360E-06    0   0.4999   age201_m62            0.0000     3.3685E+03    14.2795  -0.8615   109.4084
125      0.0000     0.0000E+00    0.0000E+00    1.800000E+10  0.02000  6.911E-06    0   0.4946   age213_m62            0.0000     3.8050E+03    15.1573  -0.9359   109.7206
126      0.0000     0.0000E+00    0.0000E+00    1.000000E+06  0.05000  2.651E-02    0   0.9998   age020_m72            0.0000     1.8929E+03    12.6876   4.0000    82.5914
127      0.0000     0.0000E+00    0.0000E+00    3.160000E+06  0.05000  4.817E-02    0   0.9577   age045_m72            0.0000     1.3479E+03    11.2511   3.7583    86.3900
128      0.0000     0.0000E+00    0.0000E+00    5.010000E+06  0.05000  3.101E-02    0   0.9147   age055_m72            0.0000     1.2328E+03    10.8760   3.4213    89.0608
129      0.0000     0.0000E+00    0.0000E+00    6.610000E+06  0.05000  1.472E-02    0   0.8877   age061_m72            0.0000     2.5275E+03    14.4403   3.0193    87.0235
130      0.0000     0.0000E+00    0.0000E+00    8.710000E+06  0.05000  1.050E-02    0   0.8638   age067_m72            0.0000     1.7089E+03    12.2854   3.3888    87.6613
131      0.0000     0.0000E+00    0.0000E+00    1.000000E+07  0.05000  8.954E-03    0   0.8524   age070_m72            0.0000     1.2395E+03    10.7023   3.6529    87.7573
132      0.0000     0.0000E+00    0.0000E+00    1.445000E+07  0.05000  6.392E-03    0   0.8262   age078_m72            0.0000     1.0542E+03     9.9898   3.5971    88.8528
133      0.0000     0.0000E+00    0.0000E+00    2.512000E+07  0.05000  4.207E-03    0   0.7902   age090_m72            0.0000     6.7328E+02     7.9833   3.2276    93.4649
134      0.0000     0.0000E+00    0.0000E+00    4.000000E+07  0.05000  3.198E-03    0   0.7618   age104_m72            0.0000     9.9183E+02     7.0230   2.7279   101.6968
135      0.0000     0.0000E+00    0.0000E+00    5.500000E+07  0.05000  2.593E-03    0   0.7432   age110_m72            0.0000     1.3080E+03     7.8598   2.6342   103.7663
136      0.0000     0.0000E+00    0.0000E+00    1.015200E+08  0.05000  1.716E-03    0   0.7092   age116_m72            0.0000     1.9384E+03     9.3314   2.4405   106.6686
137      0.0000     0.0000E+00    0.0000E+00    1.609000E+08  0.05000  1.218E-03    0   0.6876   age120_m72            0.0000     2.5949E+03    10.5944   2.1655   109.6454
138      0.0000     0.0000E+00    0.0000E+00    2.861200E+08  0.05000  7.047E-04    0   0.6618   age125_m72            0.0000     3.1638E+03    12.1006   1.6261   113.9730
139      0.0000     0.0000E+00    0.0000E+00    5.088000E+08  0.05000  3.590E-04    0   0.6356   age130_m72            0.0000     2.4697E+03    11.0232   1.0304   117.3146
140      0.0000     0.0000E+00    0.0000E+00    9.047900E+08  0.05000  1.484E-04    0   0.6088   age135_m72            0.0000     1.0038E+03     8.2464   0.2749   111.1957
141      0.0693     3.0559E-02    3.5977E-02    1.278050E+09  0.05000  9.435E-05    0   0.5924   age138_m72            0.0000     1.2974E+03     9.5493  -0.1274   108.0128
142      0.0000     0.0000E+00    0.0000E+00    1.434000E+09  0.05000  7.827E-05    0   0.5847   age139_m72            0.0000     1.2638E+03     9.3898  -0.1115   107.3391
143      0.0000     0.0000E+00    0.0000E+00    2.500000E+09  0.05000  3.759E-05    0   0.5583   age150_m72            0.0000     1.9007E+03    11.0925  -0.4384   106.6636
144      0.0000     0.0000E+00    0.0000E+00    4.250000E+09  0.05000  1.842E-05    0   0.5374   age158_m72            0.0000     2.7559E+03    12.8525  -0.7333   106.0909
145      0.0000     0.0000E+00    0.0000E+00    6.250000E+09  0.05000  1.207E-05    0   0.5242   age166_m72            0.0000     3.6164E+03    14.5663  -0.9718   105.7986
146      0.0000     0.0000E+00    0.0000E+00    7.500000E+09  0.05000  9.993E-06    0   0.5183   age171_m72            0.0000     3.7563E+03    14.8113  -1.0000   105.3500
147      0.0000     0.0000E+00    0.0000E+00    1.000000E+10  0.05000  7.291E-06    0   0.5081   age181_m72            0.0000     4.4713E+03    16.2223  -1.0000   101.9025
148      0.0000     0.0000E+00    0.0000E+00    1.300000E+10  0.05000  5.316E-06    0   0.5018   age193_m72            0.0000     5.8688E+03    18.4826  -1.0000    96.7525
149      0.0000     0.0000E+00    0.0000E+00    1.500000E+10  0.05000  4.497E-06    0   0.4972   age201_m72            0.0000     6.5971E+03    19.4740  -1.0000    94.9555
150      0.0000     0.0000E+00    0.0000E+00    1.800000E+10  0.05000  3.739E-06    0   0.4924   age213_m72            0.0000     7.6502E+03    20.7426  -1.0000    92.1237


## Synthesis Results - Average & Chains ##

# j      x_j: min, <> & last-chain-values for 1 ...  7 chains
  1      0.0000      0.0058      0.0000      0.0000      0.0000      0.0000      0.0000      0.0000      0.0000
  2     17.0911     15.3838     15.9650     15.6136     15.8827     15.7477     15.8193     15.9216     15.9792
  3      0.0000      0.0195      0.0000      0.0000      0.0000      0.0000      0.0000      0.0000      0.0000
  4      0.0000      0.0083      0.0000      0.0152      0.0000      0.0057      0.0000      0.0594      0.0000
  5      0.0000      0.0087      0.0000      0.0000      0.0000      0.0000      0.0000      0.0000      0.0000
  6      0.0000      0.0065      0.0000      0.0035      0.0000      0.0000      0.0000      0.0000      0.0000
  7      0.0000      0.0042      0.0000      0.0000      0.0172      0.0000      0.0000      0.0000      0.0000
  8      0.0000      0.0138      0.0000      0.0000      0.0000      0.0362      0.0139      0.0000      0.0000
  9      0.0000      0.0180      0.0000      0.0000      0.0000      0.0739      0.0000      0.0000      0.0000
 10      0.0000      0.0106      0.0000      0.0000      0.0744      0.0000      0.0000      0.0000      0.0000
 11      0.0000      0.0094      0.0000      0.0279      0.0000      0.0000      0.0051      0.0444      0.0130
 12      0.0000      0.0067      0.0000      0.0000      0.0000      0.0000      0.0000      0.0897      0.0296
 13      0.0000      0.0039      0.0000      0.0000      0.0000      0.0000      0.0000      0.0000      0.0000
 14      0.0000      0.0036      0.0000      0.0000      0.0000      0.0000      0.0166      0.0000      0.0000
 15      0.0000      0.0052      0.0000      0.0000      0.0000      0.0000      0.0000      0.0000      0.0000
 16      0.0000      0.0080      0.0000      0.0000      0.0000      0.0000      0.0000      0.0000      0.0168
 17      0.0000      0.0137      0.0000      0.0000      0.0000      0.0481      0.0000      0.0000      0.0000
 18      0.0000      0.0182      0.0000      0.0000      0.0000      0.0000      0.1650      0.0000      0.0000
 19      0.0000      0.0323      0.0617      0.0000      0.0144      0.0000      0.0000      0.1165      0.0000
 20      0.0000      0.0791      0.1747      0.0000      0.0000      0.1584      0.4017      0.0000      0.0000
 21      0.0000      0.0625      0.0000      0.0000      0.0452      0.0000      0.0000      0.0000      0.0367
 22      0.0000      0.0639      0.0312      0.0000      0.0471      0.1839      0.0000      0.0682      0.0137
 23      0.0000      0.1045      0.1842      0.2037      0.0000      0.0137      0.0000      0.0000      0.0000
 24      0.2668      0.1134      0.1670      0.0721      0.3218      0.0880      0.0983      0.1983      0.5326
 25      2.4671      0.2521      0.3151      0.3848      0.0555      0.3871      0.0022      0.5201      0.5047
 26      0.0000      0.0068      0.0000      0.0000      0.0000      0.0000      0.0000      0.0000      0.0000
 27      0.0000      0.0104      0.0503      0.0000      0.0000      0.0000      0.0016      0.0181      0.0000
 28      0.0000      0.0146      0.0000      0.0132      0.0000      0.0026      0.0000      0.0000      0.0128
 29      0.0000      0.0153      0.0000      0.0000      0.0000      0.0000      0.0000      0.0000      0.0095
 30      0.0000      0.0041      0.0000      0.0000      0.0000      0.0000      0.0000      0.0000      0.0000
 31      0.0000      0.0131      0.0832      0.0000      0.0000      0.0000      0.0000      0.0031      0.0000
 32      0.0000      0.0116      0.0000      0.0000      0.0000      0.0000      0.0085      0.0191      0.0000
 33      0.0000      0.0143      0.0000      0.0000      0.0000      0.0000      0.0000      0.0000      0.0000
 34      0.0000      0.0090      0.0000      0.0586      0.0000      0.0621      0.0765      0.0000      0.0000
 35      0.0000      0.0103      0.0000      0.0000      0.0792      0.0000      0.0000      0.0000      0.0000
 36      0.0000      0.0088      0.0279      0.0000      0.0228      0.0000      0.0000      0.0000      0.0000
 37      0.0000      0.0073      0.0000      0.0000      0.0000      0.0000      0.0000      0.0051      0.0000
 38      0.0000      0.0091      0.0000      0.0000      0.0603      0.0000      0.0000      0.0000      0.0000
 39      0.0000      0.0043      0.0000      0.0000      0.0000      0.0000      0.0000      0.0000      0.0000
 40      0.0000      0.0104      0.0000      0.0000      0.0948      0.0000      0.0000      0.0014      0.0000
 41      0.0000      0.0174      0.0000      0.0000      0.0000      0.0952      0.0000      0.0862      0.0000
 42      0.0000      0.0318      0.0000      0.0544      0.0000      0.0000      0.1215      0.0000      0.0000
 43      0.0000      0.0390      0.0000      0.1870      0.0378      0.0000      0.0000      0.0000      0.0000
 44      0.0000      0.1200      0.2419      0.0000      0.2011      0.0077      0.2511      0.0000      0.0425
 45     11.2580     11.4988     11.4891     11.6896     11.4676     11.5069     11.7791     11.6065     10.7699
 46     23.4113     23.1732     23.0850     23.0828     23.1268     23.2828     23.1390     22.8707     24.2061
 47     17.5511     20.2168     20.0099     20.5342     19.7495     20.1699     20.2446     20.2105     19.3175
 48      0.1126      0.1716      0.3456      0.1272      0.2897      0.4318      0.0000      0.0486      0.5558
 49      0.0445      0.2787      0.2352      0.4186      0.2356      0.1687      0.2465      0.3395      0.3376
 50      0.1648      0.2302      0.1184      0.0000      0.1990      0.1007      0.1812      0.1863      0.2991
 51      0.0000      0.0056      0.0000      0.0000      0.0000      0.0000      0.0000      0.0029      0.0000
 52      0.0000      0.0431      0.0000      0.1278      0.0943      0.0000      0.0000      0.0000      0.0000
 53      0.0000      0.0064      0.0036      0.0000      0.0000      0.0000      0.0000      0.0000      0.0061
 54      0.0000      0.0132      0.0000      0.0000      0.0506      0.0000      0.0393      0.0988      0.0959
 55      0.0000      0.0158      0.0000      0.0000      0.0000      0.0438      0.0202      0.0000      0.0000
 56      0.0000      0.0071      0.0000      0.0000      0.0000      0.0048      0.0000      0.0000      0.0000
 57      0.0000      0.0105      0.0000      0.0000      0.0069      0.0141      0.0000      0.0000      0.0000
 58      0.0000      0.0116      0.0000      0.0000      0.0000      0.0000      0.0000      0.0000      0.0089
 59      0.0000      0.0105      0.0043      0.0469      0.0000      0.0488      0.0000      0.0000      0.0000
 60      0.0000      0.0061      0.0000      0.0000      0.0279      0.0000      0.0000      0.0000      0.0000
 61      0.0000      0.0044      0.0104      0.0000      0.0000      0.0000      0.0000      0.0000      0.0000
 62      0.0000      0.0073      0.0000      0.0000      0.0000      0.0000      0.0000      0.0181      0.0000
 63      0.0000      0.0087      0.0000      0.0609      0.0000      0.0000      0.0000      0.0000      0.0000
 64      0.0000      0.0072      0.0000      0.0000      0.0000      0.0000      0.0000      0.0000      0.0000
 65      0.0000      0.0251      0.0000      0.0265      0.0466      0.0000      0.0000      0.0000      0.0000
 66      0.0000      0.0352      0.0491      0.0000      0.0000      0.0000      0.0000      0.0579      0.0000
 67      0.0000      0.0284      0.0000      0.0176      0.0000      0.0000      0.0000      0.0000      0.0000
 68      0.0000      0.2167      0.0602      0.1168      0.3313      0.0626      0.0448      0.0000      0.1423
 69      0.0000      0.0691      0.1190      0.0000      0.0000      0.0198      0.0368      0.0000      0.0648
 70      3.6438      3.7901      3.8391      3.8539      3.7558      3.6681      3.6166      3.8564      3.6386
 71      0.9181      1.3236      1.2593      1.1400      1.4769      1.3344      1.5753      1.3001      1.1934
 72      0.0000      0.1386      0.0000      0.0010      0.0000      0.0535      0.2355      0.0000      0.2210
 73      0.0000      0.0503      0.4024      0.0000      0.0069      0.0000      0.0000      0.0205      0.0000
 74      0.0000      0.0382      0.0000      0.0000      0.0000      0.0000      0.0000      0.0000      0.0000
 75      0.0000      0.0428      0.0000      0.0000      0.0009      0.0000      0.0667      0.0000      0.0069
 76      0.0000      0.0053      0.0000      0.0167      0.0446      0.0000      0.0000      0.0000      0.0000
 77      0.0000      0.0042      0.0000      0.0000      0.0477      0.0000      0.0012      0.0502      0.0000
 78      0.0000      0.0073      0.0593      0.0201      0.0000      0.0000      0.0000      0.0000      0.0000
 79      0.0000      0.0164      0.0000      0.0000      0.0000      0.0047      0.1138      0.0000      0.0000
 80      0.0000      0.0371      0.0000      0.0000      0.0000      0.0000      0.0000      0.0000      0.0232
 81      0.0000      0.0095      0.0000      0.0550      0.0000      0.0061      0.0000      0.0000      0.0000
 82      0.0000      0.0060      0.0000      0.0000      0.0000      0.0351      0.0000      0.0000      0.0000
 83      0.0000      0.0113      0.0000      0.0000      0.0000      0.0000      0.0000      0.0201      0.0000
 84      0.0000      0.0081      0.0528      0.0000      0.0000      0.0395      0.0000      0.0000      0.0383
 85      0.0000      0.0054      0.0117      0.0000      0.0000      0.0000      0.0000      0.0060      0.0203
 86      0.0000      0.0123      0.0000      0.0000      0.0000      0.0000      0.0000      0.0000      0.0000
 87      0.0000      0.0045      0.0000      0.0000      0.0000      0.0000      0.0000      0.0000      0.0000
 88      0.0000      0.0065      0.0000      0.0000      0.0000      0.0000      0.0000      0.0000      0.0000
 89      0.0000      0.0055      0.0000      0.0000      0.0000      0.0000      0.0000      0.0000      0.0000
 90      0.0000      0.0081      0.0000      0.0000      0.0000      0.0000      0.0051      0.0440      0.0000
 91      0.0000      0.0209      0.0000      0.0093      0.0000      0.0000      0.0000      0.0000      0.0000
 92      0.0000      0.0209      0.0000      0.0156      0.0000      0.0000      0.0000      0.1005      0.0000
 93      0.0000      0.1420      0.0000      0.0000      0.0000      0.1094      0.0000      0.0000      0.0000
 94      9.4581      8.3305      8.2557      8.6379      8.5847      8.3644      8.5270      8.8695      8.5488
 95      2.4719      2.1132      2.2620      2.4650      2.2878      2.3398      2.1163      2.1098      2.2001
 96      2.0791      1.1993      1.2012      1.0399      1.2049      1.2072      1.5495      1.1050      1.1073
 97      2.6454      1.9283      2.0399      1.8613      2.0627      1.9527      2.0758      2.2655      1.7824
 98      0.6477      0.6830      0.6163      0.7963      0.6926      0.6836      0.6930      0.6253      0.6797
 99      5.3764      4.9550      5.1463      5.1485      5.0602      5.0166      5.0994      5.0499      5.3031
100      0.4866      0.6021      0.6141      0.6270      0.6366      0.7505      0.6127      0.6198      0.6165
101      0.0000      0.0036      0.0000      0.0000      0.0000      0.0576      0.0000      0.0000      0.0000
102      0.0000      0.0081      0.0085      0.0373      0.0000      0.0000      0.0000      0.0000      0.0000
103      0.0000      0.0069      0.0000      0.0000      0.0000      0.0000      0.0000      0.0000      0.0000
104      0.0000      0.0077      0.0000      0.0000      0.0000      0.0000      0.0000      0.0000      0.0000
105      0.0000      0.0055      0.0000      0.0000      0.0000      0.0000      0.0000      0.0000      0.0000
106      0.0000      0.0059      0.0000      0.0000      0.0000      0.0415      0.0000      0.0000      0.0779
107      0.0000      0.0096      0.0000      0.0000      0.0000      0.0080      0.0000      0.0185      0.0000
108      0.0000      0.0073      0.0000      0.0660      0.0000      0.0000      0.0000      0.0008      0.0349
109      0.0000      0.0069      0.0000      0.0000      0.0000      0.0000      0.0000      0.0000      0.0000
110      0.0000      0.0151      0.0000      0.0000      0.0000      0.0000      0.0057      0.0000      0.0000
111      0.0000      0.0047      0.0325      0.0000      0.0000      0.0000      0.0000      0.0000      0.0000
112      0.0000      0.0050      0.0104      0.0000      0.0000      0.0000      0.0000      0.0000      0.0000
113      0.0000      0.0051      0.0000      0.0000      0.0000      0.0000      0.0000      0.0000      0.0233
114      0.0000      0.0085      0.0012      0.0000      0.0000      0.0000      0.0000      0.0000      0.0000
115      0.0000      0.0171      0.0000      0.0769      0.0145      0.0398      0.0000      0.0000      0.0078
116      0.0000      0.0401      0.0000      0.0192      0.0134      0.0000      0.0207      0.0000      0.0016
117      0.0000      0.0447      0.0000      0.0000      0.0022      0.0622      0.0000      0.0000      0.0000
118      0.0000      0.0964      0.2956      0.0000      0.1566      0.0721      0.1810      0.0262      0.0000
119      0.0000      0.2428      0.0181      0.2525      0.2263      0.0000      0.2616      0.2556      0.2981
120      0.0000      0.0393      0.0000      0.0137      0.0000      0.0000      0.0000      0.0000      0.1860
121      0.7276      1.0755      1.0942      0.9966      1.0855      1.0655      1.0929      0.9732      1.1003
122      0.0000      0.0306      0.0000      0.0000      0.0000      0.0000      0.0000      0.0000      0.0000
123      0.0000      0.0196      0.0000      0.0000      0.0000      0.0000      0.0000      0.0000      0.0000
124      0.0000      0.0204      0.0000      0.0000      0.0413      0.0242      0.0000      0.0745      0.0000
125      0.0000      0.0135      0.0000      0.0000      0.0000      0.0000      0.0000      0.0000      0.0000
126      0.0000      0.0060      0.0000      0.0000      0.0000      0.0000      0.0000      0.0000      0.0075
127      0.0000      0.0155      0.0000      0.0000      0.0868      0.0000      0.0000      0.0000      0.0000
128      0.0000      0.0059      0.0000      0.0000      0.0000      0.0318      0.0000      0.0000      0.0000
129      0.0000      0.0114      0.0000      0.0000      0.0178      0.0000      0.0609      0.0000      0.0000
130      0.0000      0.0081      0.0011      0.0000      0.0000      0.0000      0.0037      0.0000      0.0000
131      0.0000      0.0056      0.0000      0.0008      0.0000      0.0000      0.0000      0.0193      0.0000
132      0.0000      0.0026      0.0000      0.0000      0.0000      0.0000      0.0000      0.0553      0.0000
133      0.0000      0.0033      0.0000      0.0000      0.0000      0.0000      0.0000      0.0000      0.0000
134      0.0000      0.0051      0.0000      0.0000      0.0000      0.0000      0.0000      0.0000      0.0000
135      0.0000      0.0045      0.0000      0.0000      0.0000      0.0667      0.0067      0.0000      0.0019
136      0.0000      0.0089      0.0064      0.0000      0.0000      0.0000      0.0269      0.0000      0.0000
137      0.0000      0.0046      0.0887      0.0000      0.0000      0.0000      0.0000      0.0000      0.0000
138      0.0000      0.0058      0.0000      0.0000      0.0002      0.0000      0.0000      0.0000      0.0000
139      0.0000      0.0111      0.0000      0.0019      0.0000      0.0000      0.0000      0.0000      0.0000
140      0.0000      0.0442      0.0000      0.0000      0.2232      0.0691      0.0000      0.0590      0.0000
141      0.0693      0.3989      0.3147      0.4202      0.4480      0.4683      0.0000      0.3809      0.3552
142      0.0000      0.0844      0.0286      0.0000      0.0723      0.0466      0.0720      0.1002      0.2629
143      0.0000      0.0782      0.2326      0.0974      0.0077      0.1283      0.0000      0.0880      0.1016
144      0.0000      0.0403      0.0000      0.0822      0.0000      0.1040      0.0606      0.0000      0.0000
145      0.0000      0.0108      0.0000      0.0000      0.0049      0.0000      0.0000      0.0166      0.0000
146      0.0000      0.0686      0.0889      0.1403      0.0000      0.0827      0.0383      0.0662      0.0059
147      0.0000      0.0215      0.0000      0.0431      0.0000      0.0828      0.0000      0.0718      0.0000
148      0.0000      0.0042      0.0000      0.0000      0.0000      0.0000      0.0000      0.0000      0.0000
149      0.0000      0.0060      0.0177      0.0000      0.0332      0.0000      0.0000      0.0000      0.0000
150      0.0000      0.0087      0.0000      0.0000      0.0000      0.0477      0.0000      0.0004      0.0000

# j      m_j: min, <> & last-chain-values for 1 ...  7 chains
  1  0.0000E+00  5.9499E-05  0.0000E+00  0.0000E+00  0.0000E+00  0.0000E+00  0.0000E+00  0.0000E+00  0.0000E+00
  2  2.9684E-02  2.7093E-02  2.8037E-02  2.7401E-02  2.8117E-02  2.7518E-02  2.7847E-02  2.7959E-02  2.8013E-02
  3  0.0000E+00  8.0929E-05  0.0000E+00  0.0000E+00  0.0000E+00  0.0000E+00  0.0000E+00  0.0000E+00  0.0000E+00
  4  0.0000E+00  6.4750E-05  0.0000E+00  1.1865E-04  0.0000E+00  4.4489E-05  0.0000E+00  4.6279E-04  0.0000E+00
  5  0.0000E+00  8.5247E-05  0.0000E+00  0.0000E+00  0.0000E+00  0.0000E+00  0.0000E+00  0.0000E+00  0.0000E+00
  6  0.0000E+00  7.6099E-05  0.0000E+00  4.0682E-05  0.0000E+00  0.0000E+00  0.0000E+00  0.0000E+00  0.0000E+00
  7  0.0000E+00  6.1677E-05  0.0000E+00  0.0000E+00  2.5500E-04  0.0000E+00  0.0000E+00  0.0000E+00  0.0000E+00
  8  0.0000E+00  2.2983E-04  0.0000E+00  0.0000E+00  0.0000E+00  5.9997E-04  2.3269E-04  0.0000E+00  0.0000E+00
  9  0.0000E+00  3.2398E-04  0.0000E+00  0.0000E+00  0.0000E+00  1.3162E-03  0.0000E+00  0.0000E+00  0.0000E+00
 10  0.0000E+00  2.1872E-04  0.0000E+00  0.0000E+00  1.5401E-03  0.0000E+00  0.0000E+00  0.0000E+00  0.0000E+00
 11  0.0000E+00  2.3114E-04  0.0000E+00  6.8490E-04  0.0000E+00  0.0000E+00  1.2489E-04  1.0906E-03  3.1799E-04
 12  0.0000E+00  2.9008E-04  0.0000E+00  0.0000E+00  0.0000E+00  0.0000E+00  0.0000E+00  3.8519E-03  1.2696E-03
 13  0.0000E+00  1.9567E-04  0.0000E+00  0.0000E+00  0.0000E+00  0.0000E+00  0.0000E+00  0.0000E+00  0.0000E+00
 14  0.0000E+00  2.5380E-04  0.0000E+00  0.0000E+00  0.0000E+00  0.0000E+00  1.1801E-03  0.0000E+00  0.0000E+00
 15  0.0000E+00  5.5402E-04  0.0000E+00  0.0000E+00  0.0000E+00  0.0000E+00  0.0000E+00  0.0000E+00  0.0000E+00
 16  0.0000E+00  1.2438E-03  0.0000E+00  0.0000E+00  0.0000E+00  0.0000E+00  0.0000E+00  0.0000E+00  2.5902E-03
 17  0.0000E+00  2.3559E-03  0.0000E+00  0.0000E+00  0.0000E+00  8.2258E-03  0.0000E+00  0.0000E+00  0.0000E+00
 18  0.0000E+00  5.1196E-03  0.0000E+00  0.0000E+00  0.0000E+00  0.0000E+00  4.6286E-02  0.0000E+00  0.0000E+00
 19  0.0000E+00  1.3722E-02  2.6146E-02  0.0000E+00  6.1642E-03  0.0000E+00  0.0000E+00  4.9406E-02  0.0000E+00
 20  0.0000E+00  4.8097E-02  1.0597E-01  0.0000E+00  0.0000E+00  9.5607E-02  2.4419E-01  0.0000E+00  0.0000E+00
 21  0.0000E+00  4.4004E-02  0.0000E+00  0.0000E+00  3.1967E-02  0.0000E+00  0.0000E+00  0.0000E+00  2.5700E-02
 22  0.0000E+00  5.8027E-02  2.8272E-02  0.0000E+00  4.2944E-02  1.6562E-01  0.0000E+00  6.1720E-02  1.2417E-02
 23  0.0000E+00  1.2022E-01  2.1137E-01  2.3366E-01  0.0000E+00  1.5648E-02  0.0000E+00  0.0000E+00  0.0000E+00
 24  3.4631E-01  1.4930E-01  2.1921E-01  9.4558E-02  4.2568E-01  1.1495E-01  1.2928E-01  2.6021E-01  6.9773E-01
 25  3.8469E+00  3.9862E-01  4.9676E-01  6.0627E-01  8.8215E-02  6.0722E-01  3.4418E-03  8.1988E-01  7.9430E-01
 26  0.0000E+00  6.7634E-05  0.0000E+00  0.0000E+00  0.0000E+00  0.0000E+00  0.0000E+00  0.0000E+00  0.0000E+00
 27  0.0000E+00  2.1990E-05  1.0578E-04  0.0000E+00  0.0000E+00  0.0000E+00  3.3284E-06  3.7990E-05  0.0000E+00
 28  0.0000E+00  6.0156E-05  0.0000E+00  5.4392E-05  0.0000E+00  1.0795E-05  0.0000E+00  0.0000E+00  5.2581E-05
 29  0.0000E+00  9.8289E-05  0.0000E+00  0.0000E+00  0.0000E+00  0.0000E+00  0.0000E+00  0.0000E+00  6.0553E-05
 30  0.0000E+00  3.2950E-05  0.0000E+00  0.0000E+00  0.0000E+00  0.0000E+00  0.0000E+00  0.0000E+00  0.0000E+00
 31  0.0000E+00  1.2114E-04  7.6643E-04  0.0000E+00  0.0000E+00  0.0000E+00  0.0000E+00  2.8657E-05  0.0000E+00
 32  0.0000E+00  1.1871E-04  0.0000E+00  0.0000E+00  0.0000E+00  0.0000E+00  8.6506E-05  1.9522E-04  0.0000E+00
 33  0.0000E+00  2.0836E-04  0.0000E+00  0.0000E+00  0.0000E+00  0.0000E+00  0.0000E+00  0.0000E+00  0.0000E+00
 34  0.0000E+00  1.5818E-04  0.0000E+00  1.0314E-03  0.0000E+00  1.0883E-03  1.3512E-03  0.0000E+00  0.0000E+00
 35  0.0000E+00  2.2014E-04  0.0000E+00  0.0000E+00  1.6987E-03  0.0000E+00  0.0000E+00  0.0000E+00  0.0000E+00
 36  0.0000E+00  2.4100E-04  7.6113E-04  0.0000E+00  6.2692E-04  0.0000E+00  0.0000E+00  0.0000E+00  0.0000E+00
 37  0.0000E+00  2.4681E-04  0.0000E+00  0.0000E+00  0.0000E+00  0.0000E+00  0.0000E+00  1.7415E-04  0.0000E+00
 38  0.0000E+00  4.2911E-04  0.0000E+00  0.0000E+00  2.8701E-03  0.0000E+00  0.0000E+00  0.0000E+00  0.0000E+00
 39  0.0000E+00  3.0640E-04  0.0000E+00  0.0000E+00  0.0000E+00  0.0000E+00  0.0000E+00  0.0000E+00  0.0000E+00
 40  0.0000E+00  1.3011E-03  0.0000E+00  0.0000E+00  1.1885E-02  0.0000E+00  0.0000E+00  1.7190E-04  0.0000E+00
 41  0.0000E+00  2.9059E-03  0.0000E+00  0.0000E+00  0.0000E+00  1.5782E-02  0.0000E+00  1.4352E-02  0.0000E+00
 42  0.0000E+00  5.9399E-03  0.0000E+00  1.0115E-02  0.0000E+00  0.0000E+00  2.2640E-02  0.0000E+00  0.0000E+00
 43  0.0000E+00  1.1829E-02  0.0000E+00  5.6541E-02  1.1536E-02  0.0000E+00  0.0000E+00  0.0000E+00  0.0000E+00
 44  0.0000E+00  5.7559E-02  1.1572E-01  0.0000E+00  9.7009E-02  3.6462E-03  1.2040E-01  0.0000E+00  2.0318E-02
 45  7.4244E+00  7.6895E+00  7.6610E+00  7.7896E+00  7.7084E+00  7.6347E+00  7.8730E+00  7.7389E+00  7.1690E+00
 46  1.8392E+01  1.8460E+01  1.8337E+01  1.8324E+01  1.8519E+01  1.8403E+01  1.8424E+01  1.8166E+01  1.9194E+01
 47  1.8072E+01  2.1108E+01  2.0832E+01  2.1364E+01  2.0727E+01  2.0895E+01  2.1127E+01  2.1040E+01  2.0076E+01
 48  1.3803E-01  2.1340E-01  4.2842E-01  1.5759E-01  3.6206E-01  5.3268E-01  0.0000E+00  6.0310E-02  6.8786E-01
 49  6.1058E-02  3.8760E-01  3.2616E-01  5.8018E-01  3.2939E-01  2.3284E-01  3.4272E-01  4.7076E-01  4.6739E-01
 50  2.6592E-01  3.7654E-01  1.9306E-01  0.0000E+00  3.2729E-01  1.6341E-01  2.9622E-01  3.0383E-01  4.8709E-01
 51  0.0000E+00  4.2497E-05  0.0000E+00  0.0000E+00  0.0000E+00  0.0000E+00  0.0000E+00  2.1442E-05  0.0000E+00
 52  0.0000E+00  8.8755E-05  0.0000E+00  2.6194E-04  1.9496E-04  0.0000E+00  0.0000E+00  0.0000E+00  0.0000E+00
 53  0.0000E+00  2.0044E-05  1.1202E-05  0.0000E+00  0.0000E+00  0.0000E+00  0.0000E+00  1.2206E-07  1.8924E-05
 54  0.0000E+00  3.9457E-05  0.0000E+00  0.0000E+00  1.5220E-04  0.0000E+00  1.1757E-04  2.9470E-04  2.8559E-04
 55  0.0000E+00  6.9935E-05  0.0000E+00  0.0000E+00  0.0000E+00  1.9185E-04  8.9167E-05  0.0000E+00  0.0000E+00
 56  0.0000E+00  4.1685E-05  0.0000E+00  0.0000E+00  0.0000E+00  2.7631E-05  0.0000E+00  0.0000E+00  0.0000E+00
 57  0.0000E+00  9.8563E-05  0.0000E+00  0.0000E+00  6.5366E-05  1.3104E-04  0.0000E+00  0.0000E+00  0.0000E+00
 58  0.0000E+00  1.5726E-04  0.0000E+00  0.0000E+00  0.0000E+00  0.0000E+00  0.0000E+00  0.0000E+00  1.1992E-04
 59  0.0000E+00  1.9694E-04  7.9792E-05  8.7689E-04  0.0000E+00  9.0880E-04  0.0000E+00  0.0000E+00  0.0000E+00
 60  0.0000E+00  1.2771E-04  0.0000E+00  0.0000E+00  5.8703E-04  0.0000E+00  0.0000E+00  0.0000E+00  0.0000E+00
 61  0.0000E+00  1.1810E-04  2.7672E-04  0.0000E+00  0.0000E+00  0.0000E+00  0.0000E+00  0.0000E+00  0.0000E+00
 62  0.0000E+00  2.4631E-04  0.0000E+00  0.0000E+00  0.0000E+00  0.0000E+00  0.0000E+00  6.0900E-04  0.0000E+00
 63  0.0000E+00  4.4760E-04  0.0000E+00  3.1153E-03  0.0000E+00  0.0000E+00  0.0000E+00  0.0000E+00  0.0000E+00
 64  0.0000E+00  6.0631E-04  0.0000E+00  0.0000E+00  0.0000E+00  0.0000E+00  0.0000E+00  0.0000E+00  0.0000E+00
 65  0.0000E+00  3.5811E-03  0.0000E+00  3.7780E-03  6.6920E-03  0.0000E+00  0.0000E+00  0.0000E+00  0.0000E+00
 66  0.0000E+00  6.4400E-03  8.9455E-03  0.0000E+00  0.0000E+00  0.0000E+00  0.0000E+00  1.0551E-02  0.0000E+00
 67  0.0000E+00  7.1308E-03  0.0000E+00  4.4049E-03  0.0000E+00  0.0000E+00  0.0000E+00  0.0000E+00  0.0000E+00
 68  0.0000E+00  1.0107E-01  2.7992E-02  5.4260E-02  1.5532E-01  2.8953E-02  2.0864E-02  0.0000E+00  6.6048E-02
 69  0.0000E+00  5.5542E-02  9.5427E-02  0.0000E+00  0.0000E+00  1.5827E-02  2.9557E-02  0.0000E+00  5.1877E-02
 70  4.0222E+00  4.2424E+00  4.2849E+00  4.2986E+00  4.2258E+00  4.0738E+00  4.0461E+00  4.3040E+00  4.0541E+00
 71  1.1958E+00  1.7480E+00  1.6583E+00  1.5003E+00  1.9606E+00  1.7486E+00  2.0794E+00  1.7121E+00  1.5689E+00
 72  0.0000E+00  2.4098E-01  0.0000E+00  1.7990E-03  0.0000E+00  9.2240E-02  4.0915E-01  0.0000E+00  3.8251E-01
 73  0.0000E+00  1.1028E-01  8.7991E-01  0.0000E+00  1.5277E-02  0.0000E+00  0.0000E+00  4.4874E-02  0.0000E+00
 74  0.0000E+00  9.3364E-02  0.0000E+00  0.0000E+00  0.0000E+00  0.0000E+00  0.0000E+00  0.0000E+00  0.0000E+00
 75  0.0000E+00  1.2045E-01  0.0000E+00  0.0000E+00  2.5674E-03  0.0000E+00  1.8769E-01  0.0000E+00  1.9320E-02
 76  0.0000E+00  3.4656E-05  0.0000E+00  1.0867E-04  2.9190E-04  0.0000E+00  0.0000E+00  0.0000E+00  0.0000E+00
 77  0.0000E+00  1.1042E-05  0.0000E+00  0.0000E+00  1.2736E-04  0.0000E+00  3.1456E-06  1.3273E-04  0.0000E+00
 78  0.0000E+00  2.1690E-05  1.7568E-04  5.9370E-05  0.0000E+00  0.0000E+00  0.0000E+00  0.0000E+00  0.0000E+00
 79  0.0000E+00  5.8725E-05  0.0000E+00  0.0000E+00  0.0000E+00  1.6796E-05  4.0680E-04  0.0000E+00  0.0000E+00
 80  0.0000E+00  1.7075E-04  0.0000E+00  0.0000E+00  0.0000E+00  0.0000E+00  0.0000E+00  0.0000E+00  1.0644E-04
 81  0.0000E+00  5.7954E-05  0.0000E+00  3.3364E-04  0.0000E+00  3.6701E-05  0.0000E+00  0.0000E+00  0.0000E+00
 82  0.0000E+00  4.9030E-05  0.0000E+00  0.0000E+00  0.0000E+00  2.8591E-04  0.0000E+00  0.0000E+00  0.0000E+00
 83  0.0000E+00  1.3615E-04  0.0000E+00  0.0000E+00  0.0000E+00  0.0000E+00  0.0000E+00  2.4195E-04  0.0000E+00
 84  0.0000E+00  1.3494E-04  8.7891E-04  0.0000E+00  0.0000E+00  6.5314E-04  0.0000E+00  0.0000E+00  6.3573E-04
 85  0.0000E+00  1.0975E-04  2.3625E-04  0.0000E+00  0.0000E+00  0.0000E+00  0.0000E+00  1.2056E-04  4.0998E-04
 86  0.0000E+00  3.3722E-04  0.0000E+00  0.0000E+00  0.0000E+00  0.0000E+00  0.0000E+00  0.0000E+00  0.0000E+00
 87  0.0000E+00  1.6417E-04  0.0000E+00  0.0000E+00  0.0000E+00  0.0000E+00  0.0000E+00  0.0000E+00  0.0000E+00
 88  0.0000E+00  3.6493E-04  0.0000E+00  0.0000E+00  0.0000E+00  0.0000E+00  0.0000E+00  0.0000E+00  0.0000E+00
 89  0.0000E+00  5.0619E-04  0.0000E+00  0.0000E+00  0.0000E+00  0.0000E+00  0.0000E+00  0.0000E+00  0.0000E+00
 90  0.0000E+00  1.3942E-03  0.0000E+00  0.0000E+00  0.0000E+00  0.0000E+00  8.7720E-04  7.5322E-03  0.0000E+00
 91  0.0000E+00  4.6061E-03  0.0000E+00  2.0428E-03  0.0000E+00  0.0000E+00  0.0000E+00  0.0000E+00  0.0000E+00
 92  0.0000E+00  6.1747E-03  0.0000E+00  4.5928E-03  0.0000E+00  0.0000E+00  0.0000E+00  2.9555E-02  0.0000E+00
 93  0.0000E+00  8.5076E-02  0.0000E+00  0.0000E+00  0.0000E+00  6.4987E-02  0.0000E+00  0.0000E+00  0.0000E+00
 94  1.0019E+01  8.9484E+00  8.8426E+00  9.2459E+00  9.2694E+00  8.9146E+00  9.1549E+00  9.4996E+00  9.1407E+00
 95  3.5277E+00  3.0580E+00  3.2640E+00  3.5546E+00  3.3279E+00  3.3595E+00  3.0610E+00  3.0442E+00  3.1692E+00
 96  3.5797E+00  2.0939E+00  2.0912E+00  1.8092E+00  2.1147E+00  2.0912E+00  2.7040E+00  1.9236E+00  1.9244E+00
 97  5.9351E+00  4.3869E+00  4.6274E+00  4.2195E+00  4.7170E+00  4.4075E+00  4.7200E+00  5.1389E+00  4.0363E+00
 98  1.8634E+00  1.9926E+00  1.7929E+00  2.3150E+00  2.0312E+00  1.9787E+00  2.0207E+00  1.8190E+00  1.9737E+00
 99  1.7633E+01  1.6478E+01  1.7066E+01  1.7062E+01  1.6916E+01  1.6553E+01  1.6950E+01  1.6745E+01  1.7555E+01
100  1.8373E+00  2.3054E+00  2.3447E+00  2.3923E+00  2.4501E+00  2.8509E+00  2.3448E+00  2.3661E+00  2.3495E+00
101  0.0000E+00  1.5333E-05  0.0000E+00  0.0000E+00  0.0000E+00  2.4079E-04  0.0000E+00  0.0000E+00  0.0000E+00
102  0.0000E+00  1.7710E-05  1.8541E-05  8.1443E-05  0.0000E+00  0.0000E+00  0.0000E+00  0.0000E+00  0.0000E+00
103  0.0000E+00  1.6807E-05  0.0000E+00  0.0000E+00  0.0000E+00  0.0000E+00  0.0000E+00  0.0000E+00  0.0000E+00
104  0.0000E+00  2.4561E-05  0.0000E+00  0.0000E+00  0.0000E+00  0.0000E+00  0.0000E+00  0.0000E+00  0.0000E+00
105  0.0000E+00  3.7083E-05  0.0000E+00  0.0000E+00  0.0000E+00  0.0000E+00  0.0000E+00  0.0000E+00  0.0000E+00
106  0.0000E+00  4.2538E-05  0.0000E+00  0.0000E+00  0.0000E+00  2.9859E-04  0.0000E+00  0.0000E+00  5.6250E-04
107  0.0000E+00  9.3020E-05  0.0000E+00  0.0000E+00  0.0000E+00  7.7011E-05  0.0000E+00  1.7872E-04  0.0000E+00
108  0.0000E+00  1.1851E-04  0.0000E+00  1.0610E-03  0.0000E+00  0.0000E+00  0.0000E+00  1.3242E-05  5.5991E-04
109  0.0000E+00  1.3371E-04  0.0000E+00  0.0000E+00  0.0000E+00  0.0000E+00  0.0000E+00  0.0000E+00  0.0000E+00
110  0.0000E+00  3.5067E-04  0.0000E+00  0.0000E+00  0.0000E+00  0.0000E+00  1.3244E-04  0.0000E+00  0.0000E+00
111  0.0000E+00  1.5063E-04  1.0452E-03  0.0000E+00  0.0000E+00  0.0000E+00  0.0000E+00  0.0000E+00  0.0000E+00
112  0.0000E+00  2.1093E-04  4.3972E-04  0.0000E+00  0.0000E+00  0.0000E+00  0.0000E+00  0.0000E+00  0.0000E+00
113  0.0000E+00  3.2108E-04  0.0000E+00  0.0000E+00  0.0000E+00  0.0000E+00  0.0000E+00  0.0000E+00  1.4670E-03
114  0.0000E+00  9.4894E-04  1.3356E-04  0.0000E+00  0.0000E+00  0.0000E+00  0.0000E+00  0.0000E+00  0.0000E+00
115  0.0000E+00  3.8031E-03  0.0000E+00  1.7085E-02  3.2395E-03  8.8020E-03  0.0000E+00  0.0000E+00  1.7399E-03
116  0.0000E+00  1.4349E-02  0.0000E+00  6.8423E-03  4.8418E-03  0.0000E+00  7.4178E-03  0.0000E+00  5.7737E-04
117  0.0000E+00  1.8816E-02  0.0000E+00  0.0000E+00  9.1036E-04  2.5952E-02  0.0000E+00  0.0000E+00  0.0000E+00
118  0.0000E+00  8.2348E-02  2.5172E-01  0.0000E+00  1.3446E-01  6.1098E-02  1.5454E-01  2.2276E-02  0.0000E+00
119  0.0000E+00  3.5836E-01  2.6602E-02  3.7140E-01  3.3585E-01  0.0000E+00  3.8598E-01  3.7623E-01  4.3805E-01
120  0.0000E+00  8.2663E-02  0.0000E+00  2.8604E-02  0.0000E+00  0.0000E+00  0.0000E+00  0.0000E+00  3.8916E-01
121  1.7746E+00  2.6598E+00  2.6985E+00  2.4561E+00  2.6986E+00  2.6145E+00  2.7016E+00  2.4000E+00  2.7087E+00
122  0.0000E+00  1.0137E-01  0.0000E+00  0.0000E+00  0.0000E+00  0.0000E+00  0.0000E+00  0.0000E+00  0.0000E+00
123  0.0000E+00  8.5586E-02  0.0000E+00  0.0000E+00  0.0000E+00  0.0000E+00  0.0000E+00  0.0000E+00  0.0000E+00
124  0.0000E+00  1.0240E-01  0.0000E+00  0.0000E+00  2.0816E-01  1.2026E-01  0.0000E+00  3.7221E-01  0.0000E+00
125  0.0000E+00  8.0911E-02  0.0000E+00  0.0000E+00  0.0000E+00  0.0000E+00  0.0000E+00  0.0000E+00  0.0000E+00
126  0.0000E+00  1.8928E-05  0.0000E+00  0.0000E+00  0.0000E+00  0.0000E+00  0.0000E+00  0.0000E+00  2.3596E-05
127  0.0000E+00  2.5822E-05  0.0000E+00  0.0000E+00  1.4545E-04  0.0000E+00  0.0000E+00  0.0000E+00  0.0000E+00
128  0.0000E+00  1.4529E-05  0.0000E+00  0.0000E+00  0.0000E+00  7.8056E-05  0.0000E+00  0.0000E+00  0.0000E+00
129  0.0000E+00  5.7479E-05  0.0000E+00  0.0000E+00  9.0602E-05  0.0000E+00  3.0788E-04  0.0000E+00  0.0000E+00
130  0.0000E+00  5.5546E-05  7.2337E-06  0.0000E+00  0.0000E+00  0.0000E+00  2.5505E-05  0.0000E+00  0.0000E+00
131  0.0000E+00  4.4913E-05  0.0000E+00  6.6702E-06  0.0000E+00  0.0000E+00  0.0000E+00  1.5354E-04  0.0000E+00
132  0.0000E+00  2.8559E-05  0.0000E+00  0.0000E+00  0.0000E+00  0.0000E+00  0.0000E+00  5.9782E-04  0.0000E+00
133  0.0000E+00  5.2609E-05  0.0000E+00  0.0000E+00  0.0000E+00  0.0000E+00  0.0000E+00  0.0000E+00  0.0000E+00
134  0.0000E+00  1.0209E-04  0.0000E+00  0.0000E+00  0.0000E+00  0.0000E+00  0.0000E+00  0.0000E+00  0.0000E+00
135  0.0000E+00  1.0747E-04  0.0000E+00  0.0000E+00  0.0000E+00  1.5897E-03  1.6039E-04  0.0000E+00  4.5947E-05
136  0.0000E+00  3.0765E-04  2.1956E-04  0.0000E+00  0.0000E+00  0.0000E+00  9.3109E-04  0.0000E+00  0.0000E+00
137  0.0000E+00  2.1659E-04  4.1843E-03  0.0000E+00  0.0000E+00  0.0000E+00  0.0000E+00  0.0000E+00  0.0000E+00
138  0.0000E+00  4.5428E-04  0.0000E+00  0.0000E+00  1.5731E-05  0.0000E+00  0.0000E+00  0.0000E+00  0.0000E+00
139  0.0000E+00  1.6485E-03  0.0000E+00  2.7840E-04  0.0000E+00  0.0000E+00  0.0000E+00  0.0000E+00  0.0000E+00
140  0.0000E+00  1.5201E-02  0.0000E+00  0.0000E+00  7.7150E-02  2.3585E-02  0.0000E+00  2.0243E-02  0.0000E+00
141  3.5977E-02  2.0990E-01  1.6513E-01  2.2037E-01  2.3697E-01  2.4454E-01  0.0000E+00  1.9986E-01  1.8607E-01
142  0.0000E+00  5.2818E-02  1.7864E-02  0.0000E+00  4.5503E-02  2.8972E-02  4.5028E-02  6.2582E-02  1.6386E-01
143  0.0000E+00  9.7305E-02  2.8871E-01  1.2085E-01  9.6144E-03  1.5848E-01  0.0000E+00  1.0919E-01  1.2589E-01
144  0.0000E+00  9.8540E-02  0.0000E+00  2.0021E-01  0.0000E+00  2.5227E-01  1.4816E-01  0.0000E+00  0.0000E+00
145  0.0000E+00  3.9380E-02  0.0000E+00  0.0000E+00  1.7944E-02  0.0000E+00  0.0000E+00  6.0415E-02  0.0000E+00
146  0.0000E+00  2.9837E-01  3.8547E-01  6.0778E-01  0.0000E+00  3.5686E-01  1.6643E-01  2.8689E-01  2.5317E-02
147  0.0000E+00  1.2557E-01  0.0000E+00  2.5099E-01  0.0000E+00  4.7961E-01  0.0000E+00  4.1836E-01  0.0000E+00
148  0.0000E+00  3.3206E-02  0.0000E+00  0.0000E+00  0.0000E+00  0.0000E+00  0.0000E+00  0.0000E+00  0.0000E+00
149  0.0000E+00  5.5224E-02  1.6323E-01  0.0000E+00  3.0913E-01  0.0000E+00  0.0000E+00  0.0000E+00  0.0000E+00
150  0.0000E+00  9.6398E-02  0.0000E+00  0.0000E+00  0.0000E+00  5.2280E-01  0.0000E+00  4.7094E-03  0.0000E+00

# AV, chi2 & Mass for <> & i_chain = 1 ...  7 solutions
AV       0.6133      0.6090      0.6101      0.6082      0.6119      0.6088      0.6088      0.6104      0.6097
chi2 2.9144E+00  3.0065E+00  2.9764E+00  2.9828E+00  2.9825E+00  2.9896E+00  2.9771E+00  2.9777E+00  2.9744E+00
Mass 2.3876E-09  2.3411E-09  2.3514E-09  2.3468E-09  2.3380E-09  2.3590E-09  2.3417E-09  2.3523E-09  2.3542E-09
 -10.41                                  [v0_min (km/s) before EX0s...]
  50.71                                  [vd_min (km/s) before EX0s...]


## Synthetic spectrum (Best Model) ##l_obs f_obs f_syn wei
 3070    [Nl_obs]
 3359.00    0.26280   0.45432   -1.000
 3360.00    0.25139   0.43298   -1.000
 3361.00    0.25340   0.44052   -1.000
 3362.00    0.26736   0.46919   -1.000
 3363.00    0.28505   0.50491   -1.000
 3364.00    0.29950   0.52753   -1.000
 3365.00    0.31361   0.52812   -1.000
 3366.00    0.31820   0.51813   -1.000
 3367.00    0.31138   0.50634   -1.000
 3368.00    0.30570   0.49416   -1.000
 3369.00    0.30425   0.48053   -1.000
 3370.00    0.30226   0.46116   -1.000
 3371.00    0.29959   0.44801   -1.000
 3372.00    0.29783   0.45139   -1.000
 3373.00    0.30724   0.47179   -1.000
 3374.00    0.32053   0.50151   -1.000
 3375.00    0.34002   0.53001   -1.000
 3376.00    0.35717   0.54376   -1.000
 3377.00    0.36053   0.53788   -1.000
 3378.00    0.36034   0.51986   -1.000
 3379.00    0.36207   0.50558   -1.000
 3380.00    0.35736   0.50394   -1.000
 3381.00    0.35479   0.51168   -1.000
 3382.00    0.36146   0.52190   -1.000
 3383.00    0.37245   0.53029   -1.000
 3384.00    0.37796   0.53798   -1.000
 3385.00    0.37949   0.54424   -1.000
 3386.00    0.38469   0.54025   -1.000
 3387.00    0.39313   0.52861   -1.000
 3388.00    0.39658   0.52246   -1.000
 3389.00    0.40085   0.52933   -1.000
 3390.00    0.40432   0.54005   -1.000
 3391.00    0.40767   0.54272   -1.000
 3392.00    0.40909   0.53231   -1.000
 3393.00    0.40853   0.52357   -1.000
 3394.00    0.41167   0.52903   -1.000
 3395.00    0.42064   0.54482   -1.000
 3396.00    0.43836   0.56338   -1.000
 3397.00    0.45512   0.57868   -1.000
 3398.00    0.46833   0.58965   -1.000
 3399.00    0.47846   0.59301   -1.000
 3400.00    0.48388   0.58788   -1.000
 3401.00    0.48365   0.57496   -1.000
 3402.00    0.47492   0.55607   -1.000
 3403.00    0.46723   0.54266   -1.000
 3404.00    0.46322   0.53691   -1.000
 3405.00    0.45685   0.53854   -1.000
 3406.00    0.44852   0.53820   -1.000
 3407.00    0.44530   0.53221   -1.000
 3408.00    0.44721   0.52640   -1.000
 3409.00    0.44894   0.52979   -1.000
 3410.00    0.45127   0.53890   -1.000
 3411.00    0.45753   0.53895   -1.000
 3412.00    0.46394   0.52946   -1.000
 3413.00    0.46608   0.51734   -1.000
 3414.00    0.46171   0.51555   -1.000
 3415.00    0.46309   0.52830   -1.000
 3416.00    0.46609   0.54571   -1.000
 3417.00    0.47575   0.56061   -1.000
 3418.00    0.49287   0.57228   -1.000
 3419.00    0.50679   0.58145   -1.000
 3420.00    0.51384   0.58594   -1.000
 3421.00    0.51661   0.57996   -1.000
 3422.00    0.51229   0.56213   -1.000
 3423.00    0.50498   0.54559   -1.000
 3424.00    0.50051   0.54168   -1.000
 3425.00    0.50465   0.54749   -1.000
 3426.00    0.51462   0.55632   -1.000
 3427.00    0.52211   0.56916   -1.000
 3428.00    0.53334   0.58784   -1.000
 3429.00    0.54004   0.60506   -1.000
 3430.00    0.54731   0.60787   -1.000
 3431.00    0.55126   0.59067   -1.000
 3432.00    0.54551   0.56916   87.969
 3433.00    0.53694   0.56089  121.680
 3434.00    0.53247   0.57172   -1.000
 3435.00    0.54220   0.58723   -1.000
 3436.00    0.54673   0.58882   -1.000
 3437.00    0.53812   0.57545   -1.000
 3438.00    0.52437   0.55513   -1.000
 3439.00    0.50809   0.53227  106.290
 3440.00    0.48497   0.50957  109.230
 3441.00    0.46510   0.49145  109.170
 3442.00    0.46302   0.48470  107.425
 3443.00    0.47161   0.48970  102.585
 3444.00    0.48287   0.50180   96.930
 3445.00    0.49731   0.51813   92.216
 3446.00    0.51521   0.54051   -1.000
 3447.00    0.53148   0.56526   -1.000
 3448.00    0.54542   0.58601   -1.000
 3449.00    0.56011   0.59550   -1.000
 3450.00    0.56598   0.58634   -1.000
 3451.00    0.55903   0.56576   -1.000
 3452.00    0.55651   0.54980   -1.000
 3453.00    0.54926   0.54743  688.001
 3454.00    0.54719   0.55591   -1.000
 3455.00    0.56129   0.56557  688.001
 3456.00    0.56669   0.56704  688.001
 3457.00    0.56476   0.55983  223.749
 3458.00    0.55679   0.54836   88.169
 3459.00    0.54364   0.53610   88.788
 3460.00    0.53896   0.52509  124.347
 3461.00    0.53750   0.52394   -1.000
 3462.00    0.54252   0.53682   -1.000
 3463.00    0.55040   0.55182  688.001
 3464.00    0.56402   0.55672   -1.000
 3465.00    0.57019   0.55289   -1.000
 3466.00    0.56803   0.55415   -1.000
 3467.00    0.56932   0.56628  688.001
 3468.00    0.57423   0.58392   -1.000
 3469.00    0.58603   0.59791   -1.000
 3470.00    0.59731   0.60073  688.001
 3471.00    0.59270   0.59164  688.001
 3472.00    0.57940   0.57433   -1.000
 3473.00    0.56073   0.54979  222.148
 3474.00    0.53862   0.52676   89.594
 3475.00    0.52371   0.51434   91.188
 3476.00    0.51253   0.51818  127.046
 3477.00    0.52310   0.53678   -1.000
 3478.00    0.54990   0.55755   -1.000
 3479.00    0.57480   0.57383  688.001
 3480.00    0.59219   0.58459   -1.000
 3481.00    0.59899   0.58598   -1.000
 3482.00    0.59648   0.57942   -1.000
 3483.00    0.59102   0.57209   -1.000
 3484.00    0.58540   0.57194   -1.000
 3485.00    0.58745   0.58270   -1.000
 3486.00    0.60017   0.59508   -1.000
 3487.00    0.60490   0.59687   -1.000
 3488.00    0.59737   0.58462   -1.000
 3489.00    0.58361   0.56392   -1.000
 3490.00    0.56768   0.54878   -1.000
 3491.00    0.55344   0.54945  688.001
 3492.00    0.55226   0.55919   -1.000
 3493.00    0.55701   0.56462   -1.000
 3494.00    0.55769   0.56181  688.001
 3495.00    0.55590   0.55226  688.001
 3496.00    0.54777   0.54471  688.001
 3497.00    0.54844   0.54837  688.001
 3498.00    0.56428   0.55976   -1.000
 3499.00    0.58584   0.57202   -1.000
 3500.00    0.60014   0.57747   -1.000
 3501.00    0.60511   0.58073   -1.000
 3502.00    0.61036   0.58786   -1.000
 3503.00    0.61398   0.59242   -1.000
 3504.00    0.60887   0.58905   -1.000
 3505.00    0.60017   0.57877   -1.000
 3506.00    0.59275   0.56936   -1.000
 3507.00    0.59197   0.56555   -1.000
 3508.00    0.59678   0.56499   -1.000
 3509.00    0.59750   0.56481   -1.000
 3510.00    0.59036   0.56206   -1.000
 3511.00    0.58478   0.55665   -1.000
 3512.00    0.57317   0.54776   -1.000
 3513.00    0.56185   0.53952   -1.000
 3514.00    0.55941   0.54114   -1.000
 3515.00    0.56913   0.55817   -1.000
 3516.00    0.58979   0.58624  688.001
 3517.00    0.60931   0.60771  688.001
 3518.00    0.61388   0.60970   -1.000
 3519.00    0.60573   0.59300   -1.000
 3520.00    0.59303   0.57241   -1.000
 3521.00    0.57860   0.55697   -1.000
 3522.00    0.56575   0.54585   -1.000
 3523.00    0.55241   0.53372   88.829
 3524.00    0.53631   0.51927   90.715
 3525.00    0.52454   0.51174  130.971
 3526.00    0.52219   0.52100  688.001
 3527.00    0.53227   0.54254   -1.000
 3528.00    0.55861   0.56814   -1.000
 3529.00    0.58247   0.58790   -1.000
 3530.00    0.59240   0.59770   -1.000
 3531.00    0.59766   0.59871  688.001
 3532.00    0.59806   0.59092   -1.000
 3533.00    0.59965   0.57848   -1.000
 3534.00    0.60761   0.57165   -1.000
 3535.00    0.61202   0.57578   -1.000
 3536.00    0.61184   0.59170   -1.000
 3537.00    0.61277   0.61093  688.001
 3538.00    0.61914   0.62460   -1.000
 3539.00    0.62563   0.62989  688.001
 3540.00    0.62917   0.62678  688.001
 3541.00    0.62399   0.62142  688.001
 3542.00    0.61999   0.62150  688.001
 3543.00    0.62597   0.62858  688.001
 3544.00    0.62785   0.63445   -1.000
 3545.00    0.62324   0.63323   -1.000
 3546.00    0.61862   0.62717   -1.000
 3547.00    0.61982   0.62106  688.001
 3548.00    0.62159   0.61957  688.001
 3549.00    0.62387   0.62362  688.001
 3550.00    0.62518   0.62951   -1.000
 3551.00    0.62387   0.63047   -1.000
 3552.00    0.61346   0.62117   -1.000
 3553.00    0.60171   0.60662   -1.000
 3554.00    0.59598   0.59823  688.001
 3555.00    0.59715   0.60075  688.001
 3556.00    0.60203   0.60935   -1.000
 3557.00    0.60026   0.61819   -1.000
 3558.00    0.59946   0.62225   -1.000
 3559.00    0.59984   0.62206   -1.000
 3560.00    0.59962   0.62302   -1.000
 3561.00    0.60606   0.62642   -1.000
 3562.00    0.60993   0.62550   -1.000
 3563.00    0.60872   0.61159  205.409
 3564.00    0.59077   0.58542   89.934
 3565.00    0.55899   0.55951   91.887
 3566.00    0.54224   0.54709   90.995
 3567.00    0.53774   0.54673   91.798
 3568.00    0.53469   0.54698   94.444
 3569.00    0.52622   0.54043   94.404
 3570.00    0.51937   0.53022   90.924
 3571.00    0.52449   0.52574  131.263
 3572.00    0.53899   0.53019   -1.000
 3573.00    0.54885   0.53829   -1.000
 3574.00    0.55376   0.54688   -1.000
 3575.00    0.55948   0.55589  688.001
 3576.00    0.56621   0.56337  688.001
 3577.00    0.56640   0.56699  210.982
 3578.00    0.55900   0.56393   94.192
 3579.00    0.55011   0.55044  100.894
 3580.00    0.53212   0.53183  104.599
 3581.00    0.51031   0.51704  105.148
 3582.00    0.50251   0.51233  106.401
 3583.00    0.50813   0.51389  109.420
 3584.00    0.50673   0.50902  112.278
 3585.00    0.49328   0.49495  111.032
 3586.00    0.48093   0.48135  105.240
 3587.00    0.48381   0.48038   99.827
 3588.00    0.49998   0.49680   93.361
 3589.00    0.51878   0.52550  131.803
 3590.00    0.54151   0.55442   -1.000
 3591.00    0.56595   0.57281   -1.000
 3592.00    0.58158   0.57810  688.001
 3593.00    0.58469   0.57934   -1.000
 3594.00    0.58856   0.58636  688.001
 3595.00    0.59891   0.60063  688.001
 3596.00    0.60989   0.61528   -1.000
 3597.00    0.62292   0.62448  664.867
 3598.00    0.63178   0.62914  661.174
 3599.00    0.63803   0.63073   -1.000
 3600.00    0.63604   0.62495   -1.000
 3601.00    0.62164   0.60858   -1.000
 3602.00    0.60271   0.59043   -1.000
 3603.00    0.58758   0.57888   -1.000
 3604.00    0.57491   0.57760  688.001
 3605.00    0.56786   0.57998   -1.000
 3606.00    0.56840   0.57771   -1.000
 3607.00    0.57065   0.56931  688.001
 3608.00    0.56129   0.55915  688.001
 3609.00    0.55220   0.55466  688.001
 3610.00    0.55134   0.55806   -1.000
 3611.00    0.56164   0.56719   -1.000
 3612.00    0.57111   0.57765   -1.000
 3613.00    0.57688   0.58788   -1.000
 3614.00    0.59074   0.60171   -1.000
 3615.00    0.60047   0.61529   -1.000
 3616.00    0.59918   0.61307   -1.000
 3617.00    0.58436   0.59281  195.982
 3618.00    0.55807   0.56735  132.746
 3619.00    0.54135   0.55641   -1.000
 3620.00    0.55247   0.56819   -1.000
 3621.00    0.58206   0.59112   -1.000
 3622.00    0.60695   0.61104  685.278
 3623.00    0.61950   0.62396  670.098
 3624.00    0.62507   0.63678   -1.000
 3625.00    0.63340   0.65694   -1.000
 3626.00    0.65174   0.68049   -1.000
 3627.00    0.66516   0.69437   -1.000
 3628.00    0.65999   0.68377   -1.000
 3629.00    0.63589   0.64841   -1.000
 3630.00    0.59722   0.60374   -1.000
 3631.00    0.56613   0.57597   -1.000
 3632.00    0.55373   0.57559   -1.000
 3633.00    0.56196   0.59213   -1.000
 3634.00    0.57775   0.60719   -1.000
 3635.00    0.58788   0.61340   -1.000
 3636.00    0.59636   0.61921   -1.000
 3637.00    0.61170   0.63315   -1.000
 3638.00    0.62940   0.65056   -1.000
 3639.00    0.64546   0.66282   -1.000
 3640.00    0.65013   0.66523   -1.000
 3641.00    0.64163   0.65662   -1.000
 3642.00    0.62506   0.64034   -1.000
 3643.00    0.60903   0.62339   -1.000
 3644.00    0.59966   0.61025   -1.000
 3645.00    0.59195   0.60166   -1.000
 3646.00    0.58532   0.59562   -1.000
 3647.00    0.57997   0.59171   -1.000
 3648.00    0.57762   0.59159   -1.000
 3649.00    0.58512   0.59582   -1.000
 3650.00    0.59677   0.60548   -1.000
 3651.00    0.61172   0.62078   -1.000
 3652.00    0.63063   0.63944   -1.000
 3653.00    0.64344   0.65584   -1.000
 3654.00    0.64874   0.66934   -1.000
 3655.00    0.65545   0.68122   -1.000
 3656.00    0.66241   0.69123   -1.000
 3657.00    0.66693   0.69752   -1.000
 3658.00    0.67096   0.69898   -1.000
 3659.00    0.67388   0.69775   -1.000
 3660.00    0.67506   0.69347   -1.000
 3661.00    0.67333   0.68429   -1.000
 3662.00    0.66600   0.67290   -1.000
 3663.00    0.65856   0.66577   -1.000
 3664.00    0.65605   0.66657   -1.000
 3665.00    0.65753   0.67126   -1.000
 3666.00    0.65953   0.67319   -1.000
 3667.00    0.65886   0.66883   -1.000
 3668.00    0.64621   0.65883   -1.000
 3669.00    0.63387   0.65069   -1.000
 3670.00    0.63530   0.65221   -1.000
 3671.00    0.64836   0.66291   -1.000
 3672.00    0.66407   0.67506   -1.000
 3673.00    0.66894   0.68130   -1.000
 3674.00    0.66436   0.67965   -1.000
 3675.00    0.65998   0.67067   -1.000
 3676.00    0.65377   0.65440  664.847
 3677.00    0.63748   0.63520  683.698
 3678.00    0.62247   0.62083  688.001
 3679.00    0.61790   0.61728  684.068
 3680.00    0.62140   0.62294  665.124
 3681.00    0.63034   0.63212  651.299
 3682.00    0.63491   0.63965  654.428
 3683.00    0.63652   0.64207   -1.000
 3684.00    0.63348   0.63716  688.001
 3685.00    0.62061   0.62483  688.001
 3686.00    0.60400   0.61400   -1.000
 3687.00    0.59831   0.61605   -1.000
 3688.00    0.60905   0.63375   -1.000
 3689.00    0.62860   0.65884   -1.000
 3690.00    0.65282   0.67778   -1.000
 3691.00    0.66824   0.68556   -1.000
 3692.00    0.67186   0.68448   -1.000
 3693.00    0.66641   0.67972   -1.000
 3694.00    0.66539   0.67677   -1.000
 3695.00    0.66719   0.67574   -1.000
 3696.00    0.66076   0.67391   -1.000
 3697.00    0.66388   0.67686   -1.000
 3698.00    0.68249   0.69168   -1.000
 3699.00    0.70164   0.71282   -1.000
 3700.00    0.71248   0.72631   -1.000
 3701.00    0.70897   0.71597   -1.000
 3702.00    0.68311   0.67986  688.001
 3703.00    0.64396   0.63253   -1.000
 3704.00    0.61002   0.59509   -1.000
 3705.00    0.59053   0.57926   -1.000
 3706.00    0.58893   0.58407   -1.000
 3707.00    0.59751   0.59850  688.001
 3708.00    0.60894   0.61180  688.001
 3709.00    0.62113   0.61670   -1.000
 3710.00    0.62937   0.61572   -1.000
 3711.00    0.63698   0.61889   -1.000
 3712.00    0.65245   0.63511   -1.000
 3713.00    0.68100   0.66465   -1.000
 3714.00    0.71014   0.69632   -1.000
 3715.00    0.72647   0.71780   -1.000
 3716.00    0.72626   0.72361  633.244
 3717.00    0.71181   0.71094  688.001
 3718.00    0.67752   0.67453  688.001
 3719.00    0.62274   0.61606  185.058
 3720.00    0.56810   0.55460  142.902
 3721.00    0.53687   0.52192   -1.000
 3722.00    0.54573   0.53147   -1.000
 3723.00    0.58818   0.57584   -1.000
 3724.00    0.64333   0.63405   -1.000
 3725.00    0.68302   0.67596   -1.000
 3726.00    0.69556   0.68933   -1.000
 3727.00    0.68781   0.68946  660.206
 3728.00    0.68443   0.69201   -1.000
 3729.00    0.68853   0.69626   -1.000
 3730.00    0.68263   0.68887   -1.000
 3731.00    0.65582   0.65452  177.896
 3732.00    0.61021   0.59359   91.694
 3733.00    0.55698   0.53016   99.601
 3734.00    0.51448   0.48603   99.418
 3735.00    0.49656   0.47722   92.385
 3736.00    0.51073   0.50589  140.872
 3737.00    0.55029   0.55961   -1.000
 3738.00    0.60263   0.62062   -1.000
 3739.00    0.65617   0.67594   -1.000
 3740.00    0.69472   0.70866   -1.000
 3741.00    0.70620   0.71258   -1.000
 3742.00    0.69666   0.69392  688.001
 3743.00    0.67437   0.66751   -1.000
 3744.00    0.64590   0.64123   -1.000
 3745.00    0.61884   0.61717  180.607
 3746.00    0.59363   0.59151   91.104
 3747.00    0.56437   0.55844   94.901
 3748.00    0.53285   0.52302  155.134
 3749.00    0.50918   0.50062   -1.000
 3750.00    0.52058   0.50970   -1.000
 3751.00    0.57112   0.55279   -1.000
 3752.00    0.63206   0.61435   -1.000
 3753.00    0.68628   0.67582   -1.000
 3754.00    0.72973   0.72069   -1.000
 3755.00    0.75488   0.73817   -1.000
 3756.00    0.74569   0.72539   -1.000
 3757.00    0.70354   0.69057   -1.000
 3758.00    0.66164   0.65674   -1.000
 3759.00    0.64943   0.64378   -1.000
 3760.00    0.66441   0.65149   -1.000
 3761.00    0.68693   0.66860   -1.000
 3762.00    0.70164   0.68255   -1.000
 3763.00    0.70834   0.68870   -1.000
 3764.00    0.70848   0.68769   -1.000
 3765.00    0.70060   0.67957   -1.000
 3766.00    0.68707   0.66359   -1.000
 3767.00    0.66945   0.64050   -1.000
 3768.00    0.65453   0.61147   -1.000
 3769.00    0.63813   0.58324   -1.000
 3770.00    0.62567   0.57020   -1.000
 3771.00    0.63458   0.58615   -1.000
 3772.00    0.66553   0.62600   -1.000
 3773.00    0.70205   0.66950   -1.000
 3774.00    0.72708   0.69845   -1.000
 3775.00    0.73770   0.71313   -1.000
 3776.00    0.74908   0.72443   -1.000
 3777.00    0.76542   0.74135   -1.000
 3778.00    0.78196   0.76460   -1.000
 3779.00    0.79977   0.78779   -1.000
 3780.00    0.81525   0.80560   -1.000
 3781.00    0.82314   0.81328   -1.000
 3782.00    0.82707   0.81209   -1.000
 3783.00    0.82476   0.80619   -1.000
 3784.00    0.81576   0.79483   -1.000
 3785.00    0.79052   0.77453   -1.000
 3786.00    0.76022   0.74890   -1.000
 3787.00    0.74011   0.72521   -1.000
 3788.00    0.72900   0.71200   -1.000
 3789.00    0.72573   0.71172   -1.000
 3790.00    0.72850   0.71754   -1.000
 3791.00    0.72753   0.71989   -1.000
 3792.00    0.71711   0.71075   -1.000
 3793.00    0.69681   0.68647   -1.000
 3794.00    0.66562   0.65115   -1.000
 3795.00    0.63450   0.60970   -1.000
 3796.00    0.60337   0.56687   -1.000
 3797.00    0.56781   0.53105   -1.000
 3798.00    0.55320   0.52140   -1.000
 3799.00    0.58027   0.55300   -1.000
 3800.00    0.63128   0.61658   -1.000
 3801.00    0.68255   0.68257  626.556
 3802.00    0.72657   0.73234   -1.000
 3803.00    0.75862   0.75928  620.259
 3804.00    0.77499   0.76824   -1.000
 3805.00    0.77562   0.76420   -1.000
 3806.00    0.76723   0.75690   -1.000
 3807.00    0.76453   0.75899   -1.000
 3808.00    0.77625   0.77405  615.993
 3809.00    0.79503   0.79502  618.121
 3810.00    0.80762   0.80801  640.310
 3811.00    0.80384   0.79957   -1.000
 3812.00    0.78226   0.76887   -1.000
 3813.00    0.75135   0.73137   -1.000
 3814.00    0.72053   0.70383   -1.000
 3815.00    0.70533   0.69850   -1.000
 3816.00    0.71298   0.71280  688.001
 3817.00    0.73234   0.72927  688.001
 3818.00    0.73575   0.72850   -1.000
 3819.00    0.71049   0.70817  688.001
 3820.00    0.68568   0.68853  688.001
 3821.00    0.68509   0.68716  688.001
 3822.00    0.70140   0.69863  688.001
 3823.00    0.70332   0.69769  176.786
 3824.00    0.67786   0.67555   92.587
 3825.00    0.64935   0.65032   93.240
 3826.00    0.63430   0.63486   92.064
 3827.00    0.63427   0.62830   90.552
 3828.00    0.63957   0.62567   90.297
 3829.00    0.64411   0.62186   92.859
 3830.00    0.63974   0.61096   98.637
 3831.00    0.61541   0.58654   -1.000
 3832.00    0.57889   0.54783   -1.000
 3833.00    0.54040   0.50342   -1.000
 3834.00    0.51209   0.47077   -1.000
 3835.00    0.50879   0.46184   -1.000
 3836.00    0.52498   0.47506   -1.000
 3837.00    0.54399   0.50116   -1.000
 3838.00    0.55935   0.53086   97.246
 3839.00    0.57583   0.56146  161.332
 3840.00    0.60395   0.59664   -1.000
 3841.00    0.64613   0.63956   -1.000
 3842.00    0.68987   0.68396   -1.000
 3843.00    0.72690   0.72226   -1.000
 3844.00    0.74881   0.74712  688.001
 3845.00    0.75840   0.76061  688.001
 3846.00    0.76473   0.77051   -1.000
 3847.00    0.76790   0.77708   -1.000
 3848.00    0.76550   0.77491   -1.000
 3849.00    0.75523   0.76589   -1.000
 3850.00    0.74666   0.76192   -1.000
 3851.00    0.75305   0.77188   -1.000
 3852.00    0.76978   0.78829   -1.000
 3853.00    0.78056   0.79722   -1.000
 3854.00    0.77595   0.79153   -1.000
 3855.00    0.76163   0.77599   -1.000
 3856.00    0.74770   0.75886  163.808
 3857.00    0.73451   0.74268   89.380
 3858.00    0.71516   0.72701   91.314
 3859.00    0.69703   0.71991   -1.000
 3860.00    0.69843   0.72997   -1.000
 3861.00    0.72747   0.75516   -1.000
 3862.00    0.76961   0.78122   -1.000
 3863.00    0.79669   0.79460  688.001
 3864.00    0.80147   0.79465   -1.000
 3865.00    0.79562   0.79003   -1.000
 3866.00    0.78944   0.78924  688.001
 3867.00    0.78489   0.79343   -1.000
 3868.00    0.77512   0.79630   -1.000
 3869.00    0.76276   0.78964   -1.000
 3870.00    0.74570   0.77128   -1.000
 3871.00    0.72078   0.74792   -1.000
 3872.00    0.70620   0.73067   -1.000
 3873.00    0.71643   0.73200   -1.000
 3874.00    0.74621   0.74945  686.698
 3875.00    0.76989   0.76425   -1.000
 3876.00    0.76519   0.75866   -1.000
 3877.00    0.74086   0.73618   -1.000
 3878.00    0.71563   0.71758  688.001
 3879.00    0.70647   0.71572   -1.000
 3880.00    0.71207   0.72346   -1.000
 3881.00    0.70758   0.72556   -1.000
 3882.00    0.69796   0.71841   -1.000
 3883.00    0.70090   0.70787   -1.000
 3884.00    0.70157   0.68853   -1.000
 3885.00    0.67979   0.65134   -1.000
 3886.00    0.64037   0.60101   -1.000
 3887.00    0.60459   0.55236   -1.000
 3888.00    0.58268   0.52566   -1.000
 3889.00    0.58480   0.53413   -1.000
 3890.00    0.62146   0.57675   -1.000
 3891.00    0.67879   0.63565   -1.000
 3892.00    0.72350   0.68503   -1.000
 3893.00    0.74334   0.71038   -1.000
 3894.00    0.75198   0.72064   -1.000
 3895.00    0.75919   0.73015   -1.000
 3896.00    0.77172   0.74393   -1.000
 3897.00    0.78433   0.75757   -1.000
 3898.00    0.78589   0.76366   -1.000
 3899.00    0.78548   0.76427   -1.000
 3900.00    0.79527   0.76897   -1.000
 3901.00    0.80680   0.77723   -1.000
 3902.00    0.81139   0.77992   -1.000
 3903.00    0.80511   0.77360   -1.000
 3904.00    0.79065   0.76221   -1.000
 3905.00    0.77809   0.75585   -1.000
 3906.00    0.77712   0.76407   -1.000
 3907.00    0.79421   0.78973  548.629
 3908.00    0.82294   0.82196  540.018
 3909.00    0.85131   0.84707  535.101
 3910.00    0.87062   0.86002   -1.000
 3911.00    0.87818   0.86353   -1.000
 3912.00    0.87448   0.85923   -1.000
 3913.00    0.86222   0.84798   -1.000
 3914.00    0.85011   0.83483   -1.000
 3915.00    0.84262   0.82716   -1.000
 3916.00    0.83329   0.82388   -1.000
 3917.00    0.82142   0.81859  604.849
 3918.00    0.80746   0.80773  632.964
 3919.00    0.79287   0.79266  654.598
 3920.00    0.78238   0.77994  657.837
 3921.00    0.77552   0.77422  648.387
 3922.00    0.77248   0.77633  645.040
 3923.00    0.77569   0.78152   -1.000
 3924.00    0.77530   0.78121   -1.000
 3925.00    0.75706   0.76786   -1.000
 3926.00    0.72151   0.73746  173.843
 3927.00    0.67336   0.69360  104.814
 3928.00    0.61542   0.63971  122.785
 3929.00    0.55189   0.57844   -1.000
 3930.00    0.48219   0.50629   -1.000
 3931.00    0.40633   0.42248  192.480
 3932.00    0.33976   0.34334  196.684
 3933.00    0.30170   0.29548  178.554
 3934.00    0.30600   0.30212  150.741
 3935.00    0.35049   0.36128  124.106
 3936.00    0.41854   0.44770  103.233
 3937.00    0.49310   0.53591   -1.000
 3938.00    0.56553   0.61544   -1.000
 3939.00    0.62876   0.67660   -1.000
 3940.00    0.67345   0.71796   -1.000
 3941.00    0.69876   0.74026   -1.000
 3942.00    0.71062   0.74753   -1.000
 3943.00    0.71412   0.74993   -1.000
 3944.00    0.72621   0.75916   -1.000
 3945.00    0.75754   0.77767   -1.000
 3946.00    0.79072   0.79688  595.724
 3947.00    0.80610   0.80701  582.067
 3948.00    0.80634   0.80851  561.675
 3949.00    0.81119   0.80910  554.220
 3950.00    0.82415   0.81083   -1.000
 3951.00    0.82824   0.81110   -1.000
 3952.00    0.82660   0.81422   -1.000
 3953.00    0.83399   0.82359   -1.000
 3954.00    0.84187   0.82984   -1.000
 3955.00    0.83650   0.82522   -1.000
 3956.00    0.81739   0.81362  569.937
 3957.00    0.80393   0.80535  571.749
 3958.00    0.80667   0.80440  609.433
 3959.00    0.80132   0.79639   -1.000
 3960.00    0.76753   0.76791  688.001
 3961.00    0.71404   0.72709   -1.000
 3962.00    0.66742   0.68604  161.046
 3963.00    0.62993   0.64867   98.903
 3964.00    0.58319   0.60258  118.958
 3965.00    0.51554   0.53287  146.296
 3966.00    0.42821   0.44310  170.312
 3967.00    0.34546   0.35258  171.715
 3968.00    0.29692   0.29486  149.008
 3969.00    0.29867   0.29174  122.484
 3970.00    0.34609   0.34178  101.657
 3971.00    0.42028   0.42407  172.801
 3972.00    0.50194   0.51328   -1.000
 3973.00    0.58205   0.59061   -1.000
 3974.00    0.65210   0.65508  616.264
 3975.00    0.70610   0.70757  574.581
 3976.00    0.75040   0.75055  542.857
 3977.00    0.78785   0.78734  513.960
 3978.00    0.82119   0.81916  497.783
 3979.00    0.85367   0.84303   -1.000
 3980.00    0.87558   0.85231   -1.000
 3981.00    0.87706   0.85029   -1.000
 3982.00    0.86909   0.84776   -1.000
 3983.00    0.87289   0.85347   -1.000
 3984.00    0.89095   0.86805   -1.000
 3985.00    0.90864   0.88360   -1.000
 3986.00    0.91955   0.89581   -1.000
 3987.00    0.92409   0.90624   -1.000
 3988.00    0.92715   0.91408   -1.000
 3989.00    0.93318   0.91754   -1.000
 3990.00    0.93957   0.92122   -1.000
 3991.00    0.95027   0.92940   -1.000
 3992.00    0.96210   0.94008   -1.000
 3993.00    0.96511   0.94654   -1.000
 3994.00    0.95397   0.94237   -1.000
 3995.00    0.93493   0.92695   -1.000
 3996.00    0.91836   0.90815   -1.000
 3997.00    0.91196   0.89923   -1.000
 3998.00    0.91860   0.90658   -1.000
 3999.00    0.93820   0.92552   -1.000
 4000.00    0.96459   0.94443   -1.000
 4001.00    0.98296   0.95609   -1.000
 4002.00    0.99433   0.95698   -1.000
 4003.00    0.98594   0.94493   -1.000
 4004.00    0.95241   0.92199   -1.000
 4005.00    0.92043   0.90327   -1.000
 4006.00    0.92022   0.90632   -1.000
 4007.00    0.94684   0.92885   -1.000
 4008.00    0.97147   0.95447   -1.000
 4009.00    0.98554   0.97032   -1.000
 4010.00    0.99228   0.97640   -1.000
 4011.00    0.99317   0.97665   -1.000
 4012.00    0.99238   0.97479   -1.000
 4013.00    0.99446   0.97533   -1.000
 4014.00    0.99818   0.97995   -1.000
 4015.00    1.00000   0.98552   -1.000
 4016.00    1.00520   0.98873   -1.000
 4017.00    1.00564   0.99117   -1.000
 4018.00    1.00619   0.99660   -1.000
 4019.00    1.00886   1.00311  420.202
 4020.00    1.00757   1.00579  424.426
 4021.00    1.00313   1.00149  427.022
 4022.00    0.99727   0.99258  430.135
 4023.00    0.99280   0.98241   -1.000
 4024.00    0.99084   0.97589   -1.000
 4025.00    0.99910   0.98059   -1.000
 4026.00    1.01886   0.99697   -1.000
 4027.00    1.03342   1.01155   -1.000
 4028.00    1.02964   1.00899   -1.000
 4029.00    1.00586   0.98733   -1.000
 4030.00    0.96795   0.95680   -1.000
 4031.00    0.93868   0.93308   -1.000
 4032.00    0.93315   0.92412   -1.000
 4033.00    0.94429   0.92996   -1.000
 4034.00    0.96009   0.94840   -1.000
 4035.00    0.98295   0.97631   -1.000
 4036.00    1.01746   1.00764   -1.000
 4037.00    1.04439   1.03308   -1.000
 4038.00    1.05482   1.04211   -1.000
 4039.00    1.04915   1.03592   -1.000
 4040.00    1.02842   1.02471  414.210
 4041.00    1.01930   1.01619  426.142
 4042.00    1.01846   1.00457   -1.000
 4043.00    0.99493   0.97681   -1.000
 4044.00    0.94719   0.93593   -1.000
 4045.00    0.90443   0.90636  465.489
 4046.00    0.90749   0.91164  429.620
 4047.00    0.95343   0.94840  411.596
 4048.00    1.00366   0.98935   -1.000
 4049.00    1.03126   1.01511   -1.000
 4050.00    1.03904   1.02350   -1.000
 4051.00    1.03445   1.02095   -1.000
 4052.00    1.02287   1.01051   -1.000
 4053.00    1.00912   0.99706   -1.000
 4054.00    0.99885   0.98721   -1.000
 4055.00    0.99225   0.98238   -1.000
 4056.00    0.98905   0.98012   -1.000
 4057.00    0.98937   0.98113   -1.000
 4058.00    0.99409   0.99089  418.241
 4059.00    1.00871   1.00602  418.808
 4060.00    1.02509   1.01018   -1.000
 4061.00    1.01857   0.99163   -1.000
 4062.00    0.97992   0.95714   -1.000
 4063.00    0.94221   0.92878   -1.000
 4064.00    0.93542   0.92023   -1.000
 4065.00    0.95786   0.92862   -1.000
 4066.00    0.97959   0.94429   -1.000
 4067.00    0.99219   0.95919   -1.000
 4068.00    1.00884   0.96992   -1.000
 4069.00    1.01886   0.97055   -1.000
 4070.00    1.00558   0.95576   -1.000
 4071.00    0.98072   0.93699   -1.000
 4072.00    0.97092   0.93358   -1.000
 4073.00    0.98269   0.94447   -1.000
 4074.00    0.99288   0.95025   -1.000
 4075.00    0.97485   0.93535   -1.000
 4076.00    0.93800   0.90649   -1.000
 4077.00    0.90821   0.88647   -1.000
 4078.00    0.91441   0.89247   -1.000
 4079.00    0.94868   0.92443   -1.000
 4080.00    0.98719   0.96171   -1.000
 4081.00    1.01333   0.98404   -1.000
 4082.00    1.00965   0.98482   -1.000
 4083.00    0.99436   0.97172   -1.000
 4084.00    0.98345   0.95928   -1.000
 4085.00    0.98367   0.95897   -1.000
 4086.00    0.99996   0.97303   -1.000
 4087.00    1.02518   0.99356   -1.000
 4088.00    1.04408   1.00920   -1.000
 4089.00    1.05173   1.01238   -1.000
 4090.00    1.04486   1.00538   -1.000
 4091.00    1.03110   0.99653   -1.000
 4092.00    1.01817   0.98877   -1.000
 4093.00    1.00978   0.97731   -1.000
 4094.00    0.99852   0.95895   -1.000
 4095.00    0.97755   0.93361   -1.000
 4096.00    0.94855   0.90605   -1.000
 4097.00    0.92133   0.87756   -1.000
 4098.00    0.89769   0.84049   -1.000
 4099.00    0.85572   0.78659   -1.000
 4100.00    0.78547   0.72243   -1.000
 4101.00    0.72291   0.67701   -1.000
 4102.00    0.71600   0.67947   -1.000
 4103.00    0.76996   0.73255   -1.000
 4104.00    0.84295   0.80562   -1.000
 4105.00    0.90294   0.86786   -1.000
 4106.00    0.93622   0.90607   -1.000
 4107.00    0.95154   0.92515   -1.000
 4108.00    0.95634   0.93271   -1.000
 4109.00    0.95437   0.93561   -1.000
 4110.00    0.95588   0.94070   -1.000
 4111.00    0.96483   0.95107   -1.000
 4112.00    0.97886   0.96609   -1.000
 4113.00    0.99340   0.98289   -1.000
 4114.00    1.00735   0.99896   -1.000
 4115.00    1.02090   1.00992   -1.000
 4116.00    1.02596   1.00931   -1.000
 4117.00    1.01470   0.99697   -1.000
 4118.00    0.99561   0.98063   -1.000
 4119.00    0.98421   0.97055   -1.000
 4120.00    0.98705   0.97154   -1.000
 4121.00    0.99371   0.97747   -1.000
 4122.00    0.99596   0.98262   -1.000
 4123.00    1.00117   0.98824   -1.000
 4124.00    1.01353   0.99605   -1.000
 4125.00    1.01998   1.00196   -1.000
 4126.00    1.01534   0.99994   -1.000
 4127.00    1.00423   0.99131   -1.000
 4128.00    0.99199   0.98407   -1.000
 4129.00    0.98556   0.98065  453.714
 4130.00    0.98214   0.97378   -1.000
 4131.00    0.96894   0.96026   -1.000
 4132.00    0.95264   0.94912  465.708
 4133.00    0.95051   0.95314  445.010
 4134.00    0.96558   0.97280  427.232
 4135.00    0.99276   0.99775  417.671
 4136.00    1.02050   1.01969  411.151
 4137.00    1.03853   1.03680  407.619
 4138.00    1.05068   1.04987  412.067
 4139.00    1.05959   1.05515  428.608
 4140.00    1.04841   1.04477  459.619
 4141.00    1.01533   1.01679  490.281
 4142.00    0.97185   0.98120   -1.000
 4143.00    0.93846   0.95824   -1.000
 4144.00    0.94259   0.96231   -1.000
 4145.00    0.97677   0.98677   -1.000
 4146.00    1.01052   1.01093  435.979
 4147.00    1.02359   1.02011  446.895
 4148.00    1.01537   1.01755  455.318
 4149.00    1.00354   1.01342   -1.000
 4150.00    0.99985   1.01276   -1.000
 4151.00    1.00103   1.01313   -1.000
 4152.00    0.99846   1.00951   -1.000
 4153.00    0.99101   1.00154   -1.000
 4154.00    0.97932   0.99388   -1.000
 4155.00    0.98058   0.99269   -1.000
 4156.00    1.01712   1.00023   -1.000
 4157.00    1.02508   1.01360   -1.000
 4158.00    1.00160   1.02807   -1.000
 4159.00    1.00106   1.03825   -1.000
 4160.00    1.01991   1.04306   -1.000
 4161.00    1.03366   1.04548   -1.000
 4162.00    1.03997   1.04908   -1.000
 4163.00    1.04298   1.05399   -1.000
 4164.00    1.04232   1.05720   -1.000
 4165.00    1.03678   1.05452   -1.000
 4166.00    1.03034   1.04491   -1.000
 4167.00    1.02157   1.03648   -1.000
 4168.00    1.02011   1.03423   -1.000
 4169.00    1.02049   1.03195   -1.000
 4170.00    1.00805   1.01729   -1.000
 4171.00    0.97446   0.98764   -1.000
 4172.00    0.93741   0.96000   -1.000
 4173.00    0.92167   0.95163   -1.000
 4174.00    0.93702   0.96449   -1.000
 4175.00    0.96081   0.98427   -1.000
 4176.00    0.97023   0.99419   -1.000
 4177.00    0.96815   0.99530   -1.000
 4178.00    0.97131   0.99828   -1.000
 4179.00    0.98608   1.00785   -1.000
 4180.00    0.99785   1.01696   -1.000
 4181.00    0.99737   1.01708   -1.000
 4182.00    0.99228   1.01533   -1.000
 4183.00    0.99587   1.02068   -1.000
 4184.00    1.00396   1.02748   -1.000
 4185.00    1.00467   1.02618   -1.000
 4186.00    0.99344   1.01469   -1.000
 4187.00    0.97764   1.00365   -1.000
 4188.00    0.97822   1.00420   -1.000
 4189.00    0.99063   1.01216   -1.000
 4190.00    0.99996   1.01908   -1.000
 4191.00    1.00442   1.02473   -1.000
 4192.00    1.01560   1.03193   -1.000
 4193.00    1.03226   1.03833  448.330
 4194.00    1.03005   1.03490  466.767
 4195.00    1.00810   1.01714   -1.000
 4196.00    0.98154   0.99302   -1.000
 4197.00    0.95716   0.97232   -1.000
 4198.00    0.94227   0.96033   -1.000
 4199.00    0.94523   0.95808   -1.000
 4200.00    0.95617   0.96229  465.278
 4201.00    0.96102   0.96683  459.461
 4202.00    0.96315   0.97213   -1.000
 4203.00    0.96835   0.98356   -1.000
 4204.00    0.97471   0.99943   -1.000
 4205.00    0.98321   1.01445   -1.000
 4206.00    0.99549   1.02770   -1.000
 4207.00    1.01070   1.03757   -1.000
 4208.00    1.02112   1.04058   -1.000
 4209.00    1.02083   1.03928   -1.000
 4210.00    1.02015   1.04033   -1.000
 4211.00    1.02244   1.04656   -1.000
 4212.00    1.02614   1.05080   -1.000
 4213.00    1.02305   1.04050   -1.000
 4214.00    1.00176   1.01762   -1.000
 4215.00    0.97528   0.99856   -1.000
 4216.00    0.97270   0.99813   -1.000
 4217.00    0.99729   1.01815   -1.000
 4218.00    1.02575   1.04326   -1.000
 4219.00    1.04327   1.06092   -1.000
 4220.00    1.04997   1.06823   -1.000
 4221.00    1.04919   1.06393   -1.000
 4222.00    1.03393   1.04451   -1.000
 4223.00    1.00070   1.00634  524.249
 4224.00    0.95345   0.95255  577.974
 4225.00    0.89081   0.90070   -1.000
 4226.00    0.83882   0.87550   -1.000
 4227.00    0.84675   0.89649   -1.000
 4228.00    0.91350   0.95608   -1.000
 4229.00    0.98453   1.02024   -1.000
 4230.00    1.02453   1.05436   -1.000
 4231.00    1.03772   1.05452   -1.000
 4232.00    1.02362   1.03746   -1.000
 4233.00    1.00252   1.01794   -1.000
 4234.00    0.99327   1.00513   -1.000
 4235.00    0.98465   1.00152   -1.000
 4236.00    0.97639   1.00254   -1.000
 4237.00    0.97759   1.00732   -1.000
 4238.00    0.98462   1.01697   -1.000
 4239.00    0.99480   1.02969   -1.000
 4240.00    1.00998   1.04396   -1.000
 4241.00    1.02503   1.05673   -1.000
 4242.00    1.03467   1.06565   -1.000
 4243.00    1.04254   1.07109   -1.000
 4244.00    1.04657   1.07114   -1.000
 4245.00    1.03814   1.06002   -1.000
 4246.00    1.01148   1.03697   -1.000
 4247.00    0.98483   1.01292   -1.000
 4248.00    0.97233   0.99735   -1.000
 4249.00    0.96856   0.99174   -1.000
 4250.00    0.96876   0.99634   -1.000
 4251.00    0.98132   1.01017   -1.000
 4252.00    1.00128   1.02219   -1.000
 4253.00    1.00524   1.02417   -1.000
 4254.00    0.99605   1.02220   -1.000
 4255.00    0.99938   1.02765   -1.000
 4256.00    1.01635   1.03971   -1.000
 4257.00    1.02760   1.04197   -1.000
 4258.00    1.01024   1.02545   -1.000
 4259.00    0.98027   1.00218   -1.000
 4260.00    0.96242   0.99210   -1.000
 4261.00    0.96940   1.00623   -1.000
 4262.00    1.00226   1.03736   -1.000
 4263.00    1.03729   1.06821   -1.000
 4264.00    1.05936   1.08503   -1.000
 4265.00    1.06774   1.08657   -1.000
 4266.00    1.06117   1.07926   -1.000
 4267.00    1.04359   1.06524   -1.000
 4268.00    1.02558   1.04321   -1.000
 4269.00    1.00596   1.01297   -1.000
 4270.00    0.97127   0.97880   -1.000
 4271.00    0.93218   0.95241   -1.000
 4272.00    0.91949   0.94327   -1.000
 4273.00    0.92793   0.95189   -1.000
 4274.00    0.94660   0.97159   -1.000
 4275.00    0.97335   0.99870   -1.000
 4276.00    1.00657   1.03103   -1.000
 4277.00    1.03512   1.05722   -1.000
 4278.00    1.04269   1.06432   -1.000
 4279.00    1.02502   1.05367   -1.000
 4280.00    1.00302   1.03664   -1.000
 4281.00    0.99415   1.02682   -1.000
 4282.00    0.99285   1.02645   -1.000
 4283.00    0.99755   1.02819   -1.000
 4284.00    0.99820   1.02638   -1.000
 4285.00    0.98581   1.01778   -1.000
 4286.00    0.96925   1.00237   -1.000
 4287.00    0.95631   0.98097   -1.000
 4288.00    0.93366   0.95487   -1.000
 4289.00    0.90265   0.93269   -1.000
 4290.00    0.88807   0.92985   -1.000
 4291.00    0.91348   0.94955   -1.000
 4292.00    0.95647   0.97488   -1.000
 4293.00    0.97617   0.98542   -1.000
 4294.00    0.97577   0.98055  463.743
 4295.00    0.96772   0.97172  483.049
 4296.00    0.95537   0.95837  519.515
 4297.00    0.92959   0.93345  560.977
 4298.00    0.88867   0.89858   -1.000
 4299.00    0.84711   0.86392   -1.000
 4300.00    0.82799   0.84280   -1.000
 4301.00    0.83265   0.83934   -1.000
 4302.00    0.84295   0.84815   -1.000
 4303.00    0.85589   0.86276   -1.000
 4304.00    0.87036   0.87579   -1.000
 4305.00    0.87743   0.87664  581.959
 4306.00    0.86419   0.86331  602.258
 4307.00    0.83459   0.84585   -1.000
 4308.00    0.81636   0.83824   -1.000
 4309.00    0.82657   0.84825   -1.000
 4310.00    0.85705   0.87059   -1.000
 4311.00    0.88788   0.89428   -1.000
 4312.00    0.90749   0.91291  459.099
 4313.00    0.92184   0.93365   -1.000
 4314.00    0.94515   0.96833   -1.000
 4315.00    0.99134   1.01859   -1.000
 4316.00    1.04788   1.07144   -1.000
 4317.00    1.08367   1.10575   -1.000
 4318.00    1.09059   1.11464   -1.000
 4319.00    1.08030   1.10515   -1.000
 4320.00    1.06444   1.08720   -1.000
 4321.00    1.04868   1.06445   -1.000
 4322.00    1.02734   1.03394   -1.000
 4323.00    0.99220   0.99361  499.009
 4324.00    0.94765   0.95401   -1.000
 4325.00    0.91645   0.93956   -1.000
 4326.00    0.92788   0.96483   -1.000
 4327.00    0.97752   1.01374   -1.000
 4328.00    1.02851   1.05578   -1.000
 4329.00    1.05206   1.07240   -1.000
 4330.00    1.05030   1.07117   -1.000
 4331.00    1.04553   1.06882   -1.000
 4332.00    1.04700   1.07081   -1.000
 4333.00    1.04918   1.07050   -1.000
 4334.00    1.04998   1.05900   -1.000
 4335.00    1.03607   1.02849   -1.000
 4336.00    0.99129   0.97366   -1.000
 4337.00    0.92471   0.89681   -1.000
 4338.00    0.84922   0.81408   -1.000
 4339.00    0.77523   0.75277   -1.000
 4340.00    0.73672   0.73478  460.685
 4341.00    0.76362   0.77005   -1.000
 4342.00    0.83805   0.84332  410.243
 4343.00    0.91110   0.92013   -1.000
 4344.00    0.96139   0.97615   -1.000
 4345.00    0.99620   1.01370   -1.000
 4346.00    1.01644   1.04207   -1.000
 4347.00    1.03269   1.06506   -1.000
 4348.00    1.05159   1.07698   -1.000
 4349.00    1.05333   1.06709   -1.000
 4350.00    1.02814   1.03670   -1.000
 4351.00    0.98890   1.00648   -1.000
 4352.00    0.97200   0.99912   -1.000
 4353.00    0.99942   1.02058   -1.000
 4354.00    1.04050   1.05455   -1.000
 4355.00    1.06649   1.08214   -1.000
 4356.00    1.08275   1.09560   -1.000
 4357.00    1.08550   1.09609   -1.000
 4358.00    1.07252   1.08955   -1.000
 4359.00    1.05871   1.08675   -1.000
 4360.00    1.06252   1.09459   -1.000
 4361.00    1.08370   1.10913   -1.000
 4362.00    1.09951   1.12348   -1.000
 4363.00    1.10405   1.13334   -1.000
 4364.00    1.11214   1.13693   -1.000
 4365.00    1.11400   1.13128   -1.000
 4366.00    1.09800   1.11461   -1.000
 4367.00    1.07262   1.09418   -1.000
 4368.00    1.05773   1.08123   -1.000
 4369.00    1.05730   1.07728   -1.000
 4370.00    1.06699   1.07671   -1.000
 4371.00    1.07638   1.07239  401.784
 4372.00    1.06987   1.05808   -1.000
 4373.00    1.04584   1.03395   -1.000
 4374.00    1.01543   1.01237  410.159
 4375.00    1.00696   1.01222  390.182
 4376.00    1.03075   1.03771  379.653
 4377.00    1.06711   1.07257  379.630
 4378.00    1.09167   1.09458  385.332
 4379.00    1.10083   1.09592  400.424
 4380.00    1.09320   1.07799   -1.000
 4381.00    1.06289   1.03909   -1.000
 4382.00    1.00475   0.98460   -1.000
 4383.00    0.93506   0.93960  472.941
 4384.00    0.90848   0.92943   -1.000
 4385.00    0.94539   0.95711   -1.000
 4386.00    1.00451   1.00015  403.486
 4387.00    1.04168   1.03142   -1.000
 4388.00    1.05080   1.04427  409.251
 4389.00    1.04500   1.04640  403.740
 4390.00    1.04382   1.04755  394.787
 4391.00    1.05294   1.05277  394.251
 4392.00    1.06270   1.05762  401.616
 4393.00    1.06322   1.05327   -1.000
 4394.00    1.05038   1.04335  388.827
 4395.00    1.04936   1.04521  375.458
 4396.00    1.06849   1.06264  376.423
 4397.00    1.09014   1.07810   -1.000
 4398.00    1.09170   1.07622   -1.000
 4399.00    1.06845   1.06098  400.595
 4400.00    1.04745   1.05049  393.685
 4401.00    1.05092   1.05192  401.732
 4402.00    1.06541   1.05369   -1.000
 4403.00    1.05557   1.04440   -1.000
 4404.00    1.02496   1.02942  422.425
 4405.00    1.01352   1.02469   -1.000
 4406.00    1.02694   1.03378   -1.000
 4407.00    1.03260   1.04605   -1.000
 4408.00    1.03238   1.05789   -1.000
 4409.00    1.04660   1.07635   -1.000
 4410.00    1.07800   1.10168   -1.000
 4411.00    1.10844   1.12130   -1.000
 4412.00    1.12278   1.12197  384.668
 4413.00    1.11022   1.10157   -1.000
 4414.00    1.07500   1.06923  403.047
 4415.00    1.04087   1.04292  391.623
 4416.00    1.02930   1.03947   -1.000
 4417.00    1.04641   1.05951   -1.000
 4418.00    1.07272   1.09134   -1.000
 4419.00    1.09600   1.11790   -1.000
 4420.00    1.10421   1.12699   -1.000
 4421.00    1.09312   1.11936   -1.000
 4422.00    1.07947   1.10930   -1.000
 4423.00    1.07683   1.10664   -1.000
 4424.00    1.08147   1.10795   -1.000
 4425.00    1.07970   1.10749   -1.000
 4426.00    1.07197   1.10607   -1.000
 4427.00    1.06937   1.10784   -1.000
 4428.00    1.07395   1.11234   -1.000
 4429.00    1.07854   1.11568   -1.000
 4430.00    1.07868   1.11701   -1.000
 4431.00    1.08316   1.11773   -1.000
 4432.00    1.08842   1.11380   -1.000
 4433.00    1.07123   1.09982   -1.000
 4434.00    1.04148   1.08183   -1.000
 4435.00    1.03091   1.07638   -1.000
 4436.00    1.05171   1.09572   -1.000
 4437.00    1.09490   1.13089   -1.000
 4438.00    1.13072   1.15903   -1.000
 4439.00    1.14108   1.16353   -1.000
 4440.00    1.12742   1.14189   -1.000
 4441.00    1.09719   1.10766   -1.000
 4442.00    1.06099   1.08008   -1.000
 4443.00    1.04309   1.07564   -1.000
 4444.00    1.05762   1.09621   -1.000
 4445.00    1.08745   1.12768   -1.000
 4446.00    1.11289   1.15064   -1.000
 4447.00    1.12194   1.15850   -1.000
 4448.00    1.12073   1.15800   -1.000
 4449.00    1.11593   1.15458   -1.000
 4450.00    1.11128   1.15076   -1.000
 4451.00    1.10985   1.14785   -1.000
 4452.00    1.10804   1.14118   -1.000
 4453.00    1.09518   1.12325   -1.000
 4454.00    1.06836   1.09806   -1.000
 4455.00    1.04939   1.08252   -1.000
 4456.00    1.05419   1.08471   -1.000
 4457.00    1.06867   1.09546   -1.000
 4458.00    1.07367   1.10180   -1.000
 4459.00    1.06867   1.10068   -1.000
 4460.00    1.06168   1.09721   -1.000
 4461.00    1.05657   1.09833   -1.000
 4462.00    1.06892   1.10806   -1.000
 4463.00    1.08930   1.12261   -1.000
 4464.00    1.10689   1.13379   -1.000
 4465.00    1.11202   1.13703   -1.000
 4466.00    1.10771   1.13167   -1.000
 4467.00    1.09774   1.11959   -1.000
 4468.00    1.08350   1.10791   -1.000
 4469.00    1.08177   1.10619   -1.000
 4470.00    1.09170   1.11960   -1.000
 4471.00    1.11337   1.14373   -1.000
 4472.00    1.14150   1.16824   -1.000
 4473.00    1.16422   1.18605   -1.000
 4474.00    1.17240   1.19468   -1.000
 4475.00    1.17314   1.19808   -1.000
 4476.00    1.17386   1.20126   -1.000
 4477.00    1.18282   1.20206   -1.000
 4478.00    1.18332   1.19138  365.424
 4479.00    1.16223   1.16526  377.351
 4480.00    1.12867   1.13503  376.515
 4481.00    1.10423   1.11898   -1.000
 4482.00    1.10382   1.12792   -1.000
 4483.00    1.12553   1.15698   -1.000
 4484.00    1.15681   1.18923   -1.000
 4485.00    1.18016   1.20959   -1.000
 4486.00    1.18636   1.21152   -1.000
 4487.00    1.17623   1.19609   -1.000
 4488.00    1.15051   1.17298   -1.000
 4489.00    1.12309   1.15791   -1.000
 4490.00    1.12164   1.15991   -1.000
 4491.00    1.14319   1.17326   -1.000
 4492.00    1.16171   1.18188   -1.000
 4493.00    1.15729   1.17585   -1.000
 4494.00    1.13842   1.16276   -1.000
 4495.00    1.12368   1.15626   -1.000
 4496.00    1.12424   1.16183   -1.000
 4497.00    1.14112   1.17495   -1.000
 4498.00    1.16662   1.18586   -1.000
 4499.00    1.17518   1.18628   -1.000
 4500.00    1.16365   1.17839   -1.000
 4501.00    1.15520   1.17640   -1.000
 4502.00    1.16775   1.18959   -1.000
 4503.00    1.19754   1.21184   -1.000
 4504.00    1.22178   1.22954  329.421
 4505.00    1.22479   1.23463   -1.000
 4506.00    1.21501   1.22871   -1.000
 4507.00    1.20380   1.21935   -1.000
 4508.00    1.19902   1.21496   -1.000
 4509.00    1.20259   1.21803   -1.000
 4510.00    1.20826   1.22282   -1.000
 4511.00    1.20771   1.22173   -1.000
 4512.00    1.19663   1.21410   -1.000
 4513.00    1.18458   1.20429   -1.000
 4514.00    1.17722   1.19544   -1.000
 4515.00    1.17239   1.18981   -1.000
 4516.00    1.17101   1.18743   -1.000
 4517.00    1.16877   1.18506   -1.000
 4518.00    1.16344   1.18240   -1.000
 4519.00    1.16556   1.18320   -1.000
 4520.00    1.17635   1.18693   -1.000
 4521.00    1.17823   1.18732   -1.000
 4522.00    1.16347   1.18063   -1.000
 4523.00    1.14834   1.17074   -1.000
 4524.00    1.14361   1.16281   -1.000
 4525.00    1.13892   1.15470   -1.000
 4526.00    1.12408   1.14157   -1.000
 4527.00    1.10665   1.12381   -1.000
 4528.00    1.09430   1.10925   -1.000
 4529.00    1.09182   1.10635   -1.000
 4530.00    1.10203   1.11449   -1.000
 4531.00    1.11689   1.12402  380.004
 4532.00    1.11837   1.12281  392.686
 4533.00    1.10108   1.10965   -1.000
 4534.00    1.08226   1.09891   -1.000
 4535.00    1.07979   1.10660   -1.000
 4536.00    1.11191   1.13501   -1.000
 4537.00    1.16175   1.17039   -1.000
 4538.00    1.19266   1.19496  346.655
 4539.00    1.19224   1.20095   -1.000
 4540.00    1.18304   1.19477   -1.000
 4541.00    1.17796   1.18839   -1.000
 4542.00    1.17616   1.18744   -1.000
 4543.00    1.20057   1.18823  189.944
 4544.00    1.05686   1.18547   -1.000
 4545.00    0.30617   1.18051   -1.000
 4546.00   -0.01492   1.17602    0.000
 4547.00    0.14146   1.16773   -1.000
 4548.00    0.73446   1.15160   -1.000
 4549.00    0.39911   1.13596   -1.000
 4550.00    0.79591   1.13473   -1.000
 4551.00    1.13001   1.14704   -1.000
 4552.00    1.14988   1.15542  369.283
 4553.00    1.13489   1.14999   -1.000
 4554.00    1.12270   1.14011   -1.000
 4555.00    1.12239   1.14084   -1.000
 4556.00    1.14562   1.15843   -1.000
 4557.00    1.17772   1.18441  332.296
 4558.00    1.19883   1.20552  332.631
 4559.00    1.20484   1.21778   -1.000
 4560.00    1.20373   1.22380   -1.000
 4561.00    1.20224   1.22218   -1.000
 4562.00    1.19327   1.20959   -1.000
 4563.00    1.17179   1.19055   -1.000
 4564.00    1.15420   1.17776   -1.000
 4565.00    1.15944   1.18047   -1.000
 4566.00    1.18022   1.19607   -1.000
 4567.00    1.20149   1.21373   -1.000
 4568.00    1.21317   1.22266   -1.000
 4569.00    1.21109   1.21816  349.086
 4570.00    1.19240   1.20310   -1.000
 4571.00    1.16828   1.18637   -1.000
 4572.00    1.16415   1.18146   -1.000
 4573.00    1.18488   1.19381   -1.000
 4574.00    1.20555   1.21082  334.359
 4575.00    1.20964   1.21856   -1.000
 4576.00    1.20779   1.21664   -1.000
 4577.00    1.20085   1.21004   -1.000
 4578.00    1.18858   1.19914   -1.000
 4579.00    1.17109   1.18337   -1.000
 4580.00    1.15723   1.16741   -1.000
 4581.00    1.15352   1.15774  351.771
 4582.00    1.15611   1.15448  352.114
 4583.00    1.16014   1.15425  354.153
 4584.00    1.15765   1.15804  350.691
 4585.00    1.16035   1.16653  342.220
 4586.00    1.17324   1.17760  334.548
 4587.00    1.18989   1.18972  332.743
 4588.00    1.20330   1.19980  336.630
 4589.00    1.20405   1.20398  342.727
 4590.00    1.19634   1.20204  348.846
 4591.00    1.18354   1.19562   -1.000
 4592.00    1.17314   1.18837   -1.000
 4593.00    1.17272   1.18606   -1.000
 4594.00    1.17919   1.18924   -1.000
 4595.00    1.18705   1.19410   -1.000
 4596.00    1.19216   1.19915   -1.000
 4597.00    1.19520   1.20340   -1.000
 4598.00    1.19701   1.20446   -1.000
 4599.00    1.19347   1.20115   -1.000
 4600.00    1.18480   1.19503   -1.000
 4601.00    1.17811   1.19017   -1.000
 4602.00    1.17731   1.18968   -1.000
 4603.00    1.18350   1.19300   -1.000
 4604.00    1.19132   1.19765  338.674
 4605.00    1.19861   1.20232  332.501
 4606.00    1.20471   1.20908  325.428
 4607.00    1.21883   1.21997  320.985
 4608.00    1.23187   1.23214  321.451
 4609.00    1.24328   1.24055  325.382
 4610.00    1.24095   1.24089  329.208
 4611.00    1.22917   1.23425  331.626
 4612.00    1.21845   1.22709   -1.000
 4613.00    1.21854   1.22391  327.931
 4614.00    1.21894   1.22490  326.295
 4615.00    1.21990   1.22653  327.841
 4616.00    1.21400   1.22569   -1.000
 4617.00    1.21595   1.22246  330.495
 4618.00    1.21672   1.21850  327.825
 4619.00    1.21802   1.21734  322.945
 4620.00    1.22471   1.22241  321.878
 4621.00    1.23186   1.23228  322.588
 4622.00    1.24443   1.24059  323.265
 4623.00    1.24751   1.24200  325.810
 4624.00    1.23940   1.23793  327.049
 4625.00    1.23030   1.23365  327.027
 4626.00    1.23253   1.23137  328.716
 4627.00    1.23297   1.23018  329.712
 4628.00    1.22482   1.22796  328.468
 4629.00    1.21905   1.22612  325.017
 4630.00    1.22123   1.22859  325.490
 4631.00    1.23281   1.23378  329.731
 4632.00    1.23507   1.23530  333.634
 4633.00    1.22736   1.23060  334.036
 4634.00    1.22348   1.22397  336.154
 4635.00    1.22485   1.22054  340.355
 4636.00    1.22059   1.21882  342.339
 4637.00    1.20867   1.21599   -1.000
 4638.00    1.20371   1.21361   -1.000
 4639.00    1.20768   1.21515  329.346
 4640.00    1.22306   1.22266  324.168
 4641.00    1.24152   1.23358  324.504
 4642.00    1.25288   1.24147   -1.000
 4643.00    1.25260   1.24108   -1.000
 4644.00    1.23744   1.23192  348.089
 4645.00    1.21544   1.21720  351.016
 4646.00    1.19554   1.20108  346.029
 4647.00    1.18601   1.19183  338.159
 4648.00    1.19280   1.19587  332.932
 4649.00    1.20850   1.21002  331.696
 4650.00    1.22096   1.22530  331.072
 4651.00    1.22469   1.23426   -1.000
 4652.00    1.22335   1.23437   -1.000
 4653.00    1.21686   1.22728   -1.000
 4654.00    1.20586   1.21659   -1.000
 4655.00    1.19670   1.20872   -1.000
 4656.00    1.19386   1.20967   -1.000
 4657.00    1.20960   1.22233   -1.000
 4658.00    1.24180   1.24395  312.407
 4659.00    1.26828   1.26435  315.661
 4660.00    1.27618   1.27279  322.836
 4661.00    1.26493   1.26718  329.529
 4662.00    1.25087   1.25390  331.246
 4663.00    1.24137   1.24009  335.836
 4664.00    1.23363   1.22693  348.853
 4665.00    1.22324   1.20960   -1.000
 4666.00    1.20096   1.18688   -1.000
 4667.00    1.16840   1.16723  356.917
 4668.00    1.15577   1.16271  342.447
 4669.00    1.17371   1.17578  332.311
 4670.00    1.19958   1.19706  329.237
 4671.00    1.22115   1.21597  329.209
 4672.00    1.23527   1.22693  328.985
 4673.00    1.23693   1.23140  325.323
 4674.00    1.23695   1.23542  320.472
 4675.00    1.24444   1.24193  321.026
 4676.00    1.25541   1.24698  327.221
 4677.00    1.25576   1.24343   -1.000
 4678.00    1.24401   1.23093   -1.000
 4679.00    1.22404   1.21618  343.223
 4680.00    1.21518   1.20493  340.125
 4681.00    1.20956   1.20110  332.109
 4682.00    1.21584   1.20581  327.063
 4683.00    1.23145   1.21577   -1.000
 4684.00    1.24573   1.22487   -1.000
 4685.00    1.25202   1.22913   -1.000
 4686.00    1.24953   1.22923   -1.000
 4687.00    1.24706   1.22779   -1.000
 4688.00    1.24389   1.22663   -1.000
 4689.00    1.24271   1.22588   -1.000
 4690.00    1.23979   1.22462   -1.000
 4691.00    1.23849   1.22354   -1.000
 4692.00    1.24689   1.22541   -1.000
 4693.00    1.26044   1.23089   -1.000
 4694.00    1.27177   1.23748   -1.000
 4695.00    1.27911   1.24227   -1.000
 4696.00    1.27929   1.24155   -1.000
 4697.00    1.26745   1.23206   -1.000
 4698.00    1.24557   1.21709   -1.000
 4699.00    1.23642   1.20480   -1.000
 4700.00    1.23852   1.19751   -1.000
 4701.00    1.23408   1.19080   -1.000
 4702.00    1.22179   1.18378   -1.000
 4703.00    1.21212   1.18192   -1.000
 4704.00    1.21703   1.18855   -1.000
 4705.00    1.22581   1.19766   -1.000
 4706.00    1.22143   1.19982   -1.000
 4707.00    1.20682   1.19324   -1.000
 4708.00    1.19388   1.18559  337.156
 4709.00    1.19395   1.18635  327.716
 4710.00    1.21393   1.19728   -1.000
 4711.00    1.23995   1.21127   -1.000
 4712.00    1.25507   1.21910   -1.000
 4713.00    1.25295   1.21712   -1.000
 4714.00    1.23650   1.21220   -1.000
 4715.00    1.23053   1.21423   -1.000
 4716.00    1.24398   1.22517   -1.000
 4717.00    1.26090   1.23910   -1.000
 4718.00    1.26733   1.24969   -1.000
 4719.00    1.27145   1.25554   -1.000
 4720.00    1.27053   1.25722   -1.000
 4721.00    1.26721   1.25549   -1.000
 4722.00    1.26456   1.25308   -1.000
 4723.00    1.26076   1.25426  315.498
 4724.00    1.26735   1.25777  322.185
 4725.00    1.27248   1.25646   -1.000
 4726.00    1.26056   1.24600   -1.000
 4727.00    1.23956   1.22833   -1.000
 4728.00    1.22271   1.21139   -1.000
 4729.00    1.22291   1.20265   -1.000
 4730.00    1.22927   1.20159   -1.000
 4731.00    1.23269   1.20577   -1.000
 4732.00    1.23443   1.21470   -1.000
 4733.00    1.24100   1.22498   -1.000
 4734.00    1.24678   1.23117   -1.000
 4735.00    1.24853   1.23108   -1.000
 4736.00    1.23900   1.22768   -1.000
 4737.00    1.23752   1.22664   -1.000
 4738.00    1.24891   1.23012   -1.000
 4739.00    1.25941   1.23478   -1.000
 4740.00    1.25379   1.23678   -1.000
 4741.00    1.24628   1.23747  321.528
 4742.00    1.25335   1.24056   -1.000
 4743.00    1.26259   1.24551   -1.000
 4744.00    1.26620   1.24954   -1.000
 4745.00    1.26270   1.25234   -1.000
 4746.00    1.26516   1.25565  315.752
 4747.00    1.27305   1.26117   -1.000
 4748.00    1.27704   1.26717  316.366
 4749.00    1.28025   1.27114  318.394
 4750.00    1.28147   1.27351  321.869
 4751.00    1.27703   1.27353  324.713
 4752.00    1.26919   1.26919  326.995
 4753.00    1.26115   1.26147  326.783
 4754.00    1.25615   1.25439  327.790
 4755.00    1.24960   1.25091  330.099
 4756.00    1.24376   1.25166  330.744
 4757.00    1.24407   1.25556   -1.000
 4758.00    1.24348   1.26041   -1.000
 4759.00    1.24599   1.26359   -1.000
 4760.00    1.24816   1.26183   -1.000
 4761.00    1.23939   1.25205   -1.000
 4762.00    1.21964   1.23619   -1.000
 4763.00    1.20095   1.22150   -1.000
 4764.00    1.20379   1.21408   -1.000
 4765.00    1.21855   1.21463  338.495
 4766.00    1.22566   1.22159  331.139
 4767.00    1.23597   1.23379  326.144
 4768.00    1.25157   1.24974  326.080
 4769.00    1.26129   1.26483  328.622
 4770.00    1.26489   1.27239  331.543
 4771.00    1.25879   1.27063   -1.000
 4772.00    1.25196   1.26655   -1.000
 4773.00    1.26084   1.26856  319.012
 4774.00    1.27280   1.27739  319.006
 4775.00    1.28135   1.28639  319.882
 4776.00    1.28249   1.29015  321.840
 4777.00    1.28036   1.28917  325.300
 4778.00    1.27444   1.28487   -1.000
 4779.00    1.26583   1.27811   -1.000
 4780.00    1.26313   1.27243   -1.000
 4781.00    1.26270   1.27043  332.445
 4782.00    1.25797   1.26925   -1.000
 4783.00    1.25452   1.26590   -1.000
 4784.00    1.25214   1.26154   -1.000
 4785.00    1.24475   1.25717   -1.000
 4786.00    1.23776   1.25214   -1.000
 4787.00    1.23086   1.24822   -1.000
 4788.00    1.23102   1.24789   -1.000
 4789.00    1.23585   1.25049   -1.000
 4790.00    1.24323   1.25568   -1.000
 4791.00    1.25125   1.26493   -1.000
 4792.00    1.26146   1.27784   -1.000
 4793.00    1.27489   1.29205   -1.000
 4794.00    1.28389   1.30440   -1.000
 4795.00    1.29127   1.31026   -1.000
 4796.00    1.28780   1.30738   -1.000
 4797.00    1.27745   1.29668   -1.000
 4798.00    1.26516   1.28254   -1.000
 4799.00    1.25117   1.27320   -1.000
 4800.00    1.25339   1.27483   -1.000
 4801.00    1.26735   1.28551   -1.000
 4802.00    1.28076   1.29715   -1.000
 4803.00    1.28526   1.29991   -1.000
 4804.00    1.27179   1.29083   -1.000
 4805.00    1.25703   1.27865   -1.000
 4806.00    1.25727   1.27193   -1.000
 4807.00    1.26225   1.27219   -1.000
 4808.00    1.26414   1.27689   -1.000
 4809.00    1.26661   1.28264   -1.000
 4810.00    1.27217   1.28680   -1.000
 4811.00    1.27399   1.28947   -1.000
 4812.00    1.27721   1.29227   -1.000
 4813.00    1.28349   1.29622   -1.000
 4814.00    1.28507   1.30118   -1.000
 4815.00    1.28830   1.30645   -1.000
 4816.00    1.29313   1.31168   -1.000
 4817.00    1.29424   1.31617   -1.000
 4818.00    1.29570   1.31869   -1.000
 4819.00    1.29815   1.31898   -1.000
 4820.00    1.29807   1.31696   -1.000
 4821.00    1.29370   1.30940   -1.000
 4822.00    1.27854   1.29344   -1.000
 4823.00    1.25729   1.27431   -1.000
 4824.00    1.25239   1.26352   -1.000
 4825.00    1.26340   1.26702  319.268
 4826.00    1.27543   1.27844  322.847
 4827.00    1.27830   1.28628  325.068
 4828.00    1.27567   1.28601   -1.000
 4829.00    1.27211   1.28099   -1.000
 4830.00    1.26718   1.27570   -1.000
 4831.00    1.26067   1.27139   -1.000
 4832.00    1.25803   1.26888   -1.000
 4833.00    1.26492   1.27039  318.085
 4834.00    1.27712   1.27571  318.455
 4835.00    1.28265   1.28135  319.888
 4836.00    1.28493   1.28376  323.990
 4837.00    1.28515   1.28310  329.691
 4838.00    1.27559   1.27940  330.486
 4839.00    1.26050   1.27247   -1.000
 4840.00    1.25167   1.26599   -1.000
 4841.00    1.25401   1.26344   -1.000
 4842.00    1.26032   1.26326  322.704
 4843.00    1.26274   1.26393  317.799
 4844.00    1.26446   1.26700  315.811
 4845.00    1.27607   1.27256  321.443
 4846.00    1.27934   1.27564  326.491
 4847.00    1.26390   1.27041  326.941
 4848.00    1.25263   1.26001  322.757
 4849.00    1.24681   1.25424  321.596
 4850.00    1.24973   1.25559  323.204
 4851.00    1.25802   1.25795  325.889
 4852.00    1.25926   1.25523  334.962
 4853.00    1.24744   1.24285  344.588
 4854.00    1.21951   1.21911  344.865
 4855.00    1.19141   1.19173  341.549
 4856.00    1.17953   1.17194  349.610
 4857.00    1.17551   1.15607   -1.000
 4858.00    1.14967   1.12393   -1.000
 4859.00    1.07044   1.05538   -1.000
 4860.00    0.95882   0.96108  422.141
 4861.00    0.89015   0.88995  385.296
 4862.00    0.91848   0.88638   -1.000
 4863.00    1.01266   0.95175   -1.000
 4864.00    1.09588   1.04130   -1.000
 4865.00    1.14415   1.11352   -1.000
 4866.00    1.17496   1.16011   -1.000
 4867.00    1.19615   1.18968  337.490
 4868.00    1.20841   1.20757  346.430
 4869.00    1.21017   1.21135  355.118
 4870.00    1.19478   1.19921  353.208
 4871.00    1.16869   1.18033   -1.000
 4872.00    1.16982   1.17190  337.320
 4873.00    1.19059   1.18358  334.418
 4874.00    1.21423   1.20621  332.534
 4875.00    1.22284   1.22446  331.361
 4876.00    1.22459   1.23414   -1.000
 4877.00    1.22655   1.24098   -1.000
 4878.00    1.23317   1.25142   -1.000
 4879.00    1.24787   1.26506   -1.000
 4880.00    1.25621   1.27534   -1.000
 4881.00    1.24482   1.27575   -1.000
 4882.00    1.23891   1.26731   -1.000
 4883.00    1.23945   1.25804   -1.000
 4884.00    1.23936   1.25146   -1.000
 4885.00    1.23450   1.24645   -1.000
 4886.00    1.22571   1.24360   -1.000
 4887.00    1.22346   1.24355   -1.000
 4888.00    1.22595   1.24185   -1.000
 4889.00    1.21618   1.23290   -1.000
 4890.00    1.19729   1.21854   -1.000
 4891.00    1.19036   1.21167   -1.000
 4892.00    1.21911   1.22658  310.636
 4893.00    1.26274   1.26055  304.525
 4894.00    1.30022   1.29682  302.680
 4895.00    1.31775   1.32263  303.159
 4896.00    1.32101   1.33496   -1.000
 4897.00    1.32082   1.33620   -1.000
 4898.00    1.31077   1.32899   -1.000
 4899.00    1.29173   1.31640   -1.000
 4900.00    1.28148   1.30440   -1.000
 4901.00    1.28004   1.29749   -1.000
 4902.00    1.27553   1.29361   -1.000
 4903.00    1.26924   1.29042   -1.000
 4904.00    1.27420   1.29253   -1.000
 4905.00    1.28993   1.30366   -1.000
 4906.00    1.30056   1.31585   -1.000
 4907.00    1.30320   1.31684   -1.000
 4908.00    1.29187   1.30488   -1.000
 4909.00    1.26767   1.28643   -1.000
 4910.00    1.24953   1.27004   -1.000
 4911.00    1.25125   1.26391   -1.000
 4912.00    1.26741   1.27052  316.072
 4913.00    1.28114   1.28467  313.158
 4914.00    1.29367   1.29889  314.279
 4915.00    1.30437   1.30786  324.486
 4916.00    1.30184   1.30509  341.832
 4917.00    1.28189   1.28403  358.459
 4918.00    1.23970   1.24640   -1.000
 4919.00    1.19426   1.20585   -1.000
 4920.00    1.17345   1.18030  340.373
 4921.00    1.18406   1.18037  334.692
 4922.00    1.21241   1.19783   -1.000
 4923.00    1.23076   1.21507   -1.000
 4924.00    1.23344   1.22656  321.774
 4925.00    1.24730   1.24123  315.772
 4926.00    1.27217   1.26398  312.590
 4927.00    1.29056   1.28768  310.391
 4928.00    1.30387   1.30550  308.495
 4929.00    1.31144   1.31740  311.130
 4930.00    1.31665   1.32249  319.212
 4931.00    1.31199   1.31658  330.670
 4932.00    1.29051   1.29747  332.455
 4933.00    1.25802   1.27158   -1.000
 4934.00    1.24339   1.25430   -1.000
 4935.00    1.25557   1.25380  335.114
 4936.00    1.26819   1.25832   -1.000
 4937.00    1.25303   1.25268  342.526
 4938.00    1.23051   1.23857   -1.000
 4939.00    1.22329   1.23272   -1.000
 4940.00    1.25047   1.24649  314.427
 4941.00    1.28181   1.27467  311.328
 4942.00    1.30056   1.30257  311.319
 4943.00    1.31151   1.31861  313.408
 4944.00    1.31441   1.32187  314.219
 4945.00    1.30662   1.31774   -1.000
 4946.00    1.29871   1.31392   -1.000
 4947.00    1.30003   1.31550   -1.000
 4948.00    1.31215   1.32232   -1.000
 4949.00    1.31820   1.32984   -1.000
 4950.00    1.32409   1.33336   -1.000
 4951.00    1.32332   1.33214   -1.000
 4952.00    1.31765   1.32800   -1.000
 4953.00    1.30983   1.32273   -1.000
 4954.00    1.30666   1.31394  340.782
 4955.00    1.29234   1.29348  354.920
 4956.00    1.24829   1.25752   -1.000
 4957.00    1.20401   1.22150   -1.000
 4958.00    1.20132   1.21310   -1.000
 4959.00    1.24244   1.23959  315.076
 4960.00    1.29015   1.28002   -1.000
 4961.00    1.31199   1.31044  318.756
 4962.00    1.31110   1.32238   -1.000
 4963.00    1.30730   1.32095   -1.000
 4964.00    1.29677   1.31144   -1.000
 4965.00    1.28250   1.29704   -1.000
 4966.00    1.27168   1.28395   -1.000
 4967.00    1.26495   1.27811   -1.000
 4968.00    1.26797   1.27840   -1.000
 4969.00    1.27449   1.28201  323.721
 4970.00    1.28242   1.28882  319.871
 4971.00    1.28834   1.29845   -1.000
 4972.00    1.29699   1.30901   -1.000
 4973.00    1.31075   1.31792  317.346
 4974.00    1.31432   1.32204  320.632
 4975.00    1.31542   1.32066  324.934
 4976.00    1.31249   1.31491  330.195
 4977.00    1.29623   1.30556   -1.000
 4978.00    1.28810   1.29504  339.052
 4979.00    1.27386   1.28482   -1.000
 4980.00    1.25884   1.27044   -1.000
 4981.00    1.23207   1.24807   -1.000
 4982.00    1.20475   1.22186   -1.000
 4983.00    1.18926   1.20377   -1.000
 4984.00    1.20116   1.20427  334.915
 4985.00    1.22033   1.22190  326.448
 4986.00    1.24737   1.24779  326.183
 4987.00    1.27647   1.27293  330.740
 4988.00    1.28343   1.28842  334.262
 4989.00    1.27579   1.28862   -1.000
 4990.00    1.25948   1.27909   -1.000
 4991.00    1.25506   1.27105   -1.000
 4992.00    1.26267   1.27052  330.078
 4993.00    1.26991   1.27549  328.469
 4994.00    1.27643   1.28214  326.823
 4995.00    1.28251   1.28960  328.586
 4996.00    1.28894   1.29575  332.859
 4997.00    1.28860   1.29511  339.483
 4998.00    1.27154   1.28386   -1.000
 4999.00    1.25409   1.26441   -1.000
 5000.00    1.24604   1.24617  341.325
 5001.00    1.24345   1.23877  339.000
 5002.00    1.24943   1.24144  343.448
 5003.00    1.25715   1.24540   -1.000
 5004.00    1.25126   1.24109   -1.000
 5005.00    1.22949   1.22691  346.353
 5006.00    1.21265   1.21394  335.853
 5007.00    1.22436   1.21715  331.872
 5008.00    1.25586   1.23710   -1.000
 5009.00    1.27901   1.25714   -1.000
 5010.00    1.27656   1.26228   -1.000
 5011.00    1.25121   1.24968  367.167
 5012.00    1.22181   1.22720  365.966
 5013.00    1.19707   1.20722   -1.000
 5014.00    1.18815   1.19950   -1.000
 5015.00    1.20643   1.20491  348.812
 5016.00    1.22495   1.21331   -1.000
 5017.00    1.22713   1.21495   -1.000
 5018.00    1.22771   1.21211   -1.000
 5019.00    1.23610   1.21614   -1.000
 5020.00    1.25071   1.22931   -1.000
 5021.00    1.25354   1.24197   -1.000
 5022.00    1.25189   1.24943  338.879
 5023.00    1.25456   1.25641  336.533
 5024.00    1.26523   1.26643  337.953
 5025.00    1.27409   1.27483  339.590
 5026.00    1.26777   1.27580  336.711
 5027.00    1.26283   1.27189   -1.000
 5028.00    1.26477   1.27112  325.694
 5029.00    1.27924   1.27624  320.426
 5030.00    1.29100   1.28479  316.654
 5031.00    1.29986   1.29530  316.982
 5032.00    1.30982   1.30605  326.737
 5033.00    1.31253   1.31081  339.690
 5034.00    1.29744   1.30280  345.702
 5035.00    1.26537   1.28366   -1.000
 5036.00    1.24616   1.26525   -1.000
 5037.00    1.24412   1.25567   -1.000
 5038.00    1.23833   1.24696   -1.000
 5039.00    1.21591   1.22769   -1.000
 5040.00    1.17236   1.20060   -1.000
 5041.00    1.15600   1.18452   -1.000
 5042.00    1.18683   1.19647   -1.000
 5043.00    1.23989   1.23226  319.119
 5044.00    1.28271   1.27368  307.070
 5045.00    1.30791   1.30545  315.730
 5046.00    1.30249   1.32059   94.314
 5047.00    1.41397   1.31712   -1.000
 5048.00    0.69777   1.29839   -1.000
 5049.00    0.49821   1.27414   -1.000
 5050.00    1.27073   1.25488   -1.000
 5051.00    1.25023   1.24590  325.861
 5052.00    1.27067   1.25088   -1.000
 5053.00    1.29685   1.27078   -1.000
 5054.00    1.31544   1.29643   -1.000
 5055.00    1.32543   1.31506   -1.000
 5056.00    1.32884   1.32365  316.737
 5057.00    1.33249   1.32675  316.635
 5058.00    1.32999   1.32869  314.531
 5059.00    1.32439   1.33158  314.633
 5060.00    1.32420   1.33555   -1.000
 5061.00    1.32604   1.33826   -1.000
 5062.00    1.33051   1.33418  339.630
 5063.00    1.30974   1.31881   -1.000
 5064.00    1.27624   1.29569   -1.000
 5065.00    1.25650   1.27696   -1.000
 5066.00    1.26544   1.27121  333.511
 5067.00    1.27751   1.27441  331.946
 5068.00    1.28247   1.27916  329.764
 5069.00    1.28888   1.28361  332.318
 5070.00    1.30132   1.28764   -1.000
 5071.00    1.29976   1.28836   -1.000
 5072.00    1.29207   1.28475  328.354
 5073.00    1.28965   1.28120  327.869
 5074.00    1.29112   1.28146   -1.000
 5075.00    1.29270   1.28432  330.727
 5076.00    1.29592   1.28552   -1.000
 5077.00    1.29145   1.27949   -1.000
 5078.00    1.26656   1.26216  362.876
 5079.00    1.22896   1.23808   -1.000
 5080.00    1.21313   1.22229   -1.000
 5081.00    1.22813   1.22442  343.079
 5082.00    1.24812   1.23696   -1.000
 5083.00    1.26164   1.25031   -1.000
 5084.00    1.27767   1.26441   -1.000
 5085.00    1.29744   1.27992   -1.000
 5086.00    1.30996   1.29238   -1.000
 5087.00    1.31243   1.29880   -1.000
 5088.00    1.31344   1.30164   -1.000
 5089.00    1.31860   1.30507   -1.000
 5090.00    1.31993   1.30994   -1.000
 5091.00    1.32091   1.31554  313.932
 5092.00    1.32694   1.32224  316.734
 5093.00    1.33804   1.32873   -1.000
 5094.00    1.34271   1.33042   -1.000
 5095.00    1.33069   1.32276  338.355
 5096.00    1.31166   1.30511  345.473
 5097.00    1.28603   1.28245  346.639
 5098.00    1.26371   1.26301  338.195
 5099.00    1.26082   1.25588  328.360
 5100.00    1.28097   1.26572   -1.000
 5101.00    1.30689   1.28534   -1.000
 5102.00    1.31834   1.30158   -1.000
 5103.00    1.32067   1.30691   -1.000
 5104.00    1.31400   1.30324   -1.000
 5105.00    1.30237   1.29428  344.229
 5106.00    1.28344   1.28103  343.731
 5107.00    1.26615   1.26672  341.523
 5108.00    1.25856   1.25724  339.069
 5109.00    1.26072   1.25538  334.185
 5110.00    1.26495   1.26157  330.087
 5111.00    1.28182   1.27533  326.062
 5112.00    1.30631   1.29288   -1.000
 5113.00    1.31799   1.30776   -1.000
 5114.00    1.32420   1.31718  317.984
 5115.00    1.32795   1.32328  315.320
 5116.00    1.33474   1.32913  316.257
 5117.00    1.34622   1.33467   -1.000
 5118.00    1.35021   1.33690   -1.000
 5119.00    1.34005   1.33305  330.639
 5120.00    1.33451   1.32274   -1.000
 5121.00    1.31392   1.30728  349.454
 5122.00    1.28733   1.28851  351.868
 5123.00    1.26580   1.27002  348.703
 5124.00    1.24933   1.25787   -1.000
 5125.00    1.25648   1.25507  344.923
 5126.00    1.26663   1.25750   -1.000
 5127.00    1.27000   1.25902   -1.000
 5128.00    1.26849   1.25854   -1.000
 5129.00    1.27048   1.25967   -1.000
 5130.00    1.27510   1.26558   -1.000
 5131.00    1.28787   1.27540   -1.000
 5132.00    1.29570   1.28548   -1.000
 5133.00    1.30145   1.29407  325.157
 5134.00    1.30875   1.30077  331.101
 5135.00    1.31559   1.30340   -1.000
 5136.00    1.30763   1.29803   -1.000
 5137.00    1.28204   1.28340  345.025
 5138.00    1.26214   1.26588  341.869
 5139.00    1.25145   1.25535  344.490
 5140.00    1.25905   1.25456  350.179
 5141.00    1.26427   1.25765  348.028
 5142.00    1.25251   1.25901  342.085
 5143.00    1.25030   1.26126   -1.000
 5144.00    1.26743   1.26807  344.244
 5145.00    1.28137   1.27437  345.059
 5146.00    1.27807   1.27409  340.721
 5147.00    1.27854   1.27093  338.842
 5148.00    1.28633   1.27094   -1.000
 5149.00    1.29283   1.27268   -1.000
 5150.00    1.28302   1.27022   -1.000
 5151.00    1.26428   1.26235  349.859
 5152.00    1.25302   1.25507  343.062
 5153.00    1.26668   1.25409   -1.000
 5154.00    1.28317   1.26074   -1.000
 5155.00    1.30032   1.27490   -1.000
 5156.00    1.31790   1.29376   -1.000
 5157.00    1.33675   1.31108   -1.000
 5158.00    1.34828   1.32199   -1.000
 5159.00    1.34940   1.32593   -1.000
 5160.00    1.34744   1.32389   -1.000
 5161.00    1.33696   1.31680   -1.000
 5162.00    1.32529   1.30646   -1.000
 5163.00    1.31623   1.29263   -1.000
 5164.00    1.30363   1.26796   -1.000
 5165.00    1.25511   1.22242   -1.000
 5166.00    1.17580   1.15773   -1.000
 5167.00    1.11091   1.09907   -1.000
 5168.00    1.09757   1.07791   -1.000
 5169.00    1.13721   1.09628   -1.000
 5170.00    1.17547   1.12058   -1.000
 5171.00    1.16091   1.11661   -1.000
 5172.00    1.11753   1.09425   -1.000
 5173.00    1.11966   1.09549   -1.000
 5174.00    1.18221   1.14107   -1.000
 5175.00    1.26010   1.20890   -1.000
 5176.00    1.30815   1.26273   -1.000
 5177.00    1.32547   1.29002   -1.000
 5178.00    1.32719   1.29928   -1.000
 5179.00    1.32434   1.29714   -1.000
 5180.00    1.31290   1.27921   -1.000
 5181.00    1.27498   1.23592   -1.000
 5182.00    1.20679   1.17048   -1.000
 5183.00    1.13601   1.11047   -1.000
 5184.00    1.12938   1.09348   -1.000
 5185.00    1.19214   1.13305   -1.000
 5186.00    1.26277   1.19792   -1.000
 5187.00    1.29287   1.24677   -1.000
 5188.00    1.29577   1.26817   -1.000
 5189.00    1.29380   1.27236   -1.000
 5190.00    1.28320   1.26603   -1.000
 5191.00    1.25989   1.24977   -1.000
 5192.00    1.22902   1.23169  351.063
 5193.00    1.22617   1.22529  345.913
 5194.00    1.24631   1.23234   -1.000
 5195.00    1.26815   1.24357   -1.000
 5196.00    1.27995   1.25450   -1.000
 5197.00    1.29152   1.26707   -1.000
 5198.00    1.30334   1.28184   -1.000
 5199.00    1.31753   1.29560   -1.000
 5200.00    1.32398   1.30403   -1.000
 5201.00    1.32064   1.30370   -1.000
 5202.00    1.30812   1.29251   -1.000
 5203.00    1.28740   1.27069   -1.000
 5204.00    1.26056   1.24270   -1.000
 5205.00    1.23636   1.21763   -1.000
 5206.00    1.22727   1.20331   -1.000
 5207.00    1.22699   1.19958   -1.000
 5208.00    1.22548   1.20137   -1.000
 5209.00    1.23416   1.20950   -1.000
 5210.00    1.26146   1.23026   -1.000
 5211.00    1.29319   1.26166   -1.000
 5212.00    1.32678   1.29161   -1.000
 5213.00    1.34376   1.30831   -1.000
 5214.00    1.33606   1.30641   -1.000
 5215.00    1.31382   1.29166   -1.000
 5216.00    1.29535   1.27810   -1.000
 5217.00    1.30026   1.27837   -1.000
 5218.00    1.32081   1.29336   -1.000
 5219.00    1.33955   1.31353   -1.000
 5220.00    1.34992   1.32945   -1.000
 5221.00    1.35817   1.33651   -1.000
 5222.00    1.35735   1.33299   -1.000
 5223.00    1.33855   1.31715   -1.000
 5224.00    1.30216   1.28695   -1.000
 5225.00    1.24872   1.24571  359.269
 5226.00    1.20821   1.20906  338.502
 5227.00    1.20903   1.19831   -1.000
 5228.00    1.24707   1.22073   -1.000
 5229.00    1.29864   1.26067   -1.000
 5230.00    1.32908   1.29247   -1.000
 5231.00    1.33482   1.30040   -1.000
 5232.00    1.32077   1.28773   -1.000
 5233.00    1.29771   1.27017   -1.000
 5234.00    1.29361   1.26523   -1.000
 5235.00    1.31097   1.27863   -1.000
 5236.00    1.33574   1.30213   -1.000
 5237.00    1.36152   1.32353   -1.000
 5238.00    1.36432   1.33547   -1.000
 5239.00    1.36388   1.33923   -1.000
 5240.00    1.36571   1.33956   -1.000
 5241.00    1.36482   1.33881   -1.000
 5242.00    1.36457   1.33809   -1.000
 5243.00    1.36585   1.33901   -1.000
 5244.00    1.36715   1.34046   -1.000
 5245.00    1.36073   1.33662   -1.000
 5246.00    1.33657   1.32327   -1.000
 5247.00    1.31059   1.30586  335.135
 5248.00    1.30181   1.29345  337.381
 5249.00    1.29870   1.28727   -1.000
 5250.00    1.29466   1.28467  330.626
 5251.00    1.28950   1.28656  327.481
 5252.00    1.30316   1.29256   -1.000
 5253.00    1.31548   1.29748   -1.000
 5254.00    1.31557   1.29929   -1.000
 5255.00    1.31957   1.30339   -1.000
 5256.00    1.33923   1.31632   -1.000
 5257.00    1.36372   1.33573   -1.000
 5258.00    1.38003   1.35036   -1.000
 5259.00    1.37625   1.35085   -1.000
 5260.00    1.35264   1.33436   -1.000
 5261.00    1.31704   1.30389   -1.000
 5262.00    1.27324   1.26712  367.088
 5263.00    1.23642   1.23232  367.555
 5264.00    1.21738   1.20616   -1.000
 5265.00    1.21076   1.19436   -1.000
 5266.00    1.22295   1.19680   -1.000
 5267.00    1.24603   1.20225   -1.000
 5268.00    1.23864   1.19456   -1.000
 5269.00    1.20176   1.17515   -1.000
 5270.00    1.18920   1.16796   -1.000
 5271.00    1.23153   1.19084   -1.000
 5272.00    1.28381   1.23187   -1.000
 5273.00    1.29992   1.26262   -1.000
 5274.00    1.29783   1.27277   -1.000
 5275.00    1.30261   1.27607   -1.000
 5276.00    1.31894   1.28829   -1.000
 5277.00    1.34448   1.31160   -1.000
 5278.00    1.37572   1.33393   -1.000
 5279.00    1.37499   1.34139   -1.000
 5280.00    1.36178   1.33129   -1.000
 5281.00    1.33500   1.31164   -1.000
 5282.00    1.31249   1.29252   -1.000
 5283.00    1.30508   1.28279   -1.000
 5284.00    1.31390   1.28996   -1.000
 5285.00    1.33943   1.31391   -1.000
 5286.00    1.38015   1.34305   -1.000
 5287.00    1.39261   1.36320   -1.000
 5288.00    1.39025   1.37190   -1.000
 5289.00    1.38778   1.37515   -1.000
 5290.00    1.39177   1.37612   -1.000
 5291.00    1.38786   1.37432   -1.000
 5292.00    1.38069   1.37007   -1.000
 5293.00    1.37915   1.36471   -1.000
 5294.00    1.37374   1.35678   -1.000
 5295.00    1.35854   1.34141   -1.000
 5296.00    1.32359   1.31758  337.619
 5297.00    1.29011   1.29388  328.671
 5298.00    1.28500   1.28308  322.845
 5299.00    1.30377   1.28979   -1.000
 5300.00    1.32887   1.30468   -1.000
 5301.00    1.33584   1.31717   -1.000
 5302.00    1.33766   1.32777  302.643
 5303.00    1.35854   1.34148   -1.000
 5304.00    1.38229   1.35693   -1.000
 5305.00    1.38755   1.36658   -1.000
 5306.00    1.38336   1.36652   -1.000
 5307.00    1.37528   1.36217   -1.000
 5308.00    1.37578   1.36156   -1.000
 5309.00    1.39086   1.36725   -1.000
 5310.00    1.40004   1.37450   -1.000
 5311.00    1.40201   1.37720   -1.000
 5312.00    1.39802   1.37454   -1.000
 5313.00    1.39534   1.36837   -1.000
 5314.00    1.39136   1.35888   -1.000
 5315.00    1.37617   1.34647   -1.000
 5316.00    1.35763   1.33501   -1.000
 5317.00    1.35274   1.33115   -1.000
 5318.00    1.36740   1.33741   -1.000
 5319.00    1.37482   1.34765   -1.000
 5320.00    1.37343   1.35343   -1.000
 5321.00    1.36643   1.35059   -1.000
 5322.00    1.35394   1.33888   -1.000
 5323.00    1.33858   1.32192   -1.000
 5324.00    1.33141   1.30658   -1.000
 5325.00    1.33071   1.29365   -1.000
 5326.00    1.31163   1.27319   -1.000
 5327.00    1.26393   1.24092   -1.000
 5328.00    1.22374   1.21392  328.589
 5329.00    1.23784   1.21803   -1.000
 5330.00    1.29589   1.25560   -1.000
 5331.00    1.33984   1.29899   -1.000
 5332.00    1.35575   1.32546   -1.000
 5333.00    1.35688   1.33644   -1.000
 5334.00    1.36884   1.34190   -1.000
 5335.00    1.37865   1.34533   -1.000
 5336.00    1.37178   1.34513   -1.000
 5337.00    1.36555   1.34011   -1.000
 5338.00    1.36085   1.32976   -1.000
 5339.00    1.34331   1.31423   -1.000
 5340.00    1.32009   1.29963   -1.000
 5341.00    1.31654   1.29747   -1.000
 5342.00    1.34180   1.31115   -1.000
 5343.00    1.36769   1.32901   -1.000
 5344.00    1.37648   1.33825   -1.000
 5345.00    1.36599   1.33690   -1.000
 5346.00    1.36043   1.33031   -1.000
 5347.00    1.35682   1.32338   -1.000
 5348.00    1.34987   1.31801   -1.000
 5349.00    1.34674   1.31707   -1.000
 5350.00    1.35605   1.32464   -1.000
 5351.00    1.37835   1.33872   -1.000
 5352.00    1.38708   1.35239   -1.000
 5353.00    1.38688   1.36213   -1.000
 5354.00    1.39507   1.36988   -1.000
 5355.00    1.40720   1.37833   -1.000
 5356.00    1.41273   1.38604   -1.000
 5357.00    1.41599   1.39002   -1.000
 5358.00    1.42006   1.39000   -1.000
 5359.00    1.41557   1.38661   -1.000
 5360.00    1.40160   1.37928   -1.000
 5361.00    1.38796   1.36821   -1.000
 5362.00    1.37252   1.35553   -1.000
 5363.00    1.36490   1.34382   -1.000
 5364.00    1.35637   1.33503   -1.000
 5365.00    1.35322   1.33033   -1.000
 5366.00    1.35347   1.32956   -1.000
 5367.00    1.35455   1.32922   -1.000
 5368.00    1.35022   1.32203   -1.000
 5369.00    1.33282   1.30362   -1.000
 5370.00    1.30580   1.28021   -1.000
 5371.00    1.29181   1.26749   -1.000
 5372.00    1.31060   1.27871   -1.000
 5373.00    1.35072   1.31000   -1.000
 5374.00    1.39146   1.34355   -1.000
 5375.00    1.41156   1.36505   -1.000
 5376.00    1.40904   1.37248   -1.000
 5377.00    1.40547   1.37243   -1.000
 5378.00    1.40849   1.37020   -1.000
 5379.00    1.39935   1.36602   -1.000
 5380.00    1.38502   1.35890   -1.000
 5381.00    1.37954   1.35007   -1.000
 5382.00    1.37186   1.34314   -1.000
 5383.00    1.36645   1.34164   -1.000
 5384.00    1.37553   1.34662   -1.000
 5385.00    1.38689   1.35563   -1.000
 5386.00    1.39357   1.36346   -1.000
 5387.00    1.39251   1.36546   -1.000
 5388.00    1.38852   1.36044   -1.000
 5389.00    1.37639   1.35029   -1.000
 5390.00    1.36187   1.33878   -1.000
 5391.00    1.35845   1.32938   -1.000
 5392.00    1.35480   1.32308   -1.000
 5393.00    1.34642   1.31926   -1.000
 5394.00    1.34266   1.31518   -1.000
 5395.00    1.33197   1.30601   -1.000
 5396.00    1.31119   1.29156   -1.000
 5397.00    1.30421   1.28198   -1.000
 5398.00    1.32276   1.28796   -1.000
 5399.00    1.35252   1.30669   -1.000
 5400.00    1.37047   1.32582   -1.000
 5401.00    1.37368   1.33566   -1.000
 5402.00    1.36643   1.33197   -1.000
 5403.00    1.34328   1.31337   -1.000
 5404.00    1.31028   1.28516   -1.000
 5405.00    1.28623   1.26242   -1.000
 5406.00    1.29564   1.25969   -1.000
 5407.00    1.32027   1.27439   -1.000
 5408.00    1.33198   1.28976   -1.000
 5409.00    1.32591   1.29536   -1.000
 5410.00    1.32064   1.29756   -1.000
 5411.00    1.34114   1.30836   -1.000
 5412.00    1.36845   1.32615   -1.000
 5413.00    1.38267   1.33900   -1.000
 5414.00    1.37677   1.34305   -1.000
 5415.00    1.37248   1.34505   -1.000
 5416.00    1.37940   1.35110   -1.000
 5417.00    1.38513   1.35872   -1.000
 5418.00    1.38447   1.36165   -1.000
 5419.00    1.37859   1.35935   -1.000
 5420.00    1.37749   1.35588   -1.000
 5421.00    1.38016   1.35287   -1.000
 5422.00    1.37801   1.34821   -1.000
 5423.00    1.36783   1.34057   -1.000
 5424.00    1.35525   1.33530   -1.000
 5425.00    1.36087   1.34030   -1.000
 5426.00    1.37700   1.35266   -1.000
 5427.00    1.38547   1.35742   -1.000
 5428.00    1.36490   1.34402   -1.000
 5429.00    1.33186   1.32155   -1.000
 5430.00    1.31867   1.30915  323.016
 5431.00    1.33189   1.31181   -1.000
 5432.00    1.34382   1.31692   -1.000
 5433.00    1.33457   1.31253   -1.000
 5434.00    1.31870   1.30266   -1.000
 5435.00    1.31779   1.30132   -1.000
 5436.00    1.33781   1.31529   -1.000
 5437.00    1.36575   1.33944   -1.000
 5438.00    1.39018   1.36353   -1.000
 5439.00    1.40958   1.38008   -1.000
 5440.00    1.41902   1.38843   -1.000
 5441.00    1.41425   1.39157   -1.000
 5442.00    1.41038   1.39076   -1.000
 5443.00    1.40365   1.38282   -1.000
 5444.00    1.37718   1.36293   -1.000
 5445.00    1.34294   1.33238   -1.000
 5446.00    1.30905   1.30416  320.361
 5447.00    1.30845   1.29530   -1.000
 5448.00    1.33535   1.31064   -1.000
 5449.00    1.37559   1.33854   -1.000
 5450.00    1.39406   1.36185   -1.000
 5451.00    1.39653   1.37111   -1.000
 5452.00    1.39441   1.36635   -1.000
 5453.00    1.37764   1.34961   -1.000
 5454.00    1.34248   1.32473   -1.000
 5455.00    1.31514   1.30396   -1.000
 5456.00    1.32050   1.30309   -1.000
 5457.00    1.35531   1.32528   -1.000
 5458.00    1.39045   1.35482   -1.000
 5459.00    1.40117   1.37246   -1.000
 5460.00    1.39041   1.37241   -1.000
 5461.00    1.37669   1.36013   -1.000
 5462.00    1.36199   1.34468   -1.000
 5463.00    1.35750   1.33560   -1.000
 5464.00    1.36188   1.33798   -1.000
 5465.00    1.37836   1.34802   -1.000
 5466.00    1.38291   1.35802   -1.000
 5467.00    1.38633   1.36455   -1.000
 5468.00    1.39574   1.36802   -1.000
 5469.00    1.39310   1.36865   -1.000
 5470.00    1.38415   1.36601   -1.000
 5471.00    1.38230   1.36061   -1.000
 5472.00    1.37685   1.35390   -1.000
 5473.00    1.36667   1.34591   -1.000
 5474.00    1.35823   1.33399   -1.000
 5475.00    1.34017   1.31667   -1.000
 5476.00    1.31663   1.29953   -1.000
 5477.00    1.31488   1.29526   -1.000
 5478.00    1.33852   1.30942   -1.000
 5479.00    1.36533   1.32937   -1.000
 5480.00    1.37016   1.33899   -1.000
 5481.00    1.35781   1.33715   -1.000
 5482.00    1.35182   1.33531   -1.000
 5483.00    1.36133   1.34267   -1.000
 5484.00    1.37748   1.35638   -1.000
 5485.00    1.38220   1.36638   -1.000
 5486.00    1.37809   1.36633   -1.000
 5487.00    1.36970   1.35892   -1.000
 5488.00    1.37222   1.35179   -1.000
 5489.00    1.37340   1.35021   -1.000
 5490.00    1.37752   1.35399   -1.000
 5491.00    1.38215   1.35932   -1.000
 5492.00    1.38376   1.36265   -1.000
 5493.00    1.38583   1.36314   -1.000
 5494.00    1.38865   1.36190   -1.000
 5495.00    1.38660   1.35892   -1.000
 5496.00    1.37573   1.35309   -1.000
 5497.00    1.36425   1.34745   -1.000
 5498.00    1.36815   1.34771   -1.000
 5499.00    1.37943   1.35177   -1.000
 5500.00    1.37860   1.35080   -1.000
 5501.00    1.36887   1.34263   -1.000
 5502.00    1.36037   1.33515   -1.000
 5503.00    1.36619   1.33493   -1.000
 5504.00    1.37505   1.33732   -1.000
 5505.00    1.36738   1.33418   -1.000
 5506.00    1.35211   1.32720   -1.000
 5507.00    1.34826   1.32541   -1.000
 5508.00    1.36416   1.33308   -1.000
 5509.00    1.38194   1.34349   -1.000
 5510.00    1.38205   1.34618   -1.000
 5511.00    1.36774   1.33889   -1.000
 5512.00    1.35195   1.32771   -1.000
 5513.00    1.34408   1.32060   -1.000
 5514.00    1.35086   1.32206   -1.000
 5515.00    1.36593   1.33115   -1.000
 5516.00    1.38421   1.34408   -1.000
 5517.00    1.39742   1.35768   -1.000
 5518.00    1.40701   1.36965   -1.000
 5519.00    1.41182   1.37752   -1.000
 5520.00    1.40892   1.37981   -1.000
 5521.00    1.40625   1.37849   -1.000
 5522.00    1.40780   1.37704   -1.000
 5523.00    1.40785   1.37574   -1.000
 5524.00    1.40285   1.37110   -1.000
 5525.00    1.38987   1.35874   -1.000
 5526.00    1.36756   1.33850   -1.000
 5527.00    1.34522   1.31758   -1.000
 5528.00    1.33693   1.30764   -1.000
 5529.00    1.35089   1.31576   -1.000
 5530.00    1.37321   1.33653   -1.000
 5531.00    1.38731   1.35561   -1.000
 5532.00    1.39026   1.36253   -1.000
 5533.00    1.38394   1.35823   -1.000
 5534.00    1.37522   1.35070   -1.000
 5535.00    1.37276   1.34734   -1.000
 5536.00    1.37665   1.35053   -1.000
 5537.00    1.38956   1.35755   -1.000
 5538.00    1.39646   1.36487   -1.000
 5539.00    1.40491   1.37164   -1.000
 5540.00    1.41118   1.37743   -1.000
 5541.00    1.41356   1.37974   -1.000
 5542.00    1.40536   1.37656   -1.000
 5543.00    1.39221   1.37012   -1.000
 5544.00    1.39248   1.36532   -1.000
 5545.00    1.39405   1.36470   -1.000
 5546.00    1.39764   1.36757   -1.000
 5547.00    1.40329   1.37329   -1.000
 5548.00    1.40895   1.38142   -1.000
 5549.00    1.41656   1.38903   -1.000
 5550.00    1.41948   1.39267   -1.000
 5551.00    1.42073   1.39148   -1.000
 5552.00    1.41599   1.38674   -1.000
 5553.00    1.40741   1.38058   -1.000
 5554.00    1.39612   1.37599   -1.000
 5555.00    1.40060   1.37487   -1.000
 5556.00    1.40695   1.37642   -1.000
 5557.00    1.40897   1.37832   -1.000
 5558.00    1.40886   1.37940   -1.000
 5559.00    1.40752   1.38010   -1.000
 5560.00    1.40898   1.38001   -1.000
 5561.00    1.40493   1.37717   -1.000
 5562.00    1.39508   1.37153   -1.000
 5563.00    1.38853   1.36571   -1.000
 5564.00    1.38484   1.36200   -1.000
 5565.00    1.38010   1.36003   -1.000
 5566.00    1.38053   1.35813   -1.000
 5567.00    1.38385   1.35589   -1.000
 5568.00    1.37870   1.35390   -1.000
 5569.00    1.37322   1.35284   -1.000
 5570.00    1.37478   1.35227   -1.000
 5571.00    1.38301   1.35029   -1.000
 5572.00    1.40094   1.34762   -1.000
 5573.00    1.45656   1.34812   -1.000
 5574.00    1.57819   1.35345   -1.000
 5575.00    1.67240   1.36087   -1.000
 5576.00    1.64149   1.36681   -1.000
 5577.00    1.52922   1.37091   -1.000
 5578.00    1.43841   1.37482   -1.000
 5579.00    1.41051   1.37823   -1.000
 5580.00    1.40429   1.37925   -1.000
 5581.00    1.40096   1.37758   -1.000
 5582.00    1.39313   1.37513   -1.000
 5583.00    1.39145   1.37298   -1.000
 5584.00    1.38957   1.36761   -1.000
 5585.00    1.37744   1.35316   -1.000
 5586.00    1.35260   1.32992   -1.000
 5587.00    1.32422   1.30699   -1.000
 5588.00    1.31438   1.29508   -1.000
 5589.00    1.32095   1.29808   -1.000
 5590.00    1.33734   1.31192   -1.000
 5591.00    1.35877   1.32763   -1.000
 5592.00    1.36778   1.33738   -1.000
 5593.00    1.36146   1.34038   -1.000
 5594.00    1.35812   1.34297   -1.000
 5595.00    1.36980   1.35059   -1.000
 5596.00    1.38192   1.35877   -1.000
 5597.00    1.38124   1.35857   -1.000
 5598.00    1.36673   1.34984   -1.000
 5599.00    1.35765   1.33946   -1.000
 5600.00    1.35552   1.33048   -1.000
 5601.00    1.34764   1.32307   -1.000
 5602.00    1.33868   1.32165   -1.000
 5603.00    1.34883   1.33223   -1.000
 5604.00    1.37541   1.35413   -1.000
 5605.00    1.40204   1.37829   -1.000
 5606.00    1.41762   1.39546   -1.000
 5607.00    1.42331   1.40329   -1.000
 5608.00    1.42258   1.40501   -1.000
 5609.00    1.42229   1.40499   -1.000
 5610.00    1.42582   1.40591   -1.000
 5611.00    1.42583   1.40633   -1.000
 5612.00    1.41921   1.40064   -1.000
 5613.00    1.40542   1.38326   -1.000
 5614.00    1.37757   1.35574   -1.000
 5615.00    1.34808   1.33197   -1.000
 5616.00    1.34607   1.32716   -1.000
 5617.00    1.37017   1.34124   -1.000
 5618.00    1.39262   1.35998   -1.000
 5619.00    1.40301   1.37210   -1.000
 5620.00    1.40696   1.37787   -1.000
 5621.00    1.40646   1.38080   -1.000
 5622.00    1.40422   1.37890   -1.000
 5623.00    1.38966   1.36984   -1.000
 5624.00    1.37137   1.35801   -1.000
 5625.00    1.37001   1.35247   -1.000
 5626.00    1.38319   1.35783   -1.000
 5627.00    1.39674   1.36968   -1.000
 5628.00    1.40953   1.38147   -1.000
 5629.00    1.42284   1.39071   -1.000
 5630.00    1.42503   1.39681   -1.000
 5631.00    1.42843   1.39888   -1.000
 5632.00    1.42267   1.39691   -1.000
 5633.00    1.41922   1.39236   -1.000
 5634.00    1.41387   1.38661   -1.000
 5635.00    1.40588   1.37986   -1.000
 5636.00    1.40116   1.37259   -1.000
 5637.00    1.39516   1.36708   -1.000
 5638.00    1.39393   1.36515   -1.000
 5639.00    1.39477   1.36513   -1.000
 5640.00    1.39199   1.36400   -1.000
 5641.00    1.38999   1.36203   -1.000
 5642.00    1.39331   1.36240   -1.000
 5643.00    1.39767   1.36617   -1.000
 5644.00    1.40075   1.37097   -1.000
 5645.00    1.40521   1.37472   -1.000
 5646.00    1.40873   1.37715   -1.000
 5647.00    1.41206   1.37806   -1.000
 5648.00    1.41196   1.37717   -1.000
 5649.00    1.41126   1.37557   -1.000
 5650.00    1.41587   1.37559   -1.000
 5651.00    1.41735   1.37816   -1.000
 5652.00    1.41456   1.38087   -1.000
 5653.00    1.41275   1.38034   -1.000
 5654.00    1.40972   1.37564   -1.000
 5655.00    1.39975   1.36665   -1.000
 5656.00    1.38085   1.35153   -1.000
 5657.00    1.35546   1.33204   -1.000
 5658.00    1.33574   1.31754   -1.000
 5659.00    1.33960   1.31721   -1.000
 5660.00    1.36135   1.32888   -1.000
 5661.00    1.37707   1.34059   -1.000
 5662.00    1.37895   1.34706   -1.000
 5663.00    1.38371   1.35458   -1.000
 5664.00    1.39551   1.36583   -1.000
 5665.00    1.40378   1.37357   -1.000
 5666.00    1.40369   1.37198   -1.000
 5667.00    1.39404   1.36444   -1.000
 5668.00    1.39160   1.35889   -1.000
 5669.00    1.39345   1.35967   -1.000
 5670.00    1.39565   1.36568   -1.000
 5671.00    1.40650   1.37416   -1.000
 5672.00    1.41663   1.38284   -1.000
 5673.00    1.42457   1.38930   -1.000
 5674.00    1.42816   1.39215   -1.000
 5675.00    1.42212   1.39248   -1.000
 5676.00    1.42498   1.39233   -1.000
 5677.00    1.42704   1.39202   -1.000
 5678.00    1.42415   1.39027   -1.000
 5679.00    1.42049   1.38612   -1.000
 5680.00    1.41584   1.37951   -1.000
 5681.00    1.40951   1.37049   -1.000
 5682.00    1.39801   1.36014   -1.000
 5683.00    1.39351   1.35271   -1.000
 5684.00    1.39230   1.35178   -1.000
 5685.00    1.39334   1.35503   -1.000
 5686.00    1.39213   1.35703   -1.000
 5687.00    1.38529   1.35619   -1.000
 5688.00    1.38547   1.35572   -1.000
 5689.00    1.39415   1.35920   -1.000
 5690.00    1.40443   1.36687   -1.000
 5691.00    1.41423   1.37588   -1.000
 5692.00    1.42145   1.38305   -1.000
 5693.00    1.42513   1.38678   -1.000
 5694.00    1.42533   1.38768   -1.000
 5695.00    1.42078   1.38717   -1.000
 5696.00    1.41403   1.38549   -1.000
 5697.00    1.40746   1.38179   -1.000
 5698.00    1.39761   1.37584   -1.000
 5699.00    1.39180   1.36869   -1.000
 5700.00    1.38845   1.36163   -1.000
 5701.00    1.38212   1.35655   -1.000
 5702.00    1.37706   1.35629   -1.000
 5703.00    1.38155   1.36068   -1.000
 5704.00    1.38624   1.36464   -1.000
 5705.00    1.38616   1.36306   -1.000
 5706.00    1.38113   1.35483   -1.000
 5707.00    1.36499   1.34255   -1.000
 5708.00    1.34449   1.32991   -1.000
 5709.00    1.33475   1.32035   -1.000
 5710.00    1.33774   1.31717   -1.000
 5711.00    1.34601   1.32243   -1.000
 5712.00    1.36261   1.33570   -1.000
 5713.00    1.38573   1.35336   -1.000
 5714.00    1.40269   1.36888   -1.000
 5715.00    1.40983   1.37834   -1.000
 5716.00    1.41489   1.38346   -1.000
 5717.00    1.41506   1.38737   -1.000
 5718.00    1.41641   1.39143   -1.000
 5719.00    1.42157   1.39588   -1.000
 5720.00    1.43081   1.40032   -1.000
 5721.00    1.43354   1.40392   -1.000
 5722.00    1.43667   1.40643   -1.000
 5723.00    1.44008   1.40778   -1.000
 5724.00    1.43708   1.40678   -1.000
 5725.00    1.43030   1.40177   -1.000
 5726.00    1.41736   1.39404   -1.000
 5727.00    1.41133   1.38832   -1.000
 5728.00    1.41773   1.38778   -1.000
 5729.00    1.42203   1.38998   -1.000
 5730.00    1.42173   1.39068   -1.000
 5731.00    1.41613   1.38983   -1.000
 5732.00    1.41938   1.39093   -1.000
 5733.00    1.42699   1.39609   -1.000
 5734.00    1.43127   1.40246   -1.000
 5735.00    1.43035   1.40555   -1.000
 5736.00    1.42912   1.40498   -1.000
 5737.00    1.42783   1.40320   -1.000
 5738.00    1.42594   1.40194   -1.000
 5739.00    1.42561   1.40145   -1.000
 5740.00    1.42572   1.40103   -1.000
 5741.00    1.42296   1.39987   -1.000
 5742.00    1.42158   1.39874   -1.000
 5743.00    1.42112   1.39964   -1.000
 5744.00    1.42541   1.40301   -1.000
 5745.00    1.43151   1.40577   -1.000
 5746.00    1.42904   1.40431   -1.000
 5747.00    1.42292   1.39948   -1.000
 5748.00    1.41933   1.39679   -1.000
 5749.00    1.42051   1.39875   -1.000
 5750.00    1.42584   1.40085   -1.000
 5751.00    1.42341   1.39660   -1.000
 5752.00    1.40781   1.38522   -1.000
 5753.00    1.39436   1.37403   -1.000
 5754.00    1.39345   1.37200   -1.000
 5755.00    1.40653   1.38139   -1.000
 5756.00    1.42556   1.39594   -1.000
 5757.00    1.43586   1.40759   -1.000
 5758.00    1.43713   1.41161   -1.000
 5759.00    1.43245   1.40750   -1.000
 5760.00    1.42241   1.39762   -1.000
 5761.00    1.41140   1.38668   -1.000
 5762.00    1.40422   1.38055   -1.000
 5763.00    1.40674   1.38405   -1.000
 5764.00    1.41780   1.39632   -1.000
 5765.00    1.43021   1.40965   -1.000
 5766.00    1.43718   1.41732   -1.000
 5767.00    1.43979   1.41910   -1.000
 5768.00    1.44034   1.41806   -1.000
 5769.00    1.43677   1.41599   -1.000
 5770.00    1.43289   1.41326   -1.000
 5771.00    1.42818   1.40986   -1.000
 5772.00    1.42649   1.40588   -1.000
 5773.00    1.42144   1.40186   -1.000
 5774.00    1.41759   1.39872   -1.000
 5775.00    1.41745   1.39776   -1.000
 5776.00    1.40906   1.39895   -1.000
 5777.00    1.39688   1.39928  317.469
 5778.00    1.38420   1.39480   -1.000
 5779.00    1.37010   1.38424   -1.000
 5780.00    1.37269   1.37064  325.668
 5781.00    1.37882   1.35916   -1.000
 5782.00    1.38425   1.35371   -1.000
 5783.00    1.39157   1.35383   -1.000
 5784.00    1.39406   1.35633   -1.000
 5785.00    1.39797   1.36028   -1.000
 5786.00    1.40682   1.36771   -1.000
 5787.00    1.41630   1.37774   -1.000
 5788.00    1.42522   1.38624   -1.000
 5789.00    1.42580   1.39004   -1.000
 5790.00    1.42293   1.38967   -1.000
 5791.00    1.42107   1.38897   -1.000
 5792.00    1.42362   1.39210   -1.000
 5793.00    1.42509   1.39929   -1.000
 5794.00    1.42388   1.40687   -1.000
 5795.00    1.42430   1.41059   -1.000
 5796.00    1.42455   1.40851   -1.000
 5797.00    1.42249   1.40358   -1.000
 5798.00    1.42663   1.40206   -1.000
 5799.00    1.44101   1.40712   -1.000
 5800.00    1.45408   1.41542   -1.000
 5801.00    1.45749   1.42122   -1.000
 5802.00    1.45374   1.42118   -1.000
 5803.00    1.44630   1.41565   -1.000
 5804.00    1.43646   1.40852   -1.000
 5805.00    1.43287   1.40426   -1.000
 5806.00    1.43477   1.40469   -1.000
 5807.00    1.43584   1.40816   -1.000
 5808.00    1.43801   1.41198   -1.000
 5809.00    1.44141   1.41498   -1.000
 5810.00    1.44904   1.41763   -1.000
 5811.00    1.45722   1.41978   -1.000
 5812.00    1.45766   1.42015   -1.000
 5813.00    1.45315   1.41748   -1.000
 5814.00    1.44758   1.41211   -1.000
 5815.00    1.44388   1.40641   -1.000
 5816.00    1.44160   1.40455   -1.000
 5817.00    1.44443   1.40886   -1.000
 5818.00    1.45305   1.41674   -1.000
 5819.00    1.46012   1.42336   -1.000
 5820.00    1.46402   1.42647   -1.000
 5821.00    1.46430   1.42691   -1.000
 5822.00    1.46266   1.42611   -1.000
 5823.00    1.46153   1.42505   -1.000
 5824.00    1.45950   1.42424   -1.000
 5825.00    1.46054   1.42417   -1.000
 5826.00    1.46308   1.42504   -1.000
 5827.00    1.46420   1.42677   -1.000
 5828.00    1.46585   1.42900   -1.000
 5829.00    1.46564   1.43066   -1.000
 5830.00    1.47055   1.43066   -1.000
 5831.00    1.46892   1.42917   -1.000
 5832.00    1.46719   1.42681   -1.000
 5833.00    1.46495   1.42383   -1.000
 5834.00    1.46440   1.42084   -1.000
 5835.00    1.45877   1.41965   -1.000
 5836.00    1.45932   1.42065   -1.000
 5837.00    1.45917   1.42236   -1.000
 5838.00    1.46276   1.42421   -1.000
 5839.00    1.46311   1.42697   -1.000
 5840.00    1.46476   1.43020   -1.000
 5841.00    1.46615   1.43219   -1.000
 5842.00    1.46858   1.43159   -1.000
 5843.00    1.46608   1.42850   -1.000
 5844.00    1.46613   1.42392   -1.000
 5845.00    1.46612   1.41890   -1.000
 5846.00    1.45749   1.41416   -1.000
 5847.00    1.44822   1.41096   -1.000
 5848.00    1.44760   1.41026   -1.000
 5849.00    1.44905   1.41090   -1.000
 5850.00    1.44980   1.40942   -1.000
 5851.00    1.44612   1.40307   -1.000
 5852.00    1.43453   1.39329   -1.000
 5853.00    1.42601   1.38522   -1.000
 5854.00    1.42404   1.38170   -1.000
 5855.00    1.42212   1.37892   -1.000
 5856.00    1.41745   1.37175   -1.000
 5857.00    1.40962   1.36291   -1.000
 5858.00    1.40822   1.36066   -1.000
 5859.00    1.42048   1.36848   -1.000
 5860.00    1.43307   1.38068   -1.000
 5861.00    1.43911   1.39039   -1.000
 5862.00    1.44324   1.39583   -1.000
 5863.00    1.44644   1.39878   -1.000
 5864.00    1.44842   1.39968   -1.000
 5865.00    1.44545   1.39767   -1.000
 5866.00    1.43762   1.39412   -1.000
 5867.00    1.43515   1.39360   -1.000
 5868.00    1.44212   1.39857   -1.000
 5869.00    1.45283   1.40626   -1.000
 5870.00    1.45850   1.41187   -1.000
 5871.00    1.45815   1.41315   -1.000
 5872.00    1.45666   1.41131   -1.000
 5873.00    1.45711   1.40871   -1.000
 5874.00    1.45628   1.40653   -1.000
 5875.00    1.45703   1.40470   -1.000
 5876.00    1.45246   1.40272   -1.000
 5877.00    1.44586   1.39951   -1.000
 5878.00    1.44092   1.39432   -1.000
 5879.00    1.43223   1.38821   -1.000
 5880.00    1.42617   1.38345   -1.000
 5881.00    1.42690   1.38109   -1.000
 5882.00    1.42635   1.37947   -1.000
 5883.00    1.42226   1.37654   -1.000
 5884.00    1.41530   1.37276   -1.000
 5885.00    1.40187   1.36819   -1.000
 5886.00    1.37776   1.35589   -1.000
 5887.00    1.32054   1.32411  378.703
 5888.00    1.25143   1.27035   -1.000
 5889.00    1.21370   1.21606  365.934
 5890.00    1.23147   1.19307   -1.000
 5891.00    1.27486   1.21188   -1.000
 5892.00    1.30748   1.24805   -1.000
 5893.00    1.29934   1.26773   -1.000
 5894.00    1.26697   1.25805   -1.000
 5895.00    1.24809   1.23505   -1.000
 5896.00    1.26942   1.22849   -1.000
 5897.00    1.31459   1.25128   -1.000
 5898.00    1.36216   1.28908   -1.000
 5899.00    1.38977   1.32185   -1.000
 5900.00    1.40863   1.34416   -1.000
 5901.00    1.42604   1.35919   -1.000
 5902.00    1.43346   1.36910   -1.000
 5903.00    1.43382   1.37469   -1.000
 5904.00    1.43403   1.37727   -1.000
 5905.00    1.42539   1.37867   -1.000
 5906.00    1.42307   1.38045   -1.000
 5907.00    1.42805   1.38321   -1.000
 5908.00    1.43096   1.38617   -1.000
 5909.00    1.42927   1.38850   -1.000
 5910.00    1.43027   1.38958   -1.000
 5911.00    1.43268   1.38812   -1.000
 5912.00    1.42596   1.38245   -1.000
 5913.00    1.41427   1.37302   -1.000
 5914.00    1.40292   1.36381   -1.000
 5915.00    1.39314   1.35961   -1.000
 5916.00    1.39090   1.36156   -1.000
 5917.00    1.39708   1.36756   -1.000
 5918.00    1.40845   1.37465   -1.000
 5919.00    1.41862   1.38048   -1.000
 5920.00    1.41896   1.38368   -1.000
 5921.00    1.41384   1.38453   -1.000
 5922.00    1.41268   1.38460   -1.000
 5923.00    1.42307   1.38586   -1.000
 5924.00    1.43884   1.38900   -1.000
 5925.00    1.44193   1.39264   -1.000
 5926.00    1.43792   1.39454   -1.000
 5927.00    1.43504   1.39283   -1.000
 5928.00    1.43049   1.38741   -1.000
 5929.00    1.42517   1.38141   -1.000
 5930.00    1.42168   1.37972   -1.000
 5931.00    1.42640   1.38329   -1.000
 5932.00    1.43406   1.38748   -1.000
 5933.00    1.43318   1.38752   -1.000
 5934.00    1.42787   1.38421   -1.000
 5935.00    1.42540   1.38252   -1.000
 5936.00    1.42494   1.38539   -1.000
 5937.00    1.42607   1.39031   -1.000
 5938.00    1.41794   1.39258   -1.000
 5939.00    1.40931   1.38985   -1.000
 5940.00    1.40753   1.38388   -1.000
 5941.00    1.40469   1.37842   -1.000
 5942.00    1.40909   1.37677   -1.000
 5943.00    1.41103   1.37959   -1.000
 5944.00    1.41486   1.38464   -1.000
 5945.00    1.42036   1.38838   -1.000
 5946.00    1.42406   1.38809   -1.000
 5947.00    1.41783   1.38375   -1.000
 5948.00    1.40974   1.37913   -1.000
 5949.00    1.41351   1.37870   -1.000
 5950.00    1.42135   1.38167   -1.000
 5951.00    1.42667   1.38355   -1.000
 5952.00    1.42289   1.38276   -1.000
 5953.00    1.41505   1.38184   -1.000
 5954.00    1.41153   1.38190   -1.000
 5955.00    1.40837   1.38124   -1.000
 5956.00    1.40853   1.37925   -1.000
 5957.00    1.41171   1.37878   -1.000
 5958.00    1.42276   1.38255   -1.000
 5959.00    1.43367   1.38956   -1.000
 5960.00    1.44220   1.39651   -1.000
 5961.00    1.44495   1.40102   -1.000
 5962.00    1.44421   1.40248   -1.000
 5963.00    1.43889   1.40110   -1.000
 5964.00    1.42743   1.39767   -1.000
 5965.00    1.42002   1.39389   -1.000
 5966.00    1.41774   1.39224   -1.000
 5967.00    1.42548   1.39370   -1.000
 5968.00    1.43732   1.39681   -1.000
 5969.00    1.44206   1.39995   -1.000
 5970.00    1.44361   1.40256   -1.000
 5971.00    1.44537   1.40413   -1.000
 5972.00    1.44107   1.40392   -1.000
 5973.00    1.43585   1.40152   -1.000
 5974.00    1.42956   1.39641   -1.000
 5975.00    1.41854   1.38895   -1.000
 5976.00    1.41357   1.38207   -1.000
 5977.00    1.41643   1.37933   -1.000
 5978.00    1.42161   1.38210   -1.000
 5979.00    1.42855   1.38834   -1.000
 5980.00    1.43307   1.39392   -1.000
 5981.00    1.43316   1.39445   -1.000
 5982.00    1.42493   1.38848   -1.000
 5983.00    1.41320   1.37930   -1.000
 5984.00    1.40505   1.37303   -1.000
 5985.00    1.40447   1.37360   -1.000
 5986.00    1.41505   1.37936   -1.000
 5987.00    1.42232   1.38615   -1.000
 5988.00    1.42393   1.39120   -1.000
 5989.00    1.42858   1.39348   -1.000
 5990.00    1.42899   1.39310   -1.000
 5991.00    1.42680   1.39280   -1.000
 5992.00    1.43000   1.39604   -1.000
 5993.00    1.43484   1.40204   -1.000
 5994.00    1.44108   1.40610   -1.000
 5995.00    1.44084   1.40483   -1.000
 5996.00    1.43644   1.39955   -1.000
 5997.00    1.43391   1.39447   -1.000
 5998.00    1.43078   1.39300   -1.000
 5999.00    1.42928   1.39485   -1.000
 6000.00    1.43196   1.39661   -1.000
 6001.00    1.43089   1.39568   -1.000
 6002.00    1.42569   1.39250   -1.000
 6003.00    1.42272   1.39001   -1.000
 6004.00    1.42083   1.38924   -1.000
 6005.00    1.41932   1.38728   -1.000
 6006.00    1.41096   1.38151   -1.000
 6007.00    1.40208   1.37464   -1.000
 6008.00    1.40082   1.37294   -1.000
 6009.00    1.40595   1.37918   -1.000
 6010.00    1.41634   1.38793   -1.000
 6011.00    1.42496   1.39183   -1.000
 6012.00    1.42398   1.39002   -1.000
 6013.00    1.41959   1.38717   -1.000
 6014.00    1.41923   1.38653   -1.000
 6015.00    1.42242   1.38704   -1.000
 6016.00    1.42185   1.38681   -1.000
 6017.00    1.42070   1.38567   -1.000
 6018.00    1.42148   1.38350   -1.000
 6019.00    1.41369   1.37976   -1.000
 6020.00    1.40772   1.37604   -1.000
 6021.00    1.40804   1.37491   -1.000
 6022.00    1.40829   1.37675   -1.000
 6023.00    1.41147   1.38043   -1.000
 6024.00    1.41518   1.38548   -1.000
 6025.00    1.42056   1.39133   -1.000
 6026.00    1.42676   1.39639   -1.000
 6027.00    1.43010   1.40012   -1.000
 6028.00    1.43506   1.40348   -1.000
 6029.00    1.43772   1.40652   -1.000
 6030.00    1.44031   1.40871   -1.000
 6031.00    1.44224   1.41045   -1.000
 6032.00    1.44237   1.41239   -1.000
 6033.00    1.44279   1.41445   -1.000
 6034.00    1.44424   1.41638   -1.000
 6035.00    1.44235   1.41777   -1.000
 6036.00    1.44141   1.41761   -1.000
 6037.00    1.44345   1.41533   -1.000
 6038.00    1.44075   1.41134   -1.000
 6039.00    1.43433   1.40697   -1.000
 6040.00    1.43343   1.40407   -1.000
 6041.00    1.43562   1.40324   -1.000
 6042.00    1.43606   1.40375   -1.000
 6043.00    1.43781   1.40623   -1.000
 6044.00    1.44179   1.41109   -1.000
 6045.00    1.44400   1.41625   -1.000
 6046.00    1.44448   1.41955   -1.000
 6047.00    1.44420   1.42114   -1.000
 6048.00    1.44539   1.42141   -1.000
 6049.00    1.44532   1.42046   -1.000
 6050.00    1.44573   1.41867   -1.000
 6051.00    1.44558   1.41627   -1.000
 6052.00    1.44172   1.41325   -1.000
 6053.00    1.44098   1.40969   -1.000
 6054.00    1.43881   1.40574   -1.000
 6055.00    1.43137   1.40207   -1.000
 6056.00    1.42793   1.40021   -1.000
 6057.00    1.43125   1.40108   -1.000
 6058.00    1.43539   1.40395   -1.000
 6059.00    1.43779   1.40718   -1.000
 6060.00    1.44014   1.40880   -1.000
 6061.00    1.44430   1.40685   -1.000
 6062.00    1.43168   1.40000   -1.000
 6063.00    1.41619   1.38937   -1.000
 6064.00    1.27709   1.37957   -1.000
 6065.00    0.80889   1.37682   -1.000
 6066.00    0.80115   1.38386   -1.000
 6067.00    1.39570   1.39692  311.253
 6068.00    1.43842   1.40892   -1.000
 6069.00    1.44271   1.41617   -1.000
 6070.00    1.44556   1.41952   -1.000
 6071.00    1.44207   1.42075   -1.000
 6072.00    1.44723   1.42029   -1.000
 6073.00    1.44592   1.41950   -1.000
 6074.00    1.44446   1.41903   -1.000
 6075.00    1.43988   1.41700   -1.000
 6076.00    1.43280   1.41171   -1.000
 6077.00    1.42970   1.40475   -1.000
 6078.00    1.42629   1.39934   -1.000
 6079.00    1.42240   1.39684   -1.000
 6080.00    1.41951   1.39562   -1.000
 6081.00    1.41744   1.39375   -1.000
 6082.00    1.41635   1.39168   -1.000
 6083.00    1.41433   1.39068   -1.000
 6084.00    1.41521   1.39100   -1.000
 6085.00    1.41352   1.39254   -1.000
 6086.00    1.41649   1.39530   -1.000
 6087.00    1.42387   1.39822   -1.000
 6088.00    1.42422   1.39903   -1.000
 6089.00    1.41908   1.39657   -1.000
 6090.00    1.41194   1.39270   -1.000
 6091.00    1.41074   1.39067   -1.000
 6092.00    1.41689   1.39209   -1.000
 6093.00    1.42492   1.39630   -1.000
 6094.00    1.43129   1.40142   -1.000
 6095.00    1.43045   1.40550   -1.000
 6096.00    1.43021   1.40800   -1.000
 6097.00    1.42944   1.40973   -1.000
 6098.00    1.42609   1.41049   -1.000
 6099.00    1.42348   1.40719   -1.000
 6100.00    1.41394   1.39598   -1.000
 6101.00    1.39560   1.37761   -1.000
 6102.00    1.37720   1.36171   -1.000
 6103.00    1.37619   1.35894   -1.000
 6104.00    1.39374   1.36987   -1.000
 6105.00    1.41171   1.38484   -1.000
 6106.00    1.42042   1.39558   -1.000
 6107.00    1.41812   1.40121   -1.000
 6108.00    1.41209   1.40481  319.259
 6109.00    1.41289   1.40747  318.310
 6110.00    1.41838   1.40831   -1.000
 6111.00    1.42012   1.40758   -1.000
 6112.00    1.41958   1.40737   -1.000
 6113.00    1.42182   1.40858   -1.000
 6114.00    1.42309   1.40971   -1.000
 6115.00    1.42286   1.40947   -1.000
 6116.00    1.41799   1.40862   -1.000
 6117.00    1.41613   1.40680   -1.000
 6118.00    1.41244   1.40038   -1.000
 6119.00    1.40102   1.38763   -1.000
 6120.00    1.38639   1.37150   -1.000
 6121.00    1.37395   1.35801   -1.000
 6122.00    1.36998   1.35447   -1.000
 6123.00    1.38016   1.36338   -1.000
 6124.00    1.39538   1.37769   -1.000
 6125.00    1.40051   1.38804   -1.000
 6126.00    1.40145   1.39122   -1.000
 6127.00    1.40217   1.38950   -1.000
 6128.00    1.40125   1.38788   -1.000
 6129.00    1.40464   1.39144   -1.000
 6130.00    1.41245   1.39997   -1.000
 6131.00    1.41692   1.40809  325.022
 6132.00    1.41528   1.41076  333.661
 6133.00    1.40605   1.40457  343.164
 6134.00    1.38972   1.38669  348.615
 6135.00    1.36363   1.35913  345.047
 6136.00    1.33155   1.33433  335.181
 6137.00    1.31993   1.32691  327.995
 6138.00    1.33726   1.33874  326.538
 6139.00    1.36546   1.35579   -1.000
 6140.00    1.38122   1.36455   -1.000
 6141.00    1.38076   1.36657   -1.000
 6142.00    1.38079   1.37179  319.932
 6143.00    1.38979   1.38306  320.538
 6144.00    1.40316   1.39420  322.379
 6145.00    1.40976   1.39937   -1.000
 6146.00    1.40621   1.39803  326.774
 6147.00    1.40044   1.39290  327.878
 6148.00    1.39580   1.38716  327.242
 6149.00    1.39115   1.38348  325.508
 6150.00    1.38902   1.38349  323.902
 6151.00    1.39203   1.38669  324.963
 6152.00    1.39779   1.39050  327.552
 6153.00    1.40185   1.39150   -1.000
 6154.00    1.40147   1.38867   -1.000
 6155.00    1.39489   1.38445   -1.000
 6156.00    1.39157   1.38162   -1.000
 6157.00    1.38865   1.37983   -1.000
 6158.00    1.38194   1.37507  355.122
 6159.00    1.36999   1.36144   -1.000
 6160.00    1.34777   1.33732   -1.000
 6161.00    1.31802   1.31126  353.772
 6162.00    1.29996   1.29749  345.478
 6163.00    1.30582   1.30263  342.183
 6164.00    1.32598   1.32027  341.960
 6165.00    1.34409   1.33816  344.497
 6166.00    1.35352   1.34798  348.901
 6167.00    1.34985   1.34746  349.757
 6168.00    1.33808   1.33973  344.888
 6169.00    1.32812   1.33290  338.666
 6170.00    1.33097   1.33527  336.246
 6171.00    1.34561   1.34682  336.973
 6172.00    1.35855   1.35985  336.709
 6173.00    1.36345   1.36860  335.868
 6174.00    1.36711   1.37332  335.147
 6175.00    1.37053   1.37599  333.891
 6176.00    1.37089   1.37780  332.357
 6177.00    1.37329   1.37975  331.266
 6178.00    1.37740   1.38191  330.008
 6179.00    1.37923   1.38362  328.717
 6180.00    1.38053   1.38558  328.588
 6181.00    1.38184   1.38870  329.589
 6182.00    1.38571   1.39187  331.402
 6183.00    1.38958   1.39325  334.609
 6184.00    1.39059   1.39203  338.269
 6185.00    1.38564   1.38801  341.614
 6186.00    1.37898   1.38175  344.511
 6187.00    1.37182   1.37460  347.798
 6188.00    1.36303   1.36613  351.590
 6189.00    1.35172   1.35469  350.923
 6190.00    1.33785   1.34252  344.389
 6191.00    1.32850   1.33729  336.725
 6192.00    1.33310   1.34442   -1.000
 6193.00    1.35371   1.36031  331.909
 6194.00    1.37649   1.37592  332.661
 6195.00    1.38616   1.38566  335.812
 6196.00    1.38489   1.38903  339.352
 6197.00    1.37981   1.38659  340.650
 6198.00    1.36953   1.37967   -1.000
 6199.00    1.35687   1.37328   -1.000
 6200.00    1.34935   1.37294   -1.000
 6201.00    1.35383   1.37900   -1.000
 6202.00    1.36558   1.38709   -1.000
 6203.00    1.37616   1.39323   -1.000
 6204.00    1.38301   1.39653   -1.000
 6205.00    1.38581   1.39827   -1.000
 6206.00    1.38832   1.39968   -1.000
 6207.00    1.39289   1.40053  335.306
 6208.00    1.39007   1.39975   -1.000
 6209.00    1.38658   1.39669   -1.000
 6210.00    1.38187   1.39100  345.431
 6211.00    1.37247   1.38190   -1.000
 6212.00    1.35923   1.36954   -1.000
 6213.00    1.34565   1.35732   -1.000
 6214.00    1.34010   1.35017   -1.000
 6215.00    1.34460   1.34974  347.318
 6216.00    1.35079   1.35259  348.583
 6217.00    1.35341   1.35381  346.279
 6218.00    1.35255   1.35153  345.740
 6219.00    1.34699   1.34864  358.420
 6220.00    1.34547   1.34943  370.206
 6221.00    1.35492   1.35454  351.857
 6222.00    1.36570   1.36062  342.436
 6223.00    1.36883   1.36483  343.439
 6224.00    1.36804   1.36730  344.283
 6225.00    1.36716   1.36886  347.640
 6226.00    1.36647   1.36838  353.084
 6227.00    1.36406   1.36285  358.420
 6228.00    1.35380   1.35036  360.144
 6229.00    1.33702   1.33385  356.445
 6230.00    1.32270   1.32142  350.336
 6231.00    1.32179   1.32039  344.013
 6232.00    1.33355   1.33129  340.304
 6233.00    1.34981   1.34804  340.786
 6234.00    1.36500   1.36285  343.893
 6235.00    1.37258   1.37002  347.448
 6236.00    1.37153   1.36828  351.050
 6237.00    1.36543   1.36066  353.797
 6238.00    1.35645   1.35199  354.337
 6239.00    1.34687   1.34585  355.317
 6240.00    1.34098   1.34308  358.078
 6241.00    1.33625   1.34133  359.208
 6242.00    1.33004   1.33757  357.834
 6243.00    1.32621   1.33167  354.830
 6244.00    1.32523   1.32631  350.765
 6245.00    1.32678   1.32476  346.585
 6246.00    1.33197   1.32954  344.517
 6247.00    1.34177   1.34016  346.023
 6248.00    1.35124   1.35169  350.949
 6249.00    1.35537   1.35756  356.734
 6250.00    1.35067   1.35382  360.019
 6251.00    1.33658   1.34209  361.694
 6252.00    1.32034   1.32908   -1.000
 6253.00    1.31026   1.32106   -1.000
 6254.00    1.31006   1.31881   -1.000
 6255.00    1.31281   1.31860  368.018
 6256.00    1.31054   1.31740  364.238
 6257.00    1.30532   1.31654   -1.000
 6258.00    1.30825   1.31984   -1.000
 6259.00    1.31803   1.32892   -1.000
 6260.00    1.32848   1.34118   -1.000
 6261.00    1.34039   1.35280   -1.000
 6262.00    1.35033   1.36093   -1.000
 6263.00    1.35517   1.36406  348.442
 6264.00    1.35136   1.36326   -1.000
 6265.00    1.34385   1.36243   -1.000
 6266.00    1.34484   1.36419   -1.000
 6267.00    1.34980   1.36661   -1.000
 6268.00    1.35071   1.36652   -1.000
 6269.00    1.34883   1.36413   -1.000
 6270.00    1.34976   1.36232   -1.000
 6271.00    1.34608   1.36239   -1.000
 6272.00    1.33962   1.36230   -1.000
 6273.00    1.32652   1.35889   -1.000
 6274.00    1.30317   1.35102   -1.000
 6275.00    1.28443   1.34029   -1.000
 6276.00    1.27707   1.32905   -1.000
 6277.00    1.27601   1.31929   -1.000
 6278.00    1.27861   1.31208   -1.000
 6279.00    1.27609   1.30858   -1.000
 6280.00    1.26960   1.31061   -1.000
 6281.00    1.26918   1.31913   -1.000
 6282.00    1.27997   1.33220   -1.000
 6283.00    1.30060   1.34597   -1.000
 6284.00    1.32005   1.35714   -1.000
 6285.00    1.33359   1.36481   -1.000
 6286.00    1.34060   1.36977   -1.000
 6287.00    1.34509   1.37229   -1.000
 6288.00    1.34818   1.37138   -1.000
 6289.00    1.34841   1.36701   -1.000
 6290.00    1.34669   1.36132   -1.000
 6291.00    1.34292   1.35705   -1.000
 6292.00    1.34264   1.35519   -1.000
 6293.00    1.34964   1.35438  355.706
 6294.00    1.35956   1.35207  357.162
 6295.00    1.37642   1.34684   -1.000
 6296.00    1.40095   1.34029   -1.000
 6297.00    1.43110   1.33564   -1.000
 6298.00    1.44458   1.33420   -1.000
 6299.00    1.42189   1.33362   -1.000
 6300.00    1.37073   1.33155   -1.000
 6301.00    1.33332   1.33001  354.853
 6302.00    1.32679   1.33316  349.685
 6303.00    1.33264   1.34150  346.113
 6304.00    1.34348   1.35155  343.142
 6305.00    1.35313   1.36020  341.190
 6306.00    1.35905   1.36680  341.787
 6307.00    1.36138   1.37113   -1.000
 6308.00    1.36351   1.37268  345.720
 6309.00    1.36220   1.37171   -1.000
 6310.00    1.35517   1.36939   -1.000
 6311.00    1.35107   1.36656   -1.000
 6312.00    1.34442   1.36293   -1.000
 6313.00    1.33929   1.35783   -1.000
 6314.00    1.33371   1.35180   -1.000
 6315.00    1.32717   1.34653   -1.000
 6316.00    1.32400   1.34265   -1.000
 6317.00    1.32515   1.34037   -1.000
 6318.00    1.32937   1.34181   -1.000
 6319.00    1.33467   1.34835   -1.000
 6320.00    1.34269   1.35717   -1.000
 6321.00    1.34849   1.36458   -1.000
 6322.00    1.35091   1.37042   -1.000
 6323.00    1.35557   1.37621   -1.000
 6324.00    1.36191   1.38159   -1.000
 6325.00    1.36813   1.38479   -1.000
 6326.00    1.36934   1.38529   -1.000
 6327.00    1.36957   1.38435   -1.000
 6328.00    1.36934   1.38334   -1.000
 6329.00    1.36785   1.38298   -1.000
 6330.00    1.36574   1.38391   -1.000
 6331.00    1.36688   1.38569   -1.000
 6332.00    1.36585   1.38532   -1.000
 6333.00    1.35699   1.37923   -1.000
 6334.00    1.34450   1.36789   -1.000
 6335.00    1.33612   1.35723   -1.000
 6336.00    1.33296   1.35369   -1.000
 6337.00    1.33652   1.35834   -1.000
 6338.00    1.34806   1.36734   -1.000
 6339.00    1.35937   1.37638   -1.000
 6340.00    1.36587   1.38249   -1.000
 6341.00    1.36719   1.38396   -1.000
 6342.00    1.36454   1.38109   -1.000
 6343.00    1.36267   1.37680   -1.000
 6344.00    1.35999   1.37463   -1.000
 6345.00    1.35990   1.37595   -1.000
 6346.00    1.36425   1.38003   -1.000
 6347.00    1.37135   1.38581   -1.000
 6348.00    1.37705   1.39225   -1.000
 6349.00    1.37765   1.39767   -1.000
 6350.00    1.37711   1.40034   -1.000
 6351.00    1.37283   1.39943   -1.000
 6352.00    1.36806   1.39509   -1.000
 6353.00    1.36357   1.38858   -1.000
 6354.00    1.35502   1.38235   -1.000
 6355.00    1.34963   1.37823   -1.000
 6356.00    1.34938   1.37516   -1.000
 6357.00    1.35032   1.37088   -1.000
 6358.00    1.35008   1.36572   -1.000
 6359.00    1.35172   1.36183   -1.000
 6360.00    1.36153   1.35954  342.143
 6361.00    1.37037   1.35793   -1.000
 6362.00    1.37166   1.35763   -1.000
 6363.00    1.36385   1.36015  336.120
 6364.00    1.35480   1.36552   -1.000
 6365.00    1.35136   1.37224   -1.000
 6366.00    1.35352   1.37866   -1.000
 6367.00    1.35924   1.38337   -1.000
 6368.00    1.36260   1.38515   -1.000
 6369.00    1.36349   1.38430   -1.000
 6370.00    1.36208   1.38330   -1.000
 6371.00    1.36061   1.38474   -1.000
 6372.00    1.36169   1.38890   -1.000
 6373.00    1.36153   1.39348   -1.000
 6374.00    1.35975   1.39598   -1.000
 6375.00    1.35531   1.39574   -1.000
 6376.00    1.35111   1.39357   -1.000
 6377.00    1.34850   1.39042   -1.000
 6378.00    1.34451   1.38708   -1.000
 6379.00    1.34022   1.38421   -1.000
 6380.00    1.33610   1.38236   -1.000
 6381.00    1.33545   1.38187   -1.000
 6382.00    1.33811   1.38244   -1.000
 6383.00    1.33813   1.38350   -1.000
 6384.00    1.33347   1.38496   -1.000
 6385.00    1.32699   1.38713   -1.000
 6386.00    1.32351   1.38954   -1.000
 6387.00    1.32164   1.39112   -1.000
 6388.00    1.31461   1.39116   -1.000
 6389.00    1.30615   1.38900   -1.000
 6390.00    1.30022   1.38322   -1.000
 6391.00    1.28878   1.37327   -1.000
 6392.00    1.27482   1.36269   -1.000
 6393.00    1.26617   1.35831   -1.000
 6394.00    1.26325   1.36374   -1.000
 6395.00    1.26701   1.37461   -1.000
 6396.00    1.27194   1.38206   -1.000
 6397.00    1.26591   1.37983   -1.000
 6398.00    1.24862   1.36897   -1.000
 6399.00    1.22933   1.35791   -1.000
 6400.00    1.21815   1.35640   -1.000
 6401.00    1.22279   1.36661   -1.000
 6402.00    1.23504   1.38166   -1.000
 6403.00    1.24261   1.39294   -1.000
 6404.00    1.24296   1.39627   -1.000
 6405.00    1.23608   1.39211   -1.000
 6406.00    1.22176   1.38407   -1.000
 6407.00    1.20623   1.37716   -1.000
 6408.00    1.19705   1.37462   -1.000
 6409.00    1.19102   1.37529   -1.000
 6410.00    1.18295   1.37584   -1.000
 6411.00    1.17298   1.37569   -1.000
 6412.00    1.16683   1.37666   -1.000
 6413.00    1.16558   1.37892   -1.000
 6414.00    1.16332   1.38097   -1.000
 6415.00    1.15753   1.38233   -1.000
 6416.00    1.14924   1.38282   -1.000
 6417.00    1.13853   1.38079   -1.000
 6418.00    1.12504   1.37477   -1.000
 6419.00    1.10828   1.36663   -1.000
 6420.00    1.09138   1.36182   -1.000
 6421.00    1.07956   1.36516   -1.000
 6422.00    1.07565   1.37586   -1.000
 6423.00    1.07739   1.38821   -1.000
 6424.00    1.07805   1.39738   -1.000
 6425.00    1.07261   1.40255   -1.000
 6426.00    1.06284   1.40419   -1.000
 6427.00    1.05072   1.40104   -1.000
 6428.00    0.56619   1.39169   -1.000
