###################################################################
## OUTPUT of StarlightChains_v04.for    [Cid@UFSC - 01/Apr/2007] ##
###################################################################

## Some input info
NGC3201_b_1.cxt                          [arq_obs]
Base.BC03.S                              [arq_base]
NGC3201_b_1.msk                          [arq_masks]
StCv04.C11.config                        [arq_config]
  150                                    [N_base]
    0                                    [N_YAV_components = # of components with extra extinction!]
    0                                    [i_FitPowerLaw (1/0 = Yes/No)]
-9.99                                    [alpha_PowerLaw]
CCM                                      [red_law_option]
 1.458241                                [q_norm = A(l_norm)/A(V)]

## (Re)Sampling Parameters
 3359.00                                 [l_ini (A)]
 6428.00                                 [l_fin (A)]
    1.00                                 [dl    (A)]     (OBS: dl_cushion =    50.00 A)

## Normalization info
 4020.00                                 [l_norm (A) - for base]
 4010.00                                 [llow_norm (A) - window for f_obs]
 4060.00                                 [lupp_norm (A) - window for f_obs]
1.147975E-14                             [fobs_norm (in input units)]

## S/N
 4730.00                                 [llow_SN (A) - window for S/N]
 4780.00                                 [lupp_SN (A) - window for S/N]
  72.514                                 [S/N in S/N window]
  57.541                                 [S/N in norm. window]
  54.776                                 [S/N_err in S/N window]
  43.465                                 [S/N_err in norm. window]
  1.0000                                 [fscale_chi2]

## etc...
  2147483639                             [idum_orig]
  3058                                   [NOl_eff]
  1180                                   [Nl_eff]
  1878    NSIGMA                         [Ntot_cliped & clip_method]
  1404900                                [Nglobal_steps]
   7                                     [N_chains]
  20                                     [NEX0s_base = N_base in EX0s-fits]
 0   0   1      371   2.0   8.117E+02    [Clip-Bug, RC-Crash & Burn-In warning-flags, n_censored_weights, wei_nsig_threshold & wei_limit]
    55     54.481     54.449      0.032  [idt_all, wdt_TotTime, wdt_UsrTime & wdt_SysTime (sec)]

## Synthesis Results - Best model ##

 1.39833E+00                             [chi2/Nl_eff]
     1.41804                             [adev (%)]

   103.71308                             [sum-of-x (%)]
 4.25902E-14                             [Flux_tot (units of input spectrum!)]
 5.06878E-10                             [Mini_tot (???)]
 2.60455E-10                             [Mcor_tot (???)]

 -19.69                                  [v0_min  (km/s)]
  83.13                                  [vd_min  (km/s)]
 0.9490                                  [AV_min  (mag)]
 0.0000                                  [YAV_min (mag)]

# j     x_j(%)      Mini_j(%)     Mcor_j(%)     age_j(yr)     Z_j      (L/M)_j    YAV?  Mstars   component_j        a/Fe...       SSP_chi2r SSP_adev(%)   SSP_AV   SSP_x(%)
  1      0.0000     0.0000E+00    0.0000E+00    1.000000E+06  0.00010  8.160E-03    0   1.0000   age020_m22            0.0000     6.3878E+02    19.4863   4.0000    73.8215
  2     36.7593     6.2578E-02    1.2179E-01    3.160000E+06  0.00010  4.759E-02    0   1.0000   age045_m22            0.0000     3.2997E+01     3.9923   2.2884    97.9065
  3      0.0000     0.0000E+00    0.0000E+00    5.010000E+06  0.00010  1.932E-02    0   0.9582   age055_m22            0.0000     2.7198E+02     8.4655   3.1220    83.4645
  4      0.0000     0.0000E+00    0.0000E+00    6.610000E+06  0.00010  9.973E-03    0   0.9297   age061_m22            0.0000     5.2275E+02    18.6085   4.0000    76.7706
  5      0.0000     0.0000E+00    0.0000E+00    8.710000E+06  0.00010  7.690E-03    0   0.9030   age067_m22            0.0000     4.9415E+02    18.0203   4.0000    77.3558
  6      0.0000     0.0000E+00    0.0000E+00    1.000000E+07  0.00010  6.375E-03    0   0.8902   age070_m22            0.0000     4.8283E+02    17.7965   4.0000    77.6184
  7      0.0000     0.0000E+00    0.0000E+00    1.445000E+07  0.00010  4.874E-03    0   0.8589   age078_m22            0.0000     2.9970E+02    13.0889   4.0000    81.6430
  8      0.0000     0.0000E+00    0.0000E+00    2.512000E+07  0.00010  4.103E-03    0   0.8174   age090_m22            0.0000     1.1759E+02     6.3324   3.8123    89.7633
  9      0.0000     1.0968E-07    1.6713E-07    4.000000E+07  0.00010  3.654E-03    0   0.7830   age104_m22            0.0000     1.8127E+02     7.5285   3.2089    94.2050
 10      0.0000     0.0000E+00    0.0000E+00    5.500000E+07  0.00010  3.093E-03    0   0.7597   age110_m22            0.0000     2.2804E+02     8.3077   2.9786    96.1181
 11      0.0000     0.0000E+00    0.0000E+00    1.015200E+08  0.00010  2.431E-03    0   0.7138   age116_m22            0.0000     3.4896E+02    10.2299   2.4369    99.2528
 12      0.0000     0.0000E+00    0.0000E+00    1.609000E+08  0.00010  1.319E-03    0   0.6775   age120_m22            0.0000     3.3730E+02     9.7757   1.9106   102.9869
 13      0.0000     0.0000E+00    0.0000E+00    2.861200E+08  0.00010  1.075E-03    0   0.6412   age125_m22            0.0000     8.3620E+02    17.2337   1.2610   108.4270
 14      0.0000     0.0000E+00    0.0000E+00    5.088000E+08  0.00010  7.183E-04    0   0.6083   age130_m22            0.0000     9.6521E+02    19.6190   0.7422   111.9857
 15      0.0000     0.0000E+00    0.0000E+00    9.047900E+08  0.00010  4.524E-04    0   0.5785   age135_m22            0.0000     9.4963E+02    20.0424   0.4815   113.9724
 16      0.0000     0.0000E+00    0.0000E+00    1.278050E+09  0.00010  3.018E-04    0   0.5588   age138_m22            0.0000     4.3154E+02    13.1316   0.5499   111.6068
 17      0.0000     0.0000E+00    0.0000E+00    1.434000E+09  0.00010  2.691E-04    0   0.5532   age139_m22            0.0000     3.4077E+02    11.7361   0.4932   111.0189
 18      0.0000     0.0000E+00    0.0000E+00    2.500000E+09  0.00010  1.582E-04    0   0.5296   age150_m22            0.0000     3.0380E+02    11.1207   0.4827   111.0405
 19      0.0000     0.0000E+00    0.0000E+00    4.250000E+09  0.00010  1.007E-04    0   0.5110   age158_m22            0.0000     1.5396E+02     8.0143   0.5570   109.0007
 20      0.0000     0.0000E+00    0.0000E+00    6.250000E+09  0.00010  6.869E-05    0   0.4985   age166_m22            0.0000     5.8036E+01     5.0463   0.7015   105.7392
 21      0.0000     0.0000E+00    0.0000E+00    7.500000E+09  0.00010  5.873E-05    0   0.4931   age171_m22            0.0000     5.1055E+01     4.6634   0.7354   104.8178
 22      0.0000     0.0000E+00    0.0000E+00    1.000000E+10  0.00010  4.481E-05    0   0.4854   age181_m22            0.0000     4.8034E+01     4.5132   0.6998   104.4800
 23      0.0000     0.0000E+00    0.0000E+00    1.300000E+10  0.00010  3.489E-05    0   0.4791   age193_m22            0.0000     3.9493E+01     4.1119   0.6535   104.0475
 24      0.7430     1.9834E+00    1.8396E+00    1.500000E+10  0.00010  3.035E-05    0   0.4766   age201_m22            0.0000     3.4971E+01     3.8741   0.6247   103.8773
 25      1.0958     3.5369E+00    3.2592E+00    1.800000E+10  0.00010  2.510E-05    0   0.4735   age213_m22            0.0000     2.5142E+01     3.3192   0.5857   103.2689
 26      0.0000     0.0000E+00    0.0000E+00    1.000000E+06  0.00040  8.458E-03    0   1.0000   age020_m32            0.0000     6.1560E+02    19.5006   4.0000    74.5064
 27      0.0000     0.0000E+00    0.0000E+00    3.160000E+06  0.00040  3.973E-02    0   1.0000   age045_m32            0.0000     1.0663E+02     6.5428   3.7561    89.5508
 28      0.0000     0.0000E+00    0.0000E+00    5.010000E+06  0.00040  1.935E-02    0   0.9532   age055_m32            0.0000     2.4034E+02    10.7225   4.0000    82.4391
 29      0.0000     0.0000E+00    0.0000E+00    6.610000E+06  0.00040  1.204E-02    0   0.9243   age061_m32            0.0000     3.7389E+02    15.2929   4.0000    79.4983
 30      0.0000     0.0000E+00    0.0000E+00    8.710000E+06  0.00040  9.433E-03    0   0.9001   age067_m32            0.0000     3.2215E+02    14.1482   4.0000    80.6670
 31      0.0000     0.0000E+00    0.0000E+00    1.000000E+07  0.00040  8.053E-03    0   0.8877   age070_m32            0.0000     2.9769E+02    13.3462   4.0000    81.3400
 32      0.0000     0.0000E+00    0.0000E+00    1.445000E+07  0.00040  7.027E-03    0   0.8578   age078_m32            0.0000     1.2885E+02     7.2449   3.7812    87.8557
 33      0.0000     0.0000E+00    0.0000E+00    2.512000E+07  0.00040  4.707E-03    0   0.8166   age090_m32            0.0000     1.1194E+02     6.4551   3.3064    92.1003
 34      0.0000     0.0000E+00    0.0000E+00    4.000000E+07  0.00040  3.714E-03    0   0.7827   age104_m32            0.0000     1.5935E+02     7.1512   2.8818    95.6223
 35      0.0000     0.0000E+00    0.0000E+00    5.500000E+07  0.00040  2.982E-03    0   0.7593   age110_m32            0.0000     2.0258E+02     7.8733   2.7132    97.0316
 36      0.0000     0.0000E+00    0.0000E+00    1.015200E+08  0.00040  2.188E-03    0   0.7143   age116_m32            0.0000     4.8659E+02    12.1133   1.9801   102.5820
 37      1.9219     9.2136E-02    1.2293E-01    1.609000E+08  0.00040  1.690E-03    0   0.6856   age120_m32            0.0000     7.1825E+02    15.4346   1.4612   106.0557
 38      0.0000     0.0000E+00    0.0000E+00    2.861200E+08  0.00040  1.152E-03    0   0.6509   age125_m32            0.0000     8.5568E+02    17.9832   0.9126   110.5960
 39      0.0000     0.0000E+00    0.0000E+00    5.088000E+08  0.00040  7.331E-04    0   0.6182   age130_m32            0.0000     8.9186E+02    19.0233   0.5961   112.4845
 40      0.0000     0.0000E+00    0.0000E+00    9.047900E+08  0.00040  3.960E-04    0   0.5890   age135_m32            0.0000     4.2186E+02    13.1290   0.5879   111.6664
 41      0.0000     0.0000E+00    0.0000E+00    1.278050E+09  0.00040  2.854E-04    0   0.5687   age138_m32            0.0000     3.4816E+02    11.9486   0.4680   112.5779
 42      0.0000     0.0000E+00    0.0000E+00    1.434000E+09  0.00040  2.531E-04    0   0.5632   age139_m32            0.0000     3.4014E+02    11.8399   0.4180   112.4673
 43      4.2938     2.3378E+00    2.4505E+00    2.500000E+09  0.00040  1.488E-04    0   0.5386   age150_m32            0.0000     2.1507E+02     9.5429   0.2998   110.8194
 44     17.5313     1.5639E+01    1.5823E+01    4.250000E+09  0.00040  9.082E-05    0   0.5199   age158_m32            0.0000     4.8787E+01     4.8715   0.5242   106.8258
 45      0.0000     0.0000E+00    0.0000E+00    6.250000E+09  0.00040  6.362E-05    0   0.5076   age166_m32            0.0000     9.9286E+00     2.0042   0.7190   102.4864
 46      3.1899     4.8863E+00    4.7803E+00    7.500000E+09  0.00040  5.289E-05    0   0.5027   age171_m32            0.0000     1.1705E+01     1.7755   0.7116   101.2646
 47      0.0541     1.1031E-01    1.0622E-01    1.000000E+10  0.00040  3.972E-05    0   0.4948   age181_m32            0.0000     1.7017E+01     1.8314   0.6540   100.0997
 48      0.3713     9.1635E-01    8.6848E-01    1.300000E+10  0.00040  3.283E-05    0   0.4870   age193_m32            0.0000     1.1127E+01     2.3780   0.4928   103.2913
 49      0.0000     0.0000E+00    0.0000E+00    1.500000E+10  0.00040  2.925E-05    0   0.4854   age201_m32            0.0000     2.0808E+01     3.3120   0.4009   105.1315
 50      0.0000     0.0000E+00    0.0000E+00    1.800000E+10  0.00040  2.469E-05    0   0.4819   age213_m32            0.0000     2.6855E+01     3.6875   0.3286   105.8225
 51      0.0000     0.0000E+00    0.0000E+00    1.000000E+06  0.00400  1.114E-02    0   1.0000   age020_m42            0.0000     5.7044E+02    17.9562   4.0000    75.3883
 52      0.0000     0.0000E+00    0.0000E+00    3.160000E+06  0.00400  4.073E-02    0   0.9999   age045_m42            0.0000     6.7030E+01     5.1053   3.3518    93.0413
 53      0.0000     0.0000E+00    0.0000E+00    5.010000E+06  0.00400  2.534E-02    0   0.9488   age055_m42            0.0000     1.5851E+02     7.4753   3.9941    85.9319
 54      0.0000     0.0000E+00    0.0000E+00    6.610000E+06  0.00400  2.583E-02    0   0.9220   age061_m42            0.0000     9.6399E+01     5.9272   3.0613    93.3533
 55      0.0000     0.0000E+00    0.0000E+00    8.710000E+06  0.00400  1.706E-02    0   0.8983   age067_m42            0.0000     9.0604E+01     6.3042   3.0613    90.8057
 56      0.0000     0.0000E+00    0.0000E+00    1.000000E+07  0.00400  1.271E-02    0   0.8862   age070_m42            0.0000     1.1695E+02     7.1740   3.1508    88.7824
 57      0.0000     0.0000E+00    0.0000E+00    1.445000E+07  0.00400  7.666E-03    0   0.8571   age078_m42            0.0000     1.9134E+02     8.1040   3.6423    85.9068
 58      0.0000     0.0000E+00    0.0000E+00    2.512000E+07  0.00400  5.070E-03    0   0.8174   age090_m42            0.0000     1.0856E+02     6.3980   2.9763    90.9820
 59      0.0000     0.0000E+00    0.0000E+00    4.000000E+07  0.00400  3.505E-03    0   0.7851   age104_m42            0.0000     8.2668E+01     4.7673   2.5306    95.1115
 60      0.0000     0.0000E+00    0.0000E+00    5.500000E+07  0.00400  3.059E-03    0   0.7629   age110_m42            0.0000     1.8153E+02     6.5957   2.1907   100.5952
 61      1.9438     6.9434E-02    9.7386E-02    1.015200E+08  0.00400  2.268E-03    0   0.7207   age116_m42            0.0000     6.1521E+02    13.9505   1.4420   107.0936
 62      0.0000     0.0000E+00    0.0000E+00    1.609000E+08  0.00400  1.720E-03    0   0.6930   age120_m42            0.0000     6.3531E+02    14.8073   1.1724   110.1201
 63      0.0000     0.0000E+00    0.0000E+00    2.861200E+08  0.00400  1.079E-03    0   0.6613   age125_m42            0.0000     6.0441E+02    14.7309   0.7898   112.4634
 64      0.0000     0.0000E+00    0.0000E+00    5.088000E+08  0.00400  6.261E-04    0   0.6313   age130_m42            0.0000     6.9459E+02    16.8273   0.4387   115.8361
 65      0.0000     0.0000E+00    0.0000E+00    9.047900E+08  0.00400  3.535E-04    0   0.6024   age135_m42            0.0000     3.5796E+02    12.2535   0.3675   116.6356
 66      0.0000     0.0000E+00    0.0000E+00    1.278050E+09  0.00400  2.677E-04    0   0.5837   age138_m42            0.0000     7.5989E+01     6.5401  -0.0301   116.6205
 67      0.0000     0.0000E+00    0.0000E+00    1.434000E+09  0.00400  1.910E-04    0   0.5716   age139_m42            0.0000     1.0178E+02     7.8240   0.0000   116.6199
 68      9.4983     7.8378E+00    8.3329E+00    2.500000E+09  0.00400  9.818E-05    0   0.5463   age150_m42            0.0000     4.7553E+01     5.1625   0.1014   112.1581
 69      0.0000     0.0000E+00    0.0000E+00    4.250000E+09  0.00400  5.491E-05    0   0.5269   age158_m42            0.0000     1.0359E+02     5.9228   0.1056   108.9523
 70     13.6648     2.8703E+01    2.8773E+01    6.250000E+09  0.00400  3.857E-05    0   0.5151   age166_m42            0.0000     1.6712E+02     7.0090  -0.0068   108.1071
 71      7.9102     1.9761E+01    1.9652E+01    7.500000E+09  0.00400  3.243E-05    0   0.5110   age171_m42            0.0000     2.1236E+02     7.7053  -0.0876   107.9566
 72      3.6448     1.2182E+01    1.1920E+01    1.000000E+10  0.00400  2.424E-05    0   0.5028   age181_m42            0.0000     2.8958E+02     8.6763  -0.1635   107.8592
 73      0.3511     1.5104E+00    1.4483E+00    1.300000E+10  0.00400  1.883E-05    0   0.4927   age193_m42            0.0000     3.6303E+02     9.4052  -0.1897   107.8596
 74      0.0000     0.0000E+00    0.0000E+00    1.500000E+10  0.00400  1.685E-05    0   0.4919   age201_m42            0.0000     3.4304E+02     9.2082  -0.1803   107.7244
 75      0.0259     1.4453E-01    1.3709E-01    1.800000E+10  0.00400  1.452E-05    0   0.4874   age213_m42            0.0000     3.0630E+02     8.8117  -0.1604   107.7237
 76      0.0000     0.0000E+00    0.0000E+00    1.000000E+06  0.00800  1.286E-02    0   1.0000   age020_m52            0.0000     4.7052E+02    16.4716   4.0000    77.6053
 77      0.0000     0.0000E+00    0.0000E+00    3.160000E+06  0.00800  3.147E-02    0   0.9966   age045_m52            0.0000     3.8508E+02    15.0032   4.0000    79.3639
 78      0.0000     0.0000E+00    0.0000E+00    5.010000E+06  0.00800  2.664E-02    0   0.9443   age055_m52            0.0000     2.0586E+02     8.9489   4.0000    84.4286
 79      0.0000     0.0000E+00    0.0000E+00    6.610000E+06  0.00800  2.151E-02    0   0.9177   age061_m52            0.0000     1.0841E+02     5.7942   2.7392    92.2474
 80      0.0000     0.0000E+00    0.0000E+00    8.710000E+06  0.00800  1.628E-02    0   0.8948   age067_m52            0.0000     1.0414E+02     6.2911   3.0576    91.4570
 81      0.0000     0.0000E+00    0.0000E+00    1.000000E+07  0.00800  1.215E-02    0   0.8827   age070_m52            0.0000     1.3344E+02     7.1779   3.4487    89.1972
 82      0.0000     0.0000E+00    0.0000E+00    1.445000E+07  0.00800  8.739E-03    0   0.8552   age078_m52            0.0000     1.2706E+02     6.9975   3.4080    90.4421
 83      0.0000     0.0000E+00    0.0000E+00    2.512000E+07  0.00800  5.676E-03    0   0.8162   age090_m52            0.0000     1.6878E+02     7.5830   2.7909    95.0042
 84      0.0000     0.0000E+00    0.0000E+00    4.000000E+07  0.00800  3.939E-03    0   0.7841   age104_m52            0.0000     2.2624E+02     7.8104   2.4515    98.4006
 85      0.0000     0.0000E+00    0.0000E+00    5.500000E+07  0.00800  3.155E-03    0   0.7627   age110_m52            0.0000     2.9983E+02     8.9087   2.2505   100.9359
 86      0.0000     0.0000E+00    0.0000E+00    1.015200E+08  0.00800  2.206E-03    0   0.7226   age116_m52            0.0000     4.6312E+02    11.8223   1.7028   106.6555
 87      0.4774     2.4234E-02    3.2839E-02    1.609000E+08  0.00800  1.596E-03    0   0.6963   age120_m52            0.0000     5.3317E+02    13.2971   1.3200   109.7216
 88      0.0000     0.0000E+00    0.0000E+00    2.861200E+08  0.00800  1.002E-03    0   0.6665   age125_m52            0.0000     7.2094E+02    16.8809   0.5959   115.8109
 89      0.0000     0.0000E+00    0.0000E+00    5.088000E+08  0.00800  5.759E-04    0   0.6377   age130_m52            0.0000     6.3412E+02    17.3049   0.0959   123.2822
 90      0.0000     0.0000E+00    0.0000E+00    9.047900E+08  0.00800  2.972E-04    0   0.6086   age135_m52            0.0000     1.7564E+02    10.9410  -0.0119   124.6685
 91      0.0000     0.0000E+00    0.0000E+00    1.278050E+09  0.00800  2.242E-04    0   0.5907   age138_m52            0.0000     7.7093E+01     7.3563  -0.2480   122.1747
 92      0.0000     0.0000E+00    0.0000E+00    1.434000E+09  0.00800  1.645E-04    0   0.5787   age139_m52            0.0000     5.9910E+01     6.5327  -0.0421   120.4001
 93      0.0000     0.0000E+00    0.0000E+00    2.500000E+09  0.00800  7.723E-05    0   0.5519   age150_m52            0.0000     1.3861E+02     6.9013  -0.1905   116.3677
 94      0.0000     0.0000E+00    0.0000E+00    4.250000E+09  0.00800  4.151E-05    0   0.5320   age158_m52            0.0000     1.9403E+02     7.5024  -0.1854   113.5503
 95      0.0000     0.0000E+00    0.0000E+00    6.250000E+09  0.00800  3.010E-05    0   0.5197   age166_m52            0.0000     3.3045E+02     9.0530  -0.3676   112.9908
 96      0.0000     0.0000E+00    0.0000E+00    7.500000E+09  0.00800  2.467E-05    0   0.5139   age171_m52            0.0000     3.6819E+02     9.4166  -0.4157   112.8274
 97      0.0000     0.0000E+00    0.0000E+00    1.000000E+10  0.00800  1.862E-05    0   0.5054   age181_m52            0.0000     4.8310E+02    10.4999  -0.5743   113.3340
 98      0.0000     0.0000E+00    0.0000E+00    1.300000E+10  0.00800  1.433E-05    0   0.4988   age193_m52            0.0000     6.4381E+02    11.5961  -0.6831   114.7999
 99      0.0000     0.0000E+00    0.0000E+00    1.500000E+10  0.00800  1.244E-05    0   0.4936   age201_m52            0.0000     7.1459E+02    12.0088  -0.7144   115.5612
100      0.0000     0.0000E+00    0.0000E+00    1.800000E+10  0.00800  1.070E-05    0   0.4888   age213_m52            0.0000     7.5520E+02    12.2946  -0.7570   115.6306
101      0.0000     0.0000E+00    0.0000E+00    1.000000E+06  0.02000  1.989E-02    0   1.0000   age020_m62            0.0000     5.3534E+02    17.0126   4.0000    76.6184
102      0.0000     0.0000E+00    0.0000E+00    3.160000E+06  0.02000  3.772E-02    0   0.9858   age045_m62            0.0000     3.9503E+02    14.5307   4.0000    79.2124
103      0.0000     0.0000E+00    0.0000E+00    5.010000E+06  0.02000  3.227E-02    0   0.9342   age055_m62            0.0000     1.2261E+02     6.9088   3.6985    88.6948
104      0.0000     0.0000E+00    0.0000E+00    6.610000E+06  0.02000  2.387E-02    0   0.9090   age061_m62            0.0000     1.4925E+02     8.1183   3.5765    87.2863
105      0.0000     0.0000E+00    0.0000E+00    8.710000E+06  0.02000  1.102E-02    0   0.8861   age067_m62            0.0000     3.7882E+02    12.5180   3.4664    81.1671
106      0.0000     0.0000E+00    0.0000E+00    1.000000E+07  0.02000  1.011E-02    0   0.8751   age070_m62            0.0000     2.7565E+02    10.2573   3.3947    84.5055
107      0.0000     0.0000E+00    0.0000E+00    1.445000E+07  0.02000  7.331E-03    0   0.8472   age078_m62            0.0000     2.1067E+02     8.6159   3.3267    86.8425
108      0.0000     0.0000E+00    0.0000E+00    2.512000E+07  0.02000  4.206E-03    0   0.8099   age090_m62            0.0000     2.3592E+02     8.7185   3.2384    86.5400
109      0.0000     0.0000E+00    0.0000E+00    4.000000E+07  0.02000  3.373E-03    0   0.7799   age104_m62            0.0000     1.3693E+02     5.8912   2.6260    96.7273
110      0.0000     0.0000E+00    0.0000E+00    5.500000E+07  0.02000  2.747E-03    0   0.7595   age110_m62            0.0000     2.3411E+02     7.3090   2.2898   100.9785
111      0.0000     1.4592E-06    2.0506E-06    1.015200E+08  0.02000  1.878E-03    0   0.7221   age116_m62            0.0000     5.4816E+02    12.7021   1.6489   107.1421
112      0.0000     0.0000E+00    0.0000E+00    1.609000E+08  0.02000  1.378E-03    0   0.6978   age120_m62            0.0000     7.5241E+02    16.0168   1.1478   111.5027
113      0.0000     0.0000E+00    0.0000E+00    2.861200E+08  0.02000  8.869E-04    0   0.6700   age125_m62            0.0000     1.0639E+03    21.2676   0.1768   118.9106
114      0.0000     0.0000E+00    0.0000E+00    5.088000E+08  0.02000  4.834E-04    0   0.6430   age130_m62            0.0000     6.9729E+02    18.5635  -0.1919   125.8828
115      0.0000     0.0000E+00    0.0000E+00    9.047900E+08  0.02000  2.312E-04    0   0.6152   age135_m62            0.0000     1.7677E+02    10.4833  -0.1836   125.7262
116      0.0000     0.0000E+00    0.0000E+00    1.278050E+09  0.02000  1.387E-04    0   0.5927   age138_m62            0.0000     4.7678E+01     6.3930  -0.1681   119.7558
117      0.0000     0.0000E+00    0.0000E+00    1.434000E+09  0.02000  1.168E-04    0   0.5865   age139_m62            0.0000     4.8928E+01     6.0908  -0.1193   117.9153
118      0.0000     0.0000E+00    0.0000E+00    2.500000E+09  0.02000  5.505E-05    0   0.5610   age150_m62            0.0000     1.8303E+02     7.7373  -0.3762   115.7682
119      0.0000     0.0000E+00    0.0000E+00    4.250000E+09  0.02000  3.070E-05    0   0.5407   age158_m62            0.0000     4.1924E+02    10.2475  -0.7268   117.9642
120      0.0000     0.0000E+00    0.0000E+00    6.250000E+09  0.02000  2.104E-05    0   0.5277   age166_m62            0.0000     6.0032E+02    11.5608  -0.8778   119.5552
121      0.0000     0.0000E+00    0.0000E+00    7.500000E+09  0.02000  1.770E-05    0   0.5223   age171_m62            0.0000     6.8142E+02    12.1024  -0.9931   120.6487
122      0.0000     0.0000E+00    0.0000E+00    1.000000E+10  0.02000  1.297E-05    0   0.5121   age181_m62            0.0000     8.8435E+02    16.1467  -1.0000   123.3349
123      0.0000     0.0000E+00    0.0000E+00    1.300000E+10  0.02000  9.691E-06    0   0.5047   age193_m62            0.0000     1.0434E+03    18.7055  -1.0000   125.0228
124      0.0000     0.0000E+00    0.0000E+00    1.500000E+10  0.02000  8.360E-06    0   0.4999   age201_m62            0.0000     1.1773E+03    21.0552  -1.0000   126.4482
125      0.0000     0.0000E+00    0.0000E+00    1.800000E+10  0.02000  6.911E-06    0   0.4946   age213_m62            0.0000     1.3443E+03    23.9303  -1.0000   128.1913
126      0.0000     0.0000E+00    0.0000E+00    1.000000E+06  0.05000  2.651E-02    0   0.9998   age020_m72            0.0000     4.9679E+02    16.3537   4.0000    77.7288
127      0.0000     0.0000E+00    0.0000E+00    3.160000E+06  0.05000  4.817E-02    0   0.9577   age045_m72            0.0000     2.2775E+02    10.5359   4.0000    83.4144
128      0.0000     0.0000E+00    0.0000E+00    5.010000E+06  0.05000  3.101E-02    0   0.9147   age055_m72            0.0000     1.7152E+02     8.5719   3.8747    86.6541
129      0.0000     0.0000E+00    0.0000E+00    6.610000E+06  0.05000  1.472E-02    0   0.8877   age061_m72            0.0000     3.1993E+02    11.4876   3.6031    83.4211
130      0.0000     0.0000E+00    0.0000E+00    8.710000E+06  0.05000  1.050E-02    0   0.8638   age067_m72            0.0000     2.6261E+02     9.7435   3.9114    85.0837
131      0.0000     0.0000E+00    0.0000E+00    1.000000E+07  0.05000  8.954E-03    0   0.8524   age070_m72            0.0000     2.3081E+02     8.8872   4.0000    85.8069
132      0.0000     0.0000E+00    0.0000E+00    1.445000E+07  0.05000  6.392E-03    0   0.8262   age078_m72            0.0000     2.0002E+02     8.0237   4.0000    87.5575
133      0.0000     0.0000E+00    0.0000E+00    2.512000E+07  0.05000  4.207E-03    0   0.7902   age090_m72            0.0000     1.2992E+02     5.9286   3.4487    92.7121
134      0.0000     0.0000E+00    0.0000E+00    4.000000E+07  0.05000  3.198E-03    0   0.7618   age104_m72            0.0000     3.0944E+02     8.6106   2.3341   102.5317
135      0.0000     0.0000E+00    0.0000E+00    5.500000E+07  0.05000  2.593E-03    0   0.7432   age110_m72            0.0000     4.2814E+02    10.7676   2.0746   104.5061
136      0.0000     0.0000E+00    0.0000E+00    1.015200E+08  0.05000  1.716E-03    0   0.7092   age116_m72            0.0000     6.5236E+02    14.2560   1.5941   107.7610
137      0.0000     0.0000E+00    0.0000E+00    1.609000E+08  0.05000  1.218E-03    0   0.6876   age120_m72            0.0000     8.7616E+02    17.6218   0.9541   112.2751
138      0.0000     0.0000E+00    0.0000E+00    2.861200E+08  0.05000  7.047E-04    0   0.6618   age125_m72            0.0000     9.5017E+02    20.2933  -0.0314   120.2436
139      0.0000     0.0000E+00    0.0000E+00    5.088000E+08  0.05000  3.590E-04    0   0.6356   age130_m72            0.0000     5.0953E+02    15.8837  -0.4214   127.2043
140      0.0000     0.0000E+00    0.0000E+00    9.047900E+08  0.05000  1.484E-04    0   0.6088   age135_m72            0.0000     7.2905E+01     7.9008  -0.4095   121.2425
141      0.2363     2.0291E-01    2.3394E-01    1.278050E+09  0.05000  9.435E-05    0   0.5924   age138_m72            0.0000     1.8464E+02     8.7350  -0.6896   119.1011
142      0.0000     0.0000E+00    0.0000E+00    1.434000E+09  0.05000  7.827E-05    0   0.5847   age139_m72            0.0000     2.2011E+02     8.8895  -0.6149   118.1472
143      0.0000     0.0000E+00    0.0000E+00    2.500000E+09  0.05000  3.759E-05    0   0.5583   age150_m72            0.0000     5.3342E+02    11.3750  -0.8897   118.9091
144      0.0000     0.0000E+00    0.0000E+00    4.250000E+09  0.05000  1.842E-05    0   0.5374   age158_m72            0.0000     8.1352E+02    17.0180  -1.0000   121.2812
145      0.0000     0.0000E+00    0.0000E+00    6.250000E+09  0.05000  1.207E-05    0   0.5242   age166_m72            0.0000     1.1118E+03    24.4949  -1.0000   123.9046
146      0.0000     0.0000E+00    0.0000E+00    7.500000E+09  0.05000  9.993E-06    0   0.5183   age171_m72            0.0000     1.1460E+03    25.8253  -1.0000   124.2924
147      0.0000     0.0000E+00    0.0000E+00    1.000000E+10  0.05000  7.291E-06    0   0.5081   age181_m72            0.0000     1.3432E+03    30.7589  -1.0000   126.2083
148      0.0000     0.0000E+00    0.0000E+00    1.300000E+10  0.05000  5.316E-06    0   0.5018   age193_m72            0.0000     1.7076E+03    38.2542  -1.0000   128.8282
149      0.0000     0.0000E+00    0.0000E+00    1.500000E+10  0.05000  4.497E-06    0   0.4972   age201_m72            0.0000     1.8965E+03    41.6453  -1.0000   130.4153
150      0.0000     0.0000E+00    0.0000E+00    1.800000E+10  0.05000  3.739E-06    0   0.4924   age213_m72            0.0000     2.1858E+03    46.1277  -1.0000   132.0013


## Synthesis Results - Average & Chains ##

# j      x_j: min, <> & last-chain-values for 1 ...  7 chains
  1      0.0000      0.0130      0.0000      0.0000      0.0000      0.0000      0.0000      0.0000      0.0000
  2     36.7593     34.2989     35.9444     35.5981     35.4442     35.4835     35.5817     35.8173     35.5320
  3      0.0000      0.0164      0.0000      0.0000      0.0000      0.0000      0.0000      0.0000      0.0129
  4      0.0000      0.0029      0.0000      0.0000      0.0000      0.0000      0.0000      0.0000      0.0000
  5      0.0000      0.0031      0.0000      0.0000      0.0000      0.0000      0.0778      0.0000      0.0312
  6      0.0000      0.0035      0.0000      0.0000      0.0000      0.0000      0.0000      0.0000      0.0000
  7      0.0000      0.0079      0.0000      0.0000      0.0000      0.0000      0.0000      0.0000      0.0000
  8      0.0000      0.0191      0.0000      0.0000      0.0000      0.0000      0.0100      0.0000      0.0000
  9      0.0000      0.1765      0.2516      0.0000      0.3342      0.4426      0.0000      0.0000      0.1234
 10      0.0000      0.1397      0.0000      0.1229      0.1786      0.0000      0.0000      0.0000      0.0510
 11      0.0000      0.2469      0.0000      0.1252      0.0908      0.1066      0.2191      0.9802      0.0000
 12      0.0000      0.0589      0.1350      0.0000      0.0000      0.0000      0.0000      0.0000      0.0000
 13      0.0000      0.0280      0.0000      0.0000      0.0238      0.0000      0.0000      0.0000      0.0101
 14      0.0000      0.0146      0.0000      0.0000      0.2521      0.0000      0.0000      0.0065      0.0000
 15      0.0000      0.0109      0.0005      0.0000      0.0000      0.0094      0.1260      0.0000      0.0481
 16      0.0000      0.0095      0.0000      0.0172      0.0000      0.0000      0.0000      0.0000      0.0000
 17      0.0000      0.0186      0.0000      0.0000      0.0000      0.0000      0.0000      0.0000      0.0000
 18      0.0000      0.0260      0.0653      0.0000      0.0000      0.0000      0.0000      0.0751      0.0880
 19      0.0000      0.0450      0.0036      0.0517      0.0344      0.0000      0.0000      0.0000      0.0000
 20      0.0000      0.1133      0.0000      0.0529      0.0906      0.0000      0.2562      0.0000      0.0266
 21      0.0000      0.0891      0.0000      0.1334      0.0168      0.0000      0.0000      0.9373      0.0430
 22      0.0000      0.0711      0.0000      0.0000      0.0255      0.0280      0.0000      0.0000      0.0000
 23      0.0000      0.1081      0.5345      0.2665      0.0000      0.0119      0.0877      0.0000      0.0000
 24      0.7430      0.1748      0.0667      0.2106      0.0928      0.3688      0.0000      0.0459      0.0000
 25      1.0958      0.2345      0.5989      0.0000      0.3757      1.3701      0.5492      0.3767      0.0000
 26      0.0000      0.0027      0.0000      0.0000      0.0000      0.0540      0.0000      0.0000      0.0000
 27      0.0000      0.0225      0.0000      0.0173      0.0000      0.0000      0.0000      0.0794      0.0000
 28      0.0000      0.0100      0.0000      0.0000      0.0000      0.0000      0.0000      0.0000      0.0000
 29      0.0000      0.0052      0.0000      0.0000      0.0000      0.0000      0.0000      0.0000      0.0000
 30      0.0000      0.0051      0.0000      0.0000      0.0000      0.0000      0.0000      0.0000      0.0000
 31      0.0000      0.0054      0.0000      0.0000      0.0000      0.0000      0.0000      0.0000      0.0000
 32      0.0000      0.0253      0.0000      0.0000      0.0000      0.0000      0.0000      0.0000      0.0000
 33      0.0000      0.0179      0.0081      0.0000      0.0000      0.0000      0.0000      0.0000      0.0000
 34      0.0000      0.0631      0.0416      0.1885      0.0000      0.1660      0.1067      0.0000      0.2418
 35      0.0000      0.0716      0.0000      0.0066      0.1403      0.0000      0.0000      0.0000      0.0000
 36      0.0000      0.1698      0.0144      0.4391      0.0517      0.0000      0.2020      0.1386      0.0000
 37      1.9219      0.1269      0.0000      0.0098      0.7527      0.5202      0.0000      0.0000      0.2852
 38      0.0000      0.0329      0.0000      0.0454      0.0000      0.0000      0.1134      0.0000      0.0000
 39      0.0000      0.0137      0.0000      0.0000      0.0000      0.0000      0.0255      0.0000      0.0000
 40      0.0000      0.0096      0.0000      0.0000      0.0000      0.0000      0.0000      0.0000      0.0000
 41      0.0000      0.0311      0.0000      0.0000      0.0000      0.0000      0.0000      0.0000      0.0000
 42      0.0000      0.0353      0.0000      0.0000      0.0000      0.0000      0.1866      0.0000      0.0000
 43      4.2938      9.0127      8.0512      7.8655      8.8705      7.7622      8.4502      8.4950      8.5601
 44     17.5313     18.3402     18.9376     18.2831     18.6932     18.4015     15.2435     17.8817     18.0551
 45      0.0000      0.5545      0.5682      0.8255      0.5790      0.0446      1.8948      0.9769      0.0000
 46      3.1899      0.4879      0.0000      0.8960      0.0000      0.3336      1.8732      0.4179      0.3089
 47      0.0541      0.3427      0.3330      0.5165      0.3602      0.4211      0.2229      0.0000      0.8206
 48      0.3713      0.3131      0.0000      0.0000      0.4927      0.4662      0.1980      0.3009      0.3799
 49      0.0000      0.2198      0.0000      0.5095      0.0000      0.0000      0.0000      0.5371      0.0771
 50      0.0000      0.2353      0.1224      0.1370      0.0000      0.0000      0.0313      0.0000      0.7668
 51      0.0000      0.0037      0.0000      0.0000      0.0000      0.0000      0.0000      0.0000      0.0000
 52      0.0000      0.0538      0.1230      0.0000      0.0000      0.0095      0.0407      0.0000      0.1577
 53      0.0000      0.0155      0.0000      0.0000      0.0000      0.0000      0.0000      0.0171      0.0000
 54      0.0000      0.0798      0.0000      0.0000      0.0243      0.0000      0.0000      0.2076      0.0455
 55      0.0000      0.0594      0.0000      0.0601      0.0000      0.0328      0.0000      0.0000      0.2101
 56      0.0000      0.0329      0.0000      0.0656      0.1556      0.0644      0.0000      0.0000      0.0000
 57      0.0000      0.0074      0.0000      0.0605      0.0000      0.0290      0.0000      0.0000      0.0000
 58      0.0000      0.0329      0.0000      0.0000      0.0000      0.0000      0.1241      0.0348      0.0000
 59      0.0000      0.0421      0.0422      0.0000      0.0157      0.0000      0.0000      0.0000      0.0000
 60      0.0000      0.0530      0.0000      0.0000      0.0000      0.0857      0.0504      0.0000      0.0000
 61      1.9438      0.0833      0.0000      0.3884      0.0047      0.2464      0.4480      0.0000      0.2761
 62      0.0000      0.1033      0.0326      0.0000      0.0357      0.0260      0.2664      0.0000      0.1376
 63      0.0000      0.0136      0.0530      0.0000      0.0000      0.0000      0.0000      0.0000      0.0000
 64      0.0000      0.0162      0.0000      0.0000      0.0000      0.0000      0.0000      0.0000      0.0000
 65      0.0000      0.0381      0.0000      0.0000      0.0000      0.0000      0.0000      0.1811      0.0000
 66      0.0000      0.0389      0.0000      0.0000      0.0000      0.0000      0.2690      0.0000      0.0000
 67      0.0000      0.0614      0.3379      0.3470      0.1890      0.0000      0.0000      0.0000      0.3037
 68      9.4983     12.3291     12.0647     12.5459     12.3558     12.3369     12.5004     12.4642     12.5360
 69      0.0000      0.1294      0.3396      0.0000      0.0000      0.0495      0.0000      0.1113      0.0000
 70     13.6648     12.2839     12.7942     12.3184     12.5205     12.4752     12.6489     12.7699     12.3130
 71      7.9102      5.3761      5.3457      5.7221      5.3929      5.8800      5.2915      5.3780      5.6206
 72      3.6448      2.1437      2.3426      1.0003      2.3180      2.4686      2.6774      1.8669      2.1492
 73      0.3511      0.2530      0.2670      0.3765      0.4569      0.3465      0.0924      0.3532      0.8950
 74      0.0000      0.3060      0.0000      0.4384      0.4318      0.1706      0.5704      0.3771      0.4783
 75      0.0259      0.3319      0.0978      0.2284      0.8276      0.4084      0.4163      0.3036      0.2298
 76      0.0000      0.0036      0.0000      0.0000      0.0000      0.0000      0.0000      0.0000      0.0000
 77      0.0000      0.0037      0.0000      0.0000      0.0000      0.0000      0.0000      0.0000      0.0000
 78      0.0000      0.0118      0.0000      0.0000      0.0000      0.1115      0.0000      0.0000      0.0000
 79      0.0000      0.0192      0.0000      0.0000      0.1979      0.0000      0.2070      0.0000      0.0000
 80      0.0000      0.0413      0.0000      0.0000      0.0614      0.0000      0.0000      0.0000      0.0000
 81      0.0000      0.0131      0.0000      0.0000      0.0000      0.0000      0.0000      0.0280      0.0000
 82      0.0000      0.0340      0.0000      0.1741      0.0000      0.0000      0.0000      0.0000      0.0495
 83      0.0000      0.1031      0.1076      0.1781      0.0000      0.0609      0.0000      0.0000      0.0000
 84      0.0000      0.0758      0.1661      0.1714      0.0476      0.0000      0.0047      0.0000      0.0000
 85      0.0000      0.0517      0.0000      0.0000      0.1345      0.0000      0.0000      0.0000      0.1359
 86      0.0000      0.1542      0.2299      0.0255      0.0000      0.0830      1.0451      0.1736      0.1479
 87      0.4774      0.0450      0.3079      0.0127      0.0000      0.3163      0.0000      0.0000      0.0134
 88      0.0000      0.0084      0.0000      0.0075      0.0000      0.0000      0.0000      0.0000      0.0000
 89      0.0000      0.0100      0.0000      0.0000      0.0000      0.0440      0.0000      0.0000      0.0000
 90      0.0000      0.0144      0.0000      0.0000      0.0000      0.0000      0.0000      0.0000      0.0302
 91      0.0000      0.0169      0.0000      0.0005      0.0000      0.0300      0.0000      0.0000      0.0016
 92      0.0000      0.0249      0.0000      0.0000      0.0000      0.1530      0.0283      0.0000      0.0211
 93      0.0000      0.0689      0.0000      0.1442      0.0000      0.0302      0.0309      0.0000      0.0000
 94      0.0000      0.1003      0.2228      0.0000      0.0000      0.0000      0.0703      0.0599      0.0000
 95      0.0000      0.1282      0.2290      0.0000      0.0000      0.0979      0.0083      0.0000      0.0000
 96      0.0000      0.1049      0.0494      0.6987      0.2558      0.0000      0.0000      0.0000      0.0000
 97      0.0000      0.0645      0.0000      0.0000      0.0000      0.1207      0.0000      0.2674      0.0000
 98      0.0000      0.0479      0.0000      0.0000      0.2070      0.0000      0.0000      0.0000      0.0000
 99      0.0000      0.0630      0.0972      0.1123      0.1697      0.1499      0.0375      0.0000      0.0000
100      0.0000      0.0396      0.0000      0.0000      0.0054      0.0000      0.0000      0.2206      0.1386
101      0.0000      0.0054      0.0000      0.0000      0.0000      0.0000      0.0000      0.0000      0.0000
102      0.0000      0.0052      0.0000      0.0000      0.0000      0.0000      0.0000      0.0000      0.0000
103      0.0000      0.0434      0.2857      0.0000      0.0000      0.0000      0.0000      0.0546      0.0000
104      0.0000      0.0492      0.0000      0.0378      0.0000      0.0000      0.0000      0.0000      0.1987
105      0.0000      0.0156      0.0000      0.0000      0.0000      0.0000      0.0000      0.0000      0.0000
106      0.0000      0.0035      0.0000      0.0000      0.0000      0.0000      0.0000      0.0000      0.0000
107      0.0000      0.0098      0.0245      0.0317      0.0000      0.0000      0.0000      0.0000      0.0547
108      0.0000      0.0051      0.0000      0.0000      0.0000      0.0000      0.0000      0.0000      0.0000
109      0.0000      0.0139      0.0000      0.0000      0.0000      0.0000      0.0000      0.0414      0.0000
110      0.0000      0.0224      0.0000      0.0154      0.0000      0.0000      0.0000      0.0000      0.0000
111      0.0000      0.0202      0.0000      0.0000      0.0000      0.3580      0.0000      0.0652      0.0720
112      0.0000      0.0223      0.0000      0.0249      0.0112      0.0000      0.0000      0.0116      0.0871
113      0.0000      0.0200      0.0000      0.0000      0.0000      0.0000      0.0000      0.0000      0.0000
114      0.0000      0.0062      0.0000      0.0000      0.0000      0.0000      0.0000      0.0597      0.1183
115      0.0000      0.0300      0.3137      0.3535      0.0000      0.0000      0.0000      0.0000      0.0279
116      0.0000      0.0416      0.0000      0.0000      0.0908      0.0000      0.0799      0.1706      0.1410
117      0.0000      0.0438      0.0000      0.2559      0.0000      0.0000      0.0000      0.0000      0.0000
118      0.0000      0.1374      0.3091      0.0000      0.0000      0.0000      0.0000      0.0000      0.0000
119      0.0000      0.0578      0.0000      0.0000      0.0000      0.0356      0.2089      0.0129      0.0000
120      0.0000      0.0498      0.0740      0.0000      0.0000      0.0376      0.0956      0.0000      0.0000
121      0.0000      0.0501      0.1327      0.0000      0.0000      0.0135      0.0000      0.0000      0.0000
122      0.0000      0.0291      0.0000      0.0000      0.0000      0.0000      0.0763      0.0000      0.0183
123      0.0000      0.0227      0.0000      0.1098      0.0000      0.0000      0.0508      0.0000      0.0000
124      0.0000      0.0217      0.0000      0.0000      0.0000      0.0000      0.1395      0.0237      0.0244
125      0.0000      0.0495      0.0000      0.0390      0.0000      0.0000      0.0000      0.3072      0.0000
126      0.0000      0.0176      0.0000      0.0000      0.0000      0.0000      0.0000      0.0000      0.0000
127      0.0000      0.0099      0.0000      0.0000      0.0000      0.0000      0.0061      0.0000      0.0000
128      0.0000      0.0092      0.0000      0.0335      0.0000      0.0000      0.0000      0.0000      0.0000
129      0.0000      0.0041      0.0000      0.0000      0.0000      0.0000      0.0000      0.0000      0.0000
130      0.0000      0.0057      0.0000      0.0000      0.0000      0.0000      0.0000      0.0000      0.0058
131      0.0000      0.0030      0.0000      0.0000      0.0000      0.0000      0.0000      0.0000      0.0000
132      0.0000      0.0046      0.0000      0.0000      0.0000      0.0000      0.0000      0.0000      0.0000
133      0.0000      0.0054      0.0000      0.0000      0.0000      0.0000      0.0000      0.0000      0.0000
134      0.0000      0.0325      0.0000      0.0005      0.0000      0.1441      0.0000      0.0000      0.1868
135      0.0000      0.0384      0.3310      0.0000      0.0000      0.0000      0.0000      0.0000      0.0000
136      0.0000      0.0303      0.0000      0.0000      0.0000      0.0000      0.1080      0.0000      0.0759
137      0.0000      0.0228      0.0000      0.0000      0.0000      0.0000      0.0000      0.0167      0.0000
138      0.0000      0.0113      0.0000      0.0000      0.0000      0.0000      0.0000      0.0000      0.0000
139      0.0000      0.0350      0.0000      0.0000      0.0000      0.0000      0.0000      0.0000      0.0000
140      0.0000      0.0352      0.0000      0.0000      0.0000      0.0198      0.2544      0.0000      0.0728
141      0.2363      1.5681      1.6699      1.5229      1.1474      1.6517      0.5322      1.3518      1.6740
142      0.0000      0.0875      0.1508      0.1892      0.0000      0.0000      0.1090      0.0000      0.0000
143      0.0000      0.0440      0.0000      0.0009      0.0468      0.0000      0.0000      0.0000      0.0000
144      0.0000      0.0446      0.0000      0.0000      0.0000      0.0000      0.0000      0.0000      0.0000
145      0.0000      0.0286      0.0000      0.0000      0.0000      0.0000      0.0000      0.0000      0.0000
146      0.0000      0.0195      0.0271      0.1082      0.0000      0.0000      0.0000      0.0000      0.0000
147      0.0000      0.0585      0.0000      0.0023      0.0557      0.0000      0.0000      0.0000      0.0849
148      0.0000      0.1247      0.0000      0.1032      0.0000      0.0534      0.2257      0.2049      0.0000
149      0.0000      0.0175      0.0000      0.0000      0.0000      0.0000      0.0139      0.0000      0.0000
150      0.0000      0.0605      0.0000      0.0000      0.1366      0.0000      0.0000      0.0000      0.0000

# j      m_j: min, <> & last-chain-values for 1 ...  7 chains
  1  0.0000E+00  2.5111E-04  0.0000E+00  0.0000E+00  0.0000E+00  0.0000E+00  0.0000E+00  0.0000E+00  0.0000E+00
  2  1.2179E-01  1.1359E-01  1.2808E-01  1.2268E-01  1.1665E-01  1.2037E-01  1.1772E-01  1.1742E-01  1.2215E-01
  3  0.0000E+00  1.2826E-04  0.0000E+00  0.0000E+00  0.0000E+00  0.0000E+00  0.0000E+00  0.0000E+00  1.0485E-04
  4  0.0000E+00  4.3288E-05  0.0000E+00  0.0000E+00  0.0000E+00  0.0000E+00  0.0000E+00  0.0000E+00  0.0000E+00
  5  0.0000E+00  5.6514E-05  0.0000E+00  0.0000E+00  0.0000E+00  0.0000E+00  1.4378E-03  0.0000E+00  5.9925E-04
  6  0.0000E+00  7.7625E-05  0.0000E+00  0.0000E+00  0.0000E+00  0.0000E+00  0.0000E+00  0.0000E+00  0.0000E+00
  7  0.0000E+00  2.2006E-04  0.0000E+00  0.0000E+00  0.0000E+00  0.0000E+00  0.0000E+00  0.0000E+00  0.0000E+00
  8  0.0000E+00  5.9831E-04  0.0000E+00  0.0000E+00  0.0000E+00  0.0000E+00  3.1500E-04  0.0000E+00  0.0000E+00
  9  1.6713E-07  5.9606E-03  9.1433E-03  0.0000E+00  1.1215E-02  1.5312E-02  0.0000E+00  0.0000E+00  4.3262E-03
 10  0.0000E+00  5.4077E-03  0.0000E+00  4.9497E-03  6.8704E-03  0.0000E+00  0.0000E+00  0.0000E+00  2.0494E-03
 11  0.0000E+00  1.1424E-02  0.0000E+00  6.0289E-03  4.1744E-03  5.0547E-03  1.0131E-02  4.4901E-02  0.0000E+00
 12  0.0000E+00  4.7674E-03  1.1760E-02  0.0000E+00  0.0000E+00  0.0000E+00  0.0000E+00  0.0000E+00  0.0000E+00
 13  0.0000E+00  2.6368E-03  0.0000E+00  0.0000E+00  2.2196E-03  0.0000E+00  0.0000E+00  0.0000E+00  9.8580E-04
 14  0.0000E+00  1.9475E-03  0.0000E+00  0.0000E+00  3.3439E-02  0.0000E+00  0.0000E+00  8.5455E-04  0.0000E+00
 15  0.0000E+00  2.1891E-03  1.1520E-04  0.0000E+00  0.0000E+00  1.9508E-03  2.5378E-02  0.0000E+00  1.0055E-02
 16  0.0000E+00  2.7789E-03  0.0000E+00  5.2374E-03  0.0000E+00  0.0000E+00  0.0000E+00  0.0000E+00  0.0000E+00
 17  0.0000E+00  6.0341E-03  0.0000E+00  0.0000E+00  0.0000E+00  0.0000E+00  0.0000E+00  0.0000E+00  0.0000E+00
 18  0.0000E+00  1.3708E-02  3.7058E-02  0.0000E+00  0.0000E+00  0.0000E+00  0.0000E+00  3.9216E-02  4.8212E-02
 19  0.0000E+00  3.5986E-02  3.1001E-03  4.3007E-02  2.7347E-02  0.0000E+00  0.0000E+00  0.0000E+00  0.0000E+00
 20  0.0000E+00  1.2959E-01  0.0000E+00  6.2994E-02  1.0297E-01  0.0000E+00  2.9274E-01  0.0000E+00  3.1550E-02
 21  0.0000E+00  1.1785E-01  0.0000E+00  1.8370E-01  2.2115E-02  0.0000E+00  0.0000E+00  1.2278E+00  5.9098E-02
 22  0.0000E+00  1.2138E-01  0.0000E+00  0.0000E+00  4.3245E-02  4.9018E-02  0.0000E+00  0.0000E+00  0.0000E+00
 23  0.0000E+00  2.3403E-01  1.2446E+00  6.0031E-01  0.0000E+00  2.6411E-02  1.8963E-01  0.0000E+00  0.0000E+00
 24  1.8396E+00  4.3266E-01  1.7769E-01  5.4240E-01  2.2816E-01  9.3493E-01  0.0000E+00  1.1240E-01  0.0000E+00
 25  3.2592E+00  6.9722E-01  1.9158E+00  0.0000E+00  1.1101E+00  4.1725E+00  1.6312E+00  1.1088E+00  0.0000E+00
 26  0.0000E+00  5.0308E-05  0.0000E+00  0.0000E+00  0.0000E+00  1.0314E-03  0.0000E+00  0.0000E+00  0.0000E+00
 27  0.0000E+00  8.9338E-05  0.0000E+00  7.1446E-05  0.0000E+00  0.0000E+00  0.0000E+00  3.1172E-04  0.0000E+00
 28  0.0000E+00  7.7592E-05  0.0000E+00  0.0000E+00  0.0000E+00  0.0000E+00  0.0000E+00  0.0000E+00  0.0000E+00
 29  0.0000E+00  6.2779E-05  0.0000E+00  0.0000E+00  0.0000E+00  0.0000E+00  0.0000E+00  0.0000E+00  0.0000E+00
 30  0.0000E+00  7.6574E-05  0.0000E+00  0.0000E+00  0.0000E+00  0.0000E+00  0.0000E+00  0.0000E+00  0.0000E+00
 31  0.0000E+00  9.3291E-05  0.0000E+00  0.0000E+00  0.0000E+00  0.0000E+00  0.0000E+00  0.0000E+00  0.0000E+00
 32  0.0000E+00  4.8739E-04  0.0000E+00  0.0000E+00  0.0000E+00  0.0000E+00  0.0000E+00  0.0000E+00  0.0000E+00
 33  0.0000E+00  4.8898E-04  2.3827E-04  0.0000E+00  0.0000E+00  0.0000E+00  0.0000E+00  0.0000E+00  0.0000E+00
 34  0.0000E+00  2.0972E-03  1.4855E-03  6.5169E-03  0.0000E+00  5.6483E-03  3.5414E-03  0.0000E+00  8.3383E-03
 35  0.0000E+00  2.8728E-03  0.0000E+00  2.7693E-04  5.5940E-03  0.0000E+00  0.0000E+00  0.0000E+00  0.0000E+00
 36  0.0000E+00  8.7379E-03  7.9450E-04  2.3513E-02  2.6451E-03  0.0000E+00  1.0386E-02  7.0610E-03  0.0000E+00
 37  1.2293E-01  8.1110E-03  0.0000E+00  6.5182E-04  4.7827E-02  3.4069E-02  0.0000E+00  0.0000E+00  1.8931E-02
 38  0.0000E+00  2.9277E-03  0.0000E+00  4.2078E-03  0.0000E+00  0.0000E+00  1.0086E-02  0.0000E+00  0.0000E+00
 39  0.0000E+00  1.8164E-03  0.0000E+00  0.0000E+00  0.0000E+00  0.0000E+00  3.3791E-03  0.0000E+00  0.0000E+00
 40  0.0000E+00  2.2543E-03  0.0000E+00  0.0000E+00  0.0000E+00  0.0000E+00  0.0000E+00  0.0000E+00  0.0000E+00
 41  0.0000E+00  9.7530E-03  0.0000E+00  0.0000E+00  0.0000E+00  0.0000E+00  0.0000E+00  0.0000E+00  0.0000E+00
 42  0.0000E+00  1.2388E-02  0.0000E+00  0.0000E+00  0.0000E+00  0.0000E+00  6.5368E-02  0.0000E+00  0.0000E+00
 43  2.4505E+00  5.1415E+00  4.9420E+00  4.6694E+00  5.0287E+00  4.5358E+00  4.8159E+00  4.7972E+00  5.0693E+00
 44  1.5823E+01  1.6547E+01  1.8384E+01  1.7166E+01  1.6760E+01  1.7006E+01  1.3739E+01  1.5970E+01  1.6910E+01
 45  0.0000E+00  6.9731E-01  7.6883E-01  1.0802E+00  7.2359E-01  5.7454E-02  2.3803E+00  1.2160E+00  0.0000E+00
 46  4.7803E+00  7.3092E-01  0.0000E+00  1.3967E+00  0.0000E+00  5.1193E-01  2.8032E+00  6.1974E-01  4.8042E-01
 47  1.0622E-01  6.7277E-01  7.0355E-01  1.0552E+00  7.0276E-01  8.4682E-01  4.3723E-01  0.0000E+00  1.6724E+00
 48  8.6848E-01  7.3196E-01  0.0000E+00  0.0000E+00  1.1448E+00  1.1165E+00  4.6245E-01  6.9643E-01  9.2203E-01
 49  0.0000E+00  5.7499E-01  0.0000E+00  1.3866E+00  0.0000E+00  0.0000E+00  0.0000E+00  1.3907E+00  2.0924E-01
 50  0.0000E+00  7.2392E-01  4.0521E-01  4.3854E-01  0.0000E+00  0.0000E+00  9.6088E-02  0.0000E+00  2.4487E+00
 51  0.0000E+00  5.2444E-05  0.0000E+00  0.0000E+00  0.0000E+00  0.0000E+00  0.0000E+00  0.0000E+00  0.0000E+00
 52  0.0000E+00  2.0823E-04  5.1201E-04  0.0000E+00  0.0000E+00  3.7553E-05  1.5718E-04  0.0000E+00  6.3344E-04
 53  0.0000E+00  9.1558E-05  0.0000E+00  2.8851E-07  0.0000E+00  0.0000E+00  0.0000E+00  1.0001E-04  0.0000E+00
 54  0.0000E+00  4.4902E-04  0.0000E+00  0.0000E+00  1.3572E-04  0.0000E+00  0.0000E+00  1.1559E-03  2.6549E-04
 55  0.0000E+00  4.9323E-04  0.0000E+00  5.1889E-04  0.0000E+00  2.7877E-04  0.0000E+00  0.0000E+00  1.8099E-03
 56  0.0000E+00  3.6140E-04  0.0000E+00  7.5007E-04  1.6991E-03  7.2483E-04  0.0000E+00  0.0000E+00  0.0000E+00
 57  0.0000E+00  1.3016E-04  0.0000E+00  1.1102E-03  0.0000E+00  5.2379E-04  0.0000E+00  0.0000E+00  0.0000E+00
 58  0.0000E+00  8.3621E-04  0.0000E+00  0.0000E+00  0.0000E+00  0.0000E+00  3.1512E-03  8.7555E-04  0.0000E+00
 59  0.0000E+00  1.4864E-03  1.6027E-03  0.0000E+00  5.5127E-04  0.0000E+00  0.0000E+00  0.0000E+00  0.0000E+00
 60  0.0000E+00  2.0846E-03  0.0000E+00  0.0000E+00  0.0000E+00  3.4512E-03  1.9796E-03  0.0000E+00  0.0000E+00
 61  9.7386E-02  4.1737E-03  0.0000E+00  2.0242E-02  2.3363E-04  1.2639E-02  2.2415E-02  0.0000E+00  1.4356E-02
 62  0.0000E+00  6.5592E-03  2.2307E-03  0.0000E+00  2.2533E-03  1.6924E-03  1.6897E-02  0.0000E+00  9.0700E-03
 63  0.0000E+00  1.3164E-03  5.5062E-03  0.0000E+00  0.0000E+00  0.0000E+00  0.0000E+00  0.0000E+00  0.0000E+00
 64  0.0000E+00  2.5820E-03  0.0000E+00  0.0000E+00  0.0000E+00  0.0000E+00  0.0000E+00  0.0000E+00  0.0000E+00
 65  0.0000E+00  1.0235E-02  0.0000E+00  0.0000E+00  0.0000E+00  0.0000E+00  0.0000E+00  4.8142E-02  0.0000E+00
 66  0.0000E+00  1.3372E-02  0.0000E+00  0.0000E+00  0.0000E+00  0.0000E+00  9.2359E-02  0.0000E+00  0.0000E+00
 67  0.0000E+00  2.8955E-02  1.7148E-01  1.7032E-01  8.8583E-02  0.0000E+00  0.0000E+00  0.0000E+00  1.4870E-01
 68  8.3329E+00  1.0812E+01  1.1384E+01  1.1449E+01  1.0768E+01  1.1082E+01  1.0952E+01  1.0820E+01  1.1412E+01
 69  0.0000E+00  1.9564E-01  5.5260E-01  0.0000E+00  0.0000E+00  7.6664E-02  0.0000E+00  1.6655E-01  0.0000E+00
 70  2.8773E+01  2.5855E+01  2.8975E+01  2.6982E+01  2.6188E+01  2.6897E+01  2.6598E+01  2.6607E+01  2.6904E+01
 71  1.9652E+01  1.3351E+01  1.4284E+01  1.4788E+01  1.3309E+01  1.4957E+01  1.3128E+01  1.3221E+01  1.4490E+01
 72  1.1920E+01  7.0081E+00  8.2402E+00  3.4030E+00  7.5305E+00  8.2666E+00  8.7443E+00  6.0415E+00  7.2937E+00
 73  1.4483E+00  1.0434E+00  1.1846E+00  1.6158E+00  1.8723E+00  1.4637E+00  3.8073E-01  1.4419E+00  3.8316E+00
 74  0.0000E+00  1.4077E+00  0.0000E+00  2.0989E+00  1.9745E+00  8.0395E-01  2.6219E+00  1.7174E+00  2.2843E+00
 75  1.3709E-01  1.7556E+00  5.5690E-01  1.2574E+00  4.3509E+00  2.2133E+00  2.2005E+00  1.5900E+00  1.2618E+00
 76  0.0000E+00  4.4608E-05  0.0000E+00  0.0000E+00  0.0000E+00  0.0000E+00  0.0000E+00  0.0000E+00  0.0000E+00
 77  0.0000E+00  1.8221E-05  0.0000E+00  0.0000E+00  0.0000E+00  0.0000E+00  0.0000E+00  0.0000E+00  0.0000E+00
 78  0.0000E+00  6.6167E-05  0.0000E+00  0.0000E+00  0.0000E+00  6.3779E-04  0.0000E+00  0.0000E+00  0.0000E+00
 79  0.0000E+00  1.2912E-04  0.0000E+00  0.0000E+00  1.3226E-03  0.0000E+00  1.3908E-03  0.0000E+00  0.0000E+00
 80  0.0000E+00  3.5811E-04  0.0000E+00  0.0000E+00  5.2876E-04  0.0000E+00  0.0000E+00  0.0000E+00  0.0000E+00
 81  0.0000E+00  1.4956E-04  0.0000E+00  0.0000E+00  0.0000E+00  0.0000E+00  0.0000E+00  3.1770E-04  0.0000E+00
 82  0.0000E+00  5.2448E-04  0.0000E+00  2.7943E-03  0.0000E+00  0.0000E+00  0.0000E+00  0.0000E+00  7.9275E-04
 83  0.0000E+00  2.3374E-03  2.6243E-03  4.2009E-03  0.0000E+00  1.4147E-03  0.0000E+00  0.0000E+00  0.0000E+00
 84  0.0000E+00  2.3784E-03  5.6058E-03  5.5952E-03  1.4838E-03  0.0000E+00  1.4816E-04  0.0000E+00  0.0000E+00
 85  0.0000E+00  1.9690E-03  0.0000E+00  0.0000E+00  5.0914E-03  0.0000E+00  0.0000E+00  0.0000E+00  5.3738E-03
 86  0.0000E+00  7.9630E-03  1.2773E-02  1.3721E-03  0.0000E+00  4.3869E-03  5.3900E-02  8.8735E-03  7.9241E-03
 87  3.2839E-02  3.0924E-03  2.2780E-02  9.0797E-04  0.0000E+00  2.2277E-02  0.0000E+00  0.0000E+00  9.5978E-04
 88  0.0000E+00  8.8463E-04  0.0000E+00  8.1792E-04  0.0000E+00  0.0000E+00  0.0000E+00  0.0000E+00  0.0000E+00
 89  0.0000E+00  1.7419E-03  0.0000E+00  0.0000E+00  0.0000E+00  7.8728E-03  0.0000E+00  0.0000E+00  0.0000E+00
 90  0.0000E+00  4.6490E-03  0.0000E+00  0.0000E+00  0.0000E+00  0.0000E+00  0.0000E+00  0.0000E+00  1.0108E-02
 91  0.0000E+00  7.0377E-03  0.0000E+00  2.0132E-04  0.0000E+00  1.2768E-02  0.0000E+00  0.0000E+00  6.8556E-04
 92  0.0000E+00  1.3812E-02  0.0000E+00  0.0000E+00  0.0000E+00  8.6871E-02  1.5655E-02  0.0000E+00  1.2136E-02
 93  0.0000E+00  7.7592E-02  0.0000E+00  1.6905E-01  0.0000E+00  3.4834E-02  3.4740E-02  0.0000E+00  0.0000E+00
 94  0.0000E+00  2.0253E-01  4.8423E-01  0.0000E+00  0.0000E+00  0.0000E+00  1.4178E-01  1.1975E-01  0.0000E+00
 95  0.0000E+00  3.4881E-01  6.7064E-01  0.0000E+00  0.0000E+00  2.7295E-01  2.2480E-02  0.0000E+00  0.0000E+00
 96  0.0000E+00  3.4446E-01  1.7465E-01  2.3870E+00  8.3471E-01  0.0000E+00  0.0000E+00  0.0000E+00  0.0000E+00
 97  0.0000E+00  2.7608E-01  0.0000E+00  0.0000E+00  0.0000E+00  5.2872E-01  0.0000E+00  1.1323E+00  0.0000E+00
 98  0.0000E+00  2.6294E-01  0.0000E+00  0.0000E+00  1.1288E+00  0.0000E+00  0.0000E+00  0.0000E+00  0.0000E+00
 99  0.0000E+00  3.9383E-01  6.5412E-01  7.3080E-01  1.0546E+00  9.6004E-01  2.3449E-01  0.0000E+00  0.0000E+00
100  0.0000E+00  2.8531E-01  0.0000E+00  0.0000E+00  3.8473E-02  0.0000E+00  0.0000E+00  1.5719E+00  1.0357E+00
101  0.0000E+00  4.2567E-05  0.0000E+00  0.0000E+00  0.0000E+00  0.0000E+00  0.0000E+00  0.0000E+00  0.0000E+00
102  0.0000E+00  2.1537E-05  0.0000E+00  0.0000E+00  0.0000E+00  0.0000E+00  0.0000E+00  0.0000E+00  0.0000E+00
103  0.0000E+00  1.9797E-04  1.4028E-03  0.0000E+00  0.0000E+00  0.0000E+00  0.0000E+00  2.4662E-04  0.0000E+00
104  0.0000E+00  2.9519E-04  0.0000E+00  2.3586E-04  0.0000E+00  0.0000E+00  0.0000E+00  0.0000E+00  1.2379E-03
105  0.0000E+00  1.9737E-04  0.0000E+00  0.0000E+00  0.0000E+00  0.0000E+00  0.0000E+00  0.0000E+00  0.0000E+00
106  0.0000E+00  4.7452E-05  0.0000E+00  0.0000E+00  0.0000E+00  0.0000E+00  0.0000E+00  0.0000E+00  0.0000E+00
107  0.0000E+00  1.7933E-04  4.8049E-04  6.0130E-04  0.0000E+00  0.0000E+00  0.0000E+00  0.0000E+00  1.0338E-03
108  0.0000E+00  1.5386E-04  0.0000E+00  0.0000E+00  0.0000E+00  0.0000E+00  0.0000E+00  0.0000E+00  0.0000E+00
109  0.0000E+00  5.0584E-04  0.0000E+00  0.0000E+00  0.0000E+00  0.0000E+00  0.0000E+00  1.4922E-03  0.0000E+00
110  0.0000E+00  9.7609E-04  0.0000E+00  6.9760E-04  0.0000E+00  0.0000E+00  0.0000E+00  0.0000E+00  0.0000E+00
111  2.0506E-06  1.2263E-03  0.0000E+00  0.0000E+00  0.0000E+00  2.2222E-02  0.0000E+00  3.9119E-03  4.5268E-03
112  0.0000E+00  1.7809E-03  0.0000E+00  2.0717E-03  8.8548E-04  0.0000E+00  0.0000E+00  9.1503E-04  7.2199E-03
113  0.0000E+00  2.3824E-03  0.0000E+00  0.0000E+00  0.0000E+00  0.0000E+00  0.0000E+00  0.0000E+00  0.0000E+00
114  0.0000E+00  1.3099E-03  0.0000E+00  0.0000E+00  0.0000E+00  0.0000E+00  0.0000E+00  1.2396E-02  2.5741E-02
115  0.0000E+00  1.2576E-02  1.4155E-01  1.5429E-01  0.0000E+00  0.0000E+00  0.0000E+00  0.0000E+00  1.2145E-02
116  0.0000E+00  2.8022E-02  0.0000E+00  0.0000E+00  6.0740E-02  0.0000E+00  5.3752E-02  1.1373E-01  9.8548E-02
117  0.0000E+00  3.4627E-02  0.0000E+00  2.1073E-01  0.0000E+00  0.0000E+00  0.0000E+00  0.0000E+00  0.0000E+00
118  0.0000E+00  2.2071E-01  5.3422E-01  0.0000E+00  0.0000E+00  0.0000E+00  0.0000E+00  0.0000E+00  0.0000E+00
119  0.0000E+00  1.6056E-01  0.0000E+00  0.0000E+00  0.0000E+00  1.0132E-01  5.7919E-01  3.5555E-02  0.0000E+00
120  0.0000E+00  1.9679E-01  3.1469E-01  0.0000E+00  0.0000E+00  1.5238E-01  3.7742E-01  0.0000E+00  0.0000E+00
121  0.0000E+00  2.3292E-01  6.6412E-01  0.0000E+00  0.0000E+00  6.4331E-02  0.0000E+00  0.0000E+00  0.0000E+00
122  0.0000E+00  1.8134E-01  0.0000E+00  0.0000E+00  0.0000E+00  0.0000E+00  4.7451E-01  0.0000E+00  1.1820E-01
123  0.0000E+00  1.8655E-01  0.0000E+00  9.3804E-01  0.0000E+00  0.0000E+00  4.1666E-01  0.0000E+00  0.0000E+00
124  0.0000E+00  2.0465E-01  0.0000E+00  0.0000E+00  0.0000E+00  0.0000E+00  1.3134E+00  2.2103E-01  2.3872E-01
125  0.0000E+00  5.5868E-01  0.0000E+00  4.5753E-01  0.0000E+00  0.0000E+00  0.0000E+00  3.4304E+00  0.0000E+00
126  0.0000E+00  1.0483E-04  0.0000E+00  0.0000E+00  0.0000E+00  0.0000E+00  0.0000E+00  0.0000E+00  0.0000E+00
127  0.0000E+00  3.1048E-05  0.0000E+00  0.0000E+00  0.0000E+00  0.0000E+00  1.8954E-05  0.0000E+00  0.0000E+00
128  0.0000E+00  4.2753E-05  0.0000E+00  1.6204E-04  0.0000E+00  0.0000E+00  0.0000E+00  0.0000E+00  0.0000E+00
129  0.0000E+00  3.9433E-05  0.0000E+00  0.0000E+00  0.0000E+00  0.0000E+00  0.0000E+00  0.0000E+00  0.0000E+00
130  0.0000E+00  7.3739E-05  0.0000E+00  0.0000E+00  0.0000E+00  0.0000E+00  0.0000E+00  0.0000E+00  7.8609E-05
131  0.0000E+00  4.5739E-05  0.0000E+00  0.0000E+00  0.0000E+00  0.0000E+00  0.0000E+00  0.0000E+00  0.0000E+00
132  0.0000E+00  9.3544E-05  0.0000E+00  0.0000E+00  0.0000E+00  0.0000E+00  0.0000E+00  0.0000E+00  0.0000E+00
133  0.0000E+00  1.6133E-04  0.0000E+00  0.0000E+00  0.0000E+00  0.0000E+00  0.0000E+00  0.0000E+00  0.0000E+00
134  0.0000E+00  1.2213E-03  0.0000E+00  1.8193E-05  0.0000E+00  5.5416E-03  0.0000E+00  0.0000E+00  7.2814E-03
135  0.0000E+00  1.7338E-03  1.6088E-02  0.0000E+00  0.0000E+00  0.0000E+00  0.0000E+00  0.0000E+00  0.0000E+00
136  0.0000E+00  1.9740E-03  0.0000E+00  0.0000E+00  0.0000E+00  0.0000E+00  7.0273E-03  0.0000E+00  5.1293E-03
137  0.0000E+00  2.0263E-03  0.0000E+00  0.0000E+00  0.0000E+00  0.0000E+00  0.0000E+00  1.4692E-03  0.0000E+00
138  0.0000E+00  1.6680E-03  0.0000E+00  0.0000E+00  0.0000E+00  0.0000E+00  0.0000E+00  0.0000E+00  0.0000E+00
139  0.0000E+00  9.7696E-03  0.0000E+00  0.0000E+00  0.0000E+00  0.0000E+00  0.0000E+00  0.0000E+00  0.0000E+00
140  0.0000E+00  2.2732E-02  0.0000E+00  0.0000E+00  0.0000E+00  1.3138E-02  1.6430E-01  0.0000E+00  4.8883E-02
141  2.3394E-01  1.5517E+00  1.7780E+00  1.5682E+00  1.1283E+00  1.6742E+00  5.2614E-01  1.3241E+00  1.7196E+00
142  0.0000E+00  1.0301E-01  1.9098E-01  2.3175E-01  0.0000E+00  0.0000E+00  1.2818E-01  0.0000E+00  0.0000E+00
143  0.0000E+00  1.0300E-01  0.0000E+00  2.2415E-03  1.0875E-01  0.0000E+00  0.0000E+00  0.0000E+00  0.0000E+00
144  0.0000E+00  2.0492E-01  0.0000E+00  0.0000E+00  0.0000E+00  0.0000E+00  0.0000E+00  0.0000E+00  0.0000E+00
145  0.0000E+00  1.9568E-01  0.0000E+00  0.0000E+00  0.0000E+00  0.0000E+00  0.0000E+00  0.0000E+00  0.0000E+00
146  0.0000E+00  1.5977E-01  2.3824E-01  9.2028E-01  0.0000E+00  0.0000E+00  0.0000E+00  0.0000E+00  0.0000E+00
147  0.0000E+00  6.4296E-01  0.0000E+00  2.6830E-02  6.0756E-01  0.0000E+00  0.0000E+00  0.0000E+00  9.6754E-01
148  0.0000E+00  1.8558E+00  0.0000E+00  1.5976E+00  0.0000E+00  8.1358E-01  3.3552E+00  3.0176E+00  0.0000E+00
149  0.0000E+00  3.0487E-01  0.0000E+00  0.0000E+00  0.0000E+00  0.0000E+00  2.4197E-01  0.0000E+00  0.0000E+00
150  0.0000E+00  1.2556E+00  0.0000E+00  0.0000E+00  2.8175E+00  0.0000E+00  0.0000E+00  0.0000E+00  0.0000E+00

# AV, chi2 & Mass for <> & i_chain = 1 ...  7 solutions
AV       0.9490      0.8942      0.9165      0.9146      0.9041      0.9177      0.9177      0.9074      0.9153
chi2 1.3983E+00  1.5265E+00  1.4803E+00  1.4845E+00  1.4869E+00  1.4671E+00  1.4758E+00  1.4816E+00  1.4830E+00
Mass 2.6046E-10  2.4207E-10  2.3181E-10  2.3907E-10  2.4687E-10  2.4390E-10  2.5008E-10  2.4893E-10  2.3991E-10
 -19.69                                  [v0_min (km/s) before EX0s...]
  83.13                                  [vd_min (km/s) before EX0s...]


## Synthetic spectrum (Best Model) ##l_obs f_obs f_syn wei
 3070    [Nl_obs]
 3359.00    0.28369   0.49027   -1.000
 3360.00    0.27589   0.47852   -1.000
 3361.00    0.28074   0.48444   -1.000
 3362.00    0.32597   0.50474   -1.000
 3363.00    0.35416   0.52811   -1.000
 3364.00    0.36913   0.54227   -1.000
 3365.00    0.37495   0.54229   -1.000
 3366.00    0.36855   0.53194   -1.000
 3367.00    0.36397   0.51806   -1.000
 3368.00    0.36896   0.50596   -1.000
 3369.00    0.37183   0.49697   -1.000
 3370.00    0.37643   0.49033   -1.000
 3371.00    0.37276   0.48705   -1.000
 3372.00    0.36866   0.49097   -1.000
 3373.00    0.38155   0.50448   -1.000
 3374.00    0.37130   0.52497   -1.000
 3375.00    0.40860   0.54479   -1.000
 3376.00    0.43847   0.55444   -1.000
 3377.00    0.42135   0.54996   -1.000
 3378.00    0.40414   0.53695   -1.000
 3379.00    0.39817   0.52560   -1.000
 3380.00    0.38903   0.52293   -1.000
 3381.00    0.38830   0.52902   -1.000
 3382.00    0.41399   0.53895   -1.000
 3383.00    0.43661   0.54780   -1.000
 3384.00    0.42221   0.55460   -1.000
 3385.00    0.45688   0.55953   -1.000
 3386.00    0.44463   0.56101   -1.000
 3387.00    0.44231   0.55926   -1.000
 3388.00    0.45802   0.55750   -1.000
 3389.00    0.45191   0.55718   -1.000
 3390.00    0.42831   0.55638   -1.000
 3391.00    0.45506   0.55259   -1.000
 3392.00    0.46623   0.54734   -1.000
 3393.00    0.45306   0.54687   -1.000
 3394.00    0.45362   0.55483   -1.000
 3395.00    0.45524   0.56841   -1.000
 3396.00    0.44950   0.58253   -1.000
 3397.00    0.48998   0.59315   -1.000
 3398.00    0.50365   0.59706   -1.000
 3399.00    0.48099   0.59329   -1.000
 3400.00    0.49674   0.58416   -1.000
 3401.00    0.51676   0.57209   -1.000
 3402.00    0.49599   0.56015   -1.000
 3403.00    0.47702   0.55228   -1.000
 3404.00    0.45873   0.54964   -1.000
 3405.00    0.46320   0.54867   -1.000
 3406.00    0.49284   0.54564   -1.000
 3407.00    0.46808   0.54138   -1.000
 3408.00    0.45234   0.53991   -1.000
 3409.00    0.47758   0.54325   -1.000
 3410.00    0.46525   0.54770   -1.000
 3411.00    0.46909   0.54857   -1.000
 3412.00    0.49317   0.54576   -1.000
 3413.00    0.49471   0.54320   -1.000
 3414.00    0.47971   0.54473   -1.000
 3415.00    0.48602   0.55097   -1.000
 3416.00    0.48298   0.56002   -1.000
 3417.00    0.48723   0.57021   -1.000
 3418.00    0.50189   0.58037   -1.000
 3419.00    0.51275   0.58845   -1.000
 3420.00    0.52050   0.59173   -1.000
 3421.00    0.54052   0.58883   -1.000
 3422.00    0.53017   0.58187   -1.000
 3423.00    0.52029   0.57549   -1.000
 3424.00    0.51594   0.57307   -1.000
 3425.00    0.50965   0.57475   -1.000
 3426.00    0.50458   0.57991   -1.000
 3427.00    0.51445   0.58942   -1.000
 3428.00    0.52917   0.60207   -1.000
 3429.00    0.55524   0.61119   -1.000
 3430.00    0.55699   0.60969   -1.000
 3431.00    0.56355   0.59840   -1.000
 3432.00    0.55418   0.58587   -1.000
 3433.00    0.50910   0.58053   -1.000
 3434.00    0.53508   0.58423   -1.000
 3435.00    0.54485   0.59091   -1.000
 3436.00    0.53836   0.59264   -1.000
 3437.00    0.53471   0.58589   -1.000
 3438.00    0.54160   0.57155   -1.000
 3439.00    0.52891   0.55226  132.112
 3440.00    0.52590   0.53235  124.791
 3441.00    0.49598   0.51834  120.052
 3442.00    0.46859   0.51452   -1.000
 3443.00    0.48233   0.51982   -1.000
 3444.00    0.49610   0.53012   -1.000
 3445.00    0.49762   0.54322   -1.000
 3446.00    0.53118   0.55920   -1.000
 3447.00    0.57274   0.57677  811.738
 3448.00    0.57632   0.59137   -1.000
 3449.00    0.57999   0.59650   -1.000
 3450.00    0.58582   0.58958  811.738
 3451.00    0.58912   0.57568   -1.000
 3452.00    0.58470   0.56384   -1.000
 3453.00    0.55156   0.56017  133.943
 3454.00    0.55540   0.56408  117.728
 3455.00    0.58739   0.56990  117.263
 3456.00    0.59565   0.57128   -1.000
 3457.00    0.59139   0.56593   -1.000
 3458.00    0.56882   0.55643   -1.000
 3459.00    0.56320   0.54663   -1.000
 3460.00    0.56995   0.54063   -1.000
 3461.00    0.54548   0.54337   -1.000
 3462.00    0.54813   0.55491   -1.000
 3463.00    0.57580   0.56650   -1.000
 3464.00    0.57014   0.57076  811.738
 3465.00    0.57831   0.56986   -1.000
 3466.00    0.57679   0.57069   -1.000
 3467.00    0.58709   0.57681   -1.000
 3468.00    0.57947   0.58650   -1.000
 3469.00    0.59455   0.59456  131.403
 3470.00    0.61787   0.59598  121.257
 3471.00    0.60889   0.58970  119.356
 3472.00    0.60511   0.57757   -1.000
 3473.00    0.58237   0.56159   -1.000
 3474.00    0.55939   0.54561   -1.000
 3475.00    0.53699   0.53580  811.738
 3476.00    0.54787   0.53637   -1.000
 3477.00    0.57781   0.54556   -1.000
 3478.00    0.60010   0.55817   -1.000
 3479.00    0.62056   0.56993   -1.000
 3480.00    0.60722   0.57780   -1.000
 3481.00    0.58413   0.57943   -1.000
 3482.00    0.60524   0.57570   -1.000
 3483.00    0.60896   0.57203   -1.000
 3484.00    0.60534   0.57473   -1.000
 3485.00    0.58634   0.58442  811.738
 3486.00    0.59294   0.59402  811.738
 3487.00    0.62505   0.59559   -1.000
 3488.00    0.60974   0.58696   -1.000
 3489.00    0.58477   0.57334   -1.000
 3490.00    0.56626   0.56374   -1.000
 3491.00    0.56950   0.56289   -1.000
 3492.00    0.57758   0.56680   -1.000
 3493.00    0.58788   0.56818   -1.000
 3494.00    0.58122   0.56342   -1.000
 3495.00    0.57088   0.55502   -1.000
 3496.00    0.57404   0.55084   -1.000
 3497.00    0.55244   0.55684  811.738
 3498.00    0.57016   0.57006  811.738
 3499.00    0.59959   0.58118   -1.000
 3500.00    0.61592   0.58537   -1.000
 3501.00    0.62275   0.58637   -1.000
 3502.00    0.61025   0.58832   -1.000
 3503.00    0.60776   0.58940   -1.000
 3504.00    0.61713   0.58628   -1.000
 3505.00    0.61706   0.58036   -1.000
 3506.00    0.59956   0.57585   -1.000
 3507.00    0.60308   0.57440   -1.000
 3508.00    0.62839   0.57387   -1.000
 3509.00    0.61241   0.57146   -1.000
 3510.00    0.59627   0.56699   -1.000
 3511.00    0.57261   0.56187   -1.000
 3512.00    0.56952   0.55666   -1.000
 3513.00    0.58638   0.55342   -1.000
 3514.00    0.58013   0.55644   -1.000
 3515.00    0.58041   0.56830   -1.000
 3516.00    0.60034   0.58489   -1.000
 3517.00    0.63045   0.59731   -1.000
 3518.00    0.63660   0.59880   -1.000
 3519.00    0.59604   0.58975  120.396
 3520.00    0.60134   0.57638   -1.000
 3521.00    0.59123   0.56477   -1.000
 3522.00    0.55621   0.55557  811.738
 3523.00    0.53601   0.54655   -1.000
 3524.00    0.53694   0.53820  811.738
 3525.00    0.52513   0.53572   -1.000
 3526.00    0.51544   0.54339   -1.000
 3527.00    0.54128   0.55958   -1.000
 3528.00    0.59046   0.57771   -1.000
 3529.00    0.60724   0.59104   -1.000
 3530.00    0.61255   0.59705   -1.000
 3531.00    0.61431   0.59775   -1.000
 3532.00    0.63926   0.59624   -1.000
 3533.00    0.62790   0.59465   -1.000
 3534.00    0.62376   0.59438   -1.000
 3535.00    0.62886   0.59657   -1.000
 3536.00    0.61739   0.60151   -1.000
 3537.00    0.63169   0.60857   -1.000
 3538.00    0.63040   0.61586   -1.000
 3539.00    0.65647   0.62043   -1.000
 3540.00    0.62920   0.62083   -1.000
 3541.00    0.58556   0.61941   -1.000
 3542.00    0.61063   0.61981   -1.000
 3543.00    0.60852   0.62278   -1.000
 3544.00    0.64750   0.62550   -1.000
 3545.00    0.62535   0.62536  811.738
 3546.00    0.63075   0.62307   -1.000
 3547.00    0.61411   0.62128   -1.000
 3548.00    0.61521   0.62155   -1.000
 3549.00    0.62257   0.62324  811.738
 3550.00    0.62727   0.62440  811.738
 3551.00    0.62170   0.62266  811.738
 3552.00    0.60492   0.61755   -1.000
 3553.00    0.59039   0.61168   -1.000
 3554.00    0.60181   0.60851   -1.000
 3555.00    0.59465   0.60905   -1.000
 3556.00    0.59536   0.61164   -1.000
 3557.00    0.60215   0.61356   -1.000
 3558.00    0.60330   0.61359   -1.000
 3559.00    0.60554   0.61356  117.670
 3560.00    0.60229   0.61633  122.295
 3561.00    0.59944   0.62099  120.839
 3562.00    0.61354   0.62152  120.362
 3563.00    0.60274   0.61127  124.474
 3564.00    0.58446   0.59159  126.468
 3565.00    0.56103   0.57229  122.342
 3566.00    0.53525   0.56126  122.165
 3567.00    0.53483   0.55777   -1.000
 3568.00    0.52864   0.55511   -1.000
 3569.00    0.52944   0.54872   -1.000
 3570.00    0.53036   0.54144   -1.000
 3571.00    0.54065   0.53887  811.738
 3572.00    0.54899   0.54190   -1.000
 3573.00    0.52937   0.54716  121.978
 3574.00    0.54149   0.55224  131.607
 3575.00    0.56840   0.55726  138.407
 3576.00    0.57831   0.56213  139.211
 3577.00    0.57006   0.56455  139.973
 3578.00    0.58194   0.56101   -1.000
 3579.00    0.56510   0.55102  148.221
 3580.00    0.55169   0.53877  149.569
 3581.00    0.52721   0.53006  141.850
 3582.00    0.52128   0.52769  134.322
 3583.00    0.51297   0.52755  127.366
 3584.00    0.50267   0.52258  125.318
 3585.00    0.50598   0.51239   -1.000
 3586.00    0.49060   0.50441   -1.000
 3587.00    0.47836   0.50559   -1.000
 3588.00    0.48858   0.51701   -1.000
 3589.00    0.54031   0.53505   -1.000
 3590.00    0.55612   0.55421  811.738
 3591.00    0.55397   0.56908   -1.000
 3592.00    0.57794   0.57742  811.738
 3593.00    0.57065   0.58174   -1.000
 3594.00    0.57221   0.58700   -1.000
 3595.00    0.58490   0.59532   -1.000
 3596.00    0.59431   0.60488   -1.000
 3597.00    0.61662   0.61340  811.738
 3598.00    0.61203   0.61958   -1.000
 3599.00    0.61629   0.62152   -1.000
 3600.00    0.62406   0.61635   -1.000
 3601.00    0.60361   0.60410  811.738
 3602.00    0.58226   0.58923   -1.000
 3603.00    0.56438   0.57813   -1.000
 3604.00    0.55883   0.57426   -1.000
 3605.00    0.57519   0.57519  811.738
 3606.00    0.58094   0.57544   -1.000
 3607.00    0.57409   0.57193  811.738
 3608.00    0.55805   0.56644   -1.000
 3609.00    0.54388   0.56351   -1.000
 3610.00    0.55740   0.56535   -1.000
 3611.00    0.58048   0.57022   -1.000
 3612.00    0.57778   0.57575  542.602
 3613.00    0.57844   0.58213  130.418
 3614.00    0.58387   0.59063   -1.000
 3615.00    0.58159   0.59796   -1.000
 3616.00    0.59387   0.59621  811.738
 3617.00    0.58133   0.58371  811.738
 3618.00    0.53862   0.56993   -1.000
 3619.00    0.52016   0.56628   -1.000
 3620.00    0.53773   0.57525   -1.000
 3621.00    0.55608   0.59053   -1.000
 3622.00    0.57122   0.60430   -1.000
 3623.00    0.58629   0.61428   -1.000
 3624.00    0.61055   0.62443   -1.000
 3625.00    0.61614   0.63811   -1.000
 3626.00    0.62756   0.65262   -1.000
 3627.00    0.64644   0.65958   -1.000
 3628.00    0.64274   0.65100   -1.000
 3629.00    0.63499   0.62717   -1.000
 3630.00    0.60734   0.59882   -1.000
 3631.00    0.56373   0.57971   -1.000
 3632.00    0.54043   0.57670   -1.000
 3633.00    0.54700   0.58583   -1.000
 3634.00    0.55374   0.59723   -1.000
 3635.00    0.55828   0.60449   -1.000
 3636.00    0.58233   0.60980   -1.000
 3637.00    0.57962   0.61806   -1.000
 3638.00    0.60060   0.62910   -1.000
 3639.00    0.62141   0.63742   -1.000
 3640.00    0.63310   0.63785   -1.000
 3641.00    0.60059   0.62941   -1.000
 3642.00    0.61207   0.61571  811.738
 3643.00    0.61316   0.60238   -1.000
 3644.00    0.59702   0.59337   -1.000
 3645.00    0.57545   0.58845   -1.000
 3646.00    0.56328   0.58576   -1.000
 3647.00    0.55968   0.58506   -1.000
 3648.00    0.56483   0.58715   -1.000
 3649.00    0.56009   0.59236   -1.000
 3650.00    0.57843   0.60079   -1.000
 3651.00    0.59963   0.61213   -1.000
 3652.00    0.62455   0.62472  797.654
 3653.00    0.62920   0.63600   -1.000
 3654.00    0.64159   0.64472   -1.000
 3655.00    0.63258   0.65178   -1.000
 3656.00    0.64458   0.65790   -1.000
 3657.00    0.65265   0.66220   -1.000
 3658.00    0.62502   0.66361   -1.000
 3659.00    0.63212   0.66196   -1.000
 3660.00    0.62738   0.65758   -1.000
 3661.00    0.63411   0.65147   -1.000
 3662.00    0.64080   0.64545   -1.000
 3663.00    0.62630   0.64171   -1.000
 3664.00    0.62670   0.64113   -1.000
 3665.00    0.63128   0.64221   -1.000
 3666.00    0.63676   0.64209   -1.000
 3667.00    0.63110   0.63890   -1.000
 3668.00    0.61469   0.63437   -1.000
 3669.00    0.60617   0.63272   -1.000
 3670.00    0.59637   0.63671   -1.000
 3671.00    0.61127   0.64484   -1.000
 3672.00    0.63475   0.65240   -1.000
 3673.00    0.64806   0.65509   -1.000
 3674.00    0.65157   0.65159  811.738
 3675.00    0.65404   0.64278   -1.000
 3676.00    0.63217   0.63076  811.738
 3677.00    0.60907   0.61881   -1.000
 3678.00    0.59799   0.61109   -1.000
 3679.00    0.60305   0.61007   -1.000
 3680.00    0.61009   0.61475   -1.000
 3681.00    0.62238   0.62145  811.738
 3682.00    0.63501   0.62604   -1.000
 3683.00    0.62044   0.62551   -1.000
 3684.00    0.61403   0.61847   -1.000
 3685.00    0.60022   0.60767   -1.000
 3686.00    0.57564   0.60075   -1.000
 3687.00    0.57019   0.60548   -1.000
 3688.00    0.59731   0.62200   -1.000
 3689.00    0.61234   0.64215   -1.000
 3690.00    0.63558   0.65647   -1.000
 3691.00    0.64586   0.66221   -1.000
 3692.00    0.64334   0.66335   -1.000
 3693.00    0.64762   0.66379   -1.000
 3694.00    0.65868   0.66323   -1.000
 3695.00    0.66016   0.66004  783.382
 3696.00    0.64099   0.65693   -1.000
 3697.00    0.65021   0.66115   -1.000
 3698.00    0.67744   0.67668  811.738
 3699.00    0.69541   0.69687  811.738
 3700.00    0.70956   0.70698  811.738
 3701.00    0.70102   0.69529   -1.000
 3702.00    0.67596   0.66285   -1.000
 3703.00    0.63669   0.62327   -1.000
 3704.00    0.59432   0.59357  811.738
 3705.00    0.58207   0.58420  811.738
 3706.00    0.59254   0.59339  800.613
 3707.00    0.59679   0.60978   -1.000
 3708.00    0.61210   0.62078   -1.000
 3709.00    0.60940   0.62125   -1.000
 3710.00    0.60469   0.61623   -1.000
 3711.00    0.61494   0.61653  811.738
 3712.00    0.64291   0.63020   -1.000
 3713.00    0.66896   0.65701   -1.000
 3714.00    0.69460   0.68840  319.586
 3715.00    0.71989   0.71308  160.956
 3716.00    0.72877   0.72330   -1.000
 3717.00    0.72056   0.71413   -1.000
 3718.00    0.69610   0.68171   -1.000
 3719.00    0.62582   0.63074   -1.000
 3720.00    0.57536   0.57979   -1.000
 3721.00    0.56228   0.55007   -1.000
 3722.00    0.56281   0.55286   -1.000
 3723.00    0.61110   0.58661   -1.000
 3724.00    0.66751   0.63568   -1.000
 3725.00    0.70733   0.67704   -1.000
 3726.00    0.71434   0.69924   -1.000
 3727.00    0.71497   0.70869  120.079
 3728.00    0.72024   0.71439  131.528
 3729.00    0.71895   0.71452  132.519
 3730.00    0.69901   0.69892  123.755
 3731.00    0.66550   0.66060  162.864
 3732.00    0.62690   0.60556   -1.000
 3733.00    0.56849   0.55048   -1.000
 3734.00    0.52847   0.51418   -1.000
 3735.00    0.50781   0.50910  811.738
 3736.00    0.53553   0.53634  811.738
 3737.00    0.59618   0.58623   -1.000
 3738.00    0.64525   0.64474  811.738
 3739.00    0.69507   0.69601  811.738
 3740.00    0.72338   0.72710  286.930
 3741.00    0.71986   0.73414  120.094
 3742.00    0.71305   0.72314  125.688
 3743.00    0.69626   0.70275  182.755
 3744.00    0.66309   0.67821   -1.000
 3745.00    0.62499   0.64947   -1.000
 3746.00    0.60227   0.61479   -1.000
 3747.00    0.57935   0.57481   -1.000
 3748.00    0.54646   0.53700   -1.000
 3749.00    0.52006   0.51663  786.971
 3750.00    0.53816   0.52756   -1.000
 3751.00    0.59297   0.56963   -1.000
 3752.00    0.65027   0.62850   -1.000
 3753.00    0.68929   0.68596  811.738
 3754.00    0.73245   0.72802   -1.000
 3755.00    0.75800   0.74643   -1.000
 3756.00    0.75092   0.73907   -1.000
 3757.00    0.72882   0.71354   -1.000
 3758.00    0.68662   0.68682  811.738
 3759.00    0.67329   0.67384  811.738
 3760.00    0.69948   0.67725   -1.000
 3761.00    0.71555   0.69045   -1.000
 3762.00    0.71749   0.70526   -1.000
 3763.00    0.72071   0.71496   -1.000
 3764.00    0.72350   0.71511   -1.000
 3765.00    0.70995   0.70425   -1.000
 3766.00    0.69477   0.68329   -1.000
 3767.00    0.67865   0.65433   -1.000
 3768.00    0.65027   0.62134   -1.000
 3769.00    0.62576   0.59214   -1.000
 3770.00    0.60825   0.57910   -1.000
 3771.00    0.62557   0.59157   -1.000
 3772.00    0.67192   0.62558   -1.000
 3773.00    0.69764   0.66517   -1.000
 3774.00    0.71673   0.69759   -1.000
 3775.00    0.72783   0.72194   -1.000
 3776.00    0.73983   0.74445   -1.000
 3777.00    0.75991   0.76934   -1.000
 3778.00    0.77596   0.79530   -1.000
 3779.00    0.79906   0.81837   -1.000
 3780.00    0.82350   0.83529   -1.000
 3781.00    0.83019   0.84440   -1.000
 3782.00    0.83635   0.84580   -1.000
 3783.00    0.85416   0.84076   -1.000
 3784.00    0.85179   0.82878   -1.000
 3785.00    0.81796   0.80901   -1.000
 3786.00    0.79541   0.78470   -1.000
 3787.00    0.77939   0.76381   -1.000
 3788.00    0.76587   0.75278   -1.000
 3789.00    0.75848   0.75135   -1.000
 3790.00    0.76024   0.75307   -1.000
 3791.00    0.75618   0.74955   -1.000
 3792.00    0.74261   0.73459   -1.000
 3793.00    0.72280   0.70613   -1.000
 3794.00    0.68677   0.66655   -1.000
 3795.00    0.64435   0.62108   -1.000
 3796.00    0.61038   0.57652   -1.000
 3797.00    0.57959   0.54428   -1.000
 3798.00    0.56165   0.53998   -1.000
 3799.00    0.58644   0.57183   -1.000
 3800.00    0.64276   0.63018   -1.000
 3801.00    0.71220   0.69439   -1.000
 3802.00    0.76210   0.74675   -1.000
 3803.00    0.79114   0.78000   -1.000
 3804.00    0.79951   0.79469   -1.000
 3805.00    0.79532   0.79626  811.738
 3806.00    0.79443   0.79493  811.738
 3807.00    0.80388   0.80148  811.738
 3808.00    0.82228   0.81857  811.738
 3809.00    0.83802   0.83813  811.738
 3810.00    0.84175   0.84721   -1.000
 3811.00    0.83078   0.83669   -1.000
 3812.00    0.80929   0.80847  811.738
 3813.00    0.78945   0.77535   -1.000
 3814.00    0.77785   0.75325   -1.000
 3815.00    0.77425   0.75047   -1.000
 3816.00    0.78294   0.76179   -1.000
 3817.00    0.79437   0.77253   -1.000
 3818.00    0.79141   0.77045   -1.000
 3819.00    0.77800   0.75624  122.767
 3820.00    0.76103   0.74274  123.583
 3821.00    0.76254   0.74045  122.009
 3822.00    0.78450   0.74381   -1.000
 3823.00    0.77606   0.73808   -1.000
 3824.00    0.73805   0.71910  123.203
 3825.00    0.72231   0.69722   -1.000
 3826.00    0.71600   0.68286   -1.000
 3827.00    0.70431   0.67646   -1.000
 3828.00    0.70848   0.67202   -1.000
 3829.00    0.70879   0.66321   -1.000
 3830.00    0.69568   0.64488   -1.000
 3831.00    0.66901   0.61359   -1.000
 3832.00    0.62033   0.57084   -1.000
 3833.00    0.57335   0.52622   -1.000
 3834.00    0.54586   0.49380   -1.000
 3835.00    0.54706   0.48341   -1.000
 3836.00    0.56401   0.49538   -1.000
 3837.00    0.58889   0.52289   -1.000
 3838.00    0.60662   0.55774   -1.000
 3839.00    0.62114   0.59572   -1.000
 3840.00    0.64934   0.63692   -1.000
 3841.00    0.69119   0.68077   -1.000
 3842.00    0.73626   0.72338   -1.000
 3843.00    0.77314   0.75919   -1.000
 3844.00    0.80028   0.78510   -1.000
 3845.00    0.81139   0.80231   -1.000
 3846.00    0.81578   0.81365  811.738
 3847.00    0.81956   0.81922  811.738
 3848.00    0.81480   0.81832  811.738
 3849.00    0.81070   0.81459   -1.000
 3850.00    0.81571   0.81546  811.738
 3851.00    0.83412   0.82423  198.816
 3852.00    0.84555   0.83547  118.895
 3853.00    0.83975   0.84023  120.875
 3854.00    0.83152   0.83472  227.240
 3855.00    0.82099   0.82219   -1.000
 3856.00    0.80868   0.80809  811.738
 3857.00    0.79463   0.79546  811.738
 3858.00    0.77186   0.78626   -1.000
 3859.00    0.75376   0.78483   -1.000
 3860.00    0.75747   0.79509   -1.000
 3861.00    0.78647   0.81380   -1.000
 3862.00    0.83789   0.83138  811.738
 3863.00    0.86884   0.84069   -1.000
 3864.00    0.86307   0.84209   -1.000
 3865.00    0.84372   0.84074  230.988
 3866.00    0.84432   0.84167  811.738
 3867.00    0.84034   0.84587   -1.000
 3868.00    0.82428   0.84820   -1.000
 3869.00    0.81924   0.84131   -1.000
 3870.00    0.80133   0.82288   -1.000
 3871.00    0.77920   0.79939   -1.000
 3872.00    0.76763   0.78335   -1.000
 3873.00    0.77534   0.78424   -1.000
 3874.00    0.80496   0.79817   -1.000
 3875.00    0.82572   0.80911   -1.000
 3876.00    0.81048   0.80432   -1.000
 3877.00    0.77661   0.78723   -1.000
 3878.00    0.74901   0.77209   -1.000
 3879.00    0.75371   0.76740   -1.000
 3880.00    0.76576   0.76817  811.738
 3881.00    0.74247   0.76481   -1.000
 3882.00    0.72503   0.75388   -1.000
 3883.00    0.72819   0.73583   -1.000
 3884.00    0.71929   0.70776   -1.000
 3885.00    0.68213   0.66604   -1.000
 3886.00    0.63792   0.61513   -1.000
 3887.00    0.60470   0.56914   -1.000
 3888.00    0.57936   0.54457   -1.000
 3889.00    0.58617   0.55214   -1.000
 3890.00    0.63490   0.59046   -1.000
 3891.00    0.69016   0.64413   -1.000
 3892.00    0.73236   0.69249   -1.000
 3893.00    0.75297   0.72435   -1.000
 3894.00    0.75691   0.74273   -1.000
 3895.00    0.76842   0.75665   -1.000
 3896.00    0.78209   0.77071   -1.000
 3897.00    0.78376   0.78232  811.738
 3898.00    0.78618   0.78826  811.738
 3899.00    0.79824   0.79188   -1.000
 3900.00    0.80859   0.79929   -1.000
 3901.00    0.81275   0.81024  755.399
 3902.00    0.82375   0.81807   -1.000
 3903.00    0.82564   0.81827   -1.000
 3904.00    0.81590   0.81356  708.483
 3905.00    0.80853   0.81169   -1.000
 3906.00    0.81601   0.82086   -1.000
 3907.00    0.83738   0.84350   -1.000
 3908.00    0.86445   0.87236   -1.000
 3909.00    0.88661   0.89592   -1.000
 3910.00    0.89511   0.90760   -1.000
 3911.00    0.90256   0.90685   -1.000
 3912.00    0.89405   0.89617   -1.000
 3913.00    0.87725   0.88143   -1.000
 3914.00    0.86925   0.87008   -1.000
 3915.00    0.85918   0.86536   -1.000
 3916.00    0.85315   0.86419   -1.000
 3917.00    0.84081   0.86127   -1.000
 3918.00    0.84325   0.85396   -1.000
 3919.00    0.83921   0.84405   -1.000
 3920.00    0.81894   0.83600   -1.000
 3921.00    0.81210   0.83297   -1.000
 3922.00    0.83146   0.83419  142.289
 3923.00    0.83895   0.83541  166.650
 3924.00    0.83293   0.83063  196.451
 3925.00    0.80669   0.81452  230.891
 3926.00    0.74433   0.78488   -1.000
 3927.00    0.67481   0.74339   -1.000
 3928.00    0.64039   0.69323   -1.000
 3929.00    0.61800   0.63590  194.041
 3930.00    0.58118   0.57100  159.550
 3931.00    0.50111   0.50100  133.172
 3932.00    0.41420   0.43789   -1.000
 3933.00    0.37489   0.40270   -1.000
 3934.00    0.38719   0.41163   -1.000
 3935.00    0.43288   0.46110   -1.000
 3936.00    0.51497   0.53229   -1.000
 3937.00    0.60754   0.60697   -1.000
 3938.00    0.67220   0.67437  811.738
 3939.00    0.72434   0.72887   -1.000
 3940.00    0.75889   0.76742   -1.000
 3941.00    0.77999   0.78979   -1.000
 3942.00    0.77995   0.80023   -1.000
 3943.00    0.78098   0.80628   -1.000
 3944.00    0.79690   0.81459   -1.000
 3945.00    0.80867   0.82693   -1.000
 3946.00    0.83852   0.83921  738.176
 3947.00    0.84686   0.84641  720.982
 3948.00    0.84222   0.84820   -1.000
 3949.00    0.85249   0.84780  742.485
 3950.00    0.86746   0.84758   -1.000
 3951.00    0.86064   0.84888   -1.000
 3952.00    0.85515   0.85336  761.348
 3953.00    0.85482   0.86011   -1.000
 3954.00    0.86229   0.86344  811.738
 3955.00    0.86199   0.85864  811.738
 3956.00    0.84928   0.84856  811.738
 3957.00    0.84662   0.83988  163.672
 3958.00    0.85544   0.83306   -1.000
 3959.00    0.84106   0.82031   -1.000
 3960.00    0.81108   0.79473   -1.000
 3961.00    0.76029   0.75835  230.250
 3962.00    0.69834   0.71795   -1.000
 3963.00    0.65521   0.67494   -1.000
 3964.00    0.63784   0.62268  156.167
 3965.00    0.57369   0.55423   -1.000
 3966.00    0.47783   0.47241   -1.000
 3967.00    0.39767   0.39409   -1.000
 3968.00    0.34165   0.34303  811.738
 3969.00    0.32036   0.33580   -1.000
 3970.00    0.36450   0.37311   -1.000
 3971.00    0.44130   0.44140  711.512
 3972.00    0.52013   0.52158  673.344
 3973.00    0.60014   0.59930  658.314
 3974.00    0.66530   0.66825  660.036
 3975.00    0.72141   0.72654   -1.000
 3976.00    0.76425   0.77402   -1.000
 3977.00    0.79613   0.81226   -1.000
 3978.00    0.83535   0.84276   -1.000
 3979.00    0.86031   0.86408  634.239
 3980.00    0.87520   0.87376   80.251
 3981.00    0.87791   0.87457   61.510
 3982.00    0.88648   0.87523   61.554
 3983.00    0.89539   0.88308   61.309
 3984.00    0.90459   0.89704   60.104
 3985.00    0.91974   0.91034   58.645
 3986.00    0.91946   0.91947   58.875
 3987.00    0.93382   0.92667   60.162
 3988.00    0.94661   0.93448   61.573
 3989.00    0.95123   0.94284   62.809
 3990.00    0.94908   0.95187   63.483
 3991.00    0.95666   0.96217   62.454
 3992.00    0.97176   0.97157   59.851
 3993.00    0.97976   0.97505   57.660
 3994.00    0.96575   0.96888   56.530
 3995.00    0.95034   0.95483   55.707
 3996.00    0.92389   0.94039   56.419
 3997.00    0.91541   0.93410   59.725
 3998.00    0.92488   0.93936   63.057
 3999.00    0.94915   0.95255   63.305
 4000.00    0.98040   0.96640   60.191
 4001.00    0.98742   0.97426   57.574
 4002.00    0.99961   0.97274   56.531
 4003.00    0.99225   0.96207   55.902
 4004.00    0.96394   0.94689   55.637
 4005.00    0.91857   0.93721   55.932
 4006.00    0.92049   0.94214   56.260
 4007.00    0.97370   0.95998   55.970
 4008.00    0.97397   0.98001   55.232
 4009.00    0.97475   0.99322   55.480
 4010.00    0.99265   0.99773   56.142
 4011.00    1.00318   0.99668   56.043
 4012.00    0.98296   0.99485   55.266
 4013.00    0.98090   0.99600   55.223
 4014.00    0.99562   1.00063   55.929
 4015.00    0.99350   1.00665   56.347
 4016.00    0.99062   1.01242   56.707
 4017.00    0.99794   1.01823   57.141
 4018.00    1.00231   1.02458   56.019
 4019.00    1.00613   1.02965   54.095
 4020.00    1.00624   1.03002   52.860
 4021.00    1.00390   1.02396   53.096
 4022.00    0.99257   1.01290   55.034
 4023.00    0.98517   1.00084   58.602
 4024.00    0.98719   0.99408   61.341
 4025.00    1.00000   0.99782   62.357
 4026.00    1.01239   1.00927   61.782
 4027.00    1.02339   1.01736   59.924
 4028.00    1.02093   1.01310   57.080
 4029.00    0.99923   0.99738   54.249
 4030.00    0.95816   0.97825   52.229
 4031.00    0.92768   0.96439   51.802
 4032.00    0.94220   0.96072   52.735
 4033.00    0.96146   0.96756   53.991
 4034.00    0.96165   0.98307   54.678
 4035.00    0.97842   1.00515   54.983
 4036.00    1.01776   1.03025   57.323
 4037.00    1.04142   1.05124   62.590
 4038.00    1.05785   1.06083   67.661
 4039.00    1.05546   1.05866   65.869
 4040.00    1.03384   1.05083   59.824
 4041.00    1.03004   1.04130   55.910
 4042.00    1.02538   1.02698   54.099
 4043.00    0.98678   1.00330   53.370
 4044.00    0.93809   0.97505   53.625
 4045.00    0.90681   0.95736   -1.000
 4046.00    0.91467   0.96216   -1.000
 4047.00    0.96711   0.98611   57.376
 4048.00    1.00824   1.01429   57.880
 4049.00    1.02651   1.03411   58.278
 4050.00    1.03573   1.04192   58.869
 4051.00    1.02453   1.03929   58.311
 4052.00    1.01894   1.02980   56.319
 4053.00    1.01442   1.01921   55.100
 4054.00    0.98536   1.01297   55.846
 4055.00    0.97781   1.01207   59.655
 4056.00    0.99452   1.01455   63.858
 4057.00    1.01334   1.01995   63.380
 4058.00    1.02032   1.02815   60.405
 4059.00    1.02248   1.03410   58.786
 4060.00    1.02519   1.02971   57.211
 4061.00    1.00963   1.01275   55.379
 4062.00    0.97633   0.98939   54.576
 4063.00    0.94987   0.96906   56.502
 4064.00    0.94525   0.95942   59.092
 4065.00    0.96871   0.96238   58.926
 4066.00    0.98938   0.97365   56.863
 4067.00    0.98520   0.98677   56.410
 4068.00    0.98790   0.99565   58.931
 4069.00    1.00175   0.99479   63.847
 4070.00    1.00515   0.98384   66.067
 4071.00    0.98339   0.97131   64.156
 4072.00    0.95636   0.96705   59.860
 4073.00    0.98100   0.97034   55.715
 4074.00    1.00418   0.96984   53.880
 4075.00    0.97139   0.95691   54.637
 4076.00    0.93108   0.93647   56.476
 4077.00    0.90826   0.92393   57.412
 4078.00    0.91703   0.93149   56.651
 4079.00    0.96066   0.95691   54.779
 4080.00    0.98749   0.98518   52.673
 4081.00    0.99919   1.00150   50.955
 4082.00    1.00118   1.00191   51.092
 4083.00    0.97270   0.99286   52.122
 4084.00    0.96064   0.98465   53.108
 4085.00    0.96857   0.98476   53.727
 4086.00    0.98106   0.99445   53.797
 4087.00    1.01109   1.00884   54.752
 4088.00    1.01912   1.02021   57.231
 4089.00    1.02698   1.02329   59.188
 4090.00    1.01460   1.01862   59.672
 4091.00    0.99849   1.00996   60.626
 4092.00    0.99747   0.99894   63.936
 4093.00    1.00005   0.98432   69.832
 4094.00    0.97247   0.96458   74.777
 4095.00    0.94078   0.93939   73.418
 4096.00    0.91991   0.90901   67.296
 4097.00    0.89285   0.87208   62.017
 4098.00    0.87441   0.82545   58.643
 4099.00    0.83398   0.76861   -1.000
 4100.00    0.74947   0.71153   56.515
 4101.00    0.68421   0.67577   57.047
 4102.00    0.68336   0.68054   58.164
 4103.00    0.73937   0.72607   59.033
 4104.00    0.82705   0.79212   58.313
 4105.00    0.87313   0.85345   56.988
 4106.00    0.90252   0.89634   56.006
 4107.00    0.93063   0.92096   55.142
 4108.00    0.93259   0.93364   54.601
 4109.00    0.92856   0.94159   54.871
 4110.00    0.93706   0.95074   56.050
 4111.00    0.95510   0.96393   57.966
 4112.00    0.97130   0.98078   58.643
 4113.00    0.98166   0.99911   57.896
 4114.00    1.00254   1.01572   57.295
 4115.00    1.01744   1.02620   57.361
 4116.00    1.02653   1.02716   56.735
 4117.00    0.99994   1.01961   55.715
 4118.00    0.98426   1.00923   55.538
 4119.00    0.98311   1.00230   56.308
 4120.00    0.98643   1.00080   57.544
 4121.00    0.99069   1.00221   58.005
 4122.00    1.00258   1.00492   58.294
 4123.00    1.01388   1.01049   59.043
 4124.00    1.01890   1.01848   60.950
 4125.00    1.02197   1.02358   62.885
 4126.00    1.02484   1.02079   63.002
 4127.00    1.02131   1.01166   60.853
 4128.00    0.99898   1.00253   57.725
 4129.00    1.01141   0.99664   55.875
 4130.00    1.01005   0.99134   55.003
 4131.00    0.98925   0.98491   54.145
 4132.00    0.97857   0.98205   53.961
 4133.00    0.96386   0.98923   55.137
 4134.00    0.97538   1.00694   58.150
 4135.00    1.00681   1.02944   63.159
 4136.00    1.02840   1.05048   66.361
 4137.00    1.04918   1.06709   63.699
 4138.00    1.06598   1.07826   59.817
 4139.00    1.06400   1.08117   57.657
 4140.00    1.06295   1.07164   57.145
 4141.00    1.03464   1.04974   58.314
 4142.00    0.98467   1.02341   59.959
 4143.00    0.95833   1.00602   -1.000
 4144.00    0.97335   1.00722   60.158
 4145.00    0.99835   1.02340   59.840
 4146.00    1.02475   1.04104   60.451
 4147.00    1.03867   1.04975   61.387
 4148.00    1.04681   1.04978   59.785
 4149.00    1.02263   1.04789   59.363
 4150.00    1.17588   1.04821   -1.000
 4151.00    1.46067   1.04864   -1.000
 4152.00    0.86063   1.04522   -1.000
 4153.00    0.64525   1.03796   -1.000
 4154.00    1.07062   1.03157   55.826
 4155.00    1.07342   1.03097   55.292
 4156.00    0.99041   1.03741   55.686
 4157.00    1.02223   1.04847   56.630
 4158.00    1.03847   1.05982   57.494
 4159.00    1.04580   1.06730   58.795
 4160.00    1.05773   1.06981   59.608
 4161.00    1.06455   1.07015   59.070
 4162.00    1.05475   1.07187   58.110
 4163.00    1.06529   1.07600   58.947
 4164.00    1.05579   1.08042   62.612
 4165.00    1.04904   1.08173   66.221
 4166.00    1.04997   1.07872   66.101
 4167.00    1.04420   1.07375   63.619
 4168.00    1.03314   1.06802   61.467
 4169.00    1.03355   1.05727   61.524
 4170.00    1.03498   1.03637   61.861
 4171.00    1.01139   1.00809   61.514
 4172.00    0.97587   0.98464   60.546
 4173.00    0.95744   0.97826   60.025
 4174.00    0.96249   0.98962   60.041
 4175.00    0.98854   1.00656   59.319
 4176.00    1.00705   1.01625   58.112
 4177.00    0.99138   1.01790   57.181
 4178.00    0.99037   1.02015   57.465
 4179.00    1.01752   1.02812   59.473
 4180.00    1.02515   1.03755   60.967
 4181.00    1.02104   1.04254   60.262
 4182.00    1.01343   1.04375   58.949
 4183.00    1.01492   1.04525   58.588
 4184.00    1.02160   1.04711   57.738
 4185.00    1.02018   1.04566   56.509
 4186.00    1.01385   1.03982   56.015
 4187.00    0.99670   1.03437   57.887
 4188.00    0.98769   1.03458   -1.000
 4189.00    1.01524   1.03983   62.773
 4190.00    1.03344   1.04658   63.740
 4191.00    1.03388   1.05381   63.747
 4192.00    1.05410   1.06116   62.976
 4193.00    1.07067   1.06492   62.042
 4194.00    1.05883   1.05996   61.881
 4195.00    1.03879   1.04519   61.402
 4196.00    1.00517   1.02520   60.469
 4197.00    0.98580   1.00641   59.965
 4198.00    0.97469   0.99367   58.720
 4199.00    0.96547   0.98878   57.274
 4200.00    0.97920   0.98985   56.275
 4201.00    0.98853   0.99368   56.094
 4202.00    0.97711   0.99959   56.303
 4203.00    0.97987   1.00866   56.132
 4204.00    0.98891   1.02070   55.818
 4205.00    1.00276   1.03430   56.375
 4206.00    1.00128   1.04753   58.400
 4207.00    1.01244   1.05728   60.983
 4208.00    1.05681   1.06159   62.083
 4209.00    1.06522   1.06273   59.549
 4210.00    1.04672   1.06488   55.842
 4211.00    1.03659   1.06867   53.542
 4212.00    1.03804   1.06918   52.217
 4213.00    1.02925   1.06074   51.841
 4214.00    1.00911   1.04443   52.597
 4215.00    0.98727   1.02972   55.073
 4216.00    0.98066   1.02720   -1.000
 4217.00    1.01065   1.03915   65.534
 4218.00    1.04204   1.05768   73.989
 4219.00    1.05772   1.07269   78.076
 4220.00    1.07210   1.07833   71.773
 4221.00    1.07143   1.07171   62.304
 4222.00    1.05496   1.05092   56.528
 4223.00    1.02012   1.01692   54.095
 4224.00    0.96747   0.97634   54.035
 4225.00    0.92030   0.94172   55.361
 4226.00    0.88830   0.92828   56.676
 4227.00    0.89757   0.94531   -1.000
 4228.00    0.96033   0.98555   58.668
 4229.00    1.02442   1.02709   59.453
 4230.00    1.04912   1.05027   58.773
 4231.00    1.05325   1.05071   57.452
 4232.00    1.03907   1.03781   56.604
 4233.00    1.02933   1.02442   55.557
 4234.00    1.02745   1.01767   54.917
 4235.00    1.01001   1.01745   54.561
 4236.00    1.00188   1.02137   53.547
 4237.00    1.00092   1.02866   52.727
 4238.00    0.99263   1.03902   53.710
 4239.00    0.99546   1.05061   -1.000
 4240.00    1.02844   1.06078   58.198
 4241.00    1.04575   1.06812   59.467
 4242.00    1.04018   1.07331   59.848
 4243.00    1.05024   1.07643   59.409
 4244.00    1.06038   1.07429   57.630
 4245.00    1.05040   1.06344   56.405
 4246.00    1.02049   1.04610   57.062
 4247.00    1.00182   1.03005   58.195
 4248.00    1.00243   1.02144   57.007
 4249.00    0.99661   1.02057   55.084
 4250.00    0.98347   1.02525   55.247
 4251.00    0.99947   1.03300   57.692
 4252.00    1.02924   1.03972   60.585
 4253.00    1.04020   1.04250   61.226
 4254.00    1.02693   1.04405   58.415
 4255.00    1.01611   1.04828   54.901
 4256.00    1.02231   1.05279   52.631
 4257.00    1.03490   1.05072   51.700
 4258.00    1.01999   1.03988   51.838
 4259.00    0.98736   1.02729   52.931
 4260.00    0.98255   1.02383   54.704
 4261.00    1.00103   1.03548   56.465
 4262.00    1.02132   1.05853   59.024
 4263.00    1.05448   1.08231   62.959
 4264.00    1.08263   1.09746   66.077
 4265.00    1.08328   1.10124   66.102
 4266.00    1.07332   1.09564   64.487
 4267.00    1.05746   1.08281   62.532
 4268.00    1.04866   1.06328   59.340
 4269.00    1.03190   1.03779   55.707
 4270.00    0.99362   1.01016   53.794
 4271.00    0.94951   0.98787   54.462
 4272.00    0.93849   0.97823   56.885
 4273.00    0.94649   0.98307   58.374
 4274.00    0.96842   0.99930   58.197
 4275.00    0.98789   1.02302   57.409
 4276.00    1.02841   1.04901   57.229
 4277.00    1.04919   1.06923   58.272
 4278.00    1.04817   1.07739   59.977
 4279.00    1.03276   1.07407   61.305
 4280.00    1.01608   1.06548   -1.000
 4281.00    1.00725   1.05785   -1.000
 4282.00    1.01067   1.05346   -1.000
 4283.00    1.01851   1.05081   66.681
 4284.00    1.01443   1.04694   62.926
 4285.00    0.99982   1.03863   59.662
 4286.00    0.97824   1.02374   59.101
 4287.00    0.96611   1.00283   59.836
 4288.00    0.96350   0.98005   60.951
 4289.00    0.93770   0.96382   62.836
 4290.00    0.92036   0.96279   66.735
 4291.00    0.94953   0.97621   72.446
 4292.00    0.98136   0.99194   76.526
 4293.00    1.00690   0.99828   76.339
 4294.00    1.00056   0.99442   74.273
 4295.00    0.99310   0.98562   73.187
 4296.00    0.98384   0.97296   72.140
 4297.00    0.95047   0.95300   71.629
 4298.00    0.91240   0.92532   72.633
 4299.00    0.88348   0.89674   75.676
 4300.00    0.86225   0.87684   79.184
 4301.00    0.86580   0.87065   79.963
 4302.00    0.88136   0.87730   77.355
 4303.00    0.89106   0.89222   72.783
 4304.00    0.90317   0.90707   68.332
 4305.00    0.90310   0.91235   65.138
 4306.00    0.90253   0.90536   62.159
 4307.00    0.98601   0.89372   -1.000
 4308.00    1.05368   0.88916   -1.000
 4309.00    0.86261   0.89775   49.712
 4310.00    0.85298   0.91512   -1.000
 4311.00    0.87860   0.93205   48.907
 4312.00    0.90306   0.94517   49.818
 4313.00    0.93036   0.96082   51.150
 4314.00    0.95155   0.98797   53.171
 4315.00    1.00626   1.02739   56.259
 4316.00    1.06405   1.06843   60.793
 4317.00    1.09975   1.09745   65.344
 4318.00    1.10778   1.10802   65.434
 4319.00    1.10323   1.10271   59.973
 4320.00    1.08356   1.08790   54.238
 4321.00    1.05492   1.06766   51.401
 4322.00    1.02709   1.04195   50.934
 4323.00    0.98424   1.01162   51.023
 4324.00    0.94108   0.98504   50.498
 4325.00    0.92687   0.97635   49.715
 4326.00    0.94136   0.99258   49.365
 4327.00    0.99004   1.02367   49.612
 4328.00    1.03547   1.05064   51.321
 4329.00    1.05885   1.06305   55.330
 4330.00    1.06086   1.06449   60.736
 4331.00    1.05776   1.06311   66.169
 4332.00    1.05902   1.06111   70.239
 4333.00    1.05568   1.05396   69.138
 4334.00    1.03867   1.03476   63.111
 4335.00    1.02878   0.99700   57.709
 4336.00    0.98599   0.93799   54.891
 4337.00    0.90638   0.86456   53.308
 4338.00    0.82906   0.79346   52.070
 4339.00    0.76344   0.74459   51.335
 4340.00    0.72341   0.73357   50.687
 4341.00    0.74465   0.76431   50.210
 4342.00    0.82735   0.82360   51.381
 4343.00    0.90788   0.88878   54.748
 4344.00    0.95646   0.94457   57.636
 4345.00    0.99173   0.98880   57.037
 4346.00    1.01728   1.02407   54.479
 4347.00    1.03926   1.04937   52.312
 4348.00    1.04984   1.05957   50.938
 4349.00    1.05544   1.05170   50.325
 4350.00    1.03798   1.03187   50.818
 4351.00    0.99637   1.01500   51.785
 4352.00    0.98710   1.01446   51.733
 4353.00    1.00654   1.03217   50.427
 4354.00    1.03651   1.05876   49.262
 4355.00    1.05755   1.08226   48.897
 4356.00    1.07265   1.09607   48.563
 4357.00    1.06873   1.10058   48.207
 4358.00    1.05103   1.10086   48.816
 4359.00    1.05706   1.10325   50.515
 4360.00    1.08171   1.11103   51.846
 4361.00    1.10028   1.12249   51.909
 4362.00    1.09985   1.13367   51.436
 4363.00    1.09282   1.14151   51.243
 4364.00    1.09556   1.14347   51.444
 4365.00    1.10240   1.13727   52.653
 4366.00    1.09878   1.12358   54.863
 4367.00    1.08173   1.10758   56.121
 4368.00    1.07226   1.09540   55.027
 4369.00    1.08093   1.08912   52.441
 4370.00    1.09230   1.08581   50.534
 4371.00    1.08357   1.07981   50.225
 4372.00    1.06948   1.06685   50.832
 4373.00    1.05088   1.04890   52.417
 4374.00    1.02446   1.03592   56.377
 4375.00    1.03004   1.03870   62.885
 4376.00    1.06436   1.05784   67.163
 4377.00    1.09448   1.08229   64.356
 4378.00    1.10974   1.09890   58.128
 4379.00    1.11030   1.10024   54.279
 4380.00    1.09757   1.08381   53.450
 4381.00    1.07437   1.05015   53.797
 4382.00    1.03144   1.00674   54.215
 4383.00    0.97217   0.97069   53.800
 4384.00    0.95217   0.95944   52.629
 4385.00    0.98796   0.97614   52.149
 4386.00    1.03325   1.00741   52.939
 4387.00    1.05606   1.03613   53.508
 4388.00    1.06026   1.05365   52.164
 4389.00    1.06023   1.06109   50.106
 4390.00    1.06077   1.06406   49.698
 4391.00    1.06961   1.06609   51.019
 4392.00    1.08067   1.06505   52.787
 4393.00    1.08079   1.05851   53.286
 4394.00    1.06454   1.05191   52.414
 4395.00    1.05626   1.05424   52.780
 4396.00    1.08085   1.06537   55.350
 4397.00    1.10878   1.07453   57.302
 4398.00    1.11054   1.07354   56.470
 4399.00    1.09409   1.06648   55.018
 4400.00    1.07184   1.06328   54.412
 4401.00    1.06855   1.06659   53.127
 4402.00    1.08489   1.06915   50.905
 4403.00    1.08319   1.06488   48.941
 4404.00    1.05435   1.05724   47.838
 4405.00    1.04106   1.05370   48.232
 4406.00    1.05508   1.05658   50.346
 4407.00    1.06434   1.06327   52.785
 4408.00    1.06281   1.07292   53.527
 4409.00    1.08162   1.08738   52.331
 4410.00    1.10952   1.10493   50.263
 4411.00    1.11730   1.11784   48.507
 4412.00    1.12211   1.11769   48.006
 4413.00    1.11971   1.10157   48.855
 4414.00    1.09096   1.07544   49.979
 4415.00    1.05371   1.05269   50.249
 4416.00    1.03621   1.04631   49.944
 4417.00    1.04655   1.06034   49.928
 4418.00    1.07515   1.08764   50.157
 4419.00    1.10423   1.11438   50.086
 4420.00    1.11422   1.12899   49.794
 4421.00    1.09928   1.13052   49.971
 4422.00    1.08431   1.12688   50.324
 4423.00    1.08962   1.12476   50.069
 4424.00    1.10102   1.12411   49.558
 4425.00    1.09978   1.12251   50.258
 4426.00    1.09920   1.12058   52.438
 4427.00    1.09906   1.12081   53.974
 4428.00    1.09753   1.12366   52.978
 4429.00    1.10825   1.12733   50.124
 4430.00    1.11187   1.12985   47.540
 4431.00    1.10885   1.12967   46.593
 4432.00    1.10819   1.12499   47.400
 4433.00    1.09434   1.11542   49.392
 4434.00    1.06846   1.10598   51.648
 4435.00    1.06751   1.10594   52.711
 4436.00    1.09276   1.12010   51.600
 4437.00    1.12246   1.14237   49.445
 4438.00    1.14820   1.15964   47.988
 4439.00    1.16507   1.16108   47.637
 4440.00    1.15269   1.14450   47.725
 4441.00    1.10795   1.11757   48.067
 4442.00    1.07491   1.09454   48.585
 4443.00    1.06436   1.08887   48.576
 4444.00    1.08043   1.10398   48.579
 4445.00    1.10869   1.13002   49.768
 4446.00    1.12724   1.15229   51.929
 4447.00    1.13931   1.16300   53.593
 4448.00    1.14668   1.16355   53.482
 4449.00    1.13969   1.15943   52.488
 4450.00    1.13187   1.15520   52.117
 4451.00    1.13058   1.15129   52.319
 4452.00    1.12515   1.14356   52.761
 4453.00    1.11764   1.12884   53.277
 4454.00    1.10760   1.11158   52.839
 4455.00    1.09275   1.10103   51.118
 4456.00    1.09372   1.10132   49.555
 4457.00    1.10322   1.10797   49.064
 4458.00    1.10215   1.11388   49.087
 4459.00    1.10047   1.11612   49.438
 4460.00    1.09397   1.11667   50.256
 4461.00    1.08285   1.11905   50.841
 4462.00    1.08751   1.12480   50.508
 4463.00    1.10800   1.13230   49.226
 4464.00    1.12497   1.13820   47.554
 4465.00    1.12614   1.13909   46.120
 4466.00    1.11825   1.13291   45.403
 4467.00    1.11300   1.12146   45.330
 4468.00    1.10647   1.11176   45.128
 4469.00    1.09874   1.11178   44.799
 4470.00    1.10526   1.12418   44.953
 4471.00    1.12330   1.14477   46.157
 4472.00    1.14343   1.16651   48.155
 4473.00    1.17100   1.18380   49.850
 4474.00    1.18950   1.19432   50.000
 4475.00    1.18528   1.19903   48.392
 4476.00    1.17759   1.19990   46.442
 4477.00    1.18056   1.19656   45.175
 4478.00    1.18480   1.18573   44.880
 4479.00    1.17310   1.16620   45.580
 4480.00    1.13925   1.14449   47.103
 4481.00    1.12152   1.13251   48.481
 4482.00    1.12453   1.13786   48.522
 4483.00    1.14030   1.15754   47.447
 4484.00    1.16863   1.18098   46.489
 4485.00    1.18764   1.19695   46.686
 4486.00    1.19463   1.19891   47.903
 4487.00    1.18484   1.18789   49.116
 4488.00    1.16750   1.17200   49.122
 4489.00    1.14997   1.16121   47.775
 4490.00    1.13760   1.16068   46.296
 4491.00    1.15296   1.16790   45.548
 4492.00    1.16523   1.17555   45.764
 4493.00    1.15361   1.17807   46.139
 4494.00    1.14024   1.17642   45.416
 4495.00    1.12877   1.17579   43.941
 4496.00    1.13498   1.17924   42.909
 4497.00    1.16119   1.18501   42.867
 4498.00    1.18843   1.18851   43.578
 4499.00    1.18979   1.18679   44.177
 4500.00    1.17011   1.18306   44.331
 4501.00    1.16393   1.18521   44.103
 4502.00    1.18887   1.19743   43.776
 4503.00    1.20937   1.21524   43.930
 4504.00    1.21552   1.22975   44.660
 4505.00    1.22395   1.23479   45.501
 4506.00    1.22224   1.23052   45.951
 4507.00    1.20929   1.22261   45.873
 4508.00    1.20257   1.21822   45.767
 4509.00    1.21191   1.22020   46.147
 4510.00    1.21237   1.22486   46.523
 4511.00    1.21188   1.22635   46.048
 4512.00    1.20442   1.22195   45.151
 4513.00    1.19871   1.21301   44.971
 4514.00    1.19221   1.20327   45.779
 4515.00    1.19290   1.19650   46.781
 4516.00    1.18817   1.19339   47.343
 4517.00    1.18240   1.19111   48.011
 4518.00    1.17977   1.18762   49.297
 4519.00    1.17764   1.18403   50.746
 4520.00    1.18795   1.18160   51.597
 4521.00    1.19206   1.17916   51.492
 4522.00    1.17545   1.17542   50.716
 4523.00    1.16261   1.17135   49.786
 4524.00    1.16252   1.16777   49.351
 4525.00    1.16393   1.16259   50.282
 4526.00    1.15952   1.15290   51.949
 4527.00    1.14814   1.13951   51.958
 4528.00    1.13151   1.12810   49.553
 4529.00    1.11925   1.12450   46.608
 4530.00    1.12276   1.12813   44.942
 4531.00    1.13800   1.13132   44.951
 4532.00    1.14088   1.12711   45.894
 4533.00    1.11692   1.11794   46.173
 4534.00    1.09742   1.11454   45.890
 4535.00    1.10528   1.12569   45.669
 4536.00    1.13517   1.15029   58.717
 4537.00    1.22445   1.17842   26.180
 4538.00    0.78091   1.19868   -1.000
 4539.00    0.16648   1.20562   -1.000
 4540.00   -0.00657   1.20245    0.000
 4541.00    0.53495   1.19699   -1.000
 4542.00    0.69515   1.19429   -1.000
 4543.00    0.57144   1.19365   -1.000
 4544.00    1.04165   1.19227   -1.000
 4545.00    1.19320   1.18918   48.404
 4546.00    1.18159   1.18340   48.938
 4547.00    1.17950   1.17230   48.485
 4548.00    1.14770   1.15638   46.938
 4549.00    1.12493   1.14348   45.067
 4550.00    1.13473   1.14213   44.026
 4551.00    1.15406   1.15021   44.041
 4552.00    1.15697   1.15616   44.095
 4553.00    1.14520   1.15314   44.097
 4554.00    1.13470   1.14672   44.887
 4555.00    1.13740   1.14782   46.011
 4556.00    1.16692   1.16114   46.887
 4557.00    1.19539   1.18172   46.665
 4558.00    1.21294   1.20160   45.607
 4559.00    1.21925   1.21664   44.398
 4560.00    1.21979   1.22529   43.788
 4561.00    1.21286   1.22503   44.075
 4562.00    1.19336   1.21506   45.071
 4563.00    1.18084   1.20097   46.262
 4564.00    1.16837   1.19238   46.264
 4565.00    1.17222   1.19496   45.063
 4566.00    1.19143   1.20629   44.251
 4567.00    1.20298   1.21881   44.146
 4568.00    1.21899   1.22511   44.322
 4569.00    1.21661   1.22145   44.571
 4570.00    1.19853   1.20935   45.232
 4571.00    1.17789   1.19645   46.480
 4572.00    1.17378   1.19254   47.543
 4573.00    1.19054   1.20021   47.630
 4574.00    1.21561   1.21195   47.047
 4575.00    1.23032   1.21925   46.629
 4576.00    1.22865   1.22022   46.678
 4577.00    1.21639   1.21647   46.949
 4578.00    1.21077   1.20825   46.482
 4579.00    1.19416   1.19573   45.353
 4580.00    1.18180   1.18126   44.337
 4581.00    1.17212   1.16795   44.108
 4582.00    1.15924   1.15836   44.633
 4583.00    1.16510   1.15549   45.445
 4584.00    1.17374   1.16112   46.257
 4585.00    1.17570   1.17246   46.440
 4586.00    1.19310   1.18403   46.113
 4587.00    1.21176   1.19227   45.739
 4588.00    1.21261   1.19664   45.575
 4589.00    1.21543   1.19793   45.478
 4590.00    1.20893   1.19722   45.376
 4591.00    1.20236   1.19594   45.691
 4592.00    1.19295   1.19610   46.108
 4593.00    1.18856   1.19929   46.285
 4594.00    1.19504   1.20526   45.892
 4595.00    1.21183   1.21233   45.373
 4596.00    1.21398   1.21854   45.353
 4597.00    1.22720   1.22201   45.308
 4598.00    1.22643   1.22136   44.877
 4599.00    1.21323   1.21684   44.044
 4600.00    1.20422   1.21068   43.104
 4601.00    1.19440   1.20604   42.531
 4602.00    1.19401   1.20499   42.621
 4603.00    1.20519   1.20739   43.158
 4604.00    1.21405   1.21167   43.660
 4605.00    1.21742   1.21667   43.973
 4606.00    1.21824   1.22249   43.825
 4607.00    1.22112   1.22942   43.452
 4608.00    1.22824   1.23665   43.246
 4609.00    1.24255   1.24208   43.475
 4610.00    1.24012   1.24366   43.799
 4611.00    1.22842   1.24143   43.807
 4612.00    1.22654   1.23776   43.433
 4613.00    1.21862   1.23481   42.772
 4614.00    1.21871   1.23234   42.670
 4615.00    1.22403   1.22867   42.769
 4616.00    1.22376   1.22314   42.857
 4617.00    1.22801   1.21700   43.215
 4618.00    1.22718   1.21266   43.359
 4619.00    1.22097   1.21290   43.349
 4620.00    1.22497   1.21918   43.594
 4621.00    1.23081   1.22958   43.712
 4622.00    1.24235   1.23919   43.526
 4623.00    1.23801   1.24405   43.050
 4624.00    1.22917   1.24393   43.164
 4625.00    1.24459   1.24082   43.756
 4626.00    1.24148   1.23601   44.261
 4627.00    1.23529   1.22996   44.275
 4628.00    1.22735   1.22424   44.590
 4629.00    1.22897   1.22222   45.164
 4630.00    1.23215   1.22582   45.393
 4631.00    1.24130   1.23214   45.350
 4632.00    1.24385   1.23545   44.643
 4633.00    1.24131   1.23329   43.570
 4634.00    1.22603   1.22889   42.926
 4635.00    1.23058   1.22657   43.035
 4636.00    1.22641   1.22719   43.790
 4637.00    1.22556   1.22921   44.998
 4638.00    1.23165   1.23210   46.253
 4639.00    1.23236   1.23686   46.543
 4640.00    1.23361   1.24395   45.791
 4641.00    1.25291   1.25170   44.729
 4642.00    1.26252   1.25677   44.080
 4643.00    1.25130   1.25633   43.966
 4644.00    1.24735   1.24979   43.878
 4645.00    1.23733   1.23887   44.358
 4646.00    1.21828   1.22737   45.362
 4647.00    1.22347   1.22034   45.925
 4648.00    1.23252   1.22109   45.589
 4649.00    1.23832   1.22831   44.194
 4650.00    1.22973   1.23723   42.504
 4651.00    1.23569   1.24314   41.506
 4652.00    1.23520   1.24382   41.414
 4653.00    1.22294   1.23954   41.904
 4654.00    1.21915   1.23241   42.913
 4655.00    1.21067   1.22621   43.775
 4656.00    1.20830   1.22589   43.916
 4657.00    1.23142   1.23482   44.606
 4658.00    1.25340   1.25109   46.480
 4659.00    1.27438   1.26732   48.431
 4660.00    1.29115   1.27594   48.571
 4661.00    1.27500   1.27455   47.132
 4662.00    1.25095   1.26605   45.163
 4663.00    1.24614   1.25438   43.912
 4664.00    1.25554   1.24076   43.619
 4665.00    1.24621   1.22426   43.646
 4666.00    1.21945   1.20596   43.604
 4667.00    1.19340   1.19123   43.051
 4668.00    1.17977   1.18612   42.400
 4669.00    1.19408   1.19239   42.590
 4670.00    1.21766   1.20677   43.505
 4671.00    1.23658   1.22346   44.372
 4672.00    1.25241   1.23739   45.111
 4673.00    1.25121   1.24686   45.554
 4674.00    1.24884   1.25337   45.003
 4675.00    1.26618   1.25822   43.868
 4676.00    1.27461   1.25987   43.282
 4677.00    1.26246   1.25584   43.423
 4678.00    1.24874   1.24657   43.442
 4679.00    1.24193   1.23580   43.690
 4680.00    1.22641   1.22755   43.694
 4681.00    1.20831   1.22393   43.698
 4682.00    1.22204   1.22509   44.014
 4683.00    1.25004   1.22963   44.107
 4684.00    1.26387   1.23521   43.581
 4685.00    1.26086   1.23985   42.929
 4686.00    1.27162   1.24288   41.967
 4687.00    1.25797   1.24462   41.432
 4688.00    1.25651   1.24542   41.643
 4689.00    1.26456   1.24529   42.860
 4690.00    1.25091   1.24450   44.163
 4691.00    1.23700   1.24425   44.669
 4692.00    1.25498   1.24595   44.296
 4693.00    1.26700   1.24947   44.640
 4694.00    1.27528   1.25315   45.444
 4695.00    1.27502   1.25483   45.670
 4696.00    1.29535   1.25247   44.777
 4697.00    1.27004   1.24529   44.119
 4698.00    1.25027   1.23522   44.769
 4699.00    1.24351   1.22528   45.681
 4700.00    1.24056   1.21664   46.109
 4701.00    1.22900   1.20898   45.847
 4702.00    1.22299   1.20330   44.456
 4703.00    1.22293   1.20223   43.237
 4704.00    1.22968   1.20622   42.835
 4705.00    1.24174   1.21097   43.278
 4706.00    1.24154   1.21123   44.119
 4707.00    1.22908   1.20680   44.086
 4708.00    1.21398   1.20307   43.171
 4709.00    1.20312   1.20539   42.341
 4710.00    1.22559   1.21392   42.104
 4711.00    1.25949   1.22413   41.959
 4712.00    1.26153   1.23078   41.815
 4713.00    1.24926   1.23212   42.200
 4714.00    1.23374   1.23131   42.497
 4715.00    1.23831   1.23330   42.217
 4716.00    1.25111   1.23976   41.746
 4717.00    1.25582   1.24799   41.841
 4718.00    1.26153   1.25438   42.921
 4719.00    1.26707   1.25768   44.602
 4720.00    1.26034   1.25871   45.554
 4721.00    1.25823   1.25891   45.310
 4722.00    1.26764   1.25964   44.830
 4723.00    1.27173   1.26138   44.482
 4724.00    1.28019   1.26281   43.933
 4725.00    1.27926   1.26133   43.563
 4726.00    1.25477   1.25516   43.323
 4727.00    1.24603   1.24512   43.092
 4728.00    1.24022   1.23424   43.597
 4729.00    1.24214   1.22541   43.612
 4730.00    1.25205   1.22034   43.019
 4731.00    1.24395   1.22017   43.082
 4732.00    1.24475   1.22479   43.343
 4733.00    1.24167   1.23130   43.376
 4734.00    1.24610   1.23573   42.998
 4735.00    1.26127   1.23653   42.537
 4736.00    1.25806   1.23542   42.657
 4737.00    1.24598   1.23508   42.678
 4738.00    1.24798   1.23672   42.332
 4739.00    1.25028   1.23963   41.908
 4740.00    1.24786   1.24273   41.847
 4741.00    1.24993   1.24593   41.918
 4742.00    1.25662   1.24962   41.955
 4743.00    1.27083   1.25363   42.287
 4744.00    1.26895   1.25711   42.774
 4745.00    1.27189   1.25978   43.122
 4746.00    1.27306   1.26250   43.396
 4747.00    1.26274   1.26628   43.309
 4748.00    1.26913   1.27083   43.503
 4749.00    1.27540   1.27478   43.821
 4750.00    1.28945   1.27675   43.828
 4751.00    1.28969   1.27566   43.455
 4752.00    1.26503   1.27125   43.440
 4753.00    1.25377   1.26487   44.192
 4754.00    1.24879   1.25909   45.295
 4755.00    1.24632   1.25624   45.811
 4756.00    1.25341   1.25695   45.839
 4757.00    1.25984   1.26000   45.719
 4758.00    1.25804   1.26315   45.361
 4759.00    1.27089   1.26369   44.683
 4760.00    1.25329   1.25879   43.672
 4761.00    1.25215   1.24722   43.140
 4762.00    1.24117   1.23166   43.274
 4763.00    1.22630   1.21830   43.660
 4764.00    1.22237   1.21256   43.974
 4765.00    1.23169   1.21560   43.376
 4766.00    1.24345   1.22494   42.475
 4767.00    1.24553   1.23736   42.249
 4768.00    1.24935   1.24989   42.308
 4769.00    1.26442   1.25938   42.451
 4770.00    1.27874   1.26365   42.757
 4771.00    1.26306   1.26364   43.230
 4772.00    1.26125   1.26313   43.458
 4773.00    1.27384   1.26538   43.569
 4774.00    1.28043   1.27040   43.803
 4775.00    1.28202   1.27541   44.128
 4776.00    1.29093   1.27732   44.106
 4777.00    1.30159   1.27452   44.296
 4778.00    1.29732   1.26774   44.736
 4779.00    1.27451   1.26033   44.950
 4780.00    1.26395   1.25617   44.869
 4781.00    1.26950   1.25589   44.632
 4782.00    1.26799   1.25660   44.331
 4783.00    1.27188   1.25559   43.825
 4784.00    1.26527   1.25266   43.059
 4785.00    1.24761   1.24902   42.109
 4786.00    1.24059   1.24609   41.467
 4787.00    1.23857   1.24513   41.414
 4788.00    1.23864   1.24681   41.915
 4789.00    1.24569   1.25107   42.780
 4790.00    1.25571   1.25751   43.541
 4791.00    1.25765   1.26564   43.926
 4792.00    1.27687   1.27484   43.425
 4793.00    1.28461   1.28407   42.553
 4794.00    1.29463   1.29145   42.046
 4795.00    1.30954   1.29450   42.212
 4796.00    1.30293   1.29186   42.802
 4797.00    1.28405   1.28488   43.326
 4798.00    1.26479   1.27738   43.655
 4799.00    1.27053   1.27352   43.608
 4800.00    1.28010   1.27510   43.481
 4801.00    1.29252   1.27996   43.251
 4802.00    1.29052   1.28327   42.860
 4803.00    1.28263   1.28139   42.570
 4804.00    1.27332   1.27531   42.383
 4805.00    1.26630   1.26971   42.341
 4806.00    1.27222   1.26829   42.226
 4807.00    1.27049   1.27099   42.053
 4808.00    1.28009   1.27530   41.782
 4809.00    1.27557   1.27893   41.538
 4810.00    1.27540   1.28111   41.398
 4811.00    1.27483   1.28272   41.394
 4812.00    1.28843   1.28537   41.457
 4813.00    1.29972   1.28978   41.964
 4814.00    1.29173   1.29514   43.064
 4815.00    1.28829   1.30014   43.713
 4816.00    1.29453   1.30392   43.464
 4817.00    1.30754   1.30605   42.678
 4818.00    1.30723   1.30641   42.171
 4819.00    1.29559   1.30485   42.445
 4820.00    1.29521   1.30024   42.922
 4821.00    1.29039   1.29076   43.126
 4822.00    1.28937   1.27658   43.177
 4823.00    1.27196   1.26241   43.539
 4824.00    1.26870   1.25518   43.448
 4825.00    1.27757   1.25783   42.737
 4826.00    1.29543   1.26645   42.254
 4827.00    1.29791   1.27433   42.160
 4828.00    1.29248   1.27767   42.266
 4829.00    1.29144   1.27680   42.549
 4830.00    1.29445   1.27357   43.187
 4831.00    1.29693   1.26951   43.821
 4832.00    1.28669   1.26619   43.788
 4833.00    1.29159   1.26501   43.664
 4834.00    1.29823   1.26595   43.416
 4835.00    1.29313   1.26769   43.064
 4836.00    1.29374   1.26884   42.575
 4837.00    1.29223   1.26848   41.988
 4838.00    1.28977   1.26599   42.018
 4839.00    1.27812   1.26170   42.875
 4840.00    1.26704   1.25736   43.365
 4841.00    1.26941   1.25489   43.199
 4842.00    1.26624   1.25463   42.677
 4843.00    1.27593   1.25567   42.676
 4844.00    1.27654   1.25711   42.961
 4845.00    1.28202   1.25769   43.537
 4846.00    1.29514   1.25542   44.871
 4847.00    1.28497   1.24973   45.828
 4848.00    1.27557   1.24353   45.583
 4849.00    1.26134   1.24053   45.495
 4850.00    1.25245   1.24066   47.411
 4851.00    1.25703   1.23960   51.974
 4852.00    1.23024   1.23208   57.374
 4853.00    1.19085   1.21541   58.416
 4854.00    1.17437   1.19147   54.195
 4855.00    1.17817   1.16556   49.718
 4856.00    1.19832   1.14064   -1.000
 4857.00    1.18086   1.11139   -1.000
 4858.00    1.14661   1.06677   -1.000
 4859.00    1.07031   1.00286   -1.000
 4860.00    0.95150   0.93464   44.480
 4861.00    0.87841   0.89147   45.107
 4862.00    0.91557   0.89527   46.379
 4863.00    1.02475   0.94256   -1.000
 4864.00    1.10376   1.00987   -1.000
 4865.00    1.14772   1.07403   -1.000
 4866.00    1.18109   1.12434   -1.000
 4867.00    1.20777   1.15929   44.226
 4868.00    1.21549   1.17934   44.012
 4869.00    1.21448   1.18495   43.734
 4870.00    1.20890   1.17943   43.123
 4871.00    1.18477   1.17118   42.896
 4872.00    1.17619   1.16996   43.397
 4873.00    1.20635   1.17954   44.005
 4874.00    1.23020   1.19508   44.138
 4875.00    1.22823   1.20901   44.081
 4876.00    1.23323   1.21857   44.456
 4877.00    1.23941   1.22683   45.037
 4878.00    1.24395   1.23740   45.126
 4879.00    1.26059   1.24958   44.919
 4880.00    1.27367   1.25870   45.070
 4881.00    1.26870   1.26066   45.861
 4882.00    1.26649   1.25590   46.511
 4883.00    1.27544   1.24881   45.692
 4884.00    1.27191   1.24368   43.717
 4885.00    1.25975   1.24176   41.890
 4886.00    1.25322   1.24160   40.808
 4887.00    1.25475   1.24045   40.223
 4888.00    1.25208   1.23554   40.130
 4889.00    1.23062   1.22616   40.459
 4890.00    1.21192   1.21675   41.390
 4891.00    1.21631   1.21606   42.219
 4892.00    1.23700   1.23028   42.464
 4893.00    1.27761   1.25657   42.318
 4894.00    1.30619   1.28514   42.529
 4895.00    1.31555   1.30700   42.762
 4896.00    1.33038   1.31852   42.122
 4897.00    1.33163   1.32008   41.384
 4898.00    1.31046   1.31403   41.300
 4899.00    1.30044   1.30452   41.897
 4900.00    1.30010   1.29614   42.997
 4901.00    1.30126   1.29105   44.032
 4902.00    1.30153   1.28852   44.201
 4903.00    1.29080   1.28828   43.514
 4904.00    1.28951   1.29191   42.780
 4905.00    1.30111   1.29936   42.208
 4906.00    1.31736   1.30634   41.716
 4907.00    1.31910   1.30721   41.538
 4908.00    1.30431   1.29963   42.163
 4909.00    1.28792   1.28636   43.955
 4910.00    1.28191   1.27392   46.302
 4911.00    1.28360   1.26879   47.948
 4912.00    1.30577   1.27318   47.723
 4913.00    1.31735   1.28389   46.052
 4914.00    1.31580   1.29496   44.713
 4915.00    1.32546   1.30011   44.286
 4916.00    1.32183   1.29393   44.076
 4917.00    1.30145   1.27406   43.289
 4918.00    1.26814   1.24407   42.264
 4919.00    1.23240   1.21363   41.643
 4920.00    1.21241   1.19339   41.297
 4921.00    1.21052   1.18791   41.028
 4922.00    1.22599   1.19362   41.012
 4923.00    1.24693   1.20494   41.688
 4924.00    1.25369   1.22035   42.985
 4925.00    1.27047   1.24062   44.040
 4926.00    1.29986   1.26384   43.782
 4927.00    1.31816   1.28541   43.248
 4928.00    1.32783   1.30160   43.711
 4929.00    1.33844   1.31077   45.010
 4930.00    1.34346   1.31179   45.646
 4931.00    1.33652   1.30339   44.767
 4932.00    1.31518   1.28693   43.245
 4933.00    1.27936   1.26888   42.079
 4934.00    1.25874   1.25772   41.462
 4935.00    1.26652   1.25602   41.246
 4936.00    1.28123   1.25778   41.386
 4937.00    1.27815   1.25603   41.610
 4938.00    1.25549   1.25160   41.515
 4939.00    1.24517   1.25199   41.083
 4940.00    1.26656   1.26261   40.733
 4941.00    1.29850   1.28102   40.598
 4942.00    1.32279   1.29968   40.575
 4943.00    1.34024   1.31203   40.823
 4944.00    1.34554   1.31643   41.182
 4945.00    1.33590   1.31575   41.680
 4946.00    1.33079   1.31470   42.436
 4947.00    1.33390   1.31663   44.002
 4948.00    1.34160   1.32153   46.119
 4949.00    1.35054   1.32655   46.836
 4950.00    1.34920   1.32886   45.101
 4951.00    1.34824   1.32774   42.902
 4952.00    1.34741   1.32407   41.910
 4953.00    1.34166   1.31776   41.821
 4954.00    1.33136   1.30581   42.085
 4955.00    1.31494   1.28471   42.492
 4956.00    1.28054   1.25743   43.166
 4957.00    1.24637   1.23596   43.948
 4958.00    1.25131   1.23301   44.278
 4959.00    1.28421   1.25024   44.218
 4960.00    1.32576   1.27708   44.002
 4961.00    1.34683   1.30049   43.609
 4962.00    1.34502   1.31353   43.139
 4963.00    1.33876   1.31602   42.652
 4964.00    1.33230   1.31082   42.185
 4965.00    1.31744   1.30182   41.886
 4966.00    1.31088   1.29305   41.919
 4967.00    1.31307   1.28735   42.286
 4968.00    1.31664   1.28570   42.793
 4969.00    1.31794   1.28787   43.430
 4970.00    1.32043   1.29310   44.067
 4971.00    1.32842   1.30029   44.644
 4972.00    1.33716   1.30801   45.647
 4973.00    1.34585   1.31456   47.166
 4974.00    1.34964   1.31837   48.018
 4975.00    1.35211   1.31850   47.582
 4976.00    1.34793   1.31491   46.466
 4977.00    1.33810   1.30845   45.072
 4978.00    1.32912   1.29981   43.777
 4979.00    1.31623   1.28818   43.205
 4980.00    1.29970   1.27164   43.536
 4981.00    1.27302   1.25032   44.103
 4982.00    1.25111   1.22924   44.355
 4983.00    1.25017   1.21650   44.173
 4984.00    1.25818   1.21776   43.867
 4985.00    1.27199   1.23216   43.762
 4986.00    1.30359   1.25321   -1.000
 4987.00    1.32492   1.27251   -1.000
 4988.00    1.32043   1.28367   43.431
 4989.00    1.31306   1.28489   43.854
 4990.00    1.30846   1.27962   44.591
 4991.00    1.30511   1.27388   45.340
 4992.00    1.30690   1.27208   45.647
 4993.00    1.30980   1.27509   45.446
 4994.00    1.32149   1.28138   45.069
 4995.00    1.33792   1.28838   -1.000
 4996.00    1.34063   1.29278   -1.000
 4997.00    1.33431   1.29079   46.884
 4998.00    1.32325   1.28019   46.433
 4999.00    1.31412   1.26398   -1.000
 5000.00    1.30705   1.24952   -1.000
 5001.00    1.29833   1.24289   -1.000
 5002.00    1.30425   1.24361   -1.000
 5003.00    1.31523   1.24555   -1.000
 5004.00    1.31539   1.24275   -1.000
 5005.00    1.29710   1.23544   -1.000
 5006.00    1.27595   1.23024   -1.000
 5007.00    1.28301   1.23341   -1.000
 5008.00    1.31040   1.24425   -1.000
 5009.00    1.32631   1.25506   -1.000
 5010.00    1.32076   1.25757   -1.000
 5011.00    1.30313   1.24908   -1.000
 5012.00    1.27603   1.23396   45.437
 5013.00    1.25119   1.22008   45.596
 5014.00    1.24662   1.21290   45.508
 5015.00    1.26102   1.21173   -1.000
 5016.00    1.27996   1.21163   -1.000
 5017.00    1.28574   1.21018   -1.000
 5018.00    1.28426   1.21092   -1.000
 5019.00    1.29223   1.21830   -1.000
 5020.00    1.30113   1.23151   -1.000
 5021.00    1.30506   1.24517   -1.000
 5022.00    1.30470   1.25581   42.762
 5023.00    1.30781   1.26439   42.171
 5024.00    1.31500   1.27230   41.984
 5025.00    1.30760   1.27827   42.740
 5026.00    1.30276   1.28051   44.314
 5027.00    1.31183   1.27969   45.538
 5028.00    1.32512   1.27845   -1.000
 5029.00    1.33705   1.27921   -1.000
 5030.00    1.34278   1.28334   -1.000
 5031.00    1.34445   1.29063   -1.000
 5032.00    1.35572   1.29821   -1.000
 5033.00    1.35853   1.30107   -1.000
 5034.00    1.33820   1.29594   46.264
 5035.00    1.31674   1.28456   43.935
 5036.00    1.30128   1.27193   42.642
 5037.00    1.30653   1.26056   41.335
 5038.00    1.26421   1.24794   41.317
 5039.00    0.85562   1.23156   -1.000
 5040.00    0.37349   1.21551   -1.000
 5041.00    0.16357   1.20949   -1.000
 5042.00    0.67565   1.22037   -1.000
 5043.00    1.26607   1.24540   44.710
 5044.00    1.35050   1.27473   -1.000
 5045.00    1.34861   1.29825   -1.000
 5046.00    1.36076   1.31020   -1.000
 5047.00    1.35561   1.30911   41.885
 5048.00    1.34308   1.29712   41.877
 5049.00    1.32000   1.27898   41.958
 5050.00    1.29968   1.26098   41.981
 5051.00    1.30386   1.25062   -1.000
 5052.00    1.32294   1.25389   -1.000
 5053.00    1.34155   1.26972   -1.000
 5054.00    1.35895   1.29001   -1.000
 5055.00    1.36710   1.30652   -1.000
 5056.00    1.37060   1.31667   -1.000
 5057.00    1.37013   1.32258   -1.000
 5058.00    1.36482   1.32667   44.612
 5059.00    1.36400   1.32952   44.253
 5060.00    1.37120   1.33059   44.079
 5061.00    1.37666   1.32858   -1.000
 5062.00    1.36971   1.32162   -1.000
 5063.00    1.35423   1.30951   44.279
 5064.00    1.33371   1.29543   44.082
 5065.00    1.32310   1.28446   43.644
 5066.00    1.33041   1.27946   -1.000
 5067.00    1.34098   1.27925   -1.000
 5068.00    1.34504   1.28100   -1.000
 5069.00    1.35317   1.28286   -1.000
 5070.00    1.35935   1.28378   -1.000
 5071.00    1.35068   1.28307   -1.000
 5072.00    1.34665   1.28125   -1.000
 5073.00    1.34986   1.28023   -1.000
 5074.00    1.34894   1.28131   -1.000
 5075.00    1.35475   1.28314   -1.000
 5076.00    1.36991   1.28205   -1.000
 5077.00    1.36154   1.27467   -1.000
 5078.00    1.33086   1.26150   -1.000
 5079.00    1.29426   1.24796   43.330
 5080.00    1.28019   1.24036   43.047
 5081.00    1.29734   1.24100   -1.000
 5082.00    1.31613   1.24783   -1.000
 5083.00    1.32998   1.25792   -1.000
 5084.00    1.33852   1.26954   -1.000
 5085.00    1.35088   1.28114   -1.000
 5086.00    1.36501   1.29094   -1.000
 5087.00    1.36433   1.29803   -1.000
 5088.00    1.36922   1.30315   -1.000
 5089.00    1.37926   1.30762   -1.000
 5090.00    1.38306   1.31225   -1.000
 5091.00    1.37715   1.31723   -1.000
 5092.00    1.38273   1.32209   -1.000
 5093.00    1.39226   1.32508   -1.000
 5094.00    1.38500   1.32328   -1.000
 5095.00    1.38503   1.31454   -1.000
 5096.00    1.37465   1.29978   -1.000
 5097.00    1.35373   1.28329   -1.000
 5098.00    1.33276   1.27088   -1.000
 5099.00    1.32839   1.26696   -1.000
 5100.00    1.34224   1.27225   -1.000
 5101.00    1.36522   1.28308   -1.000
 5102.00    1.38213   1.29365   -1.000
 5103.00    1.38161   1.29940   -1.000
 5104.00    1.37124   1.29851   -1.000
 5105.00    1.35355   1.29160   -1.000
 5106.00    1.34388   1.28121   -1.000
 5107.00    1.33525   1.27136   -1.000
 5108.00    1.32110   1.26582   -1.000
 5109.00    1.31957   1.26656   -1.000
 5110.00    1.32498   1.27344   -1.000
 5111.00    1.34531   1.28453   -1.000
 5112.00    1.37318   1.29700   -1.000
 5113.00    1.38313   1.30842   -1.000
 5114.00    1.38162   1.31760   -1.000
 5115.00    1.38441   1.32461   -1.000
 5116.00    1.39412   1.32962   -1.000
 5117.00    1.40608   1.33209   -1.000
 5118.00    1.41053   1.33108   -1.000
 5119.00    1.40374   1.32602   -1.000
 5120.00    1.38928   1.31721   -1.000
 5121.00    1.37775   1.30562   -1.000
 5122.00    1.36079   1.29263   -1.000
 5123.00    1.33625   1.28033   -1.000
 5124.00    1.32814   1.27106   -1.000
 5125.00    1.33126   1.26576   -1.000
 5126.00    1.33460   1.26323   -1.000
 5127.00    1.33846   1.26173   -1.000
 5128.00    1.34483   1.26111   -1.000
 5129.00    1.34724   1.26286   -1.000
 5130.00    1.35465   1.26797   -1.000
 5131.00    1.35736   1.27558   -1.000
 5132.00    1.35882   1.28384   -1.000
 5133.00    1.36625   1.29116   -1.000
 5134.00    1.37892   1.29612   -1.000
 5135.00    1.37584   1.29707   -1.000
 5136.00    1.36935   1.29282   -1.000
 5137.00    1.35346   1.28403   -1.000
 5138.00    1.33007   1.27381   -1.000
 5139.00    1.32093   1.26617   -1.000
 5140.00    1.32912   1.26328   -1.000
 5141.00    1.33453   1.26435   -1.000
 5142.00    1.33026   1.26759   -1.000
 5143.00    1.33341   1.27178   -1.000
 5144.00    1.34987   1.27591   -1.000
 5145.00    1.35578   1.27856   -1.000
 5146.00    1.35037   1.27913   -1.000
 5147.00    1.35437   1.27889   -1.000
 5148.00    1.37051   1.27890   -1.000
 5149.00    1.36730   1.27803   -1.000
 5150.00    1.35180   1.27442   -1.000
 5151.00    1.35574   1.26816   -1.000
 5152.00    1.35247   1.26196   -1.000
 5153.00    1.35175   1.25979   -1.000
 5154.00    1.36272   1.26478   -1.000
 5155.00    1.37476   1.27704   -1.000
 5156.00    1.40527   1.29306   -1.000
 5157.00    1.42362   1.30802   -1.000
 5158.00    1.43348   1.31842   -1.000
 5159.00    1.43936   1.32324   -1.000
 5160.00    1.42814   1.32310   -1.000
 5161.00    1.42337   1.31869   -1.000
 5162.00    1.41193   1.30978   -1.000
 5163.00    1.40691   1.29370   -1.000
 5164.00    1.39453   1.26522   -1.000
 5165.00    1.34486   1.22161   -1.000
 5166.00    1.27272   1.16960   -1.000
 5167.00    1.20119   1.12559   -1.000
 5168.00    1.18602   1.10451   -1.000
 5169.00    1.23728   1.10554   -1.000
 5170.00    1.26294   1.11351   -1.000
 5171.00    1.24568   1.11659   -1.000
 5172.00    1.21253   1.11904   -1.000
 5173.00    1.22838   1.13549   -1.000
 5174.00    1.30012   1.17190   -1.000
 5175.00    1.37403   1.21829   -1.000
 5176.00    1.41485   1.25936   -1.000
 5177.00    1.42002   1.28553   -1.000
 5178.00    1.41623   1.29542   -1.000
 5179.00    1.41892   1.28955   -1.000
 5180.00    1.40889   1.26645   -1.000
 5181.00    1.37336   1.22674   -1.000
 5182.00    1.31220   1.17969   -1.000
 5183.00    1.24310   1.14388   -1.000
 5184.00    1.23308   1.13608   -1.000
 5185.00    1.29009   1.15797   -1.000
 5186.00    1.35527   1.19506   -1.000
 5187.00    1.40378   1.22888   -1.000
 5188.00    1.42491   1.25019   -1.000
 5189.00    1.41843   1.25909   -1.000
 5190.00    1.40661   1.25877   -1.000
 5191.00    1.39399   1.25302   -1.000
 5192.00    1.37259   1.24666   -1.000
 5193.00    1.36117   1.24398   -1.000
 5194.00    1.35310   1.24630   -1.000
 5195.00    1.35051   1.25208   -1.000
 5196.00    1.36456   1.26002   -1.000
 5197.00    1.36639   1.27038   -1.000
 5198.00    1.38065   1.28281   -1.000
 5199.00    1.39488   1.29466   -1.000
 5200.00    1.40284   1.30167   -1.000
 5201.00    1.40209   1.30005   -1.000
 5202.00    1.39098   1.28831   -1.000
 5203.00    1.36279   1.26830   -1.000
 5204.00    1.33254   1.24522   -1.000
 5205.00    1.32331   1.22557   -1.000
 5206.00    1.31402   1.21369   -1.000
 5207.00    1.31459   1.20996   -1.000
 5208.00    1.31417   1.21331   -1.000
 5209.00    1.32840   1.22392   -1.000
 5210.00    1.36196   1.24225   -1.000
 5211.00    1.38649   1.26612   -1.000
 5212.00    1.41379   1.28937   -1.000
 5213.00    1.43532   1.30451   -1.000
 5214.00    1.42005   1.30769   -1.000
 5215.00    1.40180   1.30220   -1.000
 5216.00    1.38744   1.29654   -1.000
 5217.00    1.38834   1.29834   -1.000
 5218.00    1.40888   1.30927   -1.000
 5219.00    1.42613   1.32487   -1.000
 5220.00    1.43263   1.33881   -1.000
 5221.00    1.43595   1.34591   -1.000
 5222.00    1.42932   1.34289   -1.000
 5223.00    1.41932   1.32766   -1.000
 5224.00    1.39401   1.30013   -1.000
 5225.00    1.33554   1.26619   -1.000
 5226.00    1.28728   1.23887   -1.000
 5227.00    1.28752   1.23061   -1.000
 5228.00    1.32917   1.24366   -1.000
 5229.00    1.37789   1.26755   -1.000
 5230.00    1.40716   1.28739   -1.000
 5231.00    1.41399   1.29426   -1.000
 5232.00    1.39753   1.28939   -1.000
 5233.00    1.37106   1.28183   -1.000
 5234.00    1.37670   1.28110   -1.000
 5235.00    1.39367   1.29083   -1.000
 5236.00    1.40861   1.30758   -1.000
 5237.00    1.43535   1.32474   -1.000
 5238.00    1.44014   1.33735   -1.000
 5239.00    1.43797   1.34440   -1.000
 5240.00    1.44035   1.34737   -1.000
 5241.00    1.44147   1.34823   -1.000
 5242.00    1.43314   1.34872   -1.000
 5243.00    1.44752   1.34956   -1.000
 5244.00    1.45531   1.34944   -1.000
 5245.00    1.44443   1.34575   -1.000
 5246.00    1.42885   1.33759   -1.000
 5247.00    1.40075   1.32700   -1.000
 5248.00    1.39386   1.31742   -1.000
 5249.00    1.39013   1.31109   -1.000
 5250.00    1.38274   1.30856   -1.000
 5251.00    1.37257   1.30919   -1.000
 5252.00    1.39167   1.31144   -1.000
 5253.00    1.40524   1.31383   -1.000
 5254.00    1.40681   1.31677   -1.000
 5255.00    1.41358   1.32254   -1.000
 5256.00    1.43685   1.33232   -1.000
 5257.00    1.46087   1.34363   -1.000
 5258.00    1.47303   1.35074   -1.000
 5259.00    1.47609   1.34793   -1.000
 5260.00    1.45118   1.33274   -1.000
 5261.00    1.41354   1.30713   -1.000
 5262.00    1.37950   1.27663   -1.000
 5263.00    1.34983   1.24783   -1.000
 5264.00    1.32489   1.22675   -1.000
 5265.00    1.31397   1.21633   -1.000
 5266.00    1.32585   1.21393   -1.000
 5267.00    1.34056   1.21236   -1.000
 5268.00    1.32715   1.20654   -1.000
 5269.00    1.29028   1.19962   -1.000
 5270.00    1.28841   1.20122   -1.000
 5271.00    1.33824   1.21613   -1.000
 5272.00    1.37827   1.23845   -1.000
 5273.00    1.39231   1.25868   -1.000
 5274.00    1.39517   1.27220   -1.000
 5275.00    1.39420   1.28277   -1.000
 5276.00    1.41191   1.29655   -1.000
 5277.00    1.39826   1.31420   -1.000
 5278.00    1.40875   1.33004   -1.000
 5279.00    1.45575   1.33687   -1.000
 5280.00    1.44434   1.33228   -1.000
 5281.00    1.42969   1.31979   -1.000
 5282.00    1.40611   1.30660   -1.000
 5283.00    1.38555   1.30056   -1.000
 5284.00    1.39921   1.30662   -1.000
 5285.00    1.43859   1.32370   -1.000
 5286.00    1.45960   1.34508   -1.000
 5287.00    1.47217   1.36313   -1.000
 5288.00    1.47833   1.37422   -1.000
 5289.00    1.47408   1.37917   -1.000
 5290.00    1.47373   1.38017   -1.000
 5291.00    1.48110   1.37889   -1.000
 5292.00    1.47161   1.37615   -1.000
 5293.00    1.45639   1.37141   -1.000
 5294.00    1.46922   1.36312   -1.000
 5295.00    1.45378   1.34994   -1.000
 5296.00    1.42071   1.33308   -1.000
 5297.00    1.39813   1.31763   -1.000
 5298.00    1.38866   1.30941   -1.000
 5299.00    1.40054   1.31020   -1.000
 5300.00    1.42677   1.31739   -1.000
 5301.00    1.42836   1.32682   -1.000
 5302.00    1.42827   1.33672   -1.000
 5303.00    1.44496   1.34685   -1.000
 5304.00    1.47139   1.35565   -1.000
 5305.00    1.48268   1.36115   -1.000
 5306.00    1.46373   1.36290   -1.000
 5307.00    1.45533   1.36316   -1.000
 5308.00    1.46466   1.36525   -1.000
 5309.00    1.47757   1.36993   -1.000
 5310.00    1.48339   1.37505   -1.000
 5311.00    1.48026   1.37747   -1.000
 5312.00    1.48479   1.37510   -1.000
 5313.00    1.47976   1.36764   -1.000
 5314.00    1.48347   1.35615   -1.000
 5315.00    1.47585   1.34357   -1.000
 5316.00    1.45096   1.33497   -1.000
 5317.00    1.44723   1.33458   -1.000
 5318.00    1.46872   1.34215   -1.000
 5319.00    1.48969   1.35218   -1.000
 5320.00    1.47944   1.35779   -1.000
 5321.00    1.46577   1.35508   -1.000
 5322.00    1.45644   1.34424   -1.000
 5323.00    1.43312   1.32892   -1.000
 5324.00    1.42462   1.31251   -1.000
 5325.00    1.43252   1.29540   -1.000
 5326.00    1.41543   1.27595   -1.000
 5327.00    1.35104   1.25633   -1.000
 5328.00    1.31918   1.24559   -1.000
 5329.00    1.36140   1.25174   -1.000
 5330.00    1.40924   1.27379   -1.000
 5331.00    1.45028   1.30130   -1.000
 5332.00    1.45237   1.32326   -1.000
 5333.00    1.44645   1.33577   -1.000
 5334.00    1.46248   1.34053   -1.000
 5335.00    1.47088   1.34061   -1.000
 5336.00    1.45796   1.33805   -1.000
 5337.00    1.45584   1.33332   -1.000
 5338.00    1.45045   1.32641   -1.000
 5339.00    1.43672   1.31847   -1.000
 5340.00    1.41497   1.31320   -1.000
 5341.00    1.42154   1.31464   -1.000
 5342.00    1.44976   1.32311   -1.000
 5343.00    1.46195   1.33364   -1.000
 5344.00    1.47514   1.34030   -1.000
 5345.00    1.45561   1.34073   -1.000
 5346.00    1.45106   1.33684   -1.000
 5347.00    1.45205   1.33256   -1.000
 5348.00    1.44105   1.33081   -1.000
 5349.00    1.44755   1.33334   -1.000
 5350.00    1.45341   1.34027   -1.000
 5351.00    1.47575   1.34991   -1.000
 5352.00    1.47962   1.35962   -1.000
 5353.00    1.47544   1.36796   -1.000
 5354.00    1.48465   1.37533   -1.000
 5355.00    1.49615   1.38219   -1.000
 5356.00    1.48917   1.38805   -1.000
 5357.00    1.50002   1.39159   -1.000
 5358.00    1.51526   1.39181   -1.000
 5359.00    1.51436   1.38819   -1.000
 5360.00    1.50042   1.38044   -1.000
 5361.00    1.49423   1.36937   -1.000
 5362.00    1.49029   1.35716   -1.000
 5363.00    1.47488   1.34644   -1.000
 5364.00    1.45929   1.33933   -1.000
 5365.00    1.44770   1.33602   -1.000
 5366.00    1.45013   1.33460   -1.000
 5367.00    1.45288   1.33153   -1.000
 5368.00    1.44323   1.32369   -1.000
 5369.00    1.42145   1.31075   -1.000
 5370.00    1.40954   1.29727   -1.000
 5371.00    1.40103   1.29134   -1.000
 5372.00    1.41238   1.29869   -1.000
 5373.00    1.44364   1.31826   -1.000
 5374.00    1.47755   1.34219   -1.000
 5375.00    1.48927   1.36220   -1.000
 5376.00    1.50196   1.37383   -1.000
 5377.00    1.50983   1.37726   -1.000
 5378.00    1.50427   1.37472   -1.000
 5379.00    1.48958   1.36854   -1.000
 5380.00    1.47888   1.36105   -1.000
 5381.00    1.48093   1.35439   -1.000
 5382.00    1.47414   1.35062   -1.000
 5383.00    1.47766   1.35122   -1.000
 5384.00    1.48233   1.35644   -1.000
 5385.00    1.49694   1.36458   -1.000
 5386.00    1.50196   1.37207   -1.000
 5387.00    1.50722   1.37567   -1.000
 5388.00    1.50308   1.37390   -1.000
 5389.00    1.48960   1.36752   -1.000
 5390.00    1.48210   1.35877   -1.000
 5391.00    1.46783   1.34967   -1.000
 5392.00    1.45964   1.34163   -1.000
 5393.00    1.45874   1.33491   -1.000
 5394.00    1.46200   1.32784   -1.000
 5395.00    1.45635   1.31892   -1.000
 5396.00    1.43487   1.30994   -1.000
 5397.00    1.42277   1.30554   -1.000
 5398.00    1.44142   1.30962   -1.000
 5399.00    1.46681   1.32046   -1.000
 5400.00    1.47143   1.33177   -1.000
 5401.00    1.47472   1.33712   -1.000
 5402.00    1.47049   1.33273   -1.000
 5403.00    1.44894   1.31930   -1.000
 5404.00    1.41548   1.30236   -1.000
 5405.00    1.39482   1.28976   -1.000
 5406.00    1.40484   1.28649   -1.000
 5407.00    1.42897   1.29146   -1.000
 5408.00    1.44450   1.29871   -1.000
 5409.00    1.43631   1.30441   -1.000
 5410.00    1.43242   1.30978   -1.000
 5411.00    1.44709   1.31713   -1.000
 5412.00    1.46619   1.32632   -1.000
 5413.00    1.48090   1.33466   -1.000
 5414.00    1.49097   1.34087   -1.000
 5415.00    1.47873   1.34646   -1.000
 5416.00    1.48376   1.35249   -1.000
 5417.00    1.49562   1.35840   -1.000
 5418.00    1.49114   1.36267   -1.000
 5419.00    1.49281   1.36434   -1.000
 5420.00    1.49788   1.36353   -1.000
 5421.00    1.50634   1.36027   -1.000
 5422.00    1.49105   1.35474   -1.000
 5423.00    1.47154   1.34875   -1.000
 5424.00    1.46447   1.34542   -1.000
 5425.00    1.46837   1.34698   -1.000
 5426.00    1.49085   1.35082   -1.000
 5427.00    1.49687   1.35056   -1.000
 5428.00    1.47613   1.34346   -1.000
 5429.00    1.44149   1.33279   -1.000
 5430.00    1.42796   1.32501   -1.000
 5431.00    1.43831   1.32238   -1.000
 5432.00    1.45329   1.32164   -1.000
 5433.00    1.44023   1.32010   -1.000
 5434.00    1.42535   1.31949   -1.000
 5435.00    1.42121   1.32431   -1.000
 5436.00    1.44078   1.33681   -1.000
 5437.00    1.47477   1.35412   -1.000
 5438.00    1.49338   1.37109   -1.000
 5439.00    1.49950   1.38352   -1.000
 5440.00    1.51210   1.39083   -1.000
 5441.00    1.51569   1.39325   -1.000
 5442.00    1.51171   1.39020   -1.000
 5443.00    1.50105   1.38020   -1.000
 5444.00    1.47723   1.36270   -1.000
 5445.00    1.44894   1.34160   -1.000
 5446.00    1.42395   1.32462   -1.000
 5447.00    1.42186   1.31911   -1.000
 5448.00    1.45852   1.32711   -1.000
 5449.00    1.50507   1.34303   -1.000
 5450.00    1.52230   1.35877   -1.000
 5451.00    1.51189   1.36722   -1.000
 5452.00    1.50228   1.36529   -1.000
 5453.00    1.49430   1.35398   -1.000
 5454.00    1.46726   1.33859   -1.000
 5455.00    1.43820   1.32751   -1.000
 5456.00    1.44304   1.32809   -1.000
 5457.00    1.48045   1.34026   -1.000
 5458.00    1.51606   1.35703   -1.000
 5459.00    1.51718   1.36954   -1.000
 5460.00    1.51168   1.37280   -1.000
 5461.00    1.50900   1.36770   -1.000
 5462.00    1.48519   1.35912   -1.000
 5463.00    1.47443   1.35305   -1.000
 5464.00    1.49119   1.35278   -1.000
 5465.00    1.50985   1.35786   -1.000
 5466.00    1.50632   1.36527   -1.000
 5467.00    1.51005   1.37231   -1.000
 5468.00    1.52261   1.37754   -1.000
 5469.00    1.52292   1.38014   -1.000
 5470.00    1.51582   1.37962   -1.000
 5471.00    1.50844   1.37600   -1.000
 5472.00    1.50926   1.36944   -1.000
 5473.00    1.50381   1.35997   -1.000
 5474.00    1.48824   1.34747   -1.000
 5475.00    1.46274   1.33356   -1.000
 5476.00    1.43565   1.32294   -1.000
 5477.00    1.43010   1.32062   -1.000
 5478.00    1.45085   1.32750   -1.000
 5479.00    1.47743   1.33903   -1.000
 5480.00    1.47922   1.34901   -1.000
 5481.00    1.47996   1.35549   -1.000
 5482.00    1.47890   1.36007   -1.000
 5483.00    1.48972   1.36555   -1.000
 5484.00    1.50224   1.37188   -1.000
 5485.00    1.51553   1.37642   -1.000
 5486.00    1.51634   1.37725   -1.000
 5487.00    1.50259   1.37474   -1.000
 5488.00    1.50029   1.37159   -1.000
 5489.00    1.50343   1.37033   -1.000
 5490.00    1.50160   1.37151   -1.000
 5491.00    1.50830   1.37432   -1.000
 5492.00    1.51529   1.37692   -1.000
 5493.00    1.51668   1.37816   -1.000
 5494.00    1.51917   1.37713   -1.000
 5495.00    1.51148   1.37344   -1.000
 5496.00    1.49382   1.36800   -1.000
 5497.00    1.48714   1.36304   -1.000
 5498.00    1.49223   1.36015   -1.000
 5499.00    1.48775   1.35856   -1.000
 5500.00    1.48374   1.35611   -1.000
 5501.00    1.48289   1.35259   -1.000
 5502.00    1.48520   1.35033   -1.000
 5503.00    1.49834   1.34996   -1.000
 5504.00    1.50926   1.34969   -1.000
 5505.00    1.50697   1.34741   -1.000
 5506.00    1.48925   1.34385   -1.000
 5507.00    1.48552   1.34281   -1.000
 5508.00    1.49711   1.34580   -1.000
 5509.00    1.50380   1.35067   -1.000
 5510.00    1.50750   1.35350   -1.000
 5511.00    1.50880   1.35216   -1.000
 5512.00    1.49643   1.34837   -1.000
 5513.00    1.47843   1.34575   -1.000
 5514.00    1.48279   1.34744   -1.000
 5515.00    1.50477   1.35388   -1.000
 5516.00    1.51582   1.36345   -1.000
 5517.00    1.52172   1.37358   -1.000
 5518.00    1.52865   1.38218   -1.000
 5519.00    1.53329   1.38784   -1.000
 5520.00    1.53173   1.39048   -1.000
 5521.00    1.52214   1.39073   -1.000
 5522.00    1.52432   1.38905   -1.000
 5523.00    1.52704   1.38457   -1.000
 5524.00    1.51770   1.37551   -1.000
 5525.00    1.49701   1.36131   -1.000
 5526.00    1.47533   1.34459   -1.000
 5527.00    1.45448   1.33138   -1.000
 5528.00    1.45120   1.32734   -1.000
 5529.00    1.46718   1.33433   -1.000
 5530.00    1.49576   1.34803   -1.000
 5531.00    1.51769   1.36074   -1.000
 5532.00    1.51763   1.36705   -1.000
 5533.00    1.50928   1.36653   -1.000
 5534.00    1.50353   1.36351   -1.000
 5535.00    1.50676   1.36294   -1.000
 5536.00    1.51121   1.36663   -1.000
 5537.00    1.51605   1.37286   -1.000
 5538.00    1.52321   1.37895   -1.000
 5539.00    1.52511   1.38350   -1.000
 5540.00    1.53022   1.38619   -1.000
 5541.00    1.53519   1.38648   -1.000
 5542.00    1.53286   1.38448   -1.000
 5543.00    1.52560   1.38129   -1.000
 5544.00    1.52193   1.37911   -1.000
 5545.00    1.52553   1.37953   -1.000
 5546.00    1.52823   1.38247   -1.000
 5547.00    1.52857   1.38716   -1.000
 5548.00    1.52929   1.39235   -1.000
 5549.00    1.54026   1.39643   -1.000
 5550.00    1.54853   1.39836   -1.000
 5551.00    1.55137   1.39786   -1.000
 5552.00    1.54194   1.39556   -1.000
 5553.00    1.52674   1.39265   -1.000
 5554.00    1.52676   1.39047   -1.000
 5555.00    1.53417   1.38993   -1.000
 5556.00    1.54130   1.39080   -1.000
 5557.00    1.54091   1.39230   -1.000
 5558.00    1.54160   1.39361   -1.000
 5559.00    1.54107   1.39393   -1.000
 5560.00    1.54087   1.39243   -1.000
 5561.00    1.54343   1.38881   -1.000
 5562.00    1.52080   1.38407   -1.000
 5563.00    1.43731   1.37957   -1.000
 5564.00    1.20236   1.37602   -1.000
 5565.00    0.21555   1.37320   -1.000
 5566.00   -2.38551   1.37056    0.000
 5567.00   -4.11361   1.36794    0.000
 5568.00   -2.56041   1.36524    0.000
 5569.00    0.83265   1.36286   -1.000
 5570.00    3.77542   1.36040   -1.000
 5571.00    3.45592   1.35783   -1.000
 5572.00    1.98184   1.35614   -1.000
 5573.00    1.54579   1.35664   -1.000
 5574.00    1.53117   1.35982   -1.000
 5575.00    1.51480   1.36450   -1.000
 5576.00    1.51327   1.36976   -1.000
 5577.00    1.52088   1.37491   -1.000
 5578.00    1.52995   1.37935   -1.000
 5579.00    1.53496   1.38240   -1.000
 5580.00    1.54460   1.38354   -1.000
 5581.00    1.54968   1.38333   -1.000
 5582.00    1.54397   1.38215   -1.000
 5583.00    1.53541   1.37900   -1.000
 5584.00    1.52491   1.37177   -1.000
 5585.00    1.50548   1.35868   -1.000
 5586.00    1.47897   1.34144   -1.000
 5587.00    1.45324   1.32563   -1.000
 5588.00    1.44363   1.31638   -1.000
 5589.00    1.45820   1.31671   -1.000
 5590.00    1.47606   1.32464   -1.000
 5591.00    1.48721   1.33557   -1.000
 5592.00    1.48976   1.34474   -1.000
 5593.00    1.48902   1.35047   -1.000
 5594.00    1.49640   1.35416   -1.000
 5595.00    1.50773   1.35726   -1.000
 5596.00    1.51434   1.35915   -1.000
 5597.00    1.50704   1.35807   -1.000
 5598.00    1.48942   1.35397   -1.000
 5599.00    1.48148   1.34859   -1.000
 5600.00    1.47877   1.34318   -1.000
 5601.00    1.47280   1.34000   -1.000
 5602.00    1.47033   1.34199   -1.000
 5603.00    1.47859   1.35082   -1.000
 5604.00    1.50183   1.36548   -1.000
 5605.00    1.52852   1.38195   -1.000
 5606.00    1.54702   1.39573   -1.000
 5607.00    1.55113   1.40491   -1.000
 5608.00    1.55081   1.40969   -1.000
 5609.00    1.55014   1.41169   -1.000
 5610.00    1.54941   1.41165   -1.000
 5611.00    1.55165   1.40864   -1.000
 5612.00    1.54649   1.40042   -1.000
 5613.00    1.53365   1.38607   -1.000
 5614.00    1.51059   1.36878   -1.000
 5615.00    1.48510   1.35518   -1.000
 5616.00    1.47837   1.35168   -1.000
 5617.00    1.49421   1.35798   -1.000
 5618.00    1.51345   1.36922   -1.000
 5619.00    1.52138   1.37982   -1.000
 5620.00    1.52598   1.38675   -1.000
 5621.00    1.52848   1.38927   -1.000
 5622.00    1.52146   1.38762   -1.000
 5623.00    1.50769   1.38292   -1.000
 5624.00    1.49996   1.37828   -1.000
 5625.00    1.50602   1.37692   -1.000
 5626.00    1.51603   1.38016   -1.000
 5627.00    1.52574   1.38695   -1.000
 5628.00    1.53739   1.39461   -1.000
 5629.00    1.54281   1.40103   -1.000
 5630.00    1.54832   1.40508   -1.000
 5631.00    1.55763   1.40639   -1.000
 5632.00    1.55517   1.40515   -1.000
 5633.00    1.54067   1.40232   -1.000
 5634.00    1.53099   1.39842   -1.000
 5635.00    1.53050   1.39430   -1.000
 5636.00    1.53143   1.39041   -1.000
 5637.00    1.53084   1.38714   -1.000
 5638.00    1.52104   1.38470   -1.000
 5639.00    1.51402   1.38294   -1.000
 5640.00    1.51351   1.38165   -1.000
 5641.00    1.51476   1.38157   -1.000
 5642.00    1.51932   1.38304   -1.000
 5643.00    1.51858   1.38567   -1.000
 5644.00    1.52536   1.38893   -1.000
 5645.00    1.52957   1.39202   -1.000
 5646.00    1.53245   1.39435   -1.000
 5647.00    1.53892   1.39556   -1.000
 5648.00    1.54259   1.39568   -1.000
 5649.00    1.54862   1.39508   -1.000
 5650.00    1.54377   1.39479   -1.000
 5651.00    1.53928   1.39477   -1.000
 5652.00    1.54051   1.39436   -1.000
 5653.00    1.53364   1.39226   -1.000
 5654.00    1.52469   1.38690   -1.000
 5655.00    1.51392   1.37750   -1.000
 5656.00    1.50102   1.36457   -1.000
 5657.00    1.47808   1.35178   -1.000
 5658.00    1.45911   1.34423   -1.000
 5659.00    1.46599   1.34431   -1.000
 5660.00    1.48874   1.34986   -1.000
 5661.00    1.50052   1.35719   -1.000
 5662.00    1.50029   1.36428   -1.000
 5663.00    1.50308   1.37122   -1.000
 5664.00    1.51031   1.37769   -1.000
 5665.00    1.51765   1.38186   -1.000
 5666.00    1.52082   1.38279   -1.000
 5667.00    1.51334   1.38168   -1.000
 5668.00    1.50893   1.38104   -1.000
 5669.00    1.51355   1.38287   -1.000
 5670.00    1.51943   1.38700   -1.000
 5671.00    1.52474   1.39228   -1.000
 5672.00    1.53243   1.39694   -1.000
 5673.00    1.53866   1.40048   -1.000
 5674.00    1.53623   1.40244   -1.000
 5675.00    1.53767   1.40350   -1.000
 5676.00    1.54079   1.40399   -1.000
 5677.00    1.53994   1.40389   -1.000
 5678.00    1.53684   1.40246   -1.000
 5679.00    1.52538   1.39888   -1.000
 5680.00    1.52109   1.39263   -1.000
 5681.00    1.52102   1.38438   -1.000
 5682.00    1.51440   1.37612   -1.000
 5683.00    1.50524   1.37040   -1.000
 5684.00    1.50415   1.36877   -1.000
 5685.00    1.51161   1.37028   -1.000
 5686.00    1.51378   1.37223   -1.000
 5687.00    1.50766   1.37332   -1.000
 5688.00    1.50811   1.37410   -1.000
 5689.00    1.51584   1.37653   -1.000
 5690.00    1.53291   1.38156   -1.000
 5691.00    1.53075   1.38810   -1.000
 5692.00    1.52990   1.39457   -1.000
 5693.00    1.52263   1.39938   -1.000
 5694.00    1.51872   1.40231   -1.000
 5695.00    1.52214   1.40324   -1.000
 5696.00    1.52233   1.40254   -1.000
 5697.00    1.52187   1.40004   -1.000
 5698.00    1.52579   1.39573   -1.000
 5699.00    1.52460   1.39042   -1.000
 5700.00    1.50708   1.38528   -1.000
 5701.00    1.49602   1.38210   -1.000
 5702.00    1.49494   1.38122   -1.000
 5703.00    1.51139   1.38199   -1.000
 5704.00    1.51954   1.38207   -1.000
 5705.00    1.50595   1.37965   -1.000
 5706.00    1.49319   1.37391   -1.000
 5707.00    1.48180   1.36534   -1.000
 5708.00    1.47117   1.35594   -1.000
 5709.00    1.45877   1.34880   -1.000
 5710.00    1.45427   1.34685   -1.000
 5711.00    1.45847   1.35120   -1.000
 5712.00    1.48265   1.36096   -1.000
 5713.00    1.50423   1.37289   -1.000
 5714.00    1.51024   1.38405   -1.000
 5715.00    1.52160   1.39231   -1.000
 5716.00    1.52902   1.39797   -1.000
 5717.00    1.52922   1.40184   -1.000
 5718.00    1.52591   1.40519   -1.000
 5719.00    1.51994   1.40857   -1.000
 5720.00    1.52344   1.41196   -1.000
 5721.00    1.53167   1.41491   -1.000
 5722.00    1.53643   1.41708   -1.000
 5723.00    1.53749   1.41800   -1.000
 5724.00    1.53218   1.41740   -1.000
 5725.00    1.52276   1.41491   -1.000
 5726.00    1.51343   1.41127   -1.000
 5727.00    1.51517   1.40793   -1.000
 5728.00    1.52734   1.40589   -1.000
 5729.00    1.52614   1.40559   -1.000
 5730.00    1.52172   1.40606   -1.000
 5731.00    1.52591   1.40696   -1.000
 5732.00    1.51865   1.40855   -1.000
 5733.00    1.52147   1.41113   -1.000
 5734.00    1.52993   1.41418   -1.000
 5735.00    1.52615   1.41645   -1.000
 5736.00    1.52538   1.41748   -1.000
 5737.00    1.53313   1.41735   -1.000
 5738.00    1.53243   1.41686   -1.000
 5739.00    1.52577   1.41644   -1.000
 5740.00    1.52073   1.41617   -1.000
 5741.00    1.52050   1.41580   -1.000
 5742.00    1.51887   1.41573   -1.000
 5743.00    1.52724   1.41594   -1.000
 5744.00    1.52759   1.41646   -1.000
 5745.00    1.52689   1.41647   -1.000
 5746.00    1.53128   1.41582   -1.000
 5747.00    1.51985   1.41504   -1.000
 5748.00    1.51760   1.41477   -1.000
 5749.00    1.53286   1.41467   -1.000
 5750.00    1.53000   1.41312   -1.000
 5751.00    1.52442   1.40908   -1.000
 5752.00    1.50497   1.40369   -1.000
 5753.00    1.49153   1.39950   -1.000
 5754.00    1.48808   1.39949   -1.000
 5755.00    1.50192   1.40385   -1.000
 5756.00    1.51382   1.41089   -1.000
 5757.00    1.52328   1.41743   -1.000
 5758.00    1.52858   1.42092   -1.000
 5759.00    1.52490   1.42019   -1.000
 5760.00    1.52030   1.41597   -1.000
 5761.00    1.51433   1.41023   -1.000
 5762.00    1.50569   1.40620   -1.000
 5763.00    1.50124   1.40624   -1.000
 5764.00    1.50633   1.41047   -1.000
 5765.00    1.50844   1.41673   -1.000
 5766.00    1.51292   1.42213   -1.000
 5767.00    1.51891   1.42520   -1.000
 5768.00    1.50697   1.42603   -1.000
 5769.00    1.47683   1.42543   -1.000
 5770.00    1.45463   1.42389   -1.000
 5771.00    1.45730   1.42158   -1.000
 5772.00    1.46671   1.41860   -1.000
 5773.00    1.48759   1.41573   -1.000
 5774.00    1.51194   1.41354   -1.000
 5775.00    1.51750   1.41259   -1.000
 5776.00    1.52131   1.41211   -1.000
 5777.00    1.52227   1.41047   -1.000
 5778.00    1.51461   1.40634   -1.000
 5779.00    1.51089   1.39999   -1.000
 5780.00    1.51810   1.39287   -1.000
 5781.00    1.51201   1.38737   -1.000
 5782.00    1.50530   1.38470   -1.000
 5783.00    1.49900   1.38499   -1.000
 5784.00    1.49518   1.38730   -1.000
 5785.00    1.49971   1.39063   -1.000
 5786.00    1.49545   1.39478   -1.000
 5787.00    1.49642   1.39924   -1.000
 5788.00    1.50165   1.40300   -1.000
 5789.00    1.49485   1.40535   -1.000
 5790.00    1.49850   1.40626   -1.000
 5791.00    1.50787   1.40739   -1.000
 5792.00    1.52688   1.40995   -1.000
 5793.00    1.52975   1.41408   -1.000
 5794.00    1.52729   1.41849   -1.000
 5795.00    1.52034   1.42151   -1.000
 5796.00    1.51726   1.42246   -1.000
 5797.00    1.52164   1.42207   -1.000
 5798.00    1.52349   1.42215   -1.000
 5799.00    1.53034   1.42356   -1.000
 5800.00    1.53616   1.42598   -1.000
 5801.00    1.53804   1.42817   -1.000
 5802.00    1.54025   1.42882   -1.000
 5803.00    1.53025   1.42766   -1.000
 5804.00    1.52264   1.42562   -1.000
 5805.00    1.52429   1.42404   -1.000
 5806.00    1.52977   1.42383   -1.000
 5807.00    1.52999   1.42485   -1.000
 5808.00    1.52565   1.42636   -1.000
 5809.00    1.52886   1.42789   -1.000
 5810.00    1.53072   1.42912   -1.000
 5811.00    1.53036   1.42977   -1.000
 5812.00    1.53167   1.42944   -1.000
 5813.00    1.53651   1.42793   -1.000
 5814.00    1.52858   1.42566   -1.000
 5815.00    1.52663   1.42364   -1.000
 5816.00    1.52573   1.42320   -1.000
 5817.00    1.52758   1.42484   -1.000
 5818.00    1.54261   1.42783   -1.000
 5819.00    1.53615   1.43085   -1.000
 5820.00    1.53260   1.43294   -1.000
 5821.00    1.53220   1.43402   -1.000
 5822.00    1.53466   1.43442   -1.000
 5823.00    1.53978   1.43457   -1.000
 5824.00    1.53270   1.43465   -1.000
 5825.00    1.53772   1.43509   -1.000
 5826.00    1.54195   1.43589   -1.000
 5827.00    1.53465   1.43699   -1.000
 5828.00    1.53092   1.43789   -1.000
 5829.00    1.53771   1.43828   -1.000
 5830.00    1.54253   1.43806   -1.000
 5831.00    1.53455   1.43729   -1.000
 5832.00    1.53214   1.43600   -1.000
 5833.00    1.53695   1.43448   -1.000
 5834.00    1.53122   1.43334   -1.000
 5835.00    1.51460   1.43327   -1.000
 5836.00    1.51815   1.43443   -1.000
 5837.00    1.53227   1.43621   -1.000
 5838.00    1.53881   1.43788   -1.000
 5839.00    1.52491   1.43892   -1.000
 5840.00    1.51972   1.43924   -1.000
 5841.00    1.52390   1.43888   -1.000
 5842.00    1.52315   1.43786   -1.000
 5843.00    1.52978   1.43632   -1.000
 5844.00    1.53065   1.43428   -1.000
 5845.00    1.53114   1.43196   -1.000
 5846.00    1.54522   1.42975   -1.000
 5847.00    1.53885   1.42798   -1.000
 5848.00    1.53353   1.42655   -1.000
 5849.00    1.54510   1.42441   -1.000
 5850.00    1.53433   1.42071   -1.000
 5851.00    1.52403   1.41497   -1.000
 5852.00    1.52142   1.40830   -1.000
 5853.00    1.50914   1.40204   -1.000
 5854.00    1.50646   1.39664   -1.000
 5855.00    1.51131   1.39135   -1.000
 5856.00    1.50357   1.38555   -1.000
 5857.00    1.49525   1.38107   -1.000
 5858.00    1.49929   1.38051   -1.000
 5859.00    1.51137   1.38473   -1.000
 5860.00    1.52417   1.39209   -1.000
 5861.00    1.52764   1.39980   -1.000
 5862.00    1.51819   1.40589   -1.000
 5863.00    1.51637   1.40984   -1.000
 5864.00    1.53392   1.41129   -1.000
 5865.00    1.52391   1.41071   -1.000
 5866.00    1.51589   1.40949   -1.000
 5867.00    1.51632   1.40931   -1.000
 5868.00    1.51629   1.41141   -1.000
 5869.00    1.53099   1.41518   -1.000
 5870.00    1.53225   1.41888   -1.000
 5871.00    1.52877   1.42076   -1.000
 5872.00    1.53289   1.42021   -1.000
 5873.00    1.53803   1.41787   -1.000
 5874.00    1.51741   1.41495   -1.000
 5875.00    1.50599   1.41235   -1.000
 5876.00    1.46373   1.41042   -1.000
 5877.00    1.31308   1.40856   43.953
 5878.00    1.04872   1.40630   -1.000
 5879.00    0.72638   1.40312   -1.000
 5880.00    0.62733   1.39910   -1.000
 5881.00    0.91527   1.39405   -1.000
 5882.00    1.26418   1.38801   -1.000
 5883.00    1.35417   1.38118   46.250
 5884.00    1.21899   1.37309   -1.000
 5885.00    1.03273   1.36116   -1.000
 5886.00    0.97275   1.34034   -1.000
 5887.00    1.12388   1.30740   -1.000
 5888.00    1.32964   1.26742   -1.000
 5889.00    1.38272   1.23284   -1.000
 5890.00    1.37610   1.21715   -1.000
 5891.00    1.41101   1.22080   -1.000
 5892.00    1.44253   1.23310   -1.000
 5893.00    1.46271   1.24043   -1.000
 5894.00    1.43738   1.23814   -1.000
 5895.00    1.42028   1.23362   -1.000
 5896.00    1.41589   1.23742   -1.000
 5897.00    1.44475   1.25456   -1.000
 5898.00    1.47762   1.28127   -1.000
 5899.00    1.48334   1.31013   -1.000
 5900.00    1.49886   1.33579   -1.000
 5901.00    1.50287   1.35609   -1.000
 5902.00    1.51409   1.37095   -1.000
 5903.00    1.51093   1.38102   -1.000
 5904.00    1.50804   1.38731   -1.000
 5905.00    1.50524   1.39132   -1.000
 5906.00    1.50172   1.39407   -1.000
 5907.00    1.51585   1.39623   -1.000
 5908.00    1.51358   1.39796   -1.000
 5909.00    1.50126   1.39909   -1.000
 5910.00    1.48990   1.39889   -1.000
 5911.00    1.49563   1.39689   -1.000
 5912.00    1.48675   1.39282   -1.000
 5913.00    1.48749   1.38762   -1.000
 5914.00    1.48223   1.38303   -1.000
 5915.00    1.48089   1.38058   -1.000
 5916.00    1.49327   1.38115   -1.000
 5917.00    1.51290   1.38443   -1.000
 5918.00    1.50596   1.38941   -1.000
 5919.00    1.51791   1.39422   -1.000
 5920.00    1.51553   1.39776   -1.000
 5921.00    1.51533   1.39950   -1.000
 5922.00    1.51777   1.40036   -1.000
 5923.00    1.52407   1.40130   -1.000
 5924.00    1.53158   1.40288   -1.000
 5925.00    1.53610   1.40461   -1.000
 5926.00    1.53331   1.40539   -1.000
 5927.00    1.53027   1.40425   -1.000
 5928.00    1.51347   1.40128   -1.000
 5929.00    1.49985   1.39821   -1.000
 5930.00    1.49839   1.39667   -1.000
 5931.00    1.48998   1.39730   -1.000
 5932.00    1.49061   1.39896   -1.000
 5933.00    1.49095   1.40027   -1.000
 5934.00    1.48967   1.40110   -1.000
 5935.00    1.49267   1.40198   -1.000
 5936.00    1.49869   1.40323   -1.000
 5937.00    1.51065   1.40408   -1.000
 5938.00    1.51223   1.40341   -1.000
 5939.00    1.51568   1.40127   -1.000
 5940.00    1.52323   1.39846   -1.000
 5941.00    1.51528   1.39649   -1.000
 5942.00    1.51079   1.39595   -1.000
 5943.00    1.52656   1.39694   -1.000
 5944.00    1.53499   1.39852   -1.000
 5945.00    1.53250   1.39956   -1.000
 5946.00    1.53393   1.39934   -1.000
 5947.00    1.51972   1.39800   -1.000
 5948.00    1.50731   1.39698   -1.000
 5949.00    1.50874   1.39683   -1.000
 5950.00    1.50702   1.39753   -1.000
 5951.00    1.51481   1.39812   -1.000
 5952.00    1.51075   1.39809   -1.000
 5953.00    1.50570   1.39769   -1.000
 5954.00    1.52406   1.39702   -1.000
 5955.00    1.51492   1.39630   -1.000
 5956.00    1.49518   1.39610   -1.000
 5957.00    1.49480   1.39701   -1.000
 5958.00    1.49200   1.39957   -1.000
 5959.00    1.50955   1.40327   -1.000
 5960.00    1.51519   1.40712   -1.000
 5961.00    1.51830   1.41019   -1.000
 5962.00    1.52513   1.41173   -1.000
 5963.00    1.53685   1.41161   -1.000
 5964.00    1.52953   1.41014   -1.000
 5965.00    1.52418   1.40830   -1.000
 5966.00    1.52784   1.40703   -1.000
 5967.00    1.53725   1.40699   -1.000
 5968.00    1.52861   1.40810   -1.000
 5969.00    1.54398   1.41006   -1.000
 5970.00    1.53530   1.41216   -1.000
 5971.00    1.53605   1.41369   -1.000
 5972.00    1.52814   1.41390   -1.000
 5973.00    1.52923   1.41234   -1.000
 5974.00    1.51876   1.40895   -1.000
 5975.00    1.52433   1.40460   -1.000
 5976.00    1.51751   1.40078   -1.000
 5977.00    1.51097   1.39910   -1.000
 5978.00    1.51332   1.40011   -1.000
 5979.00    1.52546   1.40286   -1.000
 5980.00    1.52909   1.40521   -1.000
 5981.00    1.51587   1.40533   -1.000
 5982.00    1.51290   1.40279   -1.000
 5983.00    1.50657   1.39897   -1.000
 5984.00    1.50411   1.39613   -1.000
 5985.00    1.51117   1.39564   -1.000
 5986.00    1.51483   1.39754   -1.000
 5987.00    1.51409   1.40049   -1.000
 5988.00    1.53074   1.40327   -1.000
 5989.00    1.52619   1.40512   -1.000
 5990.00    1.51481   1.40660   -1.000
 5991.00    1.52124   1.40856   -1.000
 5992.00    1.53131   1.41164   -1.000
 5993.00    1.53676   1.41513   -1.000
 5994.00    1.53839   1.41749   -1.000
 5995.00    1.53186   1.41796   -1.000
 5996.00    1.52486   1.41663   -1.000
 5997.00    1.52664   1.41493   -1.000
 5998.00    1.52700   1.41363   -1.000
 5999.00    1.52804   1.41275   -1.000
 6000.00    1.52295   1.41158   -1.000
 6001.00    1.51734   1.40970   -1.000
 6002.00    1.51355   1.40741   -1.000
 6003.00    1.51271   1.40538   -1.000
 6004.00    1.51783   1.40357   -1.000
 6005.00    1.52362   1.40137   -1.000
 6006.00    1.52469   1.39838   -1.000
 6007.00    1.52564   1.39569   -1.000
 6008.00    1.51584   1.39500   -1.000
 6009.00    1.51223   1.39709   -1.000
 6010.00    1.53211   1.40079   -1.000
 6011.00    1.53816   1.40384   -1.000
 6012.00    1.53328   1.40523   -1.000
 6013.00    1.52289   1.40499   -1.000
 6014.00    1.52348   1.40428   -1.000
 6015.00    1.52259   1.40340   -1.000
 6016.00    1.51647   1.40234   -1.000
 6017.00    1.51061   1.40067   -1.000
 6018.00    1.51345   1.39830   -1.000
 6019.00    1.51836   1.39570   -1.000
 6020.00    1.51580   1.39347   -1.000
 6021.00    1.50872   1.39249   -1.000
 6022.00    1.50426   1.39292   -1.000
 6023.00    1.51504   1.39496   -1.000
 6024.00    1.51608   1.39848   -1.000
 6025.00    1.51314   1.40314   -1.000
 6026.00    1.52445   1.40810   -1.000
 6027.00    1.53140   1.41278   -1.000
 6028.00    1.53619   1.41670   -1.000
 6029.00    1.53503   1.41982   -1.000
 6030.00    1.53720   1.42213   -1.000
 6031.00    1.54003   1.42373   -1.000
 6032.00    1.53380   1.42499   -1.000
 6033.00    1.52782   1.42612   -1.000
 6034.00    1.53519   1.42711   -1.000
 6035.00    1.53707   1.42747   -1.000
 6036.00    1.53966   1.42688   -1.000
 6037.00    1.54902   1.42529   -1.000
 6038.00    1.55394   1.42291   -1.000
 6039.00    1.54677   1.41986   -1.000
 6040.00    1.54102   1.41635   -1.000
 6041.00    1.53854   1.41276   -1.000
 6042.00    1.53925   1.41036   -1.000
 6043.00    1.54116   1.41106   -1.000
 6044.00    1.53736   1.41462   -1.000
 6045.00    1.54375   1.41978   -1.000
 6046.00    1.54824   1.42414   -1.000
 6047.00    1.54406   1.42658   -1.000
 6048.00    1.54052   1.42708   -1.000
 6049.00    1.54174   1.42650   -1.000
 6050.00    1.54117   1.42574   -1.000
 6051.00    1.54873   1.42499   -1.000
 6052.00    1.52970   1.42401   -1.000
 6053.00    1.46345   1.42216   -1.000
 6054.00    1.41861   1.41961   46.739
 6055.00    1.24265   1.41724   -1.000
 6056.00    0.80503   1.41598   -1.000
 6057.00    1.28543   1.41639   -1.000
 6058.00    1.56994   1.41802   -1.000
 6059.00    1.44856   1.41989   -1.000
 6060.00    1.35875   1.42055   40.280
 6061.00    1.24162   1.41881   -1.000
 6062.00    0.78594   1.41414   -1.000
 6063.00    1.21932   1.40757   -1.000
 6064.00    1.56283   1.40148   -1.000
 6065.00    1.49687   1.39885   -1.000
 6066.00    1.50434   1.40101   -1.000
 6067.00    1.52364   1.40688   -1.000
 6068.00    1.54617   1.41410   -1.000
 6069.00    1.55375   1.42031   -1.000
 6070.00    1.54531   1.42474   -1.000
 6071.00    1.54202   1.42755   -1.000
 6072.00    1.54085   1.42919   -1.000
 6073.00    1.54401   1.42988   -1.000
 6074.00    1.54649   1.42937   -1.000
 6075.00    1.53482   1.42739   -1.000
 6076.00    1.52830   1.42413   -1.000
 6077.00    1.52653   1.42033   -1.000
 6078.00    1.52375   1.41692   -1.000
 6079.00    1.52457   1.41434   -1.000
 6080.00    1.52471   1.41230   -1.000
 6081.00    1.52697   1.41034   -1.000
 6082.00    1.52769   1.40843   -1.000
 6083.00    1.52403   1.40706   -1.000
 6084.00    1.52252   1.40699   -1.000
 6085.00    1.52488   1.40833   -1.000
 6086.00    1.52924   1.41062   -1.000
 6087.00    1.53154   1.41279   -1.000
 6088.00    1.52959   1.41397   -1.000
 6089.00    1.52623   1.41389   -1.000
 6090.00    1.52520   1.41308   -1.000
 6091.00    1.52594   1.41270   -1.000
 6092.00    1.52992   1.41338   -1.000
 6093.00    1.53391   1.41540   -1.000
 6094.00    1.53978   1.41821   -1.000
 6095.00    1.54112   1.42117   -1.000
 6096.00    1.53706   1.42350   -1.000
 6097.00    1.53612   1.42413   -1.000
 6098.00    1.53603   1.42185   -1.000
 6099.00    1.53603   1.41542   -1.000
 6100.00    1.52646   1.40506   -1.000
 6101.00    1.50154   1.39315   -1.000
 6102.00    1.49037   1.38411   -1.000
 6103.00    1.49070   1.38175   -1.000
 6104.00    1.49783   1.38651   -1.000
 6105.00    1.51651   1.39568   -1.000
 6106.00    1.52922   1.40553   -1.000
 6107.00    1.52292   1.41349   -1.000
 6108.00    1.51593   1.41912   -1.000
 6109.00    1.52486   1.42231   -1.000
 6110.00    1.53710   1.42363   -1.000
 6111.00    1.54275   1.42365   -1.000
 6112.00    1.53534   1.42341   -1.000
 6113.00    1.53663   1.42359   -1.000
 6114.00    1.54064   1.42433   -1.000
 6115.00    1.53385   1.42486   -1.000
 6116.00    1.52840   1.42433   -1.000
 6117.00    1.53265   1.42143   -1.000
 6118.00    1.52285   1.41487   -1.000
 6119.00    1.51572   1.40444   -1.000
 6120.00    1.50869   1.39140   -1.000
 6121.00    1.49534   1.37977   -1.000
 6122.00    1.49045   1.37398   -1.000
 6123.00    1.49861   1.37551   -1.000
 6124.00    1.51157   1.38289   -1.000
 6125.00    1.51891   1.39132   -1.000
 6126.00    1.51644   1.39749   -1.000
 6127.00    1.52335   1.40029   -1.000
 6128.00    1.53122   1.40235   -1.000
 6129.00    1.52461   1.40645   -1.000
 6130.00    1.51844   1.41268   -1.000
 6131.00    1.52547   1.41876   -1.000
 6132.00    1.53208   1.42066   -1.000
 6133.00    1.52120   1.41560   -1.000
 6134.00    1.50264   1.40344   -1.000
 6135.00    1.47765   1.38694   -1.000
 6136.00    1.44856   1.37184   -1.000
 6137.00    1.43257   1.36309   -1.000
 6138.00    1.44512   1.36161   -1.000
 6139.00    1.47476   1.36474   -1.000
 6140.00    1.49755   1.37003   -1.000
 6141.00    1.49752   1.37694   -1.000
 6142.00    1.48579   1.38596   -1.000
 6143.00    1.49863   1.39584   -1.000
 6144.00    1.52397   1.40368   -1.000
 6145.00    1.53508   1.40740   -1.000
 6146.00    1.53474   1.40681   -1.000
 6147.00    1.53307   1.40368   -1.000
 6148.00    1.52585   1.40024   -1.000
 6149.00    1.51980   1.39818   -1.000
 6150.00    1.51615   1.39830   -1.000
 6151.00    1.51365   1.40022   -1.000
 6152.00    1.50918   1.40243   -1.000
 6153.00    1.50837   1.40332   -1.000
 6154.00    1.51058   1.40226   -1.000
 6155.00    1.50869   1.39966   -1.000
 6156.00    1.50124   1.39629   -1.000
 6157.00    1.50119   1.39150   -1.000
 6158.00    1.50962   1.38338   -1.000
 6159.00    1.49709   1.37008   -1.000
 6160.00    1.47166   1.35269   -1.000
 6161.00    1.45364   1.33578   -1.000
 6162.00    1.44212   1.32515   -1.000
 6163.00    1.44446   1.32386   -1.000
 6164.00    1.46239   1.33022   -1.000
 6165.00    1.47247   1.33948   -1.000
 6166.00    1.46795   1.34670   -1.000
 6167.00    1.46150   1.34984   -1.000
 6168.00    1.46438   1.34979   -1.000
 6169.00    1.46268   1.35024   -1.000
 6170.00    1.46106   1.35368   -1.000
 6171.00    1.47244   1.36081   -1.000
 6172.00    1.47438   1.36985   -1.000
 6173.00    1.47670   1.37843   -1.000
 6174.00    1.48815   1.38528   -1.000
 6175.00    1.49430   1.38991   -1.000
 6176.00    1.49543   1.39291   -1.000
 6177.00    1.49403   1.39482   -1.000
 6178.00    1.49199   1.39640   -1.000
 6179.00    1.49318   1.39812   -1.000
 6180.00    1.50140   1.40023   -1.000
 6181.00    1.50755   1.40252   -1.000
 6182.00    1.50995   1.40442   -1.000
 6183.00    1.51402   1.40519   -1.000
 6184.00    1.51534   1.40442   -1.000
 6185.00    1.50917   1.40190   -1.000
 6186.00    1.49431   1.39771   -1.000
 6187.00    1.48924   1.39174   -1.000
 6188.00    1.48932   1.38407   -1.000
 6189.00    1.48283   1.37560   -1.000
 6190.00    1.47021   1.36849   -1.000
 6191.00    1.44956   1.36578   -1.000
 6192.00    1.44309   1.36861   -1.000
 6193.00    1.46424   1.37585   -1.000
 6194.00    1.49052   1.38460   -1.000
 6195.00    1.50304   1.39185   -1.000
 6196.00    1.50265   1.39630   -1.000
 6197.00    1.49563   1.39754   -1.000
 6198.00    1.49380   1.39642   -1.000
 6199.00    1.48935   1.39471   -1.000
 6200.00    1.48027   1.39426   -1.000
 6201.00    1.48816   1.39601   -1.000
 6202.00    1.49950   1.39973   -1.000
 6203.00    1.50074   1.40408   -1.000
 6204.00    1.50415   1.40798   -1.000
 6205.00    1.50304   1.41074   -1.000
 6206.00    1.50263   1.41229   -1.000
 6207.00    1.49707   1.41264   -1.000
 6208.00    1.50330   1.41166   -1.000
 6209.00    1.50217   1.40890   -1.000
 6210.00    1.48985   1.40402   -1.000
 6211.00    1.49543   1.39711   -1.000
 6212.00    1.49526   1.38933   -1.000
 6213.00    1.48198   1.38226   -1.000
 6214.00    1.47553   1.37725   -1.000
 6215.00    1.47750   1.37436   -1.000
 6216.00    1.47840   1.37273   -1.000
 6217.00    1.47673   1.37124   -1.000
 6218.00    1.47647   1.37013   -1.000
 6219.00    1.47901   1.37010   -1.000
 6220.00    1.48203   1.37205   -1.000
 6221.00    1.48850   1.37550   -1.000
 6222.00    1.49874   1.37925   -1.000
 6223.00    1.49928   1.38229   -1.000
 6224.00    1.48824   1.38373   -1.000
 6225.00    1.49159   1.38341   -1.000
 6226.00    1.49621   1.38060   -1.000
 6227.00    1.49656   1.37476   -1.000
 6228.00    1.49627   1.36634   -1.000
 6229.00    1.48459   1.35742   -1.000
 6230.00    1.46448   1.35113   -1.000
 6231.00    1.45440   1.35007   -1.000
 6232.00    1.46195   1.35438   -1.000
 6233.00    1.47905   1.36194   -1.000
 6234.00    1.49320   1.36912   -1.000
 6235.00    1.50051   1.37332   -1.000
 6236.00    1.50127   1.37356   -1.000
 6237.00    1.48861   1.37110   -1.000
 6238.00    1.48480   1.36795   -1.000
 6239.00    1.48235   1.36559   -1.000
 6240.00    1.47367   1.36397   -1.000
 6241.00    1.46979   1.36180   -1.000
 6242.00    1.46978   1.35785   -1.000
 6243.00    1.46065   1.35219   -1.000
 6244.00    1.45153   1.34638   -1.000
 6245.00    1.46014   1.34315   -1.000
 6246.00    1.46213   1.34451   -1.000
 6247.00    1.46160   1.35036   -1.000
 6248.00    1.48069   1.35818   -1.000
 6249.00    1.49172   1.36389   -1.000
 6250.00    1.47816   1.36475   -1.000
 6251.00    1.46254   1.36067   -1.000
 6252.00    1.45011   1.35425   -1.000
 6253.00    1.43714   1.34860   -1.000
 6254.00    1.43167   1.34545   -1.000
 6255.00    1.43146   1.34486   -1.000
 6256.00    1.43021   1.34574   -1.000
 6257.00    1.42289   1.34780   -1.000
 6258.00    1.41917   1.35101   -1.000
 6259.00    1.43600   1.35580   -1.000
 6260.00    1.44697   1.36174   -1.000
 6261.00    1.44431   1.36816   -1.000
 6262.00    1.44845   1.37369   -1.000
 6263.00    1.45146   1.37776   -1.000
 6264.00    1.43704   1.38043   -1.000
 6265.00    1.41143   1.38229   -1.000
 6266.00    1.39620   1.38371   -1.000
 6267.00    1.39086   1.38422   49.246
 6268.00    1.38444   1.38337   49.704
 6269.00    1.38594   1.38134   49.634
 6270.00    1.39648   1.37902   -1.000
 6271.00    1.39769   1.37682   -1.000
 6272.00    1.39237   1.37396   -1.000
 6273.00    1.39672   1.36886   -1.000
 6274.00    1.40457   1.36093   -1.000
 6275.00    1.41581   1.35093   -1.000
 6276.00    1.43307   1.34108   -1.000
 6277.00    1.44473   1.33360   -1.000
 6278.00    1.44243   1.32977   -1.000
 6279.00    1.43801   1.33037   -1.000
 6280.00    1.44130   1.33500   -1.000
 6281.00    1.44892   1.34287   -1.000
 6282.00    1.45427   1.35252   -1.000
 6283.00    1.47372   1.36212   -1.000
 6284.00    1.51666   1.37031   -1.000
 6285.00    1.58612   1.37626   -1.000
 6286.00    1.69041   1.37978   -1.000
 6287.00    1.85592   1.38096   -1.000
 6288.00    2.12366   1.38009   -1.000
 6289.00    2.61056   1.37801   -1.000
 6290.00    3.08754   1.37560   -1.000
 6291.00    3.20099   1.37377   -1.000
 6292.00    2.72011   1.37267   -1.000
 6293.00    1.94062   1.37169   -1.000
 6294.00    1.55937   1.36996   -1.000
 6295.00    1.51406   1.36699   -1.000
 6296.00    1.48494   1.36313   -1.000
 6297.00    1.46035   1.35914   -1.000
 6298.00    1.44928   1.35574   -1.000
 6299.00    1.44322   1.35316   -1.000
 6300.00    1.43883   1.35187   -1.000
 6301.00    1.44120   1.35279   -1.000
 6302.00    1.44952   1.35671   -1.000
 6303.00    1.44814   1.36330   -1.000
 6304.00    1.45281   1.37094   -1.000
 6305.00    1.45926   1.37774   -1.000
 6306.00    1.46406   1.38257   -1.000
 6307.00    1.46885   1.38539   -1.000
 6308.00    1.46035   1.38685   -1.000
 6309.00    1.45732   1.38731   -1.000
 6310.00    1.46042   1.38690   -1.000
 6311.00    1.45275   1.38554   -1.000
 6312.00    1.45597   1.38285   -1.000
 6313.00    1.45881   1.37913   -1.000
 6314.00    1.44798   1.37479   -1.000
 6315.00    1.43863   1.37053   -1.000
 6316.00    1.43662   1.36732   -1.000
 6317.00    1.43388   1.36615   -1.000
 6318.00    1.43258   1.36784   -1.000
 6319.00    1.43734   1.37209   -1.000
 6320.00    1.45138   1.37789   -1.000
 6321.00    1.46071   1.38393   -1.000
 6322.00    1.45963   1.38956   -1.000
 6323.00    1.45450   1.39444   -1.000
 6324.00    1.49415   1.39829   -1.000
 6325.00    1.53535   1.40074   -1.000
 6326.00    1.48672   1.40160   -1.000
 6327.00    1.46893   1.40154   -1.000
 6328.00    1.46810   1.40125   -1.000
 6329.00    1.46531   1.40122   -1.000
 6330.00    1.46968   1.40126   -1.000
 6331.00    1.47285   1.40042   -1.000
 6332.00    1.47727   1.39762   -1.000
 6333.00    1.46888   1.39250   -1.000
 6334.00    1.45896   1.38619   -1.000
 6335.00    1.43686   1.38104   -1.000
 6336.00    1.42518   1.37908   -1.000
 6337.00    1.42484   1.38095   -1.000
 6338.00    1.44010   1.38566   -1.000
 6339.00    1.45289   1.39135   -1.000
 6340.00    1.46263   1.39611   -1.000
 6341.00    1.46588   1.39888   -1.000
 6342.00    1.46086   1.39909   -1.000
 6343.00    1.45719   1.39728   -1.000
 6344.00    1.45553   1.39462   -1.000
 6345.00    1.46340   1.39291   -1.000
 6346.00    1.47501   1.39373   -1.000
 6347.00    1.49231   1.39746   -1.000
 6348.00    1.52828   1.40313   -1.000
 6349.00    1.57995   1.40872   -1.000
 6350.00    1.64458   1.41230   -1.000
 6351.00    1.74560   1.41300   -1.000
 6352.00    1.87274   1.41122   -1.000
 6353.00    1.97124   1.40793   -1.000
 6354.00    1.98681   1.40426   -1.000
 6355.00    1.88159   1.40090   -1.000
 6356.00    1.60076   1.39789   -1.000
 6357.00    1.51300   1.39511   -1.000
 6358.00    1.46822   1.39245   -1.000
 6359.00    1.44284   1.38989   -1.000
 6360.00    1.43474   1.38766   -1.000
 6361.00    1.43416   1.38603   -1.000
 6362.00    1.42773   1.38537   -1.000
 6363.00    1.42484   1.38609   -1.000
 6364.00    1.43308   1.38807   -1.000
 6365.00    1.43044   1.39071   -1.000
 6366.00    1.42647   1.39301   -1.000
 6367.00    1.42555   1.39410   -1.000
 6368.00    1.40457   1.39383   44.553
 6369.00    1.40198   1.39287   44.597
 6370.00    1.42504   1.39262   -1.000
 6371.00    1.42891   1.39425   -1.000
 6372.00    1.42491   1.39757   -1.000
 6373.00    1.42066   1.40131   -1.000
 6374.00    1.41125   1.40392   44.856
 6375.00    1.40435   1.40458   44.831
 6376.00    1.40869   1.40351   44.949
 6377.00    1.40113   1.40143   45.095
 6378.00    1.40423   1.39881   45.447
 6379.00    1.39400   1.39609   45.810
 6380.00    1.38159   1.39343   46.319
 6381.00    1.38549   1.39130   47.015
 6382.00    1.39133   1.39010   47.448
 6383.00    1.37092   1.39027   47.348
 6384.00    1.36316   1.39169   46.682
 6385.00    1.35394   1.39390   46.540
 6386.00    1.35606   1.39598   46.805
 6387.00    1.35729   1.39717   47.485
 6388.00    1.33876   1.39685   48.555
 6389.00    1.33253   1.39474   48.985
 6390.00    1.32253   1.39084   48.540
 6391.00    1.31406   1.38602   47.773
 6392.00    1.29343   1.38184   47.492
 6393.00    1.28378   1.38015   47.601
 6394.00    1.27821   1.38150   47.855
 6395.00    1.27767   1.38439   48.520
 6396.00    1.27520   1.38619   49.277
 6397.00    1.27304   1.38503   49.797
 6398.00    1.26194   1.38161   -1.000
 6399.00    1.22801   1.37866   -1.000
 6400.00    1.21212   1.37880   -1.000
 6401.00    1.22347   1.38302   -1.000
 6402.00    1.23480   1.38955   -1.000
 6403.00    1.22693   1.39549   -1.000
 6404.00    1.22568   1.39829   -1.000
 6405.00    1.22327   1.39727   -1.000
 6406.00    1.20698   1.39356   -1.000
 6407.00    1.19612   1.38931   -1.000
 6408.00    1.17865   1.38687   -1.000
 6409.00    1.17906   1.38628   -1.000
 6410.00    1.17821   1.38720   -1.000
 6411.00    1.16560   1.38866   -1.000
 6412.00    1.14223   1.38964   -1.000
 6413.00    1.13820   1.39022   -1.000
 6414.00    1.13344   1.39048   -1.000
 6415.00    1.12233   1.39085   -1.000
 6416.00    1.12246   1.39080   -1.000
 6417.00    1.10804   1.39024   -1.000
 6418.00    1.09026   1.38845   -1.000
 6419.00    1.06783   1.38601   -1.000
 6420.00    0.12378   1.38495   -1.000
 6421.00    0.00000   1.38709   -2.000
 6422.00    0.00000   1.39240   -2.000
 6423.00    0.00000   1.39953   -2.000
 6424.00    0.00000   1.40643   -2.000
 6425.00    0.00000   1.41101   -2.000
 6426.00    0.00000   1.41240   -2.000
 6427.00    0.00000   1.40990   -2.000
 6428.00    0.00000   1.40405   -2.000
