###################################################################
## OUTPUT of StarlightChains_v04.for    [Cid@UFSC - 01/Apr/2007] ##
###################################################################

## Some input info
NGC3201_a_1.cxt                          [arq_obs]
Base.BC03.S                              [arq_base]
NGC3201_a_1.msk                          [arq_masks]
StCv04.C11.config                        [arq_config]
  150                                    [N_base]
    0                                    [N_YAV_components = # of components with extra extinction!]
    0                                    [i_FitPowerLaw (1/0 = Yes/No)]
-9.99                                    [alpha_PowerLaw]
CCM                                      [red_law_option]
 1.458241                                [q_norm = A(l_norm)/A(V)]

## (Re)Sampling Parameters
 3359.00                                 [l_ini (A)]
 6428.00                                 [l_fin (A)]
    1.00                                 [dl    (A)]     (OBS: dl_cushion =    50.00 A)

## Normalization info
 4020.00                                 [l_norm (A) - for base]
 4010.00                                 [llow_norm (A) - window for f_obs]
 4060.00                                 [lupp_norm (A) - window for f_obs]
1.250092E-14                             [fobs_norm (in input units)]

## S/N
 4730.00                                 [llow_SN (A) - window for S/N]
 4780.00                                 [lupp_SN (A) - window for S/N]
  72.417                                 [S/N in S/N window]
  61.465                                 [S/N in norm. window]
  55.763                                 [S/N_err in S/N window]
  47.330                                 [S/N_err in norm. window]
  1.0000                                 [fscale_chi2]

## etc...
  2147483640                             [idum_orig]
  3052                                   [NOl_eff]
  1812                                   [Nl_eff]
  1240    NSIGMA                         [Ntot_cliped & clip_method]
  1733340                                [Nglobal_steps]
   7                                     [N_chains]
  27                                     [NEX0s_base = N_base in EX0s-fits]
 0   0   1      371   2.0   8.843E+02    [Clip-Bug, RC-Crash & Burn-In warning-flags, n_censored_weights, wei_nsig_threshold & wei_limit]
    56     56.001     55.989      0.012  [idt_all, wdt_TotTime, wdt_UsrTime & wdt_SysTime (sec)]

## Synthesis Results - Best model ##

 1.75801E+00                             [chi2/Nl_eff]
     1.65837                             [adev (%)]

   101.71896                             [sum-of-x (%)]
 3.94842E-14                             [Flux_tot (units of input spectrum!)]
 5.58228E-10                             [Mini_tot (???)]
 2.86029E-10                             [Mcor_tot (???)]

 -14.35                                  [v0_min  (km/s)]
  61.21                                  [vd_min  (km/s)]
 0.8436                                  [AV_min  (mag)]
 0.0000                                  [YAV_min (mag)]

# j     x_j(%)      Mini_j(%)     Mcor_j(%)     age_j(yr)     Z_j      (L/M)_j    YAV?  Mstars   component_j        a/Fe...       SSP_chi2r SSP_adev(%)   SSP_AV   SSP_x(%)
  1      0.0000     0.0000E+00    0.0000E+00    1.000000E+06  0.00010  8.160E-03    0   1.0000   age020_m22            0.0000     4.3699E+02    15.3907   4.0000    70.7455
  2     11.2832     1.6486E-02    3.2176E-02    3.160000E+06  0.00010  4.759E-02    0   1.0000   age045_m22            0.0000     2.9049E+01     3.5156   2.2240    93.6289
  3      0.0000     0.0000E+00    0.0000E+00    5.010000E+06  0.00010  1.932E-02    0   0.9582   age055_m22            0.0000     2.6713E+02    10.9227   2.7274    76.5212
  4      0.0000     0.0000E+00    0.0000E+00    6.610000E+06  0.00010  9.973E-03    0   0.9297   age061_m22            0.0000     3.8462E+02    14.4791   4.0000    73.4317
  5      0.0000     0.0000E+00    0.0000E+00    8.710000E+06  0.00010  7.690E-03    0   0.9030   age067_m22            0.0000     3.6193E+02    13.8854   4.0000    74.0439
  6      0.0000     0.0000E+00    0.0000E+00    1.000000E+07  0.00010  6.375E-03    0   0.8902   age070_m22            0.0000     3.5252E+02    13.8768   4.0000    74.3887
  7      0.0000     0.0000E+00    0.0000E+00    1.445000E+07  0.00010  4.874E-03    0   0.8589   age078_m22            0.0000     2.0902E+02     8.3590   4.0000    77.9804
  8      0.0000     0.0000E+00    0.0000E+00    2.512000E+07  0.00010  4.103E-03    0   0.8174   age090_m22            0.0000     6.0964E+01     5.8427   3.6565    85.8638
  9      1.5790     3.0049E-02    4.5918E-02    4.000000E+07  0.00010  3.654E-03    0   0.7830   age104_m22            0.0000     4.4397E+01     3.5529   3.2644    92.3433
 10      1.5838     3.5608E-02    5.2794E-02    5.500000E+07  0.00010  3.093E-03    0   0.7597   age110_m22            0.0000     5.6493E+01     3.1992   3.1212    95.0227
 11      0.0000     0.0000E+00    0.0000E+00    1.015200E+08  0.00010  2.431E-03    0   0.7138   age116_m22            0.0000     1.0596E+02     3.3426   2.7228    99.2638
 12      0.0000     0.0000E+00    0.0000E+00    1.609000E+08  0.00010  1.319E-03    0   0.6775   age120_m22            0.0000     8.9596E+01     3.3565   2.2203   103.0649
 13      0.0000     0.0000E+00    0.0000E+00    2.861200E+08  0.00010  1.075E-03    0   0.6412   age125_m22            0.0000     3.1835E+02     7.6053   2.0924   112.3969
 14      0.0000     0.0000E+00    0.0000E+00    5.088000E+08  0.00010  7.183E-04    0   0.6083   age130_m22            0.0000     3.9156E+02     9.3781   1.7754   117.2987
 15      0.0000     0.0000E+00    0.0000E+00    9.047900E+08  0.00010  4.524E-04    0   0.5785   age135_m22            0.0000     3.9641E+02     9.8349   1.5515   119.5466
 16      0.0000     0.0000E+00    0.0000E+00    1.278050E+09  0.00010  3.018E-04    0   0.5588   age138_m22            0.0000     1.5569E+02     6.8007   1.1583   113.5605
 17      0.0000     0.0000E+00    0.0000E+00    1.434000E+09  0.00010  2.691E-04    0   0.5532   age139_m22            0.0000     1.1826E+02     6.2584   1.0231   112.3641
 18      0.0000     0.0000E+00    0.0000E+00    2.500000E+09  0.00010  1.582E-04    0   0.5296   age150_m22            0.0000     9.8129E+01     5.4206   0.9414   112.0298
 19      0.0000     4.2723E-06    4.2607E-06    4.250000E+09  0.00010  1.007E-04    0   0.5110   age158_m22            0.0000     3.8094E+01     3.8645   0.8528   108.3776
 20      0.0167     1.6872E-02    1.6415E-02    6.250000E+09  0.00010  6.869E-05    0   0.4985   age166_m22            0.0000     7.5399E+00     2.4035   0.8568   103.7098
 21      2.0127     2.3830E+00    2.2933E+00    7.500000E+09  0.00010  5.873E-05    0   0.4931   age171_m22            0.0000     5.2219E+00     2.0612   0.8610   102.6282
 22      0.0000     0.0000E+00    0.0000E+00    1.000000E+10  0.00010  4.481E-05    0   0.4854   age181_m22            0.0000     4.4973E+00     2.0531   0.8240   102.2733
 23      0.0000     0.0000E+00    0.0000E+00    1.300000E+10  0.00010  3.489E-05    0   0.4791   age193_m22            0.0000     3.4493E+00     2.0313   0.7704   101.6840
 24      0.7267     1.6649E+00    1.5486E+00    1.500000E+10  0.00010  3.035E-05    0   0.4766   age201_m22            0.0000     3.0425E+00     1.9787   0.7354   101.3950
 25      3.3131     9.1784E+00    8.4818E+00    1.800000E+10  0.00010  2.510E-05    0   0.4735   age213_m22            0.0000     2.8666E+00     1.8734   0.6769   100.5077
 26      0.0000     0.0000E+00    0.0000E+00    1.000000E+06  0.00040  8.458E-03    0   1.0000   age020_m32            0.0000     4.3228E+02    15.6788   4.0000    71.4226
 27      0.0016     2.8164E-06    5.4967E-06    3.160000E+06  0.00040  3.973E-02    0   1.0000   age045_m32            0.0000     7.3861E+01     6.4210   3.5743    85.1589
 28      0.0000     0.0000E+00    0.0000E+00    5.010000E+06  0.00040  1.935E-02    0   0.9532   age055_m32            0.0000     1.9958E+02    10.0410   3.9009    77.4180
 29      0.0000     0.0000E+00    0.0000E+00    6.610000E+06  0.00040  1.204E-02    0   0.9243   age061_m32            0.0000     2.7071E+02    10.1708   4.0000    75.8057
 30      0.0000     0.0000E+00    0.0000E+00    8.710000E+06  0.00040  9.433E-03    0   0.9001   age067_m32            0.0000     2.3172E+02     9.1598   4.0000    76.9552
 31      0.0000     0.0000E+00    0.0000E+00    1.000000E+07  0.00040  8.053E-03    0   0.8877   age070_m32            0.0000     2.1368E+02     8.7245   4.0000    77.5038
 32      0.0000     0.0000E+00    0.0000E+00    1.445000E+07  0.00040  7.027E-03    0   0.8578   age078_m32            0.0000     9.2049E+01     7.3489   3.5610    83.2998
 33      0.0000     0.0000E+00    0.0000E+00    2.512000E+07  0.00040  4.707E-03    0   0.8166   age090_m32            0.0000     4.2795E+01     5.1594   3.1994    88.7098
 34      1.2865     2.4086E-02    3.6793E-02    4.000000E+07  0.00040  3.714E-03    0   0.7827   age104_m32            0.0000     3.4919E+01     3.4054   2.9247    93.6146
 35      0.0000     0.0000E+00    0.0000E+00    5.500000E+07  0.00040  2.982E-03    0   0.7593   age110_m32            0.0000     4.6145E+01     3.0708   2.8307    95.6445
 36      0.0000     0.0000E+00    0.0000E+00    1.015200E+08  0.00040  2.188E-03    0   0.7143   age116_m32            0.0000     1.6136E+02     4.2493   2.4309   103.7355
 37      0.0000     0.0000E+00    0.0000E+00    1.609000E+08  0.00040  1.690E-03    0   0.6856   age120_m32            0.0000     2.7138E+02     5.9644   2.1404   108.9368
 38      0.0000     0.0000E+00    0.0000E+00    2.861200E+08  0.00040  1.152E-03    0   0.6509   age125_m32            0.0000     3.3118E+02     8.1906   1.8115   114.8154
 39      0.0000     0.0000E+00    0.0000E+00    5.088000E+08  0.00040  7.331E-04    0   0.6182   age130_m32            0.0000     3.5839E+02     9.2138   1.6009   117.3642
 40      0.0000     0.0000E+00    0.0000E+00    9.047900E+08  0.00040  3.960E-04    0   0.5890   age135_m32            0.0000     1.5638E+02     7.4536   1.2209   113.8490
 41      0.0000     0.0000E+00    0.0000E+00    1.278050E+09  0.00040  2.854E-04    0   0.5687   age138_m32            0.0000     1.2027E+02     6.0660   0.9815   113.9030
 42      0.0000     0.0000E+00    0.0000E+00    1.434000E+09  0.00040  2.531E-04    0   0.5632   age139_m32            0.0000     1.1640E+02     5.9194   0.9245   113.7205
 43      0.0105     4.9071E-03    5.1582E-03    2.500000E+09  0.00040  1.488E-04    0   0.5386   age150_m32            0.0000     6.6779E+01     4.9833   0.7001   110.8743
 44     67.6824     5.1821E+01    5.2581E+01    4.250000E+09  0.00040  9.082E-05    0   0.5199   age158_m32            0.0000     7.0445E+00     2.7537   0.6992   104.6158
 45      5.1021     5.5765E+00    5.5244E+00    6.250000E+09  0.00040  6.362E-05    0   0.5076   age166_m32            0.0000     1.0114E+01     1.7891   0.7382    98.8470
 46      3.4442     4.5282E+00    4.4426E+00    7.500000E+09  0.00040  5.289E-05    0   0.5027   age171_m32            0.0000     1.7046E+01     1.9850   0.7106    97.4202
 47      0.0000     0.0000E+00    0.0000E+00    1.000000E+10  0.00040  3.972E-05    0   0.4948   age181_m32            0.0000     2.3967E+01     2.2387   0.6490    96.1909
 48      0.0073     1.5442E-02    1.4677E-02    1.300000E+10  0.00040  3.283E-05    0   0.4870   age193_m32            0.0000     7.9977E+00     2.1701   0.5651   100.0559
 49      0.0149     3.5466E-02    3.3598E-02    1.500000E+10  0.00040  2.925E-05    0   0.4854   age201_m32            0.0000     4.7287E+00     2.4427   0.5228   102.3479
 50      0.0086     2.4318E-02    2.2871E-02    1.800000E+10  0.00040  2.469E-05    0   0.4819   age213_m32            0.0000     5.1225E+00     2.6705   0.4714   103.2012
 51      0.0000     0.0000E+00    0.0000E+00    1.000000E+06  0.00400  1.114E-02    0   1.0000   age020_m42            0.0000     3.9245E+02    13.4903   4.0000    72.1247
 52      0.0000     0.0000E+00    0.0000E+00    3.160000E+06  0.00400  4.073E-02    0   0.9999   age045_m42            0.0000     4.7089E+01     4.8332   3.2308    88.8855
 53      0.0001     2.2156E-07    4.1026E-07    5.010000E+06  0.00400  2.534E-02    0   0.9488   age055_m42            0.0000     1.3144E+02     7.9112   3.7250    80.8011
 54      0.0499     1.3422E-04    2.4151E-04    6.610000E+06  0.00400  2.583E-02    0   0.9220   age061_m42            0.0000     3.6805E+01     3.9336   3.0193    90.1944
 55      0.0000     0.0000E+00    0.0000E+00    8.710000E+06  0.00400  1.706E-02    0   0.8983   age067_m42            0.0000     5.5971E+01     5.7931   2.9106    86.7606
 56      0.0000     0.0000E+00    0.0000E+00    1.000000E+07  0.00400  1.271E-02    0   0.8862   age070_m42            0.0000     8.4954E+01     7.3823   2.9371    84.3123
 57      0.0000     0.0000E+00    0.0000E+00    1.445000E+07  0.00400  7.666E-03    0   0.8571   age078_m42            0.0000     1.4305E+02     8.2741   3.3637    81.0019
 58      0.0000     0.0000E+00    0.0000E+00    2.512000E+07  0.00400  5.070E-03    0   0.8174   age090_m42            0.0000     7.6939E+01     6.6738   2.7863    86.6263
 59      0.0000     0.0000E+00    0.0000E+00    4.000000E+07  0.00400  3.505E-03    0   0.7851   age104_m42            0.0000     5.5033E+01     4.8169   2.4227    91.0153
 60      0.0000     0.0000E+00    0.0000E+00    5.500000E+07  0.00400  3.059E-03    0   0.7629   age110_m42            0.0000     3.8891E+01     2.2151   2.3437    99.1415
 61      0.0000     0.0000E+00    0.0000E+00    1.015200E+08  0.00400  2.268E-03    0   0.7207   age116_m42            0.0000     2.2339E+02     5.8938   2.0600   109.7003
 62      0.0000     0.0000E+00    0.0000E+00    1.609000E+08  0.00400  1.720E-03    0   0.6930   age120_m42            0.0000     2.4410E+02     6.8670   1.8714   113.0436
 63      0.0000     0.0000E+00    0.0000E+00    2.861200E+08  0.00400  1.079E-03    0   0.6613   age125_m42            0.0000     2.2577E+02     7.4797   1.4922   114.9903
 64      0.0000     0.0000E+00    0.0000E+00    5.088000E+08  0.00400  6.261E-04    0   0.6313   age130_m42            0.0000     2.8154E+02     8.3875   1.2497   119.6426
 65      0.0000     0.0000E+00    0.0000E+00    9.047900E+08  0.00400  3.535E-04    0   0.6024   age135_m42            0.0000     1.3702E+02     6.9990   0.9172   118.0996
 66      0.0000     0.0000E+00    0.0000E+00    1.278050E+09  0.00400  2.677E-04    0   0.5837   age138_m42            0.0000     5.2227E+01     6.7999   0.2955   114.5615
 67      0.0000     0.0000E+00    0.0000E+00    1.434000E+09  0.00400  1.910E-04    0   0.5716   age139_m42            0.0000     4.8519E+01     6.7513   0.4412   115.8054
 68      0.0000     0.0000E+00    0.0000E+00    2.500000E+09  0.00400  9.818E-05    0   0.5463   age150_m42            0.0000     5.2924E+01     5.5409   0.2684   108.2074
 69      0.0000     0.0000E+00    0.0000E+00    4.250000E+09  0.00400  5.491E-05    0   0.5269   age158_m42            0.0000     9.7632E+01     5.0260   0.1931   103.9735
 70      0.0000     0.0000E+00    0.0000E+00    6.250000E+09  0.00400  3.857E-05    0   0.5151   age166_m42            0.0000     1.4047E+02     5.9155   0.0000   102.7451
 71      0.0000     0.0000E+00    0.0000E+00    7.500000E+09  0.00400  3.243E-05    0   0.5110   age171_m42            0.0000     1.6554E+02     5.9233  -0.0052   102.1797
 72      0.0000     0.0000E+00    0.0000E+00    1.000000E+10  0.00400  2.424E-05    0   0.5028   age181_m42            0.0000     2.1132E+02     6.3876  -0.0813   101.6210
 73      0.0000     0.0000E+00    0.0000E+00    1.300000E+10  0.00400  1.883E-05    0   0.4927   age193_m42            0.0000     2.5429E+02     6.6630  -0.1124   101.1753
 74      0.0000     0.0000E+00    0.0000E+00    1.500000E+10  0.00400  1.685E-05    0   0.4919   age201_m42            0.0000     2.4294E+02     6.5465  -0.1063   101.0943
 75      0.0000     0.0000E+00    0.0000E+00    1.800000E+10  0.00400  1.452E-05    0   0.4874   age213_m42            0.0000     2.2253E+02     6.3435  -0.0902   101.2268
 76      0.0000     0.0000E+00    0.0000E+00    1.000000E+06  0.00800  1.286E-02    0   1.0000   age020_m52            0.0000     3.3933E+02    12.1479   4.0000    74.1837
 77      0.0000     0.0000E+00    0.0000E+00    3.160000E+06  0.00800  3.147E-02    0   0.9966   age045_m52            0.0000     2.8061E+02     9.9796   4.0000    75.7008
 78      0.0000     0.0000E+00    0.0000E+00    5.010000E+06  0.00800  2.664E-02    0   0.9443   age055_m52            0.0000     1.6909E+02     8.6138   3.8652    79.5625
 79      0.0000     0.0000E+00    0.0000E+00    6.610000E+06  0.00800  2.151E-02    0   0.9177   age061_m52            0.0000     1.1567E+02     6.3627   2.5218    86.7547
 80      0.0000     0.0000E+00    0.0000E+00    8.710000E+06  0.00800  1.628E-02    0   0.8948   age067_m52            0.0000     7.8242E+01     6.3611   2.8832    86.9873
 81      0.0000     0.0000E+00    0.0000E+00    1.000000E+07  0.00800  1.215E-02    0   0.8827   age070_m52            0.0000     9.7834E+01     7.2213   3.2432    84.6682
 82      0.0000     0.0000E+00    0.0000E+00    1.445000E+07  0.00800  8.739E-03    0   0.8552   age078_m52            0.0000     7.3036E+01     6.3145   3.2567    86.4690
 83      0.0000     0.0000E+00    0.0000E+00    2.512000E+07  0.00800  5.676E-03    0   0.8162   age090_m52            0.0000     5.1365E+01     4.5784   2.7886    92.4436
 84      0.0000     0.0000E+00    0.0000E+00    4.000000E+07  0.00800  3.939E-03    0   0.7841   age104_m52            0.0000     5.7836E+01     3.0202   2.5639    96.8547
 85      0.0000     0.0000E+00    0.0000E+00    5.500000E+07  0.00800  3.155E-03    0   0.7627   age110_m52            0.0000     7.9242E+01     2.6513   2.4738   100.4327
 86      0.0000     0.0000E+00    0.0000E+00    1.015200E+08  0.00800  2.206E-03    0   0.7226   age116_m52            0.0000     1.5644E+02     4.7551   2.1706   107.9767
 87      0.0000     0.0000E+00    0.0000E+00    1.609000E+08  0.00800  1.596E-03    0   0.6963   age120_m52            0.0000     1.8946E+02     6.0617   1.8988   111.7526
 88      0.0000     0.0000E+00    0.0000E+00    2.861200E+08  0.00800  1.002E-03    0   0.6665   age125_m52            0.0000     2.9048E+02     9.2182   1.4662   119.8454
 89      0.0000     0.0000E+00    0.0000E+00    5.088000E+08  0.00800  5.759E-04    0   0.6377   age130_m52            0.0000     2.8133E+02    10.9748   1.0377   127.6565
 90      0.0000     0.0000E+00    0.0000E+00    9.047900E+08  0.00800  2.972E-04    0   0.6086   age135_m52            0.0000     9.4224E+01     9.8322   0.5815   124.8554
 91      0.0000     0.0000E+00    0.0000E+00    1.278050E+09  0.00800  2.242E-04    0   0.5907   age138_m52            0.0000     7.5137E+01     8.1275   0.0992   119.1967
 92      0.0000     0.0000E+00    0.0000E+00    1.434000E+09  0.00800  1.645E-04    0   0.5787   age139_m52            0.0000     5.9317E+01     7.2704   0.2728   117.3617
 93      0.0000     0.0000E+00    0.0000E+00    2.500000E+09  0.00800  7.723E-05    0   0.5519   age150_m52            0.0000     1.2536E+02     6.8632  -0.0003   111.4848
 94      0.0000     0.0000E+00    0.0000E+00    4.250000E+09  0.00800  4.151E-05    0   0.5320   age158_m52            0.0000     1.5432E+02     6.5332  -0.0426   108.0029
 95      0.0000     0.0000E+00    0.0000E+00    6.250000E+09  0.00800  3.010E-05    0   0.5197   age166_m52            0.0000     2.3998E+02     7.2841  -0.2329   106.7727
 96      0.0000     0.0000E+00    0.0000E+00    7.500000E+09  0.00800  2.467E-05    0   0.5139   age171_m52            0.0000     2.6304E+02     7.5297  -0.2757   106.5109
 97      0.0000     0.0000E+00    0.0000E+00    1.000000E+10  0.00800  1.862E-05    0   0.5054   age181_m52            0.0000     3.3390E+02     8.3624  -0.4202   106.8046
 98      0.0000     0.0000E+00    0.0000E+00    1.300000E+10  0.00800  1.433E-05    0   0.4988   age193_m52            0.0000     4.3384E+02     9.0849  -0.5190   107.8385
 99      0.0000     0.0000E+00    0.0000E+00    1.500000E+10  0.00800  1.244E-05    0   0.4936   age201_m52            0.0000     4.7687E+02     9.3258  -0.5472   108.4107
100      0.0000     0.0000E+00    0.0000E+00    1.800000E+10  0.00800  1.070E-05    0   0.4888   age213_m52            0.0000     5.0131E+02     9.5439  -0.5860   108.4354
101      0.0000     0.0000E+00    0.0000E+00    1.000000E+06  0.02000  1.989E-02    0   1.0000   age020_m62            0.0000     3.7613E+02    12.2667   4.0000    73.1575
102      0.0000     0.0000E+00    0.0000E+00    3.160000E+06  0.02000  3.772E-02    0   0.9858   age045_m62            0.0000     2.7975E+02     9.4384   4.0000    75.3243
103      0.0000     0.0000E+00    0.0000E+00    5.010000E+06  0.02000  3.227E-02    0   0.9342   age055_m62            0.0000     7.1275E+01     6.2271   3.5300    84.6549
104      0.0000     0.0000E+00    0.0000E+00    6.610000E+06  0.02000  2.387E-02    0   0.9090   age061_m62            0.0000     1.1108E+02     8.1133   3.3363    82.5777
105      0.0000     0.0000E+00    0.0000E+00    8.710000E+06  0.02000  1.102E-02    0   0.8861   age067_m62            0.0000     3.1973E+02    14.5287   3.0850    75.0540
106      0.0000     0.0000E+00    0.0000E+00    1.000000E+07  0.02000  1.011E-02    0   0.8751   age070_m62            0.0000     2.3610E+02    11.8726   3.0554    78.7085
107      0.0000     0.0000E+00    0.0000E+00    1.445000E+07  0.02000  7.331E-03    0   0.8472   age078_m62            0.0000     1.7996E+02     9.6422   3.0289    81.3599
108      0.0000     0.0000E+00    0.0000E+00    2.512000E+07  0.02000  4.206E-03    0   0.8099   age090_m62            0.0000     2.0862E+02     9.7027   2.9521    80.8212
109      0.0000     0.0000E+00    0.0000E+00    4.000000E+07  0.02000  3.373E-03    0   0.7799   age104_m62            0.0000     4.8514E+01     4.2044   2.5913    93.6000
110      0.0000     0.0000E+00    0.0000E+00    5.500000E+07  0.02000  2.747E-03    0   0.7595   age110_m62            0.0000     5.1994E+01     2.6883   2.4309    99.6595
111      0.0000     0.0000E+00    0.0000E+00    1.015200E+08  0.02000  1.878E-03    0   0.7221   age116_m62            0.0000     1.6928E+02     4.8649   2.1382   108.9692
112      0.0000     0.0000E+00    0.0000E+00    1.609000E+08  0.02000  1.378E-03    0   0.6978   age120_m62            0.0000     2.7061E+02     7.1213   1.8818   115.1037
113      0.0000     0.0000E+00    0.0000E+00    2.861200E+08  0.02000  8.869E-04    0   0.6700   age125_m62            0.0000     4.4819E+02    10.5589   1.3483   125.4785
114      0.0000     0.0000E+00    0.0000E+00    5.088000E+08  0.02000  4.834E-04    0   0.6430   age130_m62            0.0000     3.1703E+02    11.7235   0.8627   130.8618
115      0.0000     0.0000E+00    0.0000E+00    9.047900E+08  0.02000  2.312E-04    0   0.6152   age135_m62            0.0000     9.1097E+01     9.3223   0.4077   125.4733
116      0.0000     0.0000E+00    0.0000E+00    1.278050E+09  0.02000  1.387E-04    0   0.5927   age138_m62            0.0000     4.7165E+01     7.2160   0.1524   116.8349
117      0.0000     0.0000E+00    0.0000E+00    1.434000E+09  0.02000  1.168E-04    0   0.5865   age139_m62            0.0000     5.6268E+01     6.9195   0.1513   114.4576
118      0.0000     0.0000E+00    0.0000E+00    2.500000E+09  0.02000  5.505E-05    0   0.5610   age150_m62            0.0000     1.5120E+02     7.4982  -0.1846   110.6270
119      0.0000     0.0000E+00    0.0000E+00    4.250000E+09  0.02000  3.070E-05    0   0.5407   age158_m62            0.0000     3.0164E+02     9.3653  -0.5107   112.2837
120      0.0000     0.0000E+00    0.0000E+00    6.250000E+09  0.02000  2.104E-05    0   0.5277   age166_m62            0.0000     4.0982E+02    10.2320  -0.6556   113.5340
121      0.0000     0.0000E+00    0.0000E+00    7.500000E+09  0.02000  1.770E-05    0   0.5223   age171_m62            0.0000     4.5794E+02    10.7316  -0.7543   114.4384
122      0.0000     0.0000E+00    0.0000E+00    1.000000E+10  0.02000  1.297E-05    0   0.5121   age181_m62            0.0000     5.7254E+02    11.6730  -0.9299   115.8545
123      0.0000     0.0000E+00    0.0000E+00    1.300000E+10  0.02000  9.691E-06    0   0.5047   age193_m62            0.0000     6.5951E+02    12.1813  -1.0000   116.6013
124      0.0000     0.0000E+00    0.0000E+00    1.500000E+10  0.02000  8.360E-06    0   0.4999   age201_m62            0.0000     7.3180E+02    12.9058  -1.0000   117.1069
125      0.0000     0.0000E+00    0.0000E+00    1.800000E+10  0.02000  6.911E-06    0   0.4946   age213_m62            0.0000     8.2476E+02    14.5416  -1.0000   117.7906
126      0.0000     0.0000E+00    0.0000E+00    1.000000E+06  0.05000  2.651E-02    0   0.9998   age020_m72            0.0000     3.5906E+02    11.7220   4.0000    74.3089
127      0.0000     0.0000E+00    0.0000E+00    3.160000E+06  0.05000  4.817E-02    0   0.9577   age045_m72            0.0000     1.6995E+02     8.7159   3.9726    79.1465
128      0.0000     0.0000E+00    0.0000E+00    5.010000E+06  0.05000  3.101E-02    0   0.9147   age055_m72            0.0000     1.4337E+02     8.4224   3.6113    81.6335
129      0.0000     0.0000E+00    0.0000E+00    6.610000E+06  0.05000  1.472E-02    0   0.8877   age061_m72            0.0000     2.8287E+02    12.5272   3.2538    77.4948
130      0.0000     0.0000E+00    0.0000E+00    8.710000E+06  0.05000  1.050E-02    0   0.8638   age067_m72            0.0000     2.2620E+02     9.9996   3.5994    79.6723
131      0.0000     0.0000E+00    0.0000E+00    1.000000E+07  0.05000  8.954E-03    0   0.8524   age070_m72            0.0000     1.8924E+02     8.4609   3.8360    81.1424
132      0.0000     0.0000E+00    0.0000E+00    1.445000E+07  0.05000  6.392E-03    0   0.8262   age078_m72            0.0000     1.6461E+02     7.7060   3.7597    82.7797
133      0.0000     0.0000E+00    0.0000E+00    2.512000E+07  0.05000  4.207E-03    0   0.7902   age090_m72            0.0000     8.2444E+01     5.4338   3.3112    88.8488
134      0.0000     0.0000E+00    0.0000E+00    4.000000E+07  0.05000  3.198E-03    0   0.7618   age104_m72            0.0000     7.7368E+01     3.2921   2.5935   102.2185
135      0.0000     0.0000E+00    0.0000E+00    5.500000E+07  0.05000  2.593E-03    0   0.7432   age110_m72            0.0000     1.2241E+02     4.0804   2.4524   105.3750
136      0.0000     0.0000E+00    0.0000E+00    1.015200E+08  0.05000  1.716E-03    0   0.7092   age116_m72            0.0000     2.1996E+02     5.7792   2.1774   110.4897
137      0.0000     0.0000E+00    0.0000E+00    1.609000E+08  0.05000  1.218E-03    0   0.6876   age120_m72            0.0000     3.4124E+02     8.2049   1.8025   116.9817
138      0.0000     0.0000E+00    0.0000E+00    2.861200E+08  0.05000  7.047E-04    0   0.6618   age125_m72            0.0000     4.3002E+02    11.2955   1.1154   126.6909
139      0.0000     0.0000E+00    0.0000E+00    5.088000E+08  0.05000  3.590E-04    0   0.6356   age130_m72            0.0000     2.5998E+02    11.7588   0.5316   130.7492
140      0.0000     0.0000E+00    0.0000E+00    9.047900E+08  0.05000  1.484E-04    0   0.6088   age135_m72            0.0000     6.5296E+01     8.9996  -0.0124   118.6523
141      0.0000     1.6710E-05    1.9320E-05    1.278050E+09  0.05000  9.435E-05    0   0.5924   age138_m72            0.0000     1.4961E+02     9.7338  -0.3832   114.9467
142      0.0000     0.0000E+00    0.0000E+00    1.434000E+09  0.05000  7.827E-05    0   0.5847   age139_m72            0.0000     1.7224E+02     9.3569  -0.3471   113.5912
143      0.0000     0.0000E+00    0.0000E+00    2.500000E+09  0.05000  3.759E-05    0   0.5583   age150_m72            0.0000     3.6780E+02    10.2869  -0.6570   112.9038
144      0.8860     3.3446E+00    3.5079E+00    4.250000E+09  0.05000  1.842E-05    0   0.5374   age158_m72            0.0000     5.2617E+02    11.4883  -0.9981   113.6109
145      0.7795     4.4910E+00    4.5945E+00    6.250000E+09  0.05000  1.207E-05    0   0.5242   age166_m72            0.0000     6.9753E+02    16.0095  -1.0000   113.8094
146      1.1600     8.0721E+00    8.1652E+00    7.500000E+09  0.05000  9.993E-06    0   0.5183   age171_m72            0.0000     7.2267E+02    17.2743  -1.0000   113.6996
147      0.3799     3.6233E+00    3.5929E+00    1.000000E+10  0.05000  7.291E-06    0   0.5081   age181_m72            0.0000     8.5766E+02    21.5942  -1.0000   113.9137
148      0.3857     5.0453E+00    4.9411E+00    1.300000E+10  0.05000  5.316E-06    0   0.5018   age193_m72            0.0000     1.1257E+03    28.0091  -1.0000   113.4968
149      0.0044     6.8363E-02    6.6337E-02    1.500000E+10  0.05000  4.497E-06    0   0.4972   age201_m72            0.0000     1.2662E+03    30.6550  -1.0000   113.5908
150      0.0000     1.0210E-04    9.8113E-05    1.800000E+10  0.05000  3.739E-06    0   0.4924   age213_m72            0.0000     1.4852E+03    34.0698  -1.0000   112.9948


## Synthesis Results - Average & Chains ##

# j      x_j: min, <> & last-chain-values for 1 ...  7 chains
  1      0.0000      0.0042      0.0000      0.0000      0.0061      0.0555      0.0000      0.0000      0.0000
  2     11.2832     10.8422     11.2895     11.4241     10.7417     10.9283     11.2725     11.0765     10.9781
  3      0.0000      0.0100      0.1268      0.0022      0.0000      0.0000      0.0000      0.0000      0.0000
  4      0.0000      0.0058      0.0000      0.0000      0.0000      0.0000      0.0000      0.0000      0.0000
  5      0.0000      0.0068      0.0000      0.0487      0.0000      0.0006      0.0000      0.0000      0.0000
  6      0.0000      0.0186      0.0868      0.0000      0.0000      0.0756      0.0000      0.0183      0.0000
  7      0.0000      0.0072      0.0073      0.0000      0.0000      0.0000      0.0000      0.0000      0.0000
  8      0.0000      0.0200      0.0000      0.0000      0.0548      0.0000      0.0117      0.0000      0.0000
  9      1.5790      0.2636      0.1970      0.5916      0.2030      0.2936      0.4454      0.4410      0.2585
 10      1.5838      0.1729      0.2297      0.1321      0.1751      0.2004      0.1813      0.1356      0.3178
 11      0.0000      0.2399      0.1061      0.2040      0.1599      0.2132      0.5701      0.3209      0.2382
 12      0.0000      0.0338      0.0534      0.0730      0.0561      0.0000      0.0000      0.0850      0.0685
 13      0.0000      0.0166      0.0000      0.0000      0.0092      0.0000      0.0000      0.0253      0.0000
 14      0.0000      0.0203      0.0000      0.0000      0.0000      0.0000      0.0000      0.0057      0.0000
 15      0.0000      0.0134      0.0000      0.0000      0.0000      0.0000      0.0000      0.0000      0.0000
 16      0.0000      0.0103      0.0000      0.0000      0.0000      0.0000      0.0261      0.0420      0.0000
 17      0.0000      0.0221      0.0000      0.0000      0.0000      0.0000      0.0031      0.0000      0.0000
 18      0.0000      0.0559      0.0000      0.1958      0.0000      0.0000      0.0000      0.0000      0.0000
 19      0.0000      0.0785      0.1762      0.0000      0.5283      0.0000      0.0115      0.2638      0.0000
 20      0.0167      0.2299      0.2080      0.0651      0.4965      0.2166      0.5927      0.4451      0.2354
 21      2.0127      0.3812      0.4800      0.8153      0.7416      0.4917      0.5720      0.5312      0.6049
 22      0.0000      0.2328      0.1302      0.2804      0.3321      0.5917      0.6854      0.0000      0.3890
 23      0.0000      0.1671      0.1328      0.0000      0.1875      0.0403      0.0000      0.0000      0.6723
 24      0.7267      0.3632      1.1572      0.2719      0.9895      0.5555      0.1237      0.6228      1.0143
 25      3.3131      0.2637      0.2472      0.0000      0.9305      0.2880      0.3141      0.0053      0.1906
 26      0.0000      0.0032      0.0000      0.0259      0.0000      0.0000      0.0000      0.0000      0.0000
 27      0.0016      0.0479      0.1962      0.1584      0.0000      0.0434      0.0000      0.1913      0.0335
 28      0.0000      0.0100      0.0891      0.0000      0.0000      0.0000      0.0000      0.0000      0.0000
 29      0.0000      0.0112      0.0000      0.0000      0.0595      0.0000      0.0000      0.0000      0.0000
 30      0.0000      0.0073      0.0000      0.0000      0.0000      0.0000      0.0000      0.0000      0.0000
 31      0.0000      0.0098      0.0000      0.0000      0.0000      0.0000      0.0000      0.0000      0.0000
 32      0.0000      0.0273      0.0886      0.0000      0.0965      0.0917      0.0000      0.0000      0.0911
 33      0.0000      0.0298      0.0000      0.0000      0.0000      0.0000      0.0000      0.1712      0.0781
 34      1.2865      0.1925      0.1741      0.5548      0.4114      0.1570      0.2111      0.3310      0.3293
 35      0.0000      0.1309      0.0000      0.2602      0.4200      0.0000      0.0000      0.1763      0.4225
 36      0.0000      0.0667      0.1458      0.0000      0.0000      0.0000      0.1824      0.0000      0.1849
 37      0.0000      0.0824      0.0000      0.0000      0.1291      0.1099      0.0267      0.0103      0.0704
 38      0.0000      0.0144      0.0000      0.0000      0.0000      0.0000      0.0000      0.0000      0.0189
 39      0.0000      0.0154      0.0000      0.0000      0.0000      0.0000      0.0916      0.0000      0.0000
 40      0.0000      0.0100      0.0000      0.0000      0.0006      0.0000      0.0000      0.0000      0.0000
 41      0.0000      0.0238      0.0016      0.0000      0.0000      0.0000      0.0000      0.0000      0.0000
 42      0.0000      0.0614      0.0000      0.0023      0.0241      0.0000      0.0799      0.1206      0.0000
 43      0.0105      0.5404      0.4000      0.3293      0.5180      0.6199      0.3769      0.4554      0.4864
 44     67.6824     76.6865     78.9341     78.5732     74.2730     76.9931     77.6424     77.5320     75.7617
 45      5.1021      0.3784      0.4348      0.6715      1.3458      0.8354      0.3307      0.4476      0.9847
 46      3.4442      0.3447      0.8079      0.4439      0.1023      0.4627      0.1254      0.0000      0.5042
 47      0.0000      0.1261      0.0000      0.0000      0.0000      0.3294      0.1071      0.1483      0.1517
 48      0.0073      0.2151      0.1684      0.0000      0.5894      0.3602      0.0000      0.0000      0.0000
 49      0.0149      0.3344      0.1587      0.1347      0.0940      0.3461      0.1525      0.5735      0.3742
 50      0.0086      0.3422      0.2074      0.1865      0.1224      0.7289      0.0000      0.3221      0.1409
 51      0.0000      0.0024      0.0000      0.0000      0.0000      0.0000      0.0000      0.0000      0.0068
 52      0.0000      0.0751      0.0359      0.0833      0.0467      0.1478      0.1904      0.3289      0.0133
 53      0.0001      0.0098      0.1611      0.0000      0.0455      0.0000      0.0000      0.0000      0.0781
 54      0.0499      0.1246      0.2445      0.1159      0.1902      0.2107      0.1573      0.0000      0.2413
 55      0.0000      0.0750      0.1382      0.0035      0.2550      0.0149      0.0000      0.0000      0.0000
 56      0.0000      0.0913      0.0000      0.0489      0.1470      0.2488      0.2536      0.2138      0.0000
 57      0.0000      0.0215      0.0000      0.0000      0.0085      0.0000      0.0000      0.0264      0.0000
 58      0.0000      0.0385      0.0000      0.0208      0.0000      0.1314      0.2009      0.3105      0.1573
 59      0.0000      0.0162      0.0000      0.0000      0.0068      0.0000      0.1795      0.0000      0.0000
 60      0.0000      0.0222      0.0000      0.0557      0.0000      0.0063      0.0425      0.0308      0.0201
 61      0.0000      0.0519      0.0000      0.0000      0.0543      0.0000      0.0497      0.0000      0.0000
 62      0.0000      0.0305      0.0000      0.0000      0.2183      0.0000      0.0000      0.1037      0.0000
 63      0.0000      0.0091      0.0000      0.0000      0.0121      0.0000      0.0000      0.0000      0.0000
 64      0.0000      0.0154      0.0000      0.0000      0.0000      0.0000      0.0000      0.0000      0.0000
 65      0.0000      0.0260      0.0000      0.0000      0.0000      0.0206      0.0000      0.0051      0.0000
 66      0.0000      0.0101      0.0000      0.0000      0.1130      0.0000      0.0000      0.0970      0.0000
 67      0.0000      0.0179      0.0000      0.0000      0.0000      0.0000      0.0000      0.0000      0.0000
 68      0.0000      0.0080      0.0000      0.0000      0.0388      0.0000      0.0000      0.0000      0.0000
 69      0.0000      0.0106      0.0000      0.0028      0.0000      0.0014      0.0000      0.0000      0.0000
 70      0.0000      0.0525      0.0000      0.0000      0.0109      0.0000      0.0000      0.0000      0.0383
 71      0.0000      2.0332      0.0524      1.1633      1.7070      1.6754      1.5822      1.4943      1.4217
 72      0.0000      0.0065      0.0007      0.0000      0.0000      0.0000      0.0000      0.0000      0.0000
 73      0.0000      0.0095      0.0301      0.0326      0.0000      0.0000      0.0000      0.0000      0.0000
 74      0.0000      0.0067      0.0282      0.0000      0.0023      0.0000      0.0000      0.0000      0.0000
 75      0.0000      0.0102      0.0000      0.2076      0.0000      0.0000      0.0379      0.0000      0.0000
 76      0.0000      0.0020      0.0000      0.0000      0.0000      0.0000      0.0063      0.0000      0.0000
 77      0.0000      0.0041      0.0000      0.0000      0.0000      0.0000      0.0000      0.0000      0.0000
 78      0.0000      0.0091      0.0000      0.0532      0.0000      0.0000      0.0000      0.0000      0.0000
 79      0.0000      0.0148      0.0000      0.0000      0.0000      0.0525      0.0192      0.0000      0.0000
 80      0.0000      0.0149      0.0000      0.0082      0.0000      0.0000      0.0000      0.0000      0.0210
 81      0.0000      0.0134      0.0000      0.0000      0.0000      0.0000      0.0000      0.0000      0.0615
 82      0.0000      0.0228      0.0000      0.0695      0.0328      0.0558      0.0243      0.0149      0.0000
 83      0.0000      0.0977      0.0000      0.0000      0.0000      0.0539      0.1335      0.1574      0.0394
 84      0.0000      0.0396      0.1176      0.0447      0.1334      0.0603      0.0297      0.0098      0.0000
 85      0.0000      0.0444      0.0512      0.0887      0.1057      0.0004      0.0000      0.0486      0.0000
 86      0.0000      0.0302      0.0000      0.0000      0.3174      0.0000      0.0000      0.0000      0.0000
 87      0.0000      0.0268      0.0000      0.0000      0.0000      0.0000      0.0000      0.0233      0.0345
 88      0.0000      0.0095      0.0000      0.0000      0.0000      0.0000      0.0000      0.0000      0.0000
 89      0.0000      0.0051      0.0000      0.0000      0.0000      0.0000      0.0000      0.0000      0.0000
 90      0.0000      0.0047      0.0000      0.0000      0.0000      0.0000      0.0000      0.0000      0.0176
 91      0.0000      0.0095      0.0000      0.0000      0.0000      0.0000      0.0000      0.0000      0.0000
 92      0.0000      0.0089      0.0000      0.0000      0.0000      0.0000      0.0000      0.0245      0.0000
 93      0.0000      0.0155      0.0000      0.2271      0.0000      0.0000      0.0000      0.0000      0.0000
 94      0.0000      0.0154      0.0000      0.0035      0.0557      0.0000      0.1658      0.0000      0.0000
 95      0.0000      0.0176      0.0000      0.0000      0.0000      0.0000      0.0000      0.0294      0.0000
 96      0.0000      0.0122      0.0271      0.0560      0.0000      0.0000      0.0000      0.0000      0.0000
 97      0.0000      0.0085      0.1068      0.0000      0.0558      0.1055      0.0000      0.0000      0.0000
 98      0.0000      0.0194      0.0000      0.0463      0.0000      0.0009      0.0000      0.0000      0.1514
 99      0.0000      0.0203      0.0091      0.0000      0.0000      0.0000      0.0000      0.0000      0.0087
100      0.0000      0.0124      0.0000      0.0000      0.0000      0.0000      0.0000      0.1086      0.0000
101      0.0000      0.0023      0.0000      0.0005      0.0000      0.0000      0.0000      0.0000      0.0000
102      0.0000      0.0046      0.0000      0.0000      0.0000      0.0000      0.0000      0.0305      0.0000
103      0.0000      0.0395      0.0000      0.0706      0.0000      0.0000      0.0000      0.1267      0.0257
104      0.0000      0.0494      0.0763      0.0000      0.1392      0.0000      0.0535      0.0429      0.1236
105      0.0000      0.0160      0.0154      0.0370      0.0000      0.0000      0.0000      0.0000      0.0000
106      0.0000      0.0355      0.0000      0.0000      0.0038      0.0000      0.0000      0.0000      0.2133
107      0.0000      0.0151      0.0000      0.0000      0.0000      0.0000      0.0223      0.0074      0.0000
108      0.0000      0.0056      0.0000      0.0000      0.0000      0.0000      0.0000      0.0000      0.0000
109      0.0000      0.0162      0.0000      0.0000      0.0000      0.0000      0.0000      0.0000      0.0000
110      0.0000      0.0151      0.0309      0.0000      0.0069      0.0000      0.0000      0.0000      0.0000
111      0.0000      0.0306      0.0000      0.0000      0.0000      0.0027      0.0000      0.0125      0.0286
112      0.0000      0.0199      0.0000      0.0000      0.1175      0.0000      0.0893      0.0000      0.0000
113      0.0000      0.0091      0.0000      0.0000      0.0097      0.0000      0.0000      0.0000      0.0671
114      0.0000      0.0068      0.0000      0.0000      0.0000      0.0000      0.0000      0.0000      0.0000
115      0.0000      0.0101      0.0000      0.0000      0.0000      0.0000      0.1075      0.0148      0.0000
116      0.0000      0.0151      0.0000      0.0079      0.0611      0.1071      0.0000      0.0000      0.0014
117      0.0000      0.0095      0.0000      0.0711      0.0000      0.0000      0.0000      0.0102      0.0000
118      0.0000      0.0107      0.0005      0.0171      0.0137      0.0000      0.0000      0.0000      0.0000
119      0.0000      0.0145      0.0311      0.0000      0.0141      0.0043      0.0000      0.0146      0.0000
120      0.0000      0.0142      0.0000      0.0000      0.0333      0.0000      0.0000      0.0000      0.0000
121      0.0000      0.0121      0.0000      0.0000      0.0000      0.0000      0.0081      0.0000      0.0000
122      0.0000      0.0245      0.0576      0.0000      0.0000      0.0141      0.1019      0.0000      0.0459
123      0.0000      0.0415      0.0000      0.0000      0.0000      0.0112      0.0000      0.2051      0.0101
124      0.0000      0.0359      0.0809      0.0000      0.0292      0.0000      0.0000      0.0000      0.0392
125      0.0000      0.0246      0.0000      0.0000      0.1519      0.0000      0.0269      0.1694      0.0359
126      0.0000      0.0052      0.0000      0.0000      0.0000      0.0000      0.0000      0.0000      0.0000
127      0.0000      0.0125      0.0000      0.0000      0.0000      0.0000      0.0000      0.0000      0.0000
128      0.0000      0.0168      0.0000      0.0000      0.0000      0.0698      0.0000      0.0000      0.0000
129      0.0000      0.0083      0.0000      0.0456      0.0394      0.0000      0.0062      0.0000      0.0000
130      0.0000      0.0046      0.0000      0.0000      0.0000      0.0000      0.0356      0.0000      0.0000
131      0.0000      0.0060      0.0000      0.0000      0.0000      0.0000      0.0379      0.0000      0.0032
132      0.0000      0.0102      0.0000      0.0000      0.0000      0.0021      0.0000      0.0000      0.0000
133      0.0000      0.0054      0.0000      0.0126      0.0000      0.0000      0.0000      0.0000      0.0000
134      0.0000      0.0109      0.0000      0.0000      0.0000      0.0000      0.0000      0.0077      0.0000
135      0.0000      0.0245      0.0035      0.0000      0.1120      0.0000      0.0000      0.0025      0.3160
136      0.0000      0.0354      0.0000      0.1043      0.0000      0.0175      0.0043      0.0000      0.0000
137      0.0000      0.0115      0.0000      0.0000      0.0000      0.0000      0.0000      0.0000      0.0000
138      0.0000      0.0065      0.0000      0.0000      0.0000      0.0000      0.0000      0.0020      0.0000
139      0.0000      0.0079      0.0000      0.0000      0.0000      0.0000      0.0000      0.0000      0.0064
140      0.0000      0.4815      0.0000      0.1751      0.0000      0.4261      0.0000      0.0000      0.0111
141      0.0000      1.6156      0.8925      0.0751      1.4367      0.7121      1.2593      1.1815      1.1951
142      0.0000      0.9833      0.0000      0.7745      0.0000      0.2102      0.5658      0.1692      0.0349
143      0.0000      0.0136      0.1252      0.0000      0.0000      0.0000      0.0090      0.0083      0.0000
144      0.8860      0.1259      0.4693      0.0000      0.1934      0.1658      0.0000      0.1204      0.0987
145      0.7795      0.4048      0.3785      0.3766      0.4318      0.8479      0.4619      0.1457      0.4409
146      1.1600      0.4035      0.4239      0.8540      0.0000      0.3473      0.6241      0.5122      0.8008
147      0.3799      0.3747      0.4804      0.4998      0.4364      0.2591      0.3718      0.4214      0.3690
148      0.3857      0.5122      1.1479      0.6063      1.0020      0.5479      0.7388      0.4491      0.8597
149      0.0044      0.5697      0.5535      0.6556      0.8349      0.6131      0.5417      0.7013      0.5991
150      0.0000      0.5069      0.5077      0.6172      0.4188      0.6153      0.6466      0.8595      0.4856

# j      m_j: min, <> & last-chain-values for 1 ...  7 chains
  1  0.0000E+00  6.4101E-05  0.0000E+00  0.0000E+00  8.6885E-05  8.2217E-04  0.0000E+00  0.0000E+00  0.0000E+00
  2  3.2176E-02  2.8557E-02  2.7904E-02  2.9021E-02  2.6425E-02  2.7735E-02  2.8909E-02  2.7479E-02  2.7332E-02
  3  0.0000E+00  6.2350E-05  7.3991E-04  1.3088E-05  0.0000E+00  0.0000E+00  0.0000E+00  0.0000E+00  0.0000E+00
  4  0.0000E+00  6.7988E-05  0.0000E+00  0.0000E+00  0.0000E+00  0.0000E+00  0.0000E+00  0.0000E+00  0.0000E+00
  5  0.0000E+00  9.9632E-05  0.0000E+00  6.9169E-04  0.0000E+00  8.8774E-06  0.0000E+00  0.0000E+00  0.0000E+00
  6  0.0000E+00  3.2483E-04  1.4261E-03  0.0000E+00  0.0000E+00  1.2756E-03  0.0000E+00  3.0212E-04  0.0000E+00
  7  0.0000E+00  1.5822E-04  1.5120E-04  0.0000E+00  0.0000E+00  0.0000E+00  0.0000E+00  0.0000E+00  0.0000E+00
  8  0.0000E+00  4.9951E-04  0.0000E+00  0.0000E+00  1.2786E-03  0.0000E+00  2.8493E-04  0.0000E+00  0.0000E+00
  9  4.5918E-02  7.0805E-03  4.9650E-03  1.5327E-02  5.0937E-03  7.5999E-03  1.1649E-02  1.1158E-02  6.5641E-03
 10  5.2794E-02  5.3226E-03  6.6366E-03  3.9224E-03  5.0362E-03  5.9461E-03  5.4353E-03  3.9315E-03  9.2496E-03
 11  0.0000E+00  8.8299E-03  3.6633E-03  7.2413E-03  5.4984E-03  7.5619E-03  2.0429E-02  1.1124E-02  8.2886E-03
 12  0.0000E+00  2.1731E-03  3.2281E-03  4.5325E-03  3.3764E-03  0.0000E+00  0.0000E+00  5.1544E-03  4.1669E-03
 13  0.0000E+00  1.2391E-03  0.0000E+00  0.0000E+00  6.3946E-04  0.0000E+00  0.0000E+00  1.7805E-03  0.0000E+00
 14  0.0000E+00  2.1586E-03  0.0000E+00  0.0000E+00  0.0000E+00  0.0000E+00  0.0000E+00  5.7409E-04  0.0000E+00
 15  0.0000E+00  2.1427E-03  0.0000E+00  0.0000E+00  0.0000E+00  0.0000E+00  0.0000E+00  0.0000E+00  0.0000E+00
 16  0.0000E+00  2.3851E-03  0.0000E+00  0.0000E+00  0.0000E+00  0.0000E+00  5.8951E-03  9.1743E-03  0.0000E+00
 17  0.0000E+00  5.7000E-03  0.0000E+00  0.0000E+00  0.0000E+00  0.0000E+00  7.8031E-04  0.0000E+00  0.0000E+00
 18  0.0000E+00  2.3455E-02  0.0000E+00  7.9225E-02  0.0000E+00  0.0000E+00  0.0000E+00  0.0000E+00  0.0000E+00
 19  4.2607E-06  4.9952E-02  1.0519E-01  0.0000E+00  3.1386E-01  0.0000E+00  7.1059E-03  1.5802E-01  0.0000E+00
 20  1.6415E-02  2.0912E-01  1.7758E-01  5.7150E-02  4.2188E-01  1.8987E-01  5.2496E-01  3.8139E-01  2.0241E-01
 21  2.2933E+00  4.0117E-01  4.7404E-01  8.2759E-01  7.2898E-01  4.9861E-01  5.8613E-01  5.2652E-01  6.0172E-01
 22  0.0000E+00  3.1611E-01  1.6594E-01  3.6724E-01  4.2119E-01  7.7419E-01  9.0614E-01  0.0000E+00  4.9929E-01
 23  0.0000E+00  2.8770E-01  2.1442E-01  0.0000E+00  3.0150E-01  6.6832E-02  0.0000E+00  0.0000E+00  1.0938E+00
 24  1.5486E+00  7.1499E-01  2.1375E+00  5.1627E-01  1.8192E+00  1.0535E+00  2.3705E-01  1.1547E+00  1.8871E+00
 25  8.4818E+00  6.2357E-01  5.4852E-01  0.0000E+00  2.0551E+00  6.5629E-01  7.2321E-01  1.1850E-02  4.2600E-01
 26  0.0000E+00  4.7117E-05  0.0000E+00  3.6966E-04  0.0000E+00  0.0000E+00  0.0000E+00  0.0000E+00  0.0000E+00
 27  5.4967E-06  1.5124E-04  5.8088E-04  4.8212E-04  0.0000E+00  1.3196E-04  0.0000E+00  5.6841E-04  1.0002E-04
 28  0.0000E+00  6.1765E-05  5.1611E-04  0.0000E+00  0.0000E+00  0.0000E+00  0.0000E+00  0.0000E+00  0.0000E+00
 29  0.0000E+00  1.0795E-04  0.0000E+00  0.0000E+00  5.3474E-04  0.0000E+00  0.0000E+00  0.0000E+00  0.0000E+00
 30  0.0000E+00  8.6739E-05  0.0000E+00  0.0000E+00  0.0000E+00  0.0000E+00  0.0000E+00  0.0000E+00  0.0000E+00
 31  0.0000E+00  1.3589E-04  0.0000E+00  0.0000E+00  0.0000E+00  0.0000E+00  0.0000E+00  0.0000E+00  0.0000E+00
 32  0.0000E+00  4.1839E-04  1.2720E-03  0.0000E+00  1.3794E-03  1.3513E-03  0.0000E+00  0.0000E+00  1.3182E-03
 33  0.0000E+00  6.4884E-04  0.0000E+00  0.0000E+00  0.0000E+00  0.0000E+00  0.0000E+00  3.5063E-03  1.6050E-03
 34  3.6793E-02  5.0841E-03  4.3160E-03  1.4134E-02  1.0151E-02  3.9970E-03  5.4291E-03  8.2348E-03  8.2214E-03
 35  0.0000E+00  4.1781E-03  0.0000E+00  8.0110E-03  1.2520E-02  0.0000E+00  0.0000E+00  5.2989E-03  1.2746E-02
 36  0.0000E+00  2.7302E-03  5.6003E-03  0.0000E+00  0.0000E+00  0.0000E+00  7.2682E-03  0.0000E+00  7.1508E-03
 37  0.0000E+00  4.1913E-03  0.0000E+00  0.0000E+00  6.1329E-03  5.3850E-03  1.3206E-03  4.9427E-04  3.3821E-03
 38  0.0000E+00  1.0185E-03  0.0000E+00  0.0000E+00  0.0000E+00  0.0000E+00  0.0000E+00  0.0000E+00  1.2675E-03
 39  0.0000E+00  1.6253E-03  0.0000E+00  0.0000E+00  0.0000E+00  0.0000E+00  9.4301E-03  0.0000E+00  0.0000E+00
 40  0.0000E+00  1.8636E-03  0.0000E+00  0.0000E+00  1.0684E-04  0.0000E+00  0.0000E+00  0.0000E+00  0.0000E+00
 41  0.0000E+00  5.9520E-03  3.7657E-04  0.0000E+00  0.0000E+00  0.0000E+00  0.0000E+00  0.0000E+00  0.0000E+00
 42  0.0000E+00  1.7123E-02  0.0000E+00  6.1738E-04  6.2851E-03  0.0000E+00  2.1708E-02  3.1681E-02  0.0000E+00
 43  5.1582E-03  2.4519E-01  1.7032E-01  1.4410E-01  2.1952E-01  2.7098E-01  1.6648E-01  1.9462E-01  2.0859E-01
 44  5.2581E+01  5.5026E+01  5.3151E+01  5.4377E+01  4.9778E+01  5.3232E+01  5.4245E+01  5.2401E+01  5.1386E+01
 45  5.5244E+00  3.7848E-01  4.0807E-01  6.4767E-01  1.2571E+00  8.0499E-01  3.2207E-01  4.2162E-01  9.3083E-01
 46  4.4426E+00  4.1066E-01  9.0325E-01  5.1010E-01  1.1385E-01  5.3112E-01  1.4542E-01  0.0000E+00  5.6783E-01
 47  0.0000E+00  1.9685E-01  0.0000E+00  0.0000E+00  0.0000E+00  4.9557E-01  1.6281E-01  2.1817E-01  2.2384E-01
 48  1.4677E-02  3.9987E-01  2.9392E-01  0.0000E+00  1.0236E+00  6.4527E-01  0.0000E+00  0.0000E+00  0.0000E+00
 49  3.3598E-02  6.9551E-01  3.0981E-01  2.7020E-01  1.8270E-01  6.9361E-01  3.0877E-01  1.1237E+00  7.3583E-01
 50  2.2871E-02  8.3710E-01  4.7615E-01  4.4000E-01  2.7960E-01  1.7182E+00  0.0000E+00  7.4219E-01  3.2573E-01
 51  0.0000E+00  2.7217E-05  0.0000E+00  0.0000E+00  0.0000E+00  0.0000E+00  0.0000E+00  0.0000E+00  7.2160E-05
 52  0.0000E+00  2.3122E-04  1.0354E-04  2.4720E-04  1.3408E-04  4.3828E-04  5.7057E-04  9.5323E-04  3.8793E-05
 53  4.1026E-07  4.6063E-05  7.0972E-04  0.0000E+00  1.9954E-04  0.0000E+00  0.0000E+00  0.0000E+00  3.4634E-04
 54  2.4151E-04  5.5758E-04  1.0265E-03  5.0011E-04  7.9471E-04  9.0854E-04  6.8509E-04  0.0000E+00  1.0204E-03
 55  0.0000E+00  4.9488E-04  8.5618E-04  2.2385E-05  1.5723E-03  9.4730E-05  0.0000E+00  0.0000E+00  0.0000E+00
 56  0.0000E+00  7.9787E-04  0.0000E+00  4.1224E-04  1.1997E-03  2.0952E-03  2.1581E-03  1.7597E-03  0.0000E+00
 57  0.0000E+00  3.0113E-04  0.0000E+00  0.0000E+00  1.1079E-04  0.0000E+00  0.0000E+00  3.4788E-04  0.0000E+00
 58  0.0000E+00  7.7745E-04  0.0000E+00  4.0470E-04  0.0000E+00  2.5579E-03  3.9538E-03  5.9097E-03  3.0039E-03
 59  0.0000E+00  4.5469E-04  0.0000E+00  0.0000E+00  1.7795E-04  0.0000E+00  4.9060E-03  0.0000E+00  0.0000E+00
 60  0.0000E+00  6.9516E-04  0.0000E+00  1.6806E-03  0.0000E+00  1.8836E-04  1.2925E-03  9.0612E-04  5.9330E-04
 61  0.0000E+00  2.0690E-03  0.0000E+00  0.0000E+00  2.0217E-03  0.0000E+00  1.9276E-03  0.0000E+00  0.0000E+00
 62  0.0000E+00  1.5380E-03  0.0000E+00  0.0000E+00  1.0297E-02  0.0000E+00  0.0000E+00  4.9311E-03  0.0000E+00
 63  0.0000E+00  6.9761E-04  0.0000E+00  0.0000E+00  8.7015E-04  0.0000E+00  0.0000E+00  0.0000E+00  0.0000E+00
 64  0.0000E+00  1.9504E-03  0.0000E+00  0.0000E+00  0.0000E+00  0.0000E+00  0.0000E+00  0.0000E+00  0.0000E+00
 65  0.0000E+00  5.5633E-03  0.0000E+00  0.0000E+00  0.0000E+00  4.2497E-03  0.0000E+00  1.0186E-03  0.0000E+00
 66  0.0000E+00  2.7489E-03  0.0000E+00  0.0000E+00  2.8837E-02  0.0000E+00  0.0000E+00  2.4967E-02  0.0000E+00
 67  0.0000E+00  6.7328E-03  0.0000E+00  0.0000E+00  0.0000E+00  0.0000E+00  0.0000E+00  0.0000E+00  0.0000E+00
 68  0.0000E+00  5.5593E-03  0.0000E+00  0.0000E+00  2.5282E-02  0.0000E+00  0.0000E+00  0.0000E+00  0.0000E+00
 69  0.0000E+00  1.2780E-02  0.0000E+00  3.2622E-03  0.0000E+00  1.5736E-03  0.0000E+00  0.0000E+00  0.0000E+00
 70  0.0000E+00  8.7923E-02  0.0000E+00  0.0000E+00  1.6968E-02  0.0000E+00  0.0000E+00  0.0000E+00  6.0680E-02
 71  0.0000E+00  4.0158E+00  9.7047E-02  2.2160E+00  3.1490E+00  3.1885E+00  3.0426E+00  2.7800E+00  2.6543E+00
 72  0.0000E+00  1.6909E-02  1.6911E-03  0.0000E+00  0.0000E+00  0.0000E+00  0.0000E+00  0.0000E+00  0.0000E+00
 73  0.0000E+00  3.1228E-02  9.2495E-02  1.0301E-01  0.0000E+00  0.0000E+00  0.0000E+00  0.0000E+00  0.0000E+00
 74  0.0000E+00  2.4658E-02  9.6673E-02  0.0000E+00  7.9523E-03  0.0000E+00  0.0000E+00  0.0000E+00  0.0000E+00
 75  0.0000E+00  4.3095E-02  0.0000E+00  8.4245E-01  0.0000E+00  0.0000E+00  1.5540E-01  0.0000E+00  0.0000E+00
 76  0.0000E+00  1.9690E-05  0.0000E+00  0.0000E+00  0.0000E+00  0.0000E+00  5.9404E-05  0.0000E+00  0.0000E+00
 77  0.0000E+00  1.6345E-05  0.0000E+00  0.0000E+00  0.0000E+00  0.0000E+00  0.0000E+00  0.0000E+00  0.0000E+00
 78  0.0000E+00  4.0489E-05  0.0000E+00  2.2813E-04  0.0000E+00  0.0000E+00  0.0000E+00  0.0000E+00  0.0000E+00
 79  0.0000E+00  7.8910E-05  0.0000E+00  0.0000E+00  0.0000E+00  2.7058E-04  1.0007E-04  0.0000E+00  0.0000E+00
 80  0.0000E+00  1.0296E-04  0.0000E+00  5.4240E-05  0.0000E+00  0.0000E+00  0.0000E+00  0.0000E+00  1.3646E-04
 81  0.0000E+00  1.2187E-04  0.0000E+00  0.0000E+00  0.0000E+00  0.0000E+00  0.0000E+00  0.0000E+00  5.2951E-04
 82  0.0000E+00  2.7965E-04  0.0000E+00  8.2185E-04  3.7543E-04  6.5966E-04  2.9001E-04  1.7190E-04  0.0000E+00
 83  0.0000E+00  1.7617E-03  0.0000E+00  0.0000E+00  0.0000E+00  9.3654E-04  2.3424E-03  2.6718E-03  6.7209E-04
 84  0.0000E+00  9.8737E-04  2.7527E-03  1.0756E-03  3.1094E-03  1.4500E-03  7.2042E-04  2.2955E-04  0.0000E+00
 85  0.0000E+00  1.3462E-03  1.4556E-03  2.5932E-03  2.9921E-03  1.0908E-05  0.0000E+00  1.3861E-03  0.0000E+00
 86  0.0000E+00  1.2394E-03  0.0000E+00  0.0000E+00  1.2172E-02  0.0000E+00  0.0000E+00  0.0000E+00  0.0000E+00
 87  0.0000E+00  1.4638E-03  0.0000E+00  0.0000E+00  0.0000E+00  0.0000E+00  0.0000E+00  1.2018E-03  1.7845E-03
 88  0.0000E+00  7.9556E-04  0.0000E+00  0.0000E+00  0.0000E+00  0.0000E+00  0.0000E+00  0.0000E+00  0.0000E+00
 89  0.0000E+00  7.0957E-04  0.0000E+00  0.0000E+00  0.0000E+00  0.0000E+00  0.0000E+00  0.0000E+00  0.0000E+00
 90  0.0000E+00  1.2011E-03  0.0000E+00  0.0000E+00  0.0000E+00  0.0000E+00  0.0000E+00  0.0000E+00  4.2758E-03
 91  0.0000E+00  3.1334E-03  0.0000E+00  0.0000E+00  0.0000E+00  0.0000E+00  0.0000E+00  0.0000E+00  0.0000E+00
 92  0.0000E+00  3.9440E-03  0.0000E+00  0.0000E+00  0.0000E+00  0.0000E+00  0.0000E+00  1.0169E-02  0.0000E+00
 93  0.0000E+00  1.3863E-02  0.0000E+00  1.9621E-01  0.0000E+00  0.0000E+00  0.0000E+00  0.0000E+00  0.0000E+00
 94  0.0000E+00  2.4778E-02  0.0000E+00  5.4561E-03  8.3639E-02  0.0000E+00  2.5937E-01  0.0000E+00  0.0000E+00
 95  0.0000E+00  3.8063E-02  0.0000E+00  0.0000E+00  0.0000E+00  0.0000E+00  0.0000E+00  5.9919E-02  0.0000E+00
 96  0.0000E+00  3.1842E-02  6.6479E-02  1.4110E-01  0.0000E+00  0.0000E+00  0.0000E+00  0.0000E+00  0.0000E+00
 97  0.0000E+00  2.8918E-02  3.4114E-01  0.0000E+00  1.7737E-01  3.4595E-01  0.0000E+00  0.0000E+00  0.0000E+00
 98  0.0000E+00  8.4719E-02  0.0000E+00  1.9504E-01  0.0000E+00  3.6669E-03  0.0000E+00  0.0000E+00  6.2441E-01
 99  0.0000E+00  1.0120E-01  4.2314E-02  0.0000E+00  0.0000E+00  0.0000E+00  0.0000E+00  0.0000E+00  4.0969E-02
100  0.0000E+00  7.0779E-02  0.0000E+00  0.0000E+00  0.0000E+00  0.0000E+00  0.0000E+00  5.8558E-01  0.0000E+00
101  0.0000E+00  1.4636E-05  0.0000E+00  2.7523E-06  0.0000E+00  0.0000E+00  0.0000E+00  0.0000E+00  0.0000E+00
102  0.0000E+00  1.5112E-05  0.0000E+00  0.0000E+00  0.0000E+00  0.0000E+00  0.0000E+00  9.3960E-05  0.0000E+00
103  0.0000E+00  1.4336E-04  0.0000E+00  2.4710E-04  0.0000E+00  0.0000E+00  0.0000E+00  4.3314E-04  8.8201E-05
104  0.0000E+00  2.3587E-04  3.4183E-04  0.0000E+00  6.2070E-04  0.0000E+00  2.4886E-04  1.9276E-04  5.5765E-04
105  0.0000E+00  1.6096E-04  1.4550E-04  3.5925E-04  0.0000E+00  0.0000E+00  0.0000E+00  0.0000E+00  0.0000E+00
106  0.0000E+00  3.8526E-04  0.0000E+00  0.0000E+00  3.8802E-05  0.0000E+00  0.0000E+00  0.0000E+00  2.1880E-03
107  0.0000E+00  2.1872E-04  0.0000E+00  0.0000E+00  0.0000E+00  0.0000E+00  3.1415E-04  1.0160E-04  0.0000E+00
108  0.0000E+00  1.3444E-04  0.0000E+00  0.0000E+00  0.0000E+00  0.0000E+00  0.0000E+00  0.0000E+00  0.0000E+00
109  0.0000E+00  4.7083E-04  0.0000E+00  0.0000E+00  0.0000E+00  0.0000E+00  0.0000E+00  0.0000E+00  0.0000E+00
110  0.0000E+00  5.2242E-04  1.0050E-03  0.0000E+00  2.2343E-04  0.0000E+00  0.0000E+00  0.0000E+00  0.0000E+00
111  0.0000E+00  1.4744E-03  0.0000E+00  0.0000E+00  0.0000E+00  1.2650E-04  0.0000E+00  5.6673E-04  1.3028E-03
112  0.0000E+00  1.2635E-03  0.0000E+00  0.0000E+00  6.9650E-03  0.0000E+00  5.5191E-03  0.0000E+00  0.0000E+00
113  0.0000E+00  8.6013E-04  0.0000E+00  0.0000E+00  8.5784E-04  0.0000E+00  0.0000E+00  0.0000E+00  6.0085E-03
114  0.0000E+00  1.1401E-03  0.0000E+00  0.0000E+00  0.0000E+00  0.0000E+00  0.0000E+00  0.0000E+00  0.0000E+00
115  0.0000E+00  3.3601E-03  0.0000E+00  0.0000E+00  0.0000E+00  0.0000E+00  3.4900E-02  4.6418E-03  0.0000E+00
116  0.0000E+00  8.0985E-03  0.0000E+00  4.0843E-03  3.0555E-02  5.5266E-02  0.0000E+00  0.0000E+00  6.9664E-04
117  0.0000E+00  5.9793E-03  0.0000E+00  4.3134E-02  0.0000E+00  0.0000E+00  0.0000E+00  6.0497E-03  0.0000E+00
118  0.0000E+00  1.3630E-02  6.5055E-04  2.1061E-02  1.6345E-02  0.0000E+00  0.0000E+00  0.0000E+00  0.0000E+00
119  0.0000E+00  3.2018E-02  6.4491E-02  0.0000E+00  2.8979E-02  9.0474E-03  0.0000E+00  3.0399E-02  0.0000E+00
120  0.0000E+00  4.4641E-02  0.0000E+00  0.0000E+00  9.7829E-02  0.0000E+00  0.0000E+00  0.0000E+00  0.0000E+00
121  0.0000E+00  4.4883E-02  0.0000E+00  0.0000E+00  0.0000E+00  0.0000E+00  2.9001E-02  0.0000E+00  0.0000E+00
122  0.0000E+00  1.2108E-01  2.6744E-01  0.0000E+00  0.0000E+00  6.7475E-02  4.9104E-01  0.0000E+00  2.1495E-01
123  0.0000E+00  2.7094E-01  0.0000E+00  0.0000E+00  0.0000E+00  7.0295E-02  0.0000E+00  1.2608E+00  6.2457E-02
124  0.0000E+00  2.6886E-01  5.6886E-01  0.0000E+00  2.0469E-01  0.0000E+00  0.0000E+00  0.0000E+00  2.7744E-01
125  0.0000E+00  2.2095E-01  0.0000E+00  0.0000E+00  1.2729E+00  0.0000E+00  2.3471E-01  1.4313E+00  3.0480E-01
126  0.0000E+00  2.4675E-05  0.0000E+00  0.0000E+00  0.0000E+00  0.0000E+00  0.0000E+00  0.0000E+00  0.0000E+00
127  0.0000E+00  3.1136E-05  0.0000E+00  0.0000E+00  0.0000E+00  0.0000E+00  0.0000E+00  0.0000E+00  0.0000E+00
128  0.0000E+00  6.2227E-05  0.0000E+00  0.0000E+00  0.0000E+00  2.4871E-04  0.0000E+00  0.0000E+00  0.0000E+00
129  0.0000E+00  6.2736E-05  0.0000E+00  3.3262E-04  2.7849E-04  0.0000E+00  4.5793E-05  0.0000E+00  0.0000E+00
130  0.0000E+00  4.7712E-05  0.0000E+00  0.0000E+00  0.0000E+00  0.0000E+00  3.5782E-04  0.0000E+00  0.0000E+00
131  0.0000E+00  7.1097E-05  0.0000E+00  0.0000E+00  0.0000E+00  0.0000E+00  4.4063E-04  0.0000E+00  3.5876E-05
132  0.0000E+00  1.6494E-04  0.0000E+00  0.0000E+00  0.0000E+00  3.3436E-05  0.0000E+00  0.0000E+00  0.0000E+00
133  0.0000E+00  1.2775E-04  0.0000E+00  2.8585E-04  0.0000E+00  0.0000E+00  0.0000E+00  0.0000E+00  0.0000E+00
134  0.0000E+00  3.2672E-04  0.0000E+00  0.0000E+00  0.0000E+00  0.0000E+00  0.0000E+00  2.1793E-04  0.0000E+00
135  0.0000E+00  8.7880E-04  1.1890E-04  0.0000E+00  3.7588E-03  0.0000E+00  0.0000E+00  8.3514E-05  1.0732E-02
136  0.0000E+00  1.8349E-03  0.0000E+00  5.2126E-03  0.0000E+00  8.7262E-04  2.1897E-04  0.0000E+00  0.0000E+00
137  0.0000E+00  8.1423E-04  0.0000E+00  0.0000E+00  0.0000E+00  0.0000E+00  0.0000E+00  0.0000E+00  0.0000E+00
138  0.0000E+00  7.6641E-04  0.0000E+00  0.0000E+00  0.0000E+00  0.0000E+00  0.0000E+00  2.2355E-04  0.0000E+00
139  0.0000E+00  1.7523E-03  0.0000E+00  0.0000E+00  0.0000E+00  0.0000E+00  0.0000E+00  0.0000E+00  1.3509E-03
140  0.0000E+00  2.4759E-01  0.0000E+00  8.6831E-02  0.0000E+00  2.1113E-01  0.0000E+00  0.0000E+00  5.3942E-03
141  1.9320E-05  1.2715E+00  6.5919E-01  5.7003E-02  1.0561E+00  5.4002E-01  9.6502E-01  8.7582E-01  8.8906E-01
142  0.0000E+00  9.2073E-01  0.0000E+00  6.9944E-01  0.0000E+00  1.8969E-01  5.1584E-01  1.4922E-01  3.0861E-02
143  0.0000E+00  2.5375E-02  2.1877E-01  0.0000E+00  0.0000E+00  0.0000E+00  1.6382E-02  1.4600E-02  0.0000E+00
144  3.5079E+00  4.6050E-01  1.6106E+00  0.0000E+00  6.6045E-01  5.8410E-01  0.0000E+00  4.1458E-01  3.4104E-01
145  4.5945E+00  2.2034E+00  1.9336E+00  1.9775E+00  2.1958E+00  4.4473E+00  2.4485E+00  7.4688E-01  2.2688E+00
146  8.1652E+00  2.6230E+00  2.5860E+00  5.3548E+00  0.0000E+00  2.1753E+00  3.9508E+00  3.1365E+00  4.9215E+00
147  3.5929E+00  3.2733E+00  3.9383E+00  4.2109E+00  3.5605E+00  2.1811E+00  3.1626E+00  3.4671E+00  3.0471E+00
148  4.9411E+00  6.0607E+00  1.2746E+01  6.9187E+00  1.1074E+01  6.2465E+00  8.5109E+00  5.0056E+00  9.6146E+00
149  6.6337E-02  7.8951E+00  7.1981E+00  8.7624E+00  1.0807E+01  8.1872E+00  7.3096E+00  9.1546E+00  7.8485E+00
150  9.8113E-05  8.3672E+00  7.8646E+00  9.8263E+00  6.4572E+00  9.7874E+00  1.0393E+01  1.3364E+01  7.5768E+00

# AV, chi2 & Mass for <> & i_chain = 1 ...  7 solutions
AV       0.8436      0.7400      0.7563      0.7669      0.7603      0.7529      0.7594      0.7655      0.7633
chi2 1.7580E+00  2.2699E+00  2.0249E+00  2.0352E+00  2.0978E+00  2.0980E+00  2.1115E+00  2.0515E+00  2.0485E+00
Mass 2.8603E-10  2.6945E-10  2.9350E-10  2.8966E-10  2.9644E-10  2.8454E-10  2.8404E-10  2.9602E-10  2.9413E-10
 -14.35                                  [v0_min (km/s) before EX0s...]
  61.21                                  [vd_min (km/s) before EX0s...]


## Synthetic spectrum (Best Model) ##l_obs f_obs f_syn wei
 3070    [Nl_obs]
 3359.00    0.25238   0.41229   -1.000
 3360.00    0.24574   0.40263   -1.000
 3361.00    0.24522   0.41384   -1.000
 3362.00    0.24984   0.43763   -1.000
 3363.00    0.25762   0.46327   -1.000
 3364.00    0.26771   0.47745   -1.000
 3365.00    0.27466   0.47583   -1.000
 3366.00    0.27488   0.46843   -1.000
 3367.00    0.27125   0.46102   -1.000
 3368.00    0.28024   0.45310   -1.000
 3369.00    0.27468   0.44212   -1.000
 3370.00    0.26290   0.42657   -1.000
 3371.00    0.27390   0.41659   -1.000
 3372.00    0.27616   0.42097   -1.000
 3373.00    0.27832   0.43832   -1.000
 3374.00    0.31098   0.46065   -1.000
 3375.00    0.32853   0.48004   -1.000
 3376.00    0.34704   0.48863   -1.000
 3377.00    0.35677   0.48488   -1.000
 3378.00    0.35318   0.47427   -1.000
 3379.00    0.36423   0.46655   -1.000
 3380.00    0.36385   0.46702   -1.000
 3381.00    0.35247   0.47256   -1.000
 3382.00    0.35816   0.47883   -1.000
 3383.00    0.37300   0.48444   -1.000
 3384.00    0.37154   0.48955   -1.000
 3385.00    0.37823   0.49168   -1.000
 3386.00    0.38811   0.48577   -1.000
 3387.00    0.38222   0.47596   -1.000
 3388.00    0.39970   0.47305   -1.000
 3389.00    0.38303   0.48002   -1.000
 3390.00    0.39539   0.48939   -1.000
 3391.00    0.38036   0.49272   -1.000
 3392.00    0.35239   0.48713   -1.000
 3393.00    0.36941   0.48267   -1.000
 3394.00    0.39659   0.48726   -1.000
 3395.00    0.40483   0.49905   -1.000
 3396.00    0.42244   0.51301   -1.000
 3397.00    0.43073   0.52421   -1.000
 3398.00    0.44186   0.53120   -1.000
 3399.00    0.45237   0.53203   -1.000
 3400.00    0.44464   0.52645   -1.000
 3401.00    0.42293   0.51419   -1.000
 3402.00    0.43802   0.49897   -1.000
 3403.00    0.45240   0.48960   -1.000
 3404.00    0.42750   0.48740   -1.000
 3405.00    0.44100   0.49009   -1.000
 3406.00    0.42876   0.48984   -1.000
 3407.00    0.41190   0.48423   -1.000
 3408.00    0.42539   0.47890   -1.000
 3409.00    0.44058   0.48148   -1.000
 3410.00    0.42875   0.48814   -1.000
 3411.00    0.43303   0.48864   -1.000
 3412.00    0.43817   0.48346   -1.000
 3413.00    0.43928   0.47815   -1.000
 3414.00    0.44167   0.48074   -1.000
 3415.00    0.41783   0.49159   -1.000
 3416.00    0.40226   0.50349   -1.000
 3417.00    0.44203   0.51272   -1.000
 3418.00    0.46434   0.51964   -1.000
 3419.00    0.47653   0.52529   -1.000
 3420.00    0.48390   0.52863   -1.000
 3421.00    0.47843   0.52509   -1.000
 3422.00    0.46293   0.51303   -1.000
 3423.00    0.45349   0.50019   -1.000
 3424.00    0.47061   0.49553   -1.000
 3425.00    0.48881   0.49930   -1.000
 3426.00    0.49197   0.50692   -1.000
 3427.00    0.48676   0.51787   -1.000
 3428.00    0.48949   0.53215   -1.000
 3429.00    0.49480   0.54454   -1.000
 3430.00    0.48636   0.54544   -1.000
 3431.00    0.48496   0.53223   -1.000
 3432.00    0.48997   0.51717   -1.000
 3433.00    0.47780   0.51340   -1.000
 3434.00    0.47773   0.52367   -1.000
 3435.00    0.51510   0.53623   -1.000
 3436.00    0.51907   0.53788  157.764
 3437.00    0.50221   0.52809   -1.000
 3438.00    0.49283   0.51360  152.160
 3439.00    0.46100   0.49831   -1.000
 3440.00    0.44418   0.48327   -1.000
 3441.00    0.43203   0.47050   -1.000
 3442.00    0.43997   0.46459   -1.000
 3443.00    0.44873   0.46703   -1.000
 3444.00    0.44168   0.47600   -1.000
 3445.00    0.43767   0.49011   -1.000
 3446.00    0.46284   0.50918   -1.000
 3447.00    0.48786   0.52924   -1.000
 3448.00    0.50951   0.54384   -1.000
 3449.00    0.52665   0.54609   -1.000
 3450.00    0.53771   0.53289   -1.000
 3451.00    0.53339   0.51347   -1.000
 3452.00    0.50780   0.50053   -1.000
 3453.00    0.48941   0.49913  153.670
 3454.00    0.51851   0.50580  128.115
 3455.00    0.50928   0.51357  127.737
 3456.00    0.54537   0.51708   -1.000
 3457.00    0.54416   0.51517   -1.000
 3458.00    0.53288   0.50916   -1.000
 3459.00    0.52034   0.50068   -1.000
 3460.00    0.50416   0.49210   -1.000
 3461.00    0.48508   0.49022  884.321
 3462.00    0.49237   0.49773  884.321
 3463.00    0.51277   0.50707   -1.000
 3464.00    0.52624   0.51050   -1.000
 3465.00    0.52428   0.50875   -1.000
 3466.00    0.53608   0.51074   -1.000
 3467.00    0.54012   0.52072   -1.000
 3468.00    0.54774   0.53480   -1.000
 3469.00    0.56027   0.54589  150.530
 3470.00    0.56439   0.54879  131.795
 3471.00    0.56572   0.54316   -1.000
 3472.00    0.53991   0.53084   -1.000
 3473.00    0.52965   0.51369   -1.000
 3474.00    0.51827   0.49866   -1.000
 3475.00    0.45955   0.49157   -1.000
 3476.00    0.48604   0.49508   -1.000
 3477.00    0.48518   0.50761   -1.000
 3478.00    0.50801   0.52163   -1.000
 3479.00    0.50756   0.53324   -1.000
 3480.00    0.53538   0.54117   -1.000
 3481.00    0.54601   0.54246   -1.000
 3482.00    0.53439   0.53831  884.321
 3483.00    0.53087   0.53359  884.321
 3484.00    0.52593   0.53370   -1.000
 3485.00    0.52586   0.54111   -1.000
 3486.00    0.53822   0.54933   -1.000
 3487.00    0.56243   0.55006   -1.000
 3488.00    0.54088   0.54172  884.321
 3489.00    0.49879   0.52812   -1.000
 3490.00    0.51465   0.51864  884.321
 3491.00    0.48932   0.52031   -1.000
 3492.00    0.49370   0.52760   -1.000
 3493.00    0.50346   0.53039   -1.000
 3494.00    0.48680   0.52602   -1.000
 3495.00    0.48330   0.51713   -1.000
 3496.00    0.49920   0.51091   -1.000
 3497.00    0.51779   0.51217   -1.000
 3498.00    0.50000   0.51786   -1.000
 3499.00    0.50699   0.52413   -1.000
 3500.00    0.53089   0.52673  884.321
 3501.00    0.53033   0.52796  884.321
 3502.00    0.53241   0.53127  884.321
 3503.00    0.53246   0.53404  884.321
 3504.00    0.53036   0.53309  884.321
 3505.00    0.55820   0.52777   -1.000
 3506.00    0.53823   0.52188   -1.000
 3507.00    0.54387   0.51836   -1.000
 3508.00    0.54904   0.51764   -1.000
 3509.00    0.55284   0.51865   -1.000
 3510.00    0.55148   0.51821   -1.000
 3511.00    0.50581   0.51519   -1.000
 3512.00    0.49641   0.51015   -1.000
 3513.00    0.50115   0.50659  884.321
 3514.00    0.48375   0.50936   -1.000
 3515.00    0.49434   0.52129   -1.000
 3516.00    0.53018   0.53956   -1.000
 3517.00    0.57202   0.55323   -1.000
 3518.00    0.56779   0.55329  137.372
 3519.00    0.53857   0.54105  130.867
 3520.00    0.52737   0.52682  130.425
 3521.00    0.52733   0.51695   -1.000
 3522.00    0.50896   0.51071  884.321
 3523.00    0.50797   0.50408   -1.000
 3524.00    0.49425   0.49586  884.321
 3525.00    0.48077   0.49214   -1.000
 3526.00    0.49756   0.49795   -1.000
 3527.00    0.48345   0.51079   -1.000
 3528.00    0.50545   0.52675   -1.000
 3529.00    0.54059   0.54113  884.321
 3530.00    0.54034   0.55068   -1.000
 3531.00    0.54048   0.55393   -1.000
 3532.00    0.54855   0.54869  884.321
 3533.00    0.54856   0.53780   -1.000
 3534.00    0.56330   0.53009   -1.000
 3535.00    0.58756   0.53222   -1.000
 3536.00    0.58075   0.54457   -1.000
 3537.00    0.56120   0.55936  884.321
 3538.00    0.56547   0.56949   -1.000
 3539.00    0.57138   0.57362   -1.000
 3540.00    0.60972   0.57280   -1.000
 3541.00    0.58837   0.57040   -1.000
 3542.00    0.55380   0.57085   -1.000
 3543.00    0.56563   0.57535   -1.000
 3544.00    0.55698   0.57926   -1.000
 3545.00    0.58328   0.57883  884.321
 3546.00    0.58294   0.57526   -1.000
 3547.00    0.56619   0.57129   -1.000
 3548.00    0.58754   0.56977   -1.000
 3549.00    0.58097   0.57218   -1.000
 3550.00    0.56532   0.57743   -1.000
 3551.00    0.55445   0.58033   -1.000
 3552.00    0.54271   0.57551   -1.000
 3553.00    0.55469   0.56569   -1.000
 3554.00    0.55256   0.55921   -1.000
 3555.00    0.55612   0.56062   -1.000
 3556.00    0.55218   0.56821   -1.000
 3557.00    0.56707   0.57712   -1.000
 3558.00    0.55765   0.58179   -1.000
 3559.00    0.55930   0.58180   -1.000
 3560.00    0.58100   0.58082  133.142
 3561.00    0.54421   0.58012   -1.000
 3562.00    0.56625   0.57631  130.904
 3563.00    0.59162   0.56579   -1.000
 3564.00    0.57585   0.54966   -1.000
 3565.00    0.53102   0.53404  133.539
 3566.00    0.53050   0.52540  127.539
 3567.00    0.48226   0.52395   -1.000
 3568.00    0.49127   0.52419   -1.000
 3569.00    0.50456   0.52037   -1.000
 3570.00    0.50173   0.51210   -1.000
 3571.00    0.50351   0.50532  884.321
 3572.00    0.51570   0.50424   -1.000
 3573.00    0.51871   0.50741  132.327
 3574.00    0.53428   0.51334   -1.000
 3575.00    0.56454   0.52126   -1.000
 3576.00    0.54640   0.52919  151.563
 3577.00    0.53115   0.53548  152.229
 3578.00    0.50952   0.53711   -1.000
 3579.00    0.52721   0.53121  161.292
 3580.00    0.51619   0.52052  163.324
 3581.00    0.50101   0.51024  154.914
 3582.00    0.50463   0.50514  146.649
 3583.00    0.51013   0.50443  139.398
 3584.00    0.49428   0.49963  130.083
 3585.00    0.46586   0.48660   -1.000
 3586.00    0.45422   0.47268   -1.000
 3587.00    0.44604   0.46918   -1.000
 3588.00    0.46067   0.48043   -1.000
 3589.00    0.49129   0.50089   -1.000
 3590.00    0.51409   0.52021   -1.000
 3591.00    0.53048   0.53187  884.321
 3592.00    0.51752   0.53635   -1.000
 3593.00    0.52595   0.53895   -1.000
 3594.00    0.54187   0.54495   -1.000
 3595.00    0.56924   0.55498   -1.000
 3596.00    0.53353   0.56460   -1.000
 3597.00    0.53628   0.57056   -1.000
 3598.00    0.57609   0.57321  884.321
 3599.00    0.60712   0.57345   -1.000
 3600.00    0.60061   0.56907   -1.000
 3601.00    0.56857   0.55886   -1.000
 3602.00    0.54574   0.54785  884.321
 3603.00    0.55700   0.54197   -1.000
 3604.00    0.54662   0.54318   -1.000
 3605.00    0.53060   0.54590   -1.000
 3606.00    0.56412   0.54463   -1.000
 3607.00    0.55170   0.53994   -1.000
 3608.00    0.54502   0.53510   -1.000
 3609.00    0.52438   0.53279   -1.000
 3610.00    0.50636   0.53343   -1.000
 3611.00    0.51138   0.53728   -1.000
 3612.00    0.55587   0.54345   -1.000
 3613.00    0.56151   0.55073  134.985
 3614.00    0.57375   0.56086   -1.000
 3615.00    0.57445   0.57113   -1.000
 3616.00    0.55317   0.57252   -1.000
 3617.00    0.54767   0.56264   -1.000
 3618.00    0.53206   0.54764   -1.000
 3619.00    0.50294   0.53937   -1.000
 3620.00    0.51083   0.54475   -1.000
 3621.00    0.52769   0.55776   -1.000
 3622.00    0.54845   0.56982   -1.000
 3623.00    0.55797   0.57831   -1.000
 3624.00    0.57263   0.58714   -1.000
 3625.00    0.57061   0.60065   -1.000
 3626.00    0.59323   0.61681   -1.000
 3627.00    0.61153   0.62642   -1.000
 3628.00    0.61750   0.61944   -1.000
 3629.00    0.58781   0.59614   -1.000
 3630.00    0.53595   0.56788   -1.000
 3631.00    0.51707   0.55044   -1.000
 3632.00    0.48878   0.55084   -1.000
 3633.00    0.51265   0.56270   -1.000
 3634.00    0.52664   0.57328   -1.000
 3635.00    0.54471   0.57712   -1.000
 3636.00    0.54563   0.58017   -1.000
 3637.00    0.55207   0.58836   -1.000
 3638.00    0.59315   0.59894   -1.000
 3639.00    0.59543   0.60584   -1.000
 3640.00    0.60026   0.60590   -1.000
 3641.00    0.58217   0.59906   -1.000
 3642.00    0.57500   0.58827   -1.000
 3643.00    0.56747   0.57803   -1.000
 3644.00    0.56791   0.57063  884.321
 3645.00    0.57100   0.56579   -1.000
 3646.00    0.53294   0.56290   -1.000
 3647.00    0.53481   0.56200   -1.000
 3648.00    0.52812   0.56235   -1.000
 3649.00    0.52792   0.56357   -1.000
 3650.00    0.54812   0.56717   -1.000
 3651.00    0.56853   0.57474   -1.000
 3652.00    0.56937   0.58597   -1.000
 3653.00    0.56803   0.59813   -1.000
 3654.00    0.58573   0.60998   -1.000
 3655.00    0.61155   0.62057   -1.000
 3656.00    0.60424   0.62807   -1.000
 3657.00    0.59715   0.63130   -1.000
 3658.00    0.59486   0.63105   -1.000
 3659.00    0.59669   0.62895   -1.000
 3660.00    0.60463   0.62462   -1.000
 3661.00    0.60060   0.61792   -1.000
 3662.00    0.59107   0.61121   -1.000
 3663.00    0.60012   0.60776   -1.000
 3664.00    0.59223   0.60893   -1.000
 3665.00    0.60259   0.61212   -1.000
 3666.00    0.61848   0.61365  884.321
 3667.00    0.60999   0.61156   -1.000
 3668.00    0.57954   0.60634   -1.000
 3669.00    0.57593   0.60171   -1.000
 3670.00    0.58115   0.60142   -1.000
 3671.00    0.60463   0.60656   -1.000
 3672.00    0.61080   0.61412   -1.000
 3673.00    0.61301   0.61865   -1.000
 3674.00    0.62496   0.61725  884.321
 3675.00    0.61681   0.61011  884.321
 3676.00    0.59951   0.59856  884.321
 3677.00    0.57116   0.58621   -1.000
 3678.00    0.54909   0.57827   -1.000
 3679.00    0.57392   0.57789   -1.000
 3680.00    0.56673   0.58239   -1.000
 3681.00    0.57172   0.58739   -1.000
 3682.00    0.58892   0.59060   -1.000
 3683.00    0.58478   0.59054   -1.000
 3684.00    0.58002   0.58676   -1.000
 3685.00    0.56169   0.58033   -1.000
 3686.00    0.55610   0.57637   -1.000
 3687.00    0.56561   0.58137   -1.000
 3688.00    0.58254   0.59635   -1.000
 3689.00    0.59493   0.61298   -1.000
 3690.00    0.61366   0.62214   -1.000
 3691.00    0.62638   0.62376  882.550
 3692.00    0.62872   0.62333  854.556
 3693.00    0.62400   0.62490   -1.000
 3694.00    0.61835   0.62772   -1.000
 3695.00    0.61893   0.62770   -1.000
 3696.00    0.60244   0.62330   -1.000
 3697.00    0.59940   0.62194   -1.000
 3698.00    0.60782   0.63221   -1.000
 3699.00    0.63360   0.65147   -1.000
 3700.00    0.66471   0.66572   -1.000
 3701.00    0.66797   0.65855   -1.000
 3702.00    0.63706   0.62850   -1.000
 3703.00    0.59052   0.59018  884.321
 3704.00    0.56300   0.56214  884.321
 3705.00    0.55067   0.55452   -1.000
 3706.00    0.54205   0.56454   -1.000
 3707.00    0.56328   0.58159   -1.000
 3708.00    0.58947   0.59366  821.080
 3709.00    0.58136   0.59278   -1.000
 3710.00    0.59195   0.58200   -1.000
 3711.00    0.60668   0.57355   -1.000
 3712.00    0.63631   0.57947   -1.000
 3713.00    0.67248   0.60339   -1.000
 3714.00    0.70124   0.63698   -1.000
 3715.00    0.73577   0.66639   -1.000
 3716.00    0.73903   0.68217   -1.000
 3717.00    0.75390   0.67996   -1.000
 3718.00    0.75971   0.65572   -1.000
 3719.00    0.75858   0.60951   -1.000
 3720.00    0.75502   0.55552   -1.000
 3721.00    0.76682   0.51997   -1.000
 3722.00    0.76091   0.51930   -1.000
 3723.00    0.76138   0.55230   -1.000
 3724.00    0.75328   0.60220   -1.000
 3725.00    0.73071   0.64412   -1.000
 3726.00    0.70851   0.66649   -1.000
 3727.00    0.69384   0.67593  129.983
 3728.00    0.68676   0.68113  142.954
 3729.00    0.69610   0.68286  144.713
 3730.00    0.67920   0.67267  135.493
 3731.00    0.65031   0.63917  166.314
 3732.00    0.60011   0.58411   -1.000
 3733.00    0.53790   0.52691   -1.000
 3734.00    0.49122   0.48805  884.321
 3735.00    0.47553   0.48211   -1.000
 3736.00    0.50211   0.51111   -1.000
 3737.00    0.54714   0.56160   -1.000
 3738.00    0.59685   0.61702   -1.000
 3739.00    0.66483   0.66624  884.321
 3740.00    0.70459   0.69760   -1.000
 3741.00    0.71941   0.70614  130.338
 3742.00    0.70516   0.69649  136.794
 3743.00    0.66667   0.67823  186.224
 3744.00    0.65356   0.65651  884.321
 3745.00    0.61560   0.63252   -1.000
 3746.00    0.57437   0.60412   -1.000
 3747.00    0.54534   0.56943   -1.000
 3748.00    0.49827   0.53242   -1.000
 3749.00    0.46477   0.50432   -1.000
 3750.00    0.48206   0.50206   -1.000
 3751.00    0.55889   0.53383   -1.000
 3752.00    0.62535   0.58852   -1.000
 3753.00    0.67661   0.64597   -1.000
 3754.00    0.72582   0.68986   -1.000
 3755.00    0.75125   0.71297   -1.000
 3756.00    0.73030   0.71383   -1.000
 3757.00    0.68434   0.69790   -1.000
 3758.00    0.65275   0.67916   -1.000
 3759.00    0.66317   0.66925  884.321
 3760.00    0.67802   0.67155   -1.000
 3761.00    0.68987   0.68275   -1.000
 3762.00    0.70192   0.69412   -1.000
 3763.00    0.70112   0.69865   -1.000
 3764.00    0.70851   0.69436   -1.000
 3765.00    0.70299   0.68223   -1.000
 3766.00    0.67445   0.66269   -1.000
 3767.00    0.63996   0.63331   -1.000
 3768.00    0.62751   0.59531   -1.000
 3769.00    0.60080   0.55866   -1.000
 3770.00    0.58086   0.53888   -1.000
 3771.00    0.58982   0.54862   -1.000
 3772.00    0.63877   0.58491   -1.000
 3773.00    0.67871   0.63063   -1.000
 3774.00    0.70046   0.66767   -1.000
 3775.00    0.71827   0.69131   -1.000
 3776.00    0.73229   0.70900   -1.000
 3777.00    0.74950   0.72982   -1.000
 3778.00    0.76724   0.75472   -1.000
 3779.00    0.79995   0.77900   -1.000
 3780.00    0.82373   0.79780   -1.000
 3781.00    0.83166   0.80735   -1.000
 3782.00    0.83823   0.80793   -1.000
 3783.00    0.83467   0.80272   -1.000
 3784.00    0.84129   0.79383   -1.000
 3785.00    0.80709   0.78063   -1.000
 3786.00    0.76189   0.76377  884.321
 3787.00    0.75410   0.74687   -1.000
 3788.00    0.75853   0.73579   -1.000
 3789.00    0.75870   0.73208   -1.000
 3790.00    0.75219   0.73097   -1.000
 3791.00    0.73300   0.72591   -1.000
 3792.00    0.71234   0.71201  884.321
 3793.00    0.69954   0.68649   -1.000
 3794.00    0.66334   0.64943   -1.000
 3795.00    0.60755   0.60481   -1.000
 3796.00    0.56704   0.55934   -1.000
 3797.00    0.53120   0.52353   -1.000
 3798.00    0.51584   0.51334  884.321
 3799.00    0.55735   0.54015   -1.000
 3800.00    0.62804   0.59683   -1.000
 3801.00    0.69863   0.66004   -1.000
 3802.00    0.74840   0.71085   -1.000
 3803.00    0.77648   0.74238   -1.000
 3804.00    0.78707   0.75826   -1.000
 3805.00    0.78343   0.76377   -1.000
 3806.00    0.77260   0.76686  884.321
 3807.00    0.77611   0.77521  884.321
 3808.00    0.79247   0.79097  884.321
 3809.00    0.81097   0.80942  884.321
 3810.00    0.83155   0.82105   -1.000
 3811.00    0.83734   0.81674   -1.000
 3812.00    0.82098   0.79623   -1.000
 3813.00    0.79763   0.77070   -1.000
 3814.00    0.76645   0.75353   -1.000
 3815.00    0.75871   0.75251   -1.000
 3816.00    0.76818   0.76421   -1.000
 3817.00    0.77964   0.77706   -1.000
 3818.00    0.79491   0.77833   -1.000
 3819.00    0.78037   0.76580  133.535
 3820.00    0.75690   0.75107  134.645
 3821.00    0.75269   0.74572  132.983
 3822.00    0.76483   0.74846  130.797
 3823.00    0.74051   0.74468  130.284
 3824.00    0.70613   0.72732  133.829
 3825.00    0.68413   0.70590  142.011
 3826.00    0.67779   0.68970  150.469
 3827.00    0.68007   0.67894  151.577
 3828.00    0.67186   0.66966  147.035
 3829.00    0.67172   0.65864  142.259
 3830.00    0.67082   0.64172   -1.000
 3831.00    0.63032   0.61375   -1.000
 3832.00    0.57735   0.57239  145.971
 3833.00    0.54493   0.52378   -1.000
 3834.00    0.52028   0.48500   -1.000
 3835.00    0.51083   0.47002   -1.000
 3836.00    0.50778   0.48086   -1.000
 3837.00    0.52389   0.51136   -1.000
 3838.00    0.55872   0.55077   -1.000
 3839.00    0.60027   0.59036   -1.000
 3840.00    0.63306   0.62900   -1.000
 3841.00    0.65857   0.66819   -1.000
 3842.00    0.71545   0.70684   -1.000
 3843.00    0.77492   0.74170   -1.000
 3844.00    0.79069   0.76771   -1.000
 3845.00    0.79045   0.78516   -1.000
 3846.00    0.79405   0.79822   -1.000
 3847.00    0.80637   0.80782   -1.000
 3848.00    0.81086   0.81124  884.321
 3849.00    0.80018   0.80923   -1.000
 3850.00    0.79409   0.80987   -1.000
 3851.00    0.80725   0.81988   -1.000
 3852.00    0.82733   0.83525  129.031
 3853.00    0.84837   0.84568  131.806
 3854.00    0.84521   0.84472  226.358
 3855.00    0.82295   0.83467   -1.000
 3856.00    0.81039   0.82208   -1.000
 3857.00    0.79763   0.81112   -1.000
 3858.00    0.78235   0.80316   -1.000
 3859.00    0.76476   0.80164   -1.000
 3860.00    0.76811   0.80957   -1.000
 3861.00    0.79874   0.82453   -1.000
 3862.00    0.84115   0.83873  884.321
 3863.00    0.85834   0.84597   -1.000
 3864.00    0.86704   0.84617   -1.000
 3865.00    0.86994   0.84428   -1.000
 3866.00    0.85781   0.84531   -1.000
 3867.00    0.85181   0.84978  884.321
 3868.00    0.84405   0.85318   -1.000
 3869.00    0.83240   0.84902   -1.000
 3870.00    0.80751   0.83510   -1.000
 3871.00    0.77473   0.81498   -1.000
 3872.00    0.76253   0.79631   -1.000
 3873.00    0.77571   0.78825   -1.000
 3874.00    0.79223   0.79195  884.321
 3875.00    0.80399   0.79775   -1.000
 3876.00    0.80855   0.79305   -1.000
 3877.00    0.78658   0.77707   -1.000
 3878.00    0.74706   0.76118   -1.000
 3879.00    0.73652   0.75524   -1.000
 3880.00    0.74628   0.75702   -1.000
 3881.00    0.75209   0.75515  884.321
 3882.00    0.74612   0.74413  884.321
 3883.00    0.72363   0.72546  884.321
 3884.00    0.70513   0.69792   -1.000
 3885.00    0.67951   0.65792   -1.000
 3886.00    0.63206   0.60660   -1.000
 3887.00    0.57141   0.55532   -1.000
 3888.00    0.53499   0.52297   -1.000
 3889.00    0.54956   0.52305   -1.000
 3890.00    0.59480   0.55665   -1.000
 3891.00    0.65338   0.60962   -1.000
 3892.00    0.70497   0.65996   -1.000
 3893.00    0.72911   0.69374   -1.000
 3894.00    0.73246   0.71365   -1.000
 3895.00    0.74256   0.72921   -1.000
 3896.00    0.76269   0.74602   -1.000
 3897.00    0.78807   0.76281   -1.000
 3898.00    0.80148   0.77449   -1.000
 3899.00    0.79418   0.78072   -1.000
 3900.00    0.80703   0.78808   -1.000
 3901.00    0.82261   0.79823   -1.000
 3902.00    0.81160   0.80603  790.770
 3903.00    0.80694   0.80779  779.074
 3904.00    0.80953   0.80503  771.923
 3905.00    0.79978   0.80453   -1.000
 3906.00    0.80287   0.81275   -1.000
 3907.00    0.82187   0.83228   -1.000
 3908.00    0.84307   0.85824   -1.000
 3909.00    0.86282   0.88076   -1.000
 3910.00    0.87342   0.89298   -1.000
 3911.00    0.88382   0.89519   -1.000
 3912.00    0.89097   0.89016   -1.000
 3913.00    0.88494   0.88009  884.321
 3914.00    0.86897   0.86989   -1.000
 3915.00    0.87175   0.86531  884.321
 3916.00    0.89251   0.86497   -1.000
 3917.00    0.89265   0.86294   -1.000
 3918.00    0.86621   0.85689   -1.000
 3919.00    0.84615   0.84964   -1.000
 3920.00    0.83331   0.84475   -1.000
 3921.00    0.83121   0.84304   -1.000
 3922.00    0.83588   0.84435  153.543
 3923.00    0.83819   0.84648  179.863
 3924.00    0.82933   0.84520   -1.000
 3925.00    0.81260   0.83488   -1.000
 3926.00    0.74795   0.81149   -1.000
 3927.00    0.68183   0.77626   -1.000
 3928.00    0.63736   0.73074   -1.000
 3929.00    0.59988   0.67546   -1.000
 3930.00    0.54978   0.60627   -1.000
 3931.00    0.46231   0.52117   -1.000
 3932.00    0.37019   0.43690   -1.000
 3933.00    0.31959   0.38425   -1.000
 3934.00    0.33935   0.38831   -1.000
 3935.00    0.40393   0.44765   -1.000
 3936.00    0.49612   0.53537   -1.000
 3937.00    0.58315   0.62384   -1.000
 3938.00    0.67223   0.69942   -1.000
 3939.00    0.73841   0.75525   -1.000
 3940.00    0.77532   0.79201   -1.000
 3941.00    0.79603   0.81268   -1.000
 3942.00    0.79855   0.82142   -1.000
 3943.00    0.79506   0.82557   -1.000
 3944.00    0.79818   0.83132   -1.000
 3945.00    0.82692   0.84053   -1.000
 3946.00    0.84688   0.85087   -1.000
 3947.00    0.85141   0.85665   -1.000
 3948.00    0.84492   0.85569   -1.000
 3949.00    0.84782   0.85120   -1.000
 3950.00    0.85890   0.84716   -1.000
 3951.00    0.85858   0.84516   -1.000
 3952.00    0.84600   0.84658   -1.000
 3953.00    0.86254   0.85122   -1.000
 3954.00    0.87654   0.85342   -1.000
 3955.00    0.86845   0.84857   -1.000
 3956.00    0.86325   0.83813   -1.000
 3957.00    0.86360   0.82875   -1.000
 3958.00    0.87222   0.82367   -1.000
 3959.00    0.85411   0.81500   -1.000
 3960.00    0.79525   0.79449  217.361
 3961.00    0.73840   0.76303   -1.000
 3962.00    0.68631   0.72581   -1.000
 3963.00    0.63829   0.68642   -1.000
 3964.00    0.60664   0.63768   -1.000
 3965.00    0.54310   0.56922  143.008
 3966.00    0.45407   0.48155   -1.000
 3967.00    0.36337   0.39034   -1.000
 3968.00    0.29368   0.32552   -1.000
 3969.00    0.28317   0.31136   -1.000
 3970.00    0.32722   0.35153   -1.000
 3971.00    0.41251   0.42862   -1.000
 3972.00    0.50371   0.51694   -1.000
 3973.00    0.58440   0.59619   -1.000
 3974.00    0.65805   0.66132  718.444
 3975.00    0.70960   0.71299  729.848
 3976.00    0.74526   0.75423   -1.000
 3977.00    0.78144   0.78771   -1.000
 3978.00    0.81427   0.81513   97.404
 3979.00    0.85069   0.83573   69.129
 3980.00    0.87187   0.84708   67.861
 3981.00    0.87819   0.85154   67.017
 3982.00    0.87428   0.85535   67.014
 3983.00    0.87127   0.86394   66.787
 3984.00    0.88889   0.87798   65.540
 3985.00    0.90988   0.89275   63.950
 3986.00    0.91248   0.90419   64.064
 3987.00    0.91226   0.91328   65.422
 3988.00    0.93319   0.92109   66.963
 3989.00    0.93790   0.92667   68.322
 3990.00    0.93224   0.93217   69.098
 3991.00    0.95238   0.93997   68.102
 3992.00    0.96456   0.94941   65.352
 3993.00    0.95750   0.95642   62.911
 3994.00    0.95228   0.95524   61.613
 3995.00    0.94463   0.94428   60.712
 3996.00    0.92614   0.92959   61.365
 3997.00    0.91202   0.92167   64.782
 3998.00    0.91530   0.92577   68.468
 3999.00    0.93382   0.93815   68.973
 4000.00    0.95810   0.95080   65.773
 4001.00    0.98272   0.95854   62.837
 4002.00    1.00641   0.95930   61.603
 4003.00    0.98785   0.95307   60.913
 4004.00    0.94111   0.94207   60.597
 4005.00    0.92792   0.93376   60.881
 4006.00    0.89755   0.93643   -1.000
 4007.00    0.93931   0.95029   60.976
 4008.00    0.97536   0.96729   60.195
 4009.00    1.00175   0.97886   60.382
 4010.00    1.00813   0.98357   61.092
 4011.00    1.00165   0.98397   61.047
 4012.00    0.99058   0.98256   60.237
 4013.00    0.97743   0.98239   60.125
 4014.00    0.98005   0.98558   60.851
 4015.00    0.98000   0.99125   61.339
 4016.00    0.97969   0.99711   61.728
 4017.00    0.99633   1.00234   62.196
 4018.00    1.01196   1.00767   61.094
 4019.00    1.01476   1.01249   59.031
 4020.00    1.00152   1.01392   57.628
 4021.00    0.99017   1.00984   57.786
 4022.00    0.99309   1.00182   59.784
 4023.00    0.97894   0.99334   63.562
 4024.00    0.97489   0.98846   66.641
 4025.00    1.00294   0.99128   67.860
 4026.00    1.03253   1.00137   67.330
 4027.00    1.04149   1.01050   65.381
 4028.00    1.03066   1.00960   62.340
 4029.00    1.01069   0.99711   59.244
 4030.00    0.95835   0.97875   56.990
 4031.00    0.94148   0.96409   56.419
 4032.00    0.93848   0.95891   57.353
 4033.00    0.94379   0.96318   58.712
 4034.00    0.95094   0.97544   59.506
 4035.00    0.97920   0.99407   59.858
 4036.00    1.01638   1.01541   62.244
 4037.00    1.03136   1.03320   67.769
 4038.00    1.05033   1.04109   73.358
 4039.00    1.04444   1.03909   71.915
 4040.00    1.03538   1.03240   65.526
 4041.00    1.04684   1.02536   61.095
 4042.00    1.03216   1.01605   59.006
 4043.00    0.98903   0.99879   58.154
 4044.00    0.92944   0.97506   -1.000
 4045.00    0.89230   0.95670   -1.000
 4046.00    0.91224   0.95704   -1.000
 4047.00    0.95229   0.97715   62.425
 4048.00    0.99061   1.00313   63.001
 4049.00    1.01631   1.02127   63.438
 4050.00    1.03419   1.02826   64.066
 4051.00    1.03331   1.02715   63.545
 4052.00    1.02653   1.02061   61.462
 4053.00    1.01450   1.01232   60.068
 4054.00    0.99373   1.00609   60.749
 4055.00    0.98457   1.00321   64.679
 4056.00    1.00000   1.00287   69.263
 4057.00    1.01550   1.00514   69.091
 4058.00    1.01948   1.01195   65.973
 4059.00    0.99974   1.02057   64.104
 4060.00    1.01704   1.02176   62.399
 4061.00    1.02825   1.00982   60.420
 4062.00    0.99852   0.98881   59.473
 4063.00    0.94158   0.96916   61.380
 4064.00    0.92777   0.95879   64.177
 4065.00    0.96462   0.95970   64.201
 4066.00    0.98011   0.96753   62.059
 4067.00    0.98668   0.97515   61.444
 4068.00    0.99511   0.97893   63.986
 4069.00    1.00823   0.97706   69.179
 4070.00    1.00608   0.96787   71.825
 4071.00    0.98951   0.95574   70.006
 4072.00    0.97822   0.95023   65.453
 4073.00    0.97882   0.95384   60.917
 4074.00    0.96545   0.95752   58.773
 4075.00    0.93502   0.95008   59.433
 4076.00    0.91637   0.93196   61.374
 4077.00    0.90979   0.91591   62.466
 4078.00    0.90868   0.91541   61.748
 4079.00    0.94252   0.93316   59.772
 4080.00    0.97270   0.95714   57.489
 4081.00    0.99242   0.97296   55.591
 4082.00    0.98893   0.97469   55.618
 4083.00    0.96589   0.96649   56.688
 4084.00    0.94749   0.95682   57.769
 4085.00    0.95919   0.95287   58.468
 4086.00    0.99020   0.95706   58.581
 4087.00    1.00242   0.96600   59.556
 4088.00    1.01695   0.97378   62.152
 4089.00    1.01653   0.97568   64.328
 4090.00    1.02883   0.97130   64.956
 4091.00    1.00532   0.96296   65.954
 4092.00    0.99160   0.95108   69.391
 4093.00    0.98339   0.93537   75.627
 4094.00    0.97304   0.91668   -1.000
 4095.00    0.95858   0.89429   -1.000
 4096.00    0.91166   0.86756   73.658
 4097.00    0.87924   0.83518   67.845
 4098.00    0.82246   0.79375   64.059
 4099.00    0.76945   0.74007   61.984
 4100.00    0.72573   0.68100   61.557
 4101.00    0.66244   0.63920   62.084
 4102.00    0.65572   0.63804   63.263
 4103.00    0.72618   0.68147   64.229
 4104.00    0.80917   0.74758   -1.000
 4105.00    0.84859   0.80910   62.143
 4106.00    0.87459   0.85129   61.048
 4107.00    0.90553   0.87593   60.101
 4108.00    0.90610   0.89010   59.491
 4109.00    0.91390   0.90021   59.733
 4110.00    0.91279   0.91060   60.957
 4111.00    0.92182   0.92351   62.995
 4112.00    0.95398   0.93919   63.818
 4113.00    0.97979   0.95597   63.097
 4114.00    0.99259   0.97159   62.429
 4115.00    1.01328   0.98236   62.458
 4116.00    1.02408   0.98499   61.823
 4117.00    1.01990   0.98011   60.736
 4118.00    0.98539   0.97207   60.489
 4119.00    0.95685   0.96669   61.266
 4120.00    0.97152   0.96736   62.581
 4121.00    0.97708   0.97215   63.136
 4122.00    0.97656   0.97804   63.461
 4123.00    0.99476   0.98481   64.246
 4124.00    1.01606   0.99250   66.245
 4125.00    1.03724   0.99801   68.352
 4126.00    1.01296   0.99802   68.600
 4127.00    1.00541   0.99355   66.401
 4128.00    1.01069   0.98889   63.051
 4129.00    0.98748   0.98573   60.961
 4130.00    0.96162   0.98149   59.953
 4131.00    0.97298   0.97485   59.014
 4132.00    0.94949   0.97038   58.765
 4133.00    0.94020   0.97481   59.950
 4134.00    0.95708   0.98840   63.096
 4135.00    0.99632   1.00571   68.446
 4136.00    1.02417   1.02208   72.124
 4137.00    1.04908   1.03585   69.560
 4138.00    1.07233   1.04664   65.357
 4139.00    1.06100   1.05189   62.896
 4140.00    1.04515   1.04714   62.228
 4141.00    1.01756   1.03155   63.412
 4142.00    0.98758   1.01075   65.204
 4143.00    0.95145   0.99544   -1.000
 4144.00    0.96309   0.99438   -1.000
 4145.00    0.99783   1.00651   65.158
 4146.00    1.02863   1.02143   65.775
 4147.00    1.03136   1.02930   66.872
 4148.00    1.05904   1.03014   65.168
 4149.00    1.03246   1.02926   64.625
 4150.00    1.03638   1.02954   65.489
 4151.00    1.28075   1.02934   -1.000
 4152.00    1.34346   1.02589   -1.000
 4153.00    0.61152   1.01991   -1.000
 4154.00    0.79029   1.01494   -1.000
 4155.00    1.12005   1.01454   -1.000
 4156.00    0.99906   1.01964   60.586
 4157.00    1.00029   1.02839   61.610
 4158.00    1.03597   1.03771   62.528
 4159.00    1.04451   1.04439   63.962
 4160.00    1.05310   1.04747   64.932
 4161.00    1.04624   1.04861   64.392
 4162.00    1.04888   1.05087   63.243
 4163.00    1.04076   1.05553   63.969
 4164.00    1.04221   1.06044   67.944
 4165.00    1.03624   1.06175   -1.000
 4166.00    1.03744   1.05816   72.149
 4167.00    1.05901   1.05314   69.433
 4168.00    1.05030   1.04892   66.933
 4169.00    1.04110   1.04298   66.972
 4170.00    1.03470   1.02966   67.383
 4171.00    1.00308   1.00815   67.052
 4172.00    0.96715   0.98826   65.969
 4173.00    0.95324   0.98098   65.359
 4174.00    0.94992   0.98909   -1.000
 4175.00    0.98560   1.00410   64.677
 4176.00    0.98837   1.01360   63.349
 4177.00    0.99574   1.01544   62.259
 4178.00    0.99293   1.01632   62.449
 4179.00    0.98250   1.02209   -1.000
 4180.00    1.01533   1.02999   66.432
 4181.00    1.01757   1.03322   65.716
 4182.00    1.00620   1.03348   64.213
 4183.00    1.00346   1.03580   63.853
 4184.00    0.98808   1.03886   -1.000
 4185.00    1.00449   1.03815   61.584
 4186.00    1.00915   1.03235   60.887
 4187.00    0.98204   1.02631   -1.000
 4188.00    0.98359   1.02569   -1.000
 4189.00    1.02324   1.02958   68.288
 4190.00    1.01761   1.03355   69.403
 4191.00    1.02378   1.03621   69.466
 4192.00    1.05994   1.03962   68.646
 4193.00    1.05614   1.04403   67.570
 4194.00    1.04875   1.04406   67.413
 4195.00    1.01540   1.03479   66.930
 4196.00    0.99372   1.01884   65.875
 4197.00    0.98160   1.00243   65.381
 4198.00    0.95266   0.99052   -1.000
 4199.00    0.94598   0.98605   -1.000
 4200.00    0.96351   0.98801   61.297
 4201.00    0.95088   0.99169   -1.000
 4202.00    0.95733   0.99578   -1.000
 4203.00    0.95662   1.00281   -1.000
 4204.00    0.98610   1.01227   60.760
 4205.00    0.99146   1.02145   61.267
 4206.00    0.99625   1.02979   63.424
 4207.00    1.00968   1.03700   66.304
 4208.00    1.02850   1.04134   67.761
 4209.00    1.03439   1.04313   65.116
 4210.00    1.03081   1.04504   60.973
 4211.00    1.02625   1.04884   58.402
 4212.00    1.03913   1.05159   56.897
 4213.00    1.03506   1.04647   56.419
 4214.00    0.98612   1.03296   -1.000
 4215.00    0.97492   1.01919   -1.000
 4216.00    0.97829   1.01478   -1.000
 4217.00    1.00263   1.02323   70.842
 4218.00    1.02234   1.03768   80.213
 4219.00    1.06303   1.04984   85.396
 4220.00    1.06728   1.05639   78.904
 4221.00    1.04835   1.05575   68.303
 4222.00    1.03475   1.04508   61.752
 4223.00    0.99266   1.02143   58.928
 4224.00    0.93238   0.98761   -1.000
 4225.00    0.88112   0.95515   -1.000
 4226.00    0.85418   0.93865   -1.000
 4227.00    0.86023   0.94938   -1.000
 4228.00    0.92338   0.98466   -1.000
 4229.00    0.99117   1.02561   -1.000
 4230.00    1.03350   1.05001   64.098
 4231.00    1.03157   1.05209   62.615
 4232.00    1.00511   1.04080   -1.000
 4233.00    0.98415   1.02679   -1.000
 4234.00    0.96655   1.01836   -1.000
 4235.00    0.95916   1.01795   -1.000
 4236.00    0.95783   1.02135   -1.000
 4237.00    0.94603   1.02622   -1.000
 4238.00    0.94420   1.03336   -1.000
 4239.00    0.96980   1.04273   -1.000
 4240.00    0.99273   1.05372   -1.000
 4241.00    1.00135   1.06388   -1.000
 4242.00    1.01330   1.07013   -1.000
 4243.00    1.02186   1.07094   -1.000
 4244.00    1.03270   1.06632   62.867
 4245.00    1.02815   1.05615   61.395
 4246.00    0.99549   1.04105   -1.000
 4247.00    0.96784   1.02625   -1.000
 4248.00    0.95927   1.01709   -1.000
 4249.00    0.95350   1.01442   -1.000
 4250.00    0.94592   1.01773   -1.000
 4251.00    0.95777   1.02634   -1.000
 4252.00    0.98497   1.03547   -1.000
 4253.00    1.00280   1.04048   -1.000
 4254.00    0.99315   1.04228   -1.000
 4255.00    0.98735   1.04508   -1.000
 4256.00    1.00283   1.04949   -1.000
 4257.00    1.00155   1.04941   -1.000
 4258.00    0.98590   1.04058   -1.000
 4259.00    0.94975   1.02869   -1.000
 4260.00    0.92112   1.02389   -1.000
 4261.00    0.92821   1.03170   -1.000
 4262.00    0.97480   1.04916   -1.000
 4263.00    1.03499   1.06737   -1.000
 4264.00    1.06573   1.07786   71.921
 4265.00    1.06850   1.07907   72.091
 4266.00    1.05851   1.07465   70.334
 4267.00    1.04868   1.06605   68.292
 4268.00    1.04281   1.05254   64.897
 4269.00    1.01609   1.03385   60.837
 4270.00    0.96619   1.01241   -1.000
 4271.00    0.92391   0.99496   -1.000
 4272.00    0.89594   0.98798   -1.000
 4273.00    0.89864   0.99302   -1.000
 4274.00    0.93509   1.00663   -1.000
 4275.00    0.95632   1.02511   -1.000
 4276.00    0.99129   1.04584   -1.000
 4277.00    1.01661   1.06310   -1.000
 4278.00    1.01302   1.06989   -1.000
 4279.00    1.00566   1.06497   -1.000
 4280.00    0.97317   1.05373   -1.000
 4281.00    0.94957   1.04417   -1.000
 4282.00    0.96881   1.04000   -1.000
 4283.00    1.00421   1.03983   -1.000
 4284.00    1.00551   1.04005   -1.000
 4285.00    0.98191   1.03580   -1.000
 4286.00    0.95949   1.02412   -1.000
 4287.00    0.95554   1.00578   -1.000
 4288.00    0.93408   0.98465   -1.000
 4289.00    0.89248   0.96798   -1.000
 4290.00    0.88661   0.96445   -1.000
 4291.00    0.91955   0.97506   -1.000
 4292.00    0.96551   0.98974   83.285
 4293.00    0.98577   0.99668   83.298
 4294.00    0.98190   0.99510   80.952
 4295.00    0.97028   0.99130   79.773
 4296.00    0.95617   0.98470   78.615
 4297.00    0.92589   0.97016   -1.000
 4298.00    0.88699   0.94708   -1.000
 4299.00    0.84416   0.92101   -1.000
 4300.00    0.82218   0.90145   -1.000
 4301.00    0.82144   0.89473   -1.000
 4302.00    0.83281   0.89997   -1.000
 4303.00    0.83939   0.91199   -1.000
 4304.00    0.85396   0.92377   -1.000
 4305.00    0.85214   0.92722   -1.000
 4306.00    0.84023   0.92039   -1.000
 4307.00    0.82696   0.91007   -1.000
 4308.00    0.81286   0.90596   -1.000
 4309.00    0.78978   0.91274   -1.000
 4310.00    0.78548   0.92662   -1.000
 4311.00    0.81598   0.93970   -1.000
 4312.00    0.83486   0.94731   -1.000
 4313.00    0.86068   0.95458   -1.000
 4314.00    0.89074   0.97059   -1.000
 4315.00    0.94154   0.99871   -1.000
 4316.00    1.01039   1.03218   65.852
 4317.00    1.05625   1.05715   70.995
 4318.00    1.08345   1.06659   71.580
 4319.00    1.07330   1.06337   65.782
 4320.00    1.04701   1.05368   59.331
 4321.00    1.00909   1.04071   56.031
 4322.00    0.98321   1.02355   55.446
 4323.00    0.93484   1.00079   -1.000
 4324.00    0.89312   0.97683   -1.000
 4325.00    0.87009   0.96450   -1.000
 4326.00    0.88593   0.97300   -1.000
 4327.00    0.93801   0.99545   -1.000
 4328.00    0.97717   1.01607   55.662
 4329.00    0.99638   1.02412   59.904
 4330.00    0.98798   1.02183   65.785
 4331.00    0.99284   1.01724   71.711
 4332.00    1.00954   1.01258   76.389
 4333.00    1.01445   1.00381   75.680
 4334.00    1.00509   0.98571   69.182
 4335.00    0.97757   0.95426   63.084
 4336.00    0.92144   0.90624   59.888
 4337.00    0.85111   0.84165   58.149
 4338.00    0.75705   0.77104   56.759
 4339.00    0.69244   0.71465   55.937
 4340.00    0.65924   0.69230   55.255
 4341.00    0.66502   0.71553   -1.000
 4342.00    0.74837   0.77594   55.754
 4343.00    0.83969   0.84657   59.346
 4344.00    0.89320   0.90431   62.724
 4345.00    0.94120   0.94585   62.286
 4346.00    0.97177   0.97708   59.500
 4347.00    0.99496   1.00044   57.074
 4348.00    1.00670   1.01277   55.540
 4349.00    1.00508   1.01051   54.795
 4350.00    0.96408   0.99674   55.259
 4351.00    0.91984   0.98319   -1.000
 4352.00    0.91781   0.98229   -1.000
 4353.00    0.95913   0.99837   55.022
 4354.00    0.98346   1.02388   53.677
 4355.00    1.01120   1.04651   53.259
 4356.00    1.02579   1.05939   52.923
 4357.00    1.02186   1.06331   52.496
 4358.00    1.00214   1.06295   -1.000
 4359.00    0.99519   1.06406   -1.000
 4360.00    1.02916   1.07013   -1.000
 4361.00    1.04793   1.07984   56.566
 4362.00    1.04895   1.08961   -1.000
 4363.00    1.04778   1.09655   -1.000
 4364.00    1.05533   1.09891   -1.000
 4365.00    1.04977   1.09555   -1.000
 4366.00    1.03484   1.08646   -1.000
 4367.00    1.03184   1.07478   -1.000
 4368.00    1.04119   1.06582   60.091
 4369.00    1.05124   1.06164   57.293
 4370.00    1.03379   1.06012   55.083
 4371.00    1.01882   1.05685   54.668
 4372.00    1.01003   1.04779   55.290
 4373.00    1.00306   1.03284   56.908
 4374.00    0.99125   1.01887   60.977
 4375.00    0.99502   1.01719   68.025
 4376.00    1.02292   1.03226   73.120
 4377.00    1.04441   1.05576   70.540
 4378.00    1.05136   1.07368   63.700
 4379.00    1.05815   1.07818   59.215
 4380.00    1.05483   1.06851   58.195
 4381.00    1.02172   1.04513   58.540
 4382.00    0.97570   1.01251   59.028
 4383.00    0.92906   0.98383   -1.000
 4384.00    0.90494   0.97316   -1.000
 4385.00    0.92933   0.98468   -1.000
 4386.00    0.97295   1.00892   57.565
 4387.00    1.00822   1.03113   58.288
 4388.00    1.02676   1.04407   56.984
 4389.00    1.01432   1.04871   54.661
 4390.00    0.99062   1.04978   -1.000
 4391.00    0.99231   1.05104   -1.000
 4392.00    1.02100   1.05090   57.379
 4393.00    1.03749   1.04528   58.080
 4394.00    1.02039   1.03662   57.143
 4395.00    0.99894   1.03484   57.336
 4396.00    1.01341   1.04352   60.050
 4397.00    1.04776   1.05359   62.381
 4398.00    1.05067   1.05515   61.637
 4399.00    1.01969   1.04867   59.962
 4400.00    1.00278   1.04291   -1.000
 4401.00    1.01970   1.04345   58.003
 4402.00    1.04004   1.04665   55.587
 4403.00    1.02904   1.04654   53.409
 4404.00    0.99452   1.04313   -1.000
 4405.00    0.96917   1.04183   -1.000
 4406.00    0.98317   1.04551   -1.000
 4407.00    1.00686   1.05136   -1.000
 4408.00    1.01426   1.05748   -1.000
 4409.00    1.03113   1.06688   57.121
 4410.00    1.05222   1.08008   54.884
 4411.00    1.07109   1.09063   52.915
 4412.00    1.07469   1.09111   52.250
 4413.00    1.04636   1.07922   53.109
 4414.00    1.00875   1.05887   -1.000
 4415.00    0.98495   1.03988   -1.000
 4416.00    0.98351   1.03278   -1.000
 4417.00    0.99789   1.04157   -1.000
 4418.00    1.01492   1.06164   -1.000
 4419.00    1.03439   1.08256   -1.000
 4420.00    1.04934   1.09491   -1.000
 4421.00    1.04527   1.09629   -1.000
 4422.00    1.04364   1.09273   -1.000
 4423.00    1.05407   1.09032   54.567
 4424.00    1.05579   1.08890   53.992
 4425.00    1.04516   1.08658   -1.000
 4426.00    1.03995   1.08467   -1.000
 4427.00    1.04900   1.08596   -1.000
 4428.00    1.06171   1.09062   57.854
 4429.00    1.05742   1.09577   54.810
 4430.00    1.05163   1.09889   -1.000
 4431.00    1.05513   1.09912   50.738
 4432.00    1.05553   1.09546   51.506
 4433.00    1.03222   1.08684   -1.000
 4434.00    1.01180   1.07645   -1.000
 4435.00    1.01663   1.07303   -1.000
 4436.00    1.03473   1.08371   -1.000
 4437.00    1.06897   1.10451   53.994
 4438.00    1.09635   1.12258   52.315
 4439.00    1.09855   1.12639   51.868
 4440.00    1.07416   1.11328   51.964
 4441.00    1.04668   1.09014   52.304
 4442.00    1.01886   1.06912   -1.000
 4443.00    0.99367   1.06199   -1.000
 4444.00    0.99961   1.07222   -1.000
 4445.00    1.02397   1.09230   -1.000
 4446.00    1.05738   1.10967   -1.000
 4447.00    1.08005   1.11804   -1.000
 4448.00    1.08346   1.11960   58.313
 4449.00    1.08047   1.11825   57.223
 4450.00    1.08128   1.11653   56.746
 4451.00    1.08916   1.11510   56.954
 4452.00    1.09624   1.11160   57.415
 4453.00    1.08527   1.10237   57.983
 4454.00    1.05604   1.08937   57.620
 4455.00    1.04228   1.08120   55.812
 4456.00    1.03816   1.08320   54.042
 4457.00    1.03235   1.09095   -1.000
 4458.00    1.03299   1.09652   -1.000
 4459.00    1.03662   1.09735   -1.000
 4460.00    1.02514   1.09602   -1.000
 4461.00    1.02562   1.09660   -1.000
 4462.00    1.04900   1.10101   -1.000
 4463.00    1.06184   1.10728   53.719
 4464.00    1.07317   1.11170   51.901
 4465.00    1.07652   1.11126   50.308
 4466.00    1.05320   1.10469   -1.000
 4467.00    1.03296   1.09399   -1.000
 4468.00    1.02553   1.08530   -1.000
 4469.00    1.01891   1.08527   -1.000
 4470.00    1.03680   1.09611   -1.000
 4471.00    1.06869   1.11369   50.138
 4472.00    1.08999   1.13090   52.287
 4473.00    1.10619   1.14270   54.192
 4474.00    1.11989   1.14796   54.496
 4475.00    1.12966   1.14915   52.850
 4476.00    1.12603   1.14931   50.695
 4477.00    1.11667   1.14817   49.257
 4478.00    1.10704   1.14082   48.863
 4479.00    1.08994   1.12426   49.558
 4480.00    1.06666   1.10475   51.166
 4481.00    1.03909   1.09400   -1.000
 4482.00    1.04086   1.09974   -1.000
 4483.00    1.07684   1.11921   51.761
 4484.00    1.10467   1.14153   50.673
 4485.00    1.11215   1.15623   50.783
 4486.00    1.11391   1.15861   52.058
 4487.00    1.11869   1.14978   53.414
 4488.00    1.11124   1.13628   53.536
 4489.00    1.09072   1.12745   52.148
 4490.00    1.08389   1.12862   50.504
 4491.00    1.08420   1.13665   -1.000
 4492.00    1.08362   1.14245   -1.000
 4493.00    1.08821   1.14103   -1.000
 4494.00    1.08094   1.13638   -1.000
 4495.00    1.06444   1.13451   -1.000
 4496.00    1.05467   1.13697   -1.000
 4497.00    1.06274   1.14110   -1.000
 4498.00    1.08953   1.14258   -1.000
 4499.00    1.10266   1.13814   48.079
 4500.00    1.10113   1.13074   48.274
 4501.00    1.08871   1.12898   48.052
 4502.00    1.08560   1.13810   -1.000
 4503.00    1.11163   1.15411   47.808
 4504.00    1.13441   1.16736   48.568
 4505.00    1.13608   1.17170   49.493
 4506.00    1.13664   1.16796   50.022
 4507.00    1.13512   1.16162   49.972
 4508.00    1.13180   1.15854   49.839
 4509.00    1.13941   1.16053   50.209
 4510.00    1.14149   1.16419   50.644
 4511.00    1.13454   1.16504   50.205
 4512.00    1.11977   1.16221   49.231
 4513.00    1.10485   1.15729   -1.000
 4514.00    1.10022   1.15215   -1.000
 4515.00    1.10875   1.14850   50.877
 4516.00    1.10782   1.14645   51.529
 4517.00    1.10468   1.14425   52.223
 4518.00    1.10032   1.14076   53.574
 4519.00    1.11430   1.13794   55.162
 4520.00    1.13929   1.13732   56.148
 4521.00    1.14094   1.13641   56.104
 4522.00    1.12885   1.13260   55.293
 4523.00    1.12467   1.12790   54.280
 4524.00    1.11319   1.12545   53.755
 4525.00    1.10048   1.12368   54.648
 4526.00    1.08194   1.11874   56.446
 4527.00    1.07425   1.10987   56.639
 4528.00    1.06762   1.10111   54.175
 4529.00    1.06209   1.09768   50.952
 4530.00    1.06119   1.10015   49.020
 4531.00    1.05313   1.10262   48.911
 4532.00    1.05425   1.09804   49.895
 4533.00    1.04545   1.08730   50.289
 4534.00    1.03820   1.08053   49.997
 4535.00    1.03746   1.08705   -1.000
 4536.00    1.05794   1.10657   -1.000
 4537.00    1.11576   1.13070   30.233
 4538.00    1.11900   1.14945   38.405
 4539.00    0.60543   1.15726   -1.000
 4540.00    0.19115   1.15583   -1.000
 4541.00    0.16805   1.15148   -1.000
 4542.00    0.74710   1.14930   -1.000
 4543.00    0.68548   1.14907   -1.000
 4544.00    0.74159   1.14775   -1.000
 4545.00    1.05519   1.14480   -1.000
 4546.00    1.11007   1.14044   53.261
 4547.00    1.08797   1.13138   52.855
 4548.00    1.07136   1.11610   51.241
 4549.00    1.05259   1.10238   49.208
 4550.00    1.05686   1.10129   47.992
 4551.00    1.06523   1.11174   47.937
 4552.00    1.06388   1.11984   -1.000
 4553.00    1.04917   1.11676   -1.000
 4554.00    1.03382   1.10859   -1.000
 4555.00    1.04548   1.10750   -1.000
 4556.00    1.07855   1.11878   51.002
 4557.00    1.10707   1.13698   50.859
 4558.00    1.13200   1.15307   49.750
 4559.00    1.14866   1.16367   48.432
 4560.00    1.15142   1.16946   47.711
 4561.00    1.13977   1.16875   47.957
 4562.00    1.11969   1.15998   48.996
 4563.00    1.10217   1.14801   50.291
 4564.00    1.09263   1.14175   -1.000
 4565.00    1.10351   1.14568   49.173
 4566.00    1.11695   1.15631   48.229
 4567.00    1.12696   1.16640   48.069
 4568.00    1.13130   1.17011   48.249
 4569.00    1.13575   1.16507   48.517
 4570.00    1.12048   1.15297   49.198
 4571.00    1.09207   1.14046   50.514
 4572.00    1.09241   1.13734   51.704
 4573.00    1.12807   1.14636   51.881
 4574.00    1.14527   1.15847   51.282
 4575.00    1.14436   1.16419   50.800
 4576.00    1.14862   1.16317   50.818
 4577.00    1.14999   1.15922   51.103
 4578.00    1.13359   1.15313   50.666
 4579.00    1.12306   1.14415   49.475
 4580.00    1.11323   1.13426   48.348
 4581.00    1.08897   1.12633   48.033
 4582.00    1.08053   1.12083   48.554
 4583.00    1.07890   1.11851   49.427
 4584.00    1.08659   1.12150   50.314
 4585.00    1.10171   1.12906   50.571
 4586.00    1.12204   1.13752   50.244
 4587.00    1.14056   1.14410   49.833
 4588.00    1.14547   1.14767   49.637
 4589.00    1.14451   1.14866   49.530
 4590.00    1.14546   1.14860   49.420
 4591.00    1.12812   1.14797   49.725
 4592.00    1.11216   1.14734   50.180
 4593.00    1.12524   1.14864   50.395
 4594.00    1.12681   1.15273   50.012
 4595.00    1.14093   1.15852   49.445
 4596.00    1.13348   1.16407   49.379
 4597.00    1.14208   1.16693   49.344
 4598.00    1.15014   1.16597   48.906
 4599.00    1.13846   1.16189   48.026
 4600.00    1.11719   1.15635   47.005
 4601.00    1.10028   1.15175   46.349
 4602.00    1.08732   1.15012   -1.000
 4603.00    1.10385   1.15183   46.953
 4604.00    1.13230   1.15546   47.510
 4605.00    1.14083   1.15918   47.864
 4606.00    1.14773   1.16295   47.741
 4607.00    1.15226   1.16758   47.346
 4608.00    1.14063   1.17304   47.105
 4609.00    1.14401   1.17755   47.319
 4610.00    1.14356   1.17865   47.672
 4611.00    1.13420   1.17633   47.709
 4612.00    1.13221   1.17320   47.328
 4613.00    1.13305   1.17142   46.627
 4614.00    1.13254   1.17080   46.464
 4615.00    1.12453   1.16961   46.565
 4616.00    1.11402   1.16721   46.663
 4617.00    1.11396   1.16452   47.029
 4618.00    1.12687   1.16273   47.210
 4619.00    1.14130   1.16338   47.207
 4620.00    1.15315   1.16775   47.450
 4621.00    1.15415   1.17464   47.595
 4622.00    1.15472   1.18041   47.415
 4623.00    1.14842   1.18201   46.916
 4624.00    1.13618   1.17966   46.986
 4625.00    1.13102   1.17585   47.600
 4626.00    1.13793   1.17267   48.164
 4627.00    1.15089   1.17006   48.218
 4628.00    1.15418   1.16751   48.528
 4629.00    1.14959   1.16664   49.138
 4630.00    1.15349   1.16964   49.419
 4631.00    1.17151   1.17481   49.390
 4632.00    1.18737   1.17782   48.672
 4633.00    1.19416   1.17674   47.525
 4634.00    1.18622   1.17405   46.785
 4635.00    1.16006   1.17285   46.847
 4636.00    1.14334   1.17303   47.624
 4637.00    1.15342   1.17313   48.908
 4638.00    1.14509   1.17352   50.276
 4639.00    1.15938   1.17604   50.673
 4640.00    1.18977   1.18128   49.927
 4641.00    1.21463   1.18720   48.786
 4642.00    1.20962   1.19120   48.043
 4643.00    1.18331   1.19153   47.880
 4644.00    1.15708   1.18764   47.788
 4645.00    1.14088   1.17985   48.262
 4646.00    1.14238   1.17040   49.318
 4647.00    1.14478   1.16442   49.975
 4648.00    1.15580   1.16587   49.676
 4649.00    1.16945   1.17295   48.232
 4650.00    1.18084   1.18061   46.405
 4651.00    1.16701   1.18515   45.263
 4652.00    1.13183   1.18541   45.097
 4653.00    1.11178   1.18168   -1.000
 4654.00    1.11980   1.17593   46.652
 4655.00    1.12007   1.17123   47.608
 4656.00    1.12630   1.17014   47.819
 4657.00    1.13547   1.17521   48.517
 4658.00    1.16504   1.18714   50.463
 4659.00    1.20817   1.20108   52.594
 4660.00    1.22809   1.20950   52.897
 4661.00    1.22825   1.20916   51.436
 4662.00    1.21321   1.20285   49.322
 4663.00    1.18514   1.19478   47.902
 4664.00    1.17070   1.18619   47.514
 4665.00    1.16060   1.17553   47.525
 4666.00    1.13111   1.16183   47.487
 4667.00    1.11201   1.14901   46.923
 4668.00    1.11504   1.14389   46.218
 4669.00    1.11220   1.14881   46.359
 4670.00    1.13319   1.16001   47.302
 4671.00    1.16616   1.17187   48.256
 4672.00    1.18076   1.18019   49.070
 4673.00    1.17276   1.18487   49.575
 4674.00    1.18068   1.18868   49.052
 4675.00    1.18530   1.19278   47.854
 4676.00    1.18808   1.19511   47.171
 4677.00    1.18149   1.19260   47.271
 4678.00    1.15073   1.18561   47.306
 4679.00    1.15428   1.17726   47.557
 4680.00    1.16898   1.17014   47.582
 4681.00    1.15899   1.16652   47.585
 4682.00    1.16480   1.16780   47.904
 4683.00    1.17225   1.17276   48.024
 4684.00    1.18041   1.17809   47.499
 4685.00    1.20027   1.18136   46.795
 4686.00    1.20453   1.18252   45.769
 4687.00    1.18903   1.18282   45.154
 4688.00    1.16819   1.18318   45.328
 4689.00    1.17189   1.18322   46.578
 4690.00    1.17424   1.18196   47.994
 4691.00    1.17125   1.18034   48.609
 4692.00    1.18484   1.18057   48.267
 4693.00    1.20125   1.18280   48.583
 4694.00    1.20086   1.18549   49.425
 4695.00    1.22309   1.18760   49.718
 4696.00    1.22575   1.18732   48.828
 4697.00    1.19237   1.18265   48.090
 4698.00    1.18260   1.17479   48.699
 4699.00    1.16654   1.16739   49.676
 4700.00    1.16739   1.16184   50.181
 4701.00    1.19475   1.15688   49.946
 4702.00    1.18156   1.15210   48.513
 4703.00    1.15563   1.15032   47.170
 4704.00    1.15265   1.15375   46.673
 4705.00    1.16878   1.15920   47.093
 4706.00    1.15909   1.16082   47.980
 4707.00    1.15360   1.15697   48.011
 4708.00    1.14896   1.15226   47.078
 4709.00    1.13914   1.15266   46.167
 4710.00    1.14576   1.15932   45.866
 4711.00    1.17212   1.16770   45.702
 4712.00    1.16482   1.17210   45.545
 4713.00    1.14937   1.17093   45.925
 4714.00    1.14743   1.16803   46.255
 4715.00    1.15812   1.16873   45.993
 4716.00    1.16430   1.17453   45.494
 4717.00    1.16317   1.18207   45.556
 4718.00    1.15800   1.18789   46.658
 4719.00    1.16330   1.19140   48.440
 4720.00    1.18409   1.19297   49.537
 4721.00    1.21241   1.19286   49.360
 4722.00    1.20864   1.19246   48.852
 4723.00    1.20957   1.19396   48.467
 4724.00    1.20532   1.19699   47.881
 4725.00    1.21020   1.19848   47.464
 4726.00    1.19158   1.19586   47.195
 4727.00    1.16582   1.18885   46.932
 4728.00    1.15581   1.18027   47.445
 4729.00    1.16679   1.17320   47.502
 4730.00    1.15661   1.16871   46.877
 4731.00    1.14712   1.16804   46.905
 4732.00    1.16348   1.17195   47.184
 4733.00    1.17169   1.17778   47.243
 4734.00    1.17458   1.18152   46.855
 4735.00    1.17946   1.18152   46.338
 4736.00    1.16065   1.17947   46.445
 4737.00    1.15980   1.17843   46.485
 4738.00    1.17569   1.17962   46.127
 4739.00    1.18218   1.18176   45.654
 4740.00    1.16799   1.18348   45.569
 4741.00    1.16369   1.18512   45.644
 4742.00    1.18025   1.18792   45.673
 4743.00    1.17587   1.19186   46.017
 4744.00    1.17341   1.19558   46.548
 4745.00    1.18004   1.19852   46.934
 4746.00    1.18569   1.20173   47.254
 4747.00    1.19110   1.20629   47.154
 4748.00    1.18898   1.21107   47.350
 4749.00    1.20799   1.21457   47.711
 4750.00    1.20468   1.21682   47.749
 4751.00    1.19005   1.21789   47.330
 4752.00    1.18627   1.21675   47.260
 4753.00    1.18207   1.21351   48.044
 4754.00    1.16933   1.20994   49.276
 4755.00    1.17356   1.20800   49.879
 4756.00    1.18719   1.20844   49.924
 4757.00    1.18296   1.21046   49.810
 4758.00    1.17919   1.21218   49.445
 4759.00    1.20056   1.21201   48.737
 4760.00    1.19622   1.20853   47.600
 4761.00    1.17122   1.20079   46.969
 4762.00    1.16136   1.19040   47.095
 4763.00    1.14664   1.18155   47.515
 4764.00    1.16147   1.17795   47.928
 4765.00    1.16070   1.18055   47.307
 4766.00    1.15605   1.18766   46.272
 4767.00    1.16312   1.19690   46.003
 4768.00    1.17403   1.20658   46.061
 4769.00    1.16733   1.21448   46.206
 4770.00    1.18436   1.21781   46.524
 4771.00    1.16964   1.21617   47.058
 4772.00    1.17156   1.21321   47.316
 4773.00    1.16845   1.21350   47.429
 4774.00    1.17532   1.21767   47.673
 4775.00    1.20774   1.22218   48.057
 4776.00    1.20968   1.22423   48.017
 4777.00    1.21609   1.22340   48.202
 4778.00    1.20613   1.21968   48.697
 4779.00    1.18988   1.21431   48.953
 4780.00    1.18770   1.21081   48.877
 4781.00    1.19396   1.21120   48.623
 4782.00    1.19875   1.21271   48.310
 4783.00    1.17986   1.21221   47.780
 4784.00    1.17192   1.20990   46.963
 4785.00    1.16755   1.20678   45.909
 4786.00    1.15250   1.20338   45.164
 4787.00    1.15218   1.20121   45.065
 4788.00    1.16235   1.20145   45.580
 4789.00    1.16034   1.20371   46.527
 4790.00    1.16708   1.20789   47.378
 4791.00    1.18255   1.21453   47.867
 4792.00    1.19534   1.22284   47.358
 4793.00    1.20842   1.23141   46.383
 4794.00    1.22121   1.23821   45.778
 4795.00    1.21399   1.24078   45.923
 4796.00    1.20163   1.23815   46.569
 4797.00    1.19021   1.23164   47.152
 4798.00    1.18002   1.22458   47.541
 4799.00    1.18584   1.22120   47.496
 4800.00    1.18785   1.22373   47.364
 4801.00    1.19251   1.23023   47.129
 4802.00    1.20024   1.23561   46.695
 4803.00    1.19681   1.23399   46.373
 4804.00    1.19601   1.22548   46.156
 4805.00    1.18707   1.21678   46.115
 4806.00    1.18521   1.21366   45.994
 4807.00    1.20147   1.21632   45.814
 4808.00    1.20500   1.22166   45.518
 4809.00    1.19903   1.22609   45.245
 4810.00    1.18101   1.22795   45.081
 4811.00    1.17033   1.22855   45.076
 4812.00    1.17461   1.23032   45.116
 4813.00    1.19151   1.23426   45.612
 4814.00    1.20646   1.23887   46.835
 4815.00    1.20869   1.24217   47.612
 4816.00    1.21882   1.24411   47.391
 4817.00    1.22318   1.24525   46.524
 4818.00    1.21624   1.24520   45.905
 4819.00    1.21846   1.24376   46.182
 4820.00    1.20979   1.24097   46.721
 4821.00    1.21365   1.23564   46.964
 4822.00    1.20341   1.22634   46.986
 4823.00    1.18274   1.21517   47.408
 4824.00    1.18707   1.20790   47.369
 4825.00    1.20699   1.20826   46.581
 4826.00    1.21245   1.21369   46.023
 4827.00    1.19758   1.21828   45.905
 4828.00    1.18702   1.21900   46.010
 4829.00    1.19804   1.21725   46.288
 4830.00    1.19364   1.21540   46.970
 4831.00    1.19034   1.21385   47.721
 4832.00    1.19759   1.21281   47.690
 4833.00    1.19214   1.21280   47.566
 4834.00    1.19836   1.21366   47.303
 4835.00    1.21259   1.21419   46.927
 4836.00    1.21528   1.21387   46.414
 4837.00    1.21670   1.21313   45.738
 4838.00    1.20644   1.21174   45.687
 4839.00    1.19033   1.20924   46.642
 4840.00    1.16933   1.20680   47.225
 4841.00    1.16778   1.20560   47.090
 4842.00    1.18405   1.20474   46.479
 4843.00    1.19232   1.20327   46.452
 4844.00    1.18764   1.20186   46.755
 4845.00    1.18865   1.20132   47.311
 4846.00    1.19097   1.19996   48.769
 4847.00    1.18161   1.19517   49.918
 4848.00    1.18512   1.18804   49.675
 4849.00    1.17439   1.18265   49.443
 4850.00    1.17081   1.18002   51.330
 4851.00    1.18178   1.17742   56.169
 4852.00    1.16272   1.17133   62.291
 4853.00    1.11441   1.15896   63.923
 4854.00    1.08164   1.13965   -1.000
 4855.00    1.07954   1.11744   54.368
 4856.00    1.10367   1.09698   51.445
 4857.00    1.09151   1.07395   49.798
 4858.00    1.05561   1.03448   48.875
 4859.00    0.97052   0.96625   48.493
 4860.00    0.85936   0.88182   48.406
 4861.00    0.79077   0.82165   49.021
 4862.00    0.81420   0.82397   50.421
 4863.00    0.91827   0.88541   51.343
 4864.00    1.02743   0.96649   -1.000
 4865.00    1.07729   1.03291   49.260
 4866.00    1.08908   1.07764   48.516
 4867.00    1.10911   1.10786   48.178
 4868.00    1.12169   1.12821   47.938
 4869.00    1.12555   1.13742   47.675
 4870.00    1.10116   1.13508   46.993
 4871.00    1.08559   1.12804   46.680
 4872.00    1.08066   1.12732   47.203
 4873.00    1.10990   1.13792   47.902
 4874.00    1.13821   1.15427   48.077
 4875.00    1.15679   1.16763   47.983
 4876.00    1.14975   1.17475   48.358
 4877.00    1.14611   1.17887   49.027
 4878.00    1.16748   1.18510   49.161
 4879.00    1.18336   1.19534   48.919
 4880.00    1.20123   1.20577   49.027
 4881.00    1.20341   1.20984   49.862
 4882.00    1.19357   1.20657   50.677
 4883.00    1.19324   1.20121   49.906
 4884.00    1.19586   1.19862   47.767
 4885.00    1.19064   1.19918   45.710
 4886.00    1.16721   1.20098   44.496
 4887.00    1.15361   1.20186   43.814
 4888.00    1.15155   1.19932   43.692
 4889.00    1.13346   1.19189   43.989
 4890.00    1.11331   1.18192   44.998
 4891.00    1.11219   1.17780   45.941
 4892.00    1.14442   1.18745   46.259
 4893.00    1.18032   1.20821   46.077
 4894.00    1.20993   1.23009   46.271
 4895.00    1.23788   1.24597   46.605
 4896.00    1.23626   1.25465   45.941
 4897.00    1.22424   1.25718   45.088
 4898.00    1.21708   1.25426   44.942
 4899.00    1.20426   1.24715   45.546
 4900.00    1.18747   1.23974   46.728
 4901.00    1.19060   1.23542   47.908
 4902.00    1.20419   1.23335   48.181
 4903.00    1.20913   1.23215   47.447
 4904.00    1.21007   1.23433   46.631
 4905.00    1.21585   1.24190   46.004
 4906.00    1.22263   1.25023   45.454
 4907.00    1.21833   1.25259   45.216
 4908.00    1.20191   1.24765   45.799
 4909.00    1.17771   1.23855   47.684
 4910.00    1.16675   1.22971   50.258
 4911.00    1.19056   1.22555   52.176
 4912.00    1.23158   1.22819   52.097
 4913.00    1.24966   1.23546   50.281
 4914.00    1.25104   1.24365   48.739
 4915.00    1.24769   1.24875   48.227
 4916.00    1.23872   1.24650   48.042
 4917.00    1.21497   1.23313   47.230
 4918.00    1.17695   1.20987   46.082
 4919.00    1.12624   1.18438   45.376
 4920.00    1.10102   1.16727   44.992
 4921.00    1.11292   1.16446   44.697
 4922.00    1.13693   1.17160   44.628
 4923.00    1.13810   1.17979   45.309
 4924.00    1.14320   1.18729   46.689
 4925.00    1.16906   1.19915   47.953
 4926.00    1.20898   1.21639   47.741
 4927.00    1.23304   1.23371   47.095
 4928.00    1.24089   1.24686   47.497
 4929.00    1.25112   1.25508   48.920
 4930.00    1.25808   1.25761   49.741
 4931.00    1.25017   1.25227   48.874
 4932.00    1.22477   1.23835   47.200
 4933.00    1.19426   1.22044   45.881
 4934.00    1.17287   1.20880   45.178
 4935.00    1.17578   1.20884   44.911
 4936.00    1.18122   1.21372   45.044
 4937.00    1.17811   1.21310   45.305
 4938.00    1.15841   1.20665   45.238
 4939.00    1.14888   1.20354   44.775
 4940.00    1.17105   1.21102   44.364
 4941.00    1.19520   1.22753   44.223
 4942.00    1.21090   1.24508   44.167
 4943.00    1.22235   1.25699   44.433
 4944.00    1.22559   1.26135   44.808
 4945.00    1.21291   1.26044   45.347
 4946.00    1.20803   1.25844   46.123
 4947.00    1.21701   1.25902   47.745
 4948.00    1.23048   1.26259   50.084
 4949.00    1.24788   1.26650   51.084
 4950.00    1.26552   1.26833   49.326
 4951.00    1.27698   1.26784   46.831
 4952.00    1.25767   1.26596   45.661
 4953.00    1.23442   1.26281   45.525
 4954.00    1.20977   1.25560   45.802
 4955.00    1.19858   1.23946   46.233
 4956.00    1.17359   1.21386   46.934
 4957.00    1.15413   1.19008   47.814
 4958.00    1.17294   1.18501   48.217
 4959.00    1.20693   1.20226   48.162
 4960.00    1.23725   1.22863   47.942
 4961.00    1.25355   1.24933   47.526
 4962.00    1.25056   1.25959   47.012
 4963.00    1.25131   1.26121   46.485
 4964.00    1.24637   1.25676   45.969
 4965.00    1.21798   1.24843   45.625
 4966.00    1.19651   1.24033   45.625
 4967.00    1.20031   1.23600   46.013
 4968.00    1.20920   1.23583   46.554
 4969.00    1.21110   1.23883   47.239
 4970.00    1.21589   1.24440   47.946
 4971.00    1.22454   1.25097   48.566
 4972.00    1.24133   1.25668   49.591
 4973.00    1.25089   1.26035   51.245
 4974.00    1.25725   1.26151   52.293
 4975.00    1.27194   1.26034   51.887
 4976.00    1.26979   1.25717   50.704
 4977.00    1.25383   1.25235   49.194
 4978.00    1.23745   1.24726   47.756
 4979.00    1.22099   1.24150   47.043
 4980.00    1.20279   1.23163   47.358
 4981.00    1.17820   1.21598   47.992
 4982.00    1.15437   1.19881   48.300
 4983.00    1.14496   1.18819   48.135
 4984.00    1.14408   1.18918   47.783
 4985.00    1.15771   1.20029   47.656
 4986.00    1.19127   1.21658   47.549
 4987.00    1.21737   1.23283   47.301
 4988.00    1.22506   1.24287   47.273
 4989.00    1.21719   1.24293   47.709
 4990.00    1.20356   1.23575   48.487
 4991.00    1.20081   1.22871   49.329
 4992.00    1.20178   1.22702   49.706
 4993.00    1.20205   1.23040   49.523
 4994.00    1.21064   1.23641   49.101
 4995.00    1.23005   1.24321   49.197
 4996.00    1.25322   1.24815   50.150
 4997.00    1.25705   1.24692   51.036
 4998.00    1.24192   1.23666   50.658
 4999.00    1.22199   1.21972   49.256
 5000.00    1.20510   1.20616   48.153
 5001.00    1.19973   1.20382   48.133
 5002.00    1.20592   1.20984   49.127
 5003.00    1.20952   1.21488   50.780
 5004.00    1.20650   1.21236   52.399
 5005.00    1.20041   1.20260   52.979
 5006.00    1.19528   1.19351   52.298
 5007.00    1.21124   1.19441   51.147
 5008.00    1.23561   1.20548   50.445
 5009.00    1.24421   1.21744   50.344
 5010.00    1.23095   1.22111   50.103
 5011.00    1.21089   1.21441   49.590
 5012.00    1.18925   1.20175   49.461
 5013.00    1.16479   1.19025   49.645
 5014.00    1.16230   1.18584   49.578
 5015.00    1.17794   1.18856   49.177
 5016.00    1.18800   1.19208   48.736
 5017.00    1.18447   1.19036   48.662
 5018.00    1.17655   1.18631   48.907
 5019.00    1.18501   1.18887   48.832
 5020.00    1.19992   1.19991   48.154
 5021.00    1.20316   1.21215   47.337
 5022.00    1.20014   1.22040   46.620
 5023.00    1.19589   1.22693   45.960
 5024.00    1.20000   1.23438   45.712
 5025.00    1.20899   1.24097   46.432
 5026.00    1.21236   1.24341   48.120
 5027.00    1.21377   1.24211   49.532
 5028.00    1.22081   1.24059   50.033
 5029.00    1.22746   1.24103   50.405
 5030.00    1.23401   1.24342   51.669
 5031.00    1.25365   1.24795   53.772
 5032.00    1.27206   1.25365   54.944
 5033.00    1.28097   1.25630   53.617
 5034.00    1.27326   1.25206   50.613
 5035.00    1.23871   1.24249   47.985
 5036.00    1.20514   1.23370   46.504
 5037.00    1.19099   1.22850   45.140
 5038.00    1.22039   1.22201   44.885
 5039.00    1.01701   1.20841   -1.000
 5040.00    0.28892   1.19034   -1.000
 5041.00   -0.12371   1.17976    0.000
 5042.00    0.10185   1.18627   -1.000
 5043.00    0.54793   1.20754   -1.000
 5044.00    1.06067   1.23294   -1.000
 5045.00    1.25424   1.25355   46.547
 5046.00    1.26078   1.26478   45.906
 5047.00    1.24669   1.26488   45.621
 5048.00    1.22108   1.25478   45.595
 5049.00    1.19992   1.23910   45.684
 5050.00    1.19117   1.22437   45.717
 5051.00    1.19875   1.21654   45.546
 5052.00    1.22164   1.21972   45.401
 5053.00    1.24832   1.23348   45.733
 5054.00    1.25899   1.25080   46.729
 5055.00    1.26471   1.26369   48.268
 5056.00    1.28452   1.27015   49.401
 5057.00    1.29483   1.27299   49.336
 5058.00    1.28353   1.27489   48.635
 5059.00    1.27219   1.27675   48.199
 5060.00    1.27136   1.27846   48.017
 5061.00    1.27016   1.27898   47.739
 5062.00    1.26097   1.27585   47.793
 5063.00    1.23750   1.26709   48.190
 5064.00    1.21895   1.25460   48.049
 5065.00    1.21194   1.24432   47.553
 5066.00    1.21559   1.24036   47.350
 5067.00    1.22776   1.24107   47.307
 5068.00    1.22980   1.24286   47.538
 5069.00    1.23266   1.24484   48.653
 5070.00    1.24538   1.24696   50.718
 5071.00    1.25809   1.24762   52.163
 5072.00    1.26674   1.24593   51.789
 5073.00    1.27071   1.24351   50.655
 5074.00    1.27087   1.24234   49.794
 5075.00    1.26800   1.24246   48.978
 5076.00    1.26322   1.24165   48.093
 5077.00    1.25253   1.23631   47.538
 5078.00    1.22253   1.22496   47.360
 5079.00    1.18365   1.21242   47.202
 5080.00    1.17089   1.20659   46.901
 5081.00    1.18550   1.20959   46.605
 5082.00    1.20341   1.21660   46.358
 5083.00    1.21549   1.22419   45.948
 5084.00    1.22918   1.23324   45.478
 5085.00    1.24171   1.24341   45.541
 5086.00    1.26124   1.25148   46.281
 5087.00    1.27101   1.25576   47.281
 5088.00    1.26795   1.25803   48.377
 5089.00    1.27354   1.26072   49.465
 5090.00    1.28309   1.26429   49.991
 5091.00    1.28972   1.26817   49.317
 5092.00    1.29709   1.27220   47.946
 5093.00    1.29918   1.27566   47.120
 5094.00    1.30131   1.27643   47.129
 5095.00    1.29013   1.27216   47.623
 5096.00    1.26343   1.26257   48.245
 5097.00    1.24638   1.25003   48.845
 5098.00    1.22978   1.23878   49.453
 5099.00    1.22719   1.23416   49.659
 5100.00    1.24683   1.23877   49.424
 5101.00    1.26720   1.24917   49.079
 5102.00    1.27707   1.25873   48.510
 5103.00    1.27009   1.26348   47.867
 5104.00    1.26987   1.26285   47.283
 5105.00    1.26236   1.25708   46.797
 5106.00    1.23660   1.24660   46.482
 5107.00    1.20954   1.23514   46.086
 5108.00    1.20335   1.22804   45.656
 5109.00    1.20496   1.22761   45.594
 5110.00    1.21307   1.23287   46.024
 5111.00    1.23776   1.24270   46.694
 5112.00    1.25656   1.25485   47.443
 5113.00    1.27004   1.26559   48.501
 5114.00    1.28306   1.27259   49.898
 5115.00    1.29196   1.27686   50.687
 5116.00    1.30634   1.28052   50.511
 5117.00    1.31802   1.28382   50.174
 5118.00    1.31064   1.28503   49.898
 5119.00    1.30474   1.28262   49.833
 5120.00    1.30577   1.27644   49.838
 5121.00    1.28946   1.26711   49.401
 5122.00    1.26699   1.25568   48.615
 5123.00    1.24399   1.24464   48.061
 5124.00    1.22725   1.23758   47.634
 5125.00    1.23181   1.23585   47.199
 5126.00    1.23494   1.23653   46.974
 5127.00    1.22179   1.23614   47.484
 5128.00    1.21668   1.23476   48.557
 5129.00    1.22610   1.23521   49.484
 5130.00    1.24172   1.23943   49.794
 5131.00    1.25901   1.24629   49.509
 5132.00    1.26635   1.25309   49.589
 5133.00    1.27136   1.25835   50.265
 5134.00    1.27793   1.26189   50.356
 5135.00    1.28559   1.26268   49.670
 5136.00    1.27418   1.25893   49.265
 5137.00    1.26349   1.25020   49.528
 5138.00    1.24253   1.23963   49.776
 5139.00    1.23256   1.23263   49.396
 5140.00    1.23335   1.23200   48.997
 5141.00    1.23677   1.23510   49.322
 5142.00    1.22394   1.23822   50.148
 5143.00    1.21978   1.24173   50.675
 5144.00    1.23770   1.24720   50.595
 5145.00    1.25680   1.25239   49.839
 5146.00    1.25941   1.25432   48.654
 5147.00    1.25547   1.25378   47.410
 5148.00    1.25540   1.25270   46.422
 5149.00    1.25045   1.25024   45.921
 5150.00    1.23746   1.24468   45.820
 5151.00    1.22502   1.23735   45.930
 5152.00    1.21785   1.23251   46.164
 5153.00    1.21480   1.23288   46.610
 5154.00    1.22958   1.23839   47.280
 5155.00    1.26338   1.24819   48.764
 5156.00    1.29262   1.26071   52.147
 5157.00    1.31257   1.27230   -1.000
 5158.00    1.33052   1.27982   -1.000
 5159.00    1.33839   1.28265   -1.000
 5160.00    1.34142   1.28162   -1.000
 5161.00    1.33359   1.27775   -1.000
 5162.00    1.32083   1.27203   -1.000
 5163.00    1.31564   1.26317   -1.000
 5164.00    1.30555   1.24508   -1.000
 5165.00    1.25548   1.21064   -1.000
 5166.00    1.18594   1.16226   52.275
 5167.00    1.12320   1.11825   49.692
 5168.00    1.09849   1.09947   48.801
 5169.00    1.12901   1.10840   48.595
 5170.00    1.15505   1.12466   48.926
 5171.00    1.14253   1.12781   50.314
 5172.00    1.11061   1.12196   53.461
 5173.00    1.12273   1.12970   59.068
 5174.00    1.19755   1.16230   64.398
 5175.00    1.27914   1.20647   -1.000
 5176.00    1.31528   1.24182   -1.000
 5177.00    1.32089   1.26079   -1.000
 5178.00    1.31458   1.26757   49.480
 5179.00    1.29865   1.26583   48.800
 5180.00    1.29199   1.25295   48.555
 5181.00    1.25259   1.22389   48.900
 5182.00    1.18283   1.18170   50.212
 5183.00    1.11886   1.14404   51.675
 5184.00    1.13156   1.13394   51.722
 5185.00    1.20343   1.15721   50.920
 5186.00    1.23183   1.19471   50.129
 5187.00    1.20611   1.22292   49.396
 5188.00    1.09761   1.23501   -1.000
 5189.00    0.98145   1.23678   -1.000
 5190.00    0.93609   1.23263   -1.000
 5191.00    0.95991   1.22395   -1.000
 5192.00    1.02538   1.21498   -1.000
 5193.00    1.11171   1.21220   -1.000
 5194.00    1.18964   1.21661   49.097
 5195.00    1.22769   1.22395   50.556
 5196.00    1.25246   1.23136   52.132
 5197.00    1.28066   1.23920   52.633
 5198.00    1.29584   1.24786   -1.000
 5199.00    1.31663   1.25611   -1.000
 5200.00    1.31690   1.26127   -1.000
 5201.00    1.29955   1.26034   51.102
 5202.00    1.30139   1.25159   -1.000
 5203.00    1.27679   1.23545   47.165
 5204.00    1.23025   1.21581   46.011
 5205.00    1.20336   1.19955   46.232
 5206.00    1.20300   1.19168   47.233
 5207.00    1.20926   1.19100   47.928
 5208.00    1.20287   1.19375   47.715
 5209.00    1.19941   1.20068   46.790
 5210.00    1.22252   1.21538   46.013
 5211.00    1.25467   1.23627   45.597
 5212.00    1.28903   1.25571   45.386
 5213.00    1.30282   1.26597   45.830
 5214.00    1.28498   1.26439   47.092
 5215.00    1.27691   1.25516   48.959
 5216.00    1.28324   1.24751   51.218
 5217.00    1.28700   1.24909   52.829
 5218.00    1.32214   1.26014   -1.000
 5219.00    1.34274   1.27453   -1.000
 5220.00    1.33682   1.28595   -1.000
 5221.00    1.32140   1.29158   46.311
 5222.00    1.32029   1.29010   46.122
 5223.00    1.30074   1.27950   46.895
 5224.00    1.27212   1.25794   47.767
 5225.00    1.22458   1.22824   47.818
 5226.00    1.18631   1.20154   46.867
 5227.00    1.18031   1.19285   45.740
 5228.00    1.20833   1.20728   45.132
 5229.00    1.24633   1.23353   45.024
 5230.00    1.27107   1.25397   45.145
 5231.00    1.27273   1.25915   45.101
 5232.00    1.25506   1.25168   44.858
 5233.00    1.24618   1.24182   44.875
 5234.00    1.24337   1.23990   44.810
 5235.00    1.25247   1.24924   44.734
 5236.00    1.26495   1.26477   45.493
 5237.00    1.28735   1.27873   46.863
 5238.00    1.31224   1.28691   48.018
 5239.00    1.32648   1.28988   48.274
 5240.00    1.32672   1.29030   48.358
 5241.00    1.32330   1.29003   48.641
 5242.00    1.32321   1.28999   48.483
 5243.00    1.32338   1.29072   47.860
 5244.00    1.32951   1.29134   47.357
 5245.00    1.32635   1.28898   47.306
 5246.00    1.30579   1.28167   47.012
 5247.00    1.28977   1.27192   45.998
 5248.00    1.27488   1.26420   44.764
 5249.00    1.26124   1.25986   44.270
 5250.00    1.23584   1.25808   44.598
 5251.00    1.23355   1.25914   45.738
 5252.00    1.25440   1.26265   47.613
 5253.00    1.26944   1.26601   49.867
 5254.00    1.28230   1.26792   51.674
 5255.00    1.30906   1.27096   52.816
 5256.00    1.33003   1.27829   -1.000
 5257.00    1.36128   1.28859   -1.000
 5258.00    1.37445   1.29626   -1.000
 5259.00    1.35244   1.29604   -1.000
 5260.00    1.34163   1.28590   -1.000
 5261.00    1.31671   1.26717   -1.000
 5262.00    1.27404   1.24431   50.606
 5263.00    1.24237   1.22272   48.339
 5264.00    1.21985   1.20674   47.707
 5265.00    1.20969   1.19893   47.697
 5266.00    1.22802   1.19837   47.601
 5267.00    1.22571   1.19837   46.750
 5268.00    1.20388   1.19078   45.197
 5269.00    1.16904   1.17768   44.292
 5270.00    1.15822   1.17352   44.477
 5271.00    1.18175   1.18868   45.497
 5272.00    1.22893   1.21549   46.685
 5273.00    1.25408   1.23724   47.568
 5274.00    1.26247   1.24676   47.848
 5275.00    1.27364   1.25040   46.957
 5276.00    1.28664   1.25743   45.541
 5277.00    1.30362   1.27047   44.103
 5278.00    1.24463   1.28396   43.701
 5279.00    1.26966   1.28994   43.904
 5280.00    1.28954   1.28546   43.915
 5281.00    1.27754   1.27387   43.670
 5282.00    1.25380   1.26152   43.567
 5283.00    1.24970   1.25519   43.805
 5284.00    1.26106   1.25972   44.215
 5285.00    1.28854   1.27462   44.796
 5286.00    1.32423   1.29292   45.986
 5287.00    1.32362   1.30663   47.738
 5288.00    1.34363   1.31326   49.053
 5289.00    1.37340   1.31539   -1.000
 5290.00    1.37263   1.31550   -1.000
 5291.00    1.35725   1.31440   46.700
 5292.00    1.34455   1.31266   46.381
 5293.00    1.34251   1.31044   45.820
 5294.00    1.34030   1.30620   44.602
 5295.00    1.31211   1.29742   43.766
 5296.00    1.27188   1.28397   43.632
 5297.00    1.23786   1.27046   44.047
 5298.00    1.23230   1.26348   44.433
 5299.00    1.25155   1.26564   44.159
 5300.00    1.27517   1.27312   43.696
 5301.00    1.27546   1.28079   43.412
 5302.00    1.27240   1.28773   43.450
 5303.00    1.28218   1.29544   43.693
 5304.00    1.29477   1.30311   43.883
 5305.00    1.32365   1.30765   44.201
 5306.00    1.31487   1.30777   44.640
 5307.00    1.30285   1.30602   45.037
 5308.00    1.30495   1.30610   45.055
 5309.00    1.31544   1.30900   44.721
 5310.00    1.31718   1.31257   44.529
 5311.00    1.33570   1.31420   44.693
 5312.00    1.32552   1.31295   45.009
 5313.00    1.32514   1.30872   45.541
 5314.00    1.31958   1.30119   46.344
 5315.00    1.30991   1.29131   46.773
 5316.00    1.30311   1.28304   46.750
 5317.00    1.30248   1.28130   48.053
 5318.00    1.33292   1.28706   -1.000
 5319.00    1.35454   1.29584   -1.000
 5320.00    1.33459   1.30159   50.714
 5321.00    1.32313   1.30072   47.650
 5322.00    1.30641   1.29291   46.140
 5323.00    1.30390   1.28127   45.672
 5324.00    1.30654   1.27033   45.235
 5325.00    1.29865   1.26006   44.705
 5326.00    1.26956   1.24479   44.520
 5327.00    1.20723   1.22333   44.821
 5328.00    1.17132   1.20737   45.112
 5329.00    1.19906   1.21172   45.614
 5330.00    1.26003   1.23614   46.796
 5331.00    1.29133   1.26442   47.606
 5332.00    1.31020   1.28272   47.167
 5333.00    1.33208   1.29050   45.853
 5334.00    1.33064   1.29291   45.049
 5335.00    1.31651   1.29286   45.080
 5336.00    1.31050   1.29103   45.388
 5337.00    1.31102   1.28742   45.680
 5338.00    1.30465   1.28137   45.901
 5339.00    1.29382   1.27292   46.328
 5340.00    1.27420   1.26566   46.421
 5341.00    1.26744   1.26553   45.656
 5342.00    1.29580   1.27393   44.573
 5343.00    1.31666   1.28474   44.047
 5344.00    1.33160   1.29082   43.930
 5345.00    1.30052   1.29062   43.568
 5346.00    1.28341   1.28692   42.995
 5347.00    1.28559   1.28277   42.688
 5348.00    1.26086   1.27994   42.751
 5349.00    1.26359   1.28019   42.817
 5350.00    1.29533   1.28512   42.981
 5351.00    1.30635   1.29362   43.513
 5352.00    1.30361   1.30210   44.263
 5353.00    1.30900   1.30856   44.904
 5354.00    1.32652   1.31376   45.193
 5355.00    1.31762   1.31887   45.453
 5356.00    1.32915   1.32333   45.727
 5357.00    1.34086   1.32585   45.551
 5358.00    1.34701   1.32598   45.567
 5359.00    1.34023   1.32375   46.079
 5360.00    1.34959   1.31898   47.292
 5361.00    1.34784   1.31192   48.737
 5362.00    1.34582   1.30373   -1.000
 5363.00    1.33949   1.29610   -1.000
 5364.00    1.32657   1.29054   44.621
 5365.00    1.31348   1.28794   43.626
 5366.00    1.29069   1.28766   43.369
 5367.00    1.29020   1.28681   43.531
 5368.00    1.28833   1.28140   43.537
 5369.00    1.26507   1.26940   43.635
 5370.00    1.23117   1.25447   43.908
 5371.00    1.22253   1.24614   44.359
 5372.00    1.24655   1.25264   44.789
 5373.00    1.28825   1.27208   44.980
 5374.00    1.31560   1.29377   44.923
 5375.00    1.32863   1.30846   44.685
 5376.00    1.33283   1.31477   44.197
 5377.00    1.33638   1.31635   44.158
 5378.00    1.33232   1.31588   44.390
 5379.00    1.32538   1.31317   44.853
 5380.00    1.31201   1.30796   45.555
 5381.00    1.31983   1.30182   46.033
 5382.00    1.32815   1.29730   46.203
 5383.00    1.32809   1.29632   46.218
 5384.00    1.32634   1.29937   46.383
 5385.00    1.33721   1.30542   46.761
 5386.00    1.34954   1.31175   47.424
 5387.00    1.34959   1.31507   48.360
 5388.00    1.35052   1.31358   48.213
 5389.00    1.34772   1.30798   -1.000
 5390.00    1.33548   1.30063   45.401
 5391.00    1.31052   1.29385   45.242
 5392.00    1.29693   1.28871   45.370
 5393.00    1.29453   1.28502   45.827
 5394.00    1.29149   1.28092   47.326
 5395.00    1.29272   1.27338   48.812
 5396.00    1.28940   1.26285   49.374
 5397.00    1.29166   1.25629   48.694
 5398.00    1.31292   1.26050   -1.000
 5399.00    1.32514   1.27341   -1.000
 5400.00    1.33863   1.28650   -1.000
 5401.00    1.33839   1.29282   -1.000
 5402.00    1.33052   1.28955   -1.000
 5403.00    1.30286   1.27683   45.100
 5404.00    1.26065   1.25903   44.723
 5405.00    1.24298   1.24520   44.789
 5406.00    1.25487   1.24322   44.771
 5407.00    1.27383   1.25169   44.408
 5408.00    1.27571   1.26127   44.179
 5409.00    1.26393   1.26575   44.428
 5410.00    1.26822   1.26831   44.874
 5411.00    1.27776   1.27482   45.077
 5412.00    1.29069   1.28462   44.857
 5413.00    1.31844   1.29199   44.768
 5414.00    1.32503   1.29477   45.446
 5415.00    1.31471   1.29619   45.733
 5416.00    1.30913   1.29942   45.135
 5417.00    1.32225   1.30388   44.455
 5418.00    1.34664   1.30703   44.805
 5419.00    1.34733   1.30799   -1.000
 5420.00    1.33527   1.30738   47.492
 5421.00    1.34911   1.30539   -1.000
 5422.00    1.34416   1.30157   -1.000
 5423.00    1.32022   1.29653   46.658
 5424.00    1.31138   1.29323   47.366
 5425.00    1.32241   1.29502   47.802
 5426.00    1.34303   1.30032   -1.000
 5427.00    1.35388   1.30189   -1.000
 5428.00    1.33103   1.29463   45.133
 5429.00    1.27682   1.28314   44.259
 5430.00    1.25791   1.27690   43.699
 5431.00    1.27444   1.27812   43.397
 5432.00    1.29883   1.27978   43.356
 5433.00    1.28712   1.27614   43.426
 5434.00    1.27576   1.27059   44.029
 5435.00    1.28203   1.27149   45.363
 5436.00    1.29800   1.28212   47.246
 5437.00    1.31264   1.29785   48.474
 5438.00    1.34336   1.31209   47.764
 5439.00    1.35498   1.32159   46.165
 5440.00    1.34884   1.32685   45.034
 5441.00    1.35898   1.32930   44.743
 5442.00    1.35682   1.32872   44.843
 5443.00    1.34274   1.32278   45.366
 5444.00    1.32235   1.30893   46.527
 5445.00    1.28613   1.28860   47.834
 5446.00    1.26656   1.26979   48.543
 5447.00    1.28000   1.26271   47.520
 5448.00    1.31825   1.27080   -1.000
 5449.00    1.34423   1.28756   -1.000
 5450.00    1.34334   1.30280   44.782
 5451.00    1.34537   1.31000   45.428
 5452.00    1.34593   1.30768   46.267
 5453.00    1.33840   1.29678   -1.000
 5454.00    1.30687   1.28092   46.871
 5455.00    1.28024   1.26839   46.225
 5456.00    1.29058   1.26834   45.756
 5457.00    1.32756   1.28196   -1.000
 5458.00    1.35087   1.30055   -1.000
 5459.00    1.34086   1.31362   44.994
 5460.00    1.34280   1.31705   45.479
 5461.00    1.34085   1.31278   45.892
 5462.00    1.33396   1.30522   46.043
 5463.00    1.33845   1.29956   46.336
 5464.00    1.33450   1.29926   46.869
 5465.00    1.34621   1.30352   -1.000
 5466.00    1.37186   1.30888   -1.000
 5467.00    1.36169   1.31309   -1.000
 5468.00    1.35692   1.31604   -1.000
 5469.00    1.37571   1.31791   -1.000
 5470.00    1.36821   1.31792   -1.000
 5471.00    1.35893   1.31544   -1.000
 5472.00    1.36429   1.31095   -1.000
 5473.00    1.35805   1.30467   -1.000
 5474.00    1.32732   1.29563   46.030
 5475.00    1.31443   1.28384   45.201
 5476.00    1.29081   1.27346   45.041
 5477.00    1.28314   1.27145   45.595
 5478.00    1.31036   1.27999   46.175
 5479.00    1.33561   1.29231   -1.000
 5480.00    1.35509   1.30022   -1.000
 5481.00    1.33790   1.30247   45.903
 5482.00    1.33512   1.30352   45.609
 5483.00    1.34529   1.30729   45.519
 5484.00    1.34587   1.31333   45.622
 5485.00    1.35968   1.31804   -1.000
 5486.00    1.35815   1.31869   45.700
 5487.00    1.34236   1.31588   46.062
 5488.00    1.34275   1.31248   46.239
 5489.00    1.34946   1.31094   45.871
 5490.00    1.35329   1.31198   -1.000
 5491.00    1.35261   1.31467   46.092
 5492.00    1.35731   1.31720   -1.000
 5493.00    1.35499   1.31796   46.592
 5494.00    1.33908   1.31618   46.249
 5495.00    1.35201   1.31166   -1.000
 5496.00    1.34678   1.30527   -1.000
 5497.00    1.33090   1.30009   47.220
 5498.00    1.33429   1.29907   46.625
 5499.00    1.34173   1.30061   -1.000
 5500.00    1.34070   1.30013   -1.000
 5501.00    1.32901   1.29687   46.492
 5502.00    1.33116   1.29489   47.417
 5503.00    1.34474   1.29657   -1.000
 5504.00    1.35917   1.29827   -1.000
 5505.00    1.36005   1.29550   -1.000
 5506.00    1.33916   1.29016   -1.000
 5507.00    1.33462   1.28856   -1.000
 5508.00    1.35179   1.29351   -1.000
 5509.00    1.36190   1.30087   -1.000
 5510.00    1.35043   1.30434   -1.000
 5511.00    1.34598   1.30211   -1.000
 5512.00    1.34193   1.29730   -1.000
 5513.00    1.33377   1.29399   44.827
 5514.00    1.34497   1.29450   -1.000
 5515.00    1.36387   1.29891   -1.000
 5516.00    1.37406   1.30593   -1.000
 5517.00    1.36978   1.31379   -1.000
 5518.00    1.37696   1.32046   -1.000
 5519.00    1.38217   1.32439   -1.000
 5520.00    1.38375   1.32544   -1.000
 5521.00    1.37586   1.32506   -1.000
 5522.00    1.37205   1.32475   -1.000
 5523.00    1.37660   1.32392   -1.000
 5524.00    1.36602   1.31988   -1.000
 5525.00    1.34476   1.31002   46.114
 5526.00    1.33661   1.29511   -1.000
 5527.00    1.31372   1.28092   45.549
 5528.00    1.30283   1.27513   45.430
 5529.00    1.31411   1.28125   45.141
 5530.00    1.33831   1.29480   -1.000
 5531.00    1.35453   1.30691   -1.000
 5532.00    1.35107   1.31154   -1.000
 5533.00    1.34524   1.30914   45.173
 5534.00    1.33467   1.30490   45.513
 5535.00    1.33534   1.30419   45.522
 5536.00    1.34371   1.30839   45.386
 5537.00    1.35697   1.31479   -1.000
 5538.00    1.36702   1.32046   -1.000
 5539.00    1.37596   1.32447   -1.000
 5540.00    1.38038   1.32680   -1.000
 5541.00    1.37154   1.32713   -1.000
 5542.00    1.36529   1.32530   -1.000
 5543.00    1.35764   1.32239   44.953
 5544.00    1.36101   1.32033   -1.000
 5545.00    1.36192   1.32020   -1.000
 5546.00    1.36238   1.32183   -1.000
 5547.00    1.36954   1.32504   -1.000
 5548.00    1.37125   1.32959   -1.000
 5549.00    1.37846   1.33391   -1.000
 5550.00    1.38785   1.33588   -1.000
 5551.00    1.38668   1.33500   -1.000
 5552.00    1.37813   1.33264   -1.000
 5553.00    1.36941   1.33025   -1.000
 5554.00    1.36111   1.32855   46.269
 5555.00    1.34899   1.32788   46.374
 5556.00    1.35546   1.32821   46.449
 5557.00    1.36338   1.32906   46.438
 5558.00    1.36406   1.32993   46.330
 5559.00    1.36451   1.33058   46.323
 5560.00    1.35655   1.33043   46.410
 5561.00    1.35802   1.32870   46.377
 5562.00    1.35633   1.32583   46.438
 5563.00    1.30442   1.32337   46.452
 5564.00    1.07820   1.32205   -1.000
 5565.00    0.10734   1.32099   -1.000
 5566.00   -3.08949   1.31916    0.000
 5567.00   -8.47831   1.31656    0.000
 5568.00  -11.57602   1.31386    0.000
 5569.00   -8.25567   1.31185    0.000
 5570.00   -1.89602   1.31037    0.000
 5571.00    1.17000   1.30815   -1.000
 5572.00    1.35214   1.30566   -1.000
 5573.00    1.30169   1.30537   45.724
 5574.00    1.33885   1.30821   45.803
 5575.00    1.35132   1.31275   -1.000
 5576.00    1.35144   1.31727   -1.000
 5577.00    1.34677   1.32109   48.713
 5578.00    1.36364   1.32420   -1.000
 5579.00    1.38537   1.32621   -1.000
 5580.00    1.38512   1.32640   -1.000
 5581.00    1.36836   1.32516   -1.000
 5582.00    1.36087   1.32390   -1.000
 5583.00    1.36299   1.32245   -1.000
 5584.00    1.35192   1.31797   -1.000
 5585.00    1.32568   1.30787   46.934
 5586.00    1.30939   1.29373   46.356
 5587.00    1.29661   1.28093   46.352
 5588.00    1.29318   1.27475   47.012
 5589.00    1.30872   1.27716   47.718
 5590.00    1.32790   1.28594   -1.000
 5591.00    1.34534   1.29596   -1.000
 5592.00    1.35142   1.30241   -1.000
 5593.00    1.34444   1.30457   -1.000
 5594.00    1.34137   1.30584   -1.000
 5595.00    1.34719   1.30884   -1.000
 5596.00    1.34963   1.31139   -1.000
 5597.00    1.34585   1.30988   -1.000
 5598.00    1.33433   1.30503   44.649
 5599.00    1.32497   1.29978   44.736
 5600.00    1.32708   1.29490   44.766
 5601.00    1.32891   1.29107   -1.000
 5602.00    1.31808   1.29153   44.685
 5603.00    1.31910   1.29892   45.255
 5604.00    1.34762   1.31172   -1.000
 5605.00    1.36979   1.32505   -1.000
 5606.00    1.37960   1.33477   -1.000
 5607.00    1.39251   1.34001   -1.000
 5608.00    1.39719   1.34237   -1.000
 5609.00    1.39710   1.34377   -1.000
 5610.00    1.39751   1.34494   -1.000
 5611.00    1.40162   1.34461   -1.000
 5612.00    1.39442   1.33983   -1.000
 5613.00    1.37515   1.32846   -1.000
 5614.00    1.33371   1.31300   47.287
 5615.00    1.30546   1.30157   47.623
 5616.00    1.31836   1.30112   47.048
 5617.00    1.34283   1.31014   46.276
 5618.00    1.36674   1.32114   -1.000
 5619.00    1.37995   1.32860   -1.000
 5620.00    1.39181   1.33210   -1.000
 5621.00    1.39155   1.33307   -1.000
 5622.00    1.38142   1.33153   -1.000
 5623.00    1.36811   1.32732   -1.000
 5624.00    1.35124   1.32271   45.401
 5625.00    1.35020   1.32118   45.703
 5626.00    1.36155   1.32399   -1.000
 5627.00    1.36679   1.32901   -1.000
 5628.00    1.36887   1.33359   -1.000
 5629.00    1.37404   1.33686   -1.000
 5630.00    1.37886   1.33890   -1.000
 5631.00    1.37930   1.33976   -1.000
 5632.00    1.38102   1.33944   -1.000
 5633.00    1.39166   1.33835   -1.000
 5634.00    1.39648   1.33696   -1.000
 5635.00    1.37883   1.33504   -1.000
 5636.00    1.36749   1.33236   -1.000
 5637.00    1.36906   1.32966   -1.000
 5638.00    1.37371   1.32769   -1.000
 5639.00    1.37509   1.32619   -1.000
 5640.00    1.37060   1.32468   -1.000
 5641.00    1.36926   1.32372   -1.000
 5642.00    1.36366   1.32438   -1.000
 5643.00    1.35881   1.32666   45.215
 5644.00    1.37206   1.32933   -1.000
 5645.00    1.38308   1.33133   -1.000
 5646.00    1.38038   1.33252   -1.000
 5647.00    1.38465   1.33324   -1.000
 5648.00    1.38536   1.33371   -1.000
 5649.00    1.37925   1.33397   -1.000
 5650.00    1.38716   1.33437   -1.000
 5651.00    1.39197   1.33522   -1.000
 5652.00    1.38334   1.33603   -1.000
 5653.00    1.38088   1.33588   -1.000
 5654.00    1.37946   1.33363   -1.000
 5655.00    1.36525   1.32759   -1.000
 5656.00    1.33907   1.31672   46.112
 5657.00    1.31964   1.30396   46.399
 5658.00    1.31344   1.29607   46.549
 5659.00    1.31732   1.29712   46.491
 5660.00    1.33346   1.30417   46.256
 5661.00    1.35161   1.31117   -1.000
 5662.00    1.34623   1.31616   45.443
 5663.00    1.33541   1.32156   44.994
 5664.00    1.34963   1.32759   44.824
 5665.00    1.36117   1.33068   44.943
 5666.00    1.35411   1.32885   44.925
 5667.00    1.34249   1.32447   44.808
 5668.00    1.33877   1.32166   44.923
 5669.00    1.34326   1.32248   45.141
 5670.00    1.35394   1.32609   45.371
 5671.00    1.36445   1.33069   45.806
 5672.00    1.37156   1.33493   -1.000
 5673.00    1.37155   1.33803   46.642
 5674.00    1.37362   1.33989   -1.000
 5675.00    1.38593   1.34113   -1.000
 5676.00    1.38880   1.34227   -1.000
 5677.00    1.38397   1.34295   -1.000
 5678.00    1.37889   1.34235   -1.000
 5679.00    1.37268   1.33999   -1.000
 5680.00    1.36687   1.33575   46.001
 5681.00    1.34856   1.32990   45.395
 5682.00    1.33777   1.32366   45.077
 5683.00    1.34572   1.31942   44.924
 5684.00    1.34983   1.31892   44.940
 5685.00    1.35398   1.32113   -1.000
 5686.00    1.35945   1.32320   -1.000
 5687.00    1.35301   1.32351   45.418
 5688.00    1.34412   1.32307   45.936
 5689.00    1.35543   1.32400   -1.000
 5690.00    1.37121   1.32742   -1.000
 5691.00    1.37957   1.33251   -1.000
 5692.00    1.38760   1.33734   -1.000
 5693.00    1.38792   1.34053   -1.000
 5694.00    1.38642   1.34203   -1.000
 5695.00    1.38475   1.34241   -1.000
 5696.00    1.37038   1.34192   47.033
 5697.00    1.36374   1.34007   47.858
 5698.00    1.37221   1.33648   -1.000
 5699.00    1.37434   1.33172   -1.000
 5700.00    1.36831   1.32720   -1.000
 5701.00    1.37066   1.32451   -1.000
 5702.00    1.37509   1.32475   -1.000
 5703.00    1.37858   1.32728   -1.000
 5704.00    1.37541   1.32949   -1.000
 5705.00    1.36315   1.32879   -1.000
 5706.00    1.34863   1.32429   45.416
 5707.00    1.33520   1.31676   45.287
 5708.00    1.31380   1.30829   45.087
 5709.00    1.30073   1.30188   44.813
 5710.00    1.29089   1.30021   44.575
 5711.00    1.30272   1.30431   44.440
 5712.00    1.31347   1.31261   44.364
 5713.00    1.32561   1.32188   44.307
 5714.00    1.34959   1.32935   44.365
 5715.00    1.36195   1.33433   44.666
 5716.00    1.36477   1.33769   45.124
 5717.00    1.36842   1.34018   45.523
 5718.00    1.37575   1.34222   -1.000
 5719.00    1.38044   1.34429   -1.000
 5720.00    1.36982   1.34648   45.170
 5721.00    1.36712   1.34835   45.388
 5722.00    1.37082   1.34962   45.337
 5723.00    1.37846   1.35014   44.952
 5724.00    1.38125   1.34930   44.613
 5725.00    1.37249   1.34640   44.570
 5726.00    1.36731   1.34216   44.632
 5727.00    1.36482   1.33864   44.744
 5728.00    1.36258   1.33740   44.809
 5729.00    1.36467   1.33832   44.885
 5730.00    1.36534   1.34015   44.964
 5731.00    1.36944   1.34193   45.055
 5732.00    1.37020   1.34377   45.005
 5733.00    1.37166   1.34625   44.937
 5734.00    1.38057   1.34881   44.684
 5735.00    1.37417   1.35013   44.407
 5736.00    1.36199   1.35009   44.528
 5737.00    1.36552   1.34957   44.941
 5738.00    1.36989   1.34923   45.191
 5739.00    1.37008   1.34930   45.024
 5740.00    1.37084   1.34959   44.838
 5741.00    1.36802   1.34960   45.074
 5742.00    1.37207   1.34938   45.596
 5743.00    1.37882   1.34963   46.084
 5744.00    1.38395   1.35049   -1.000
 5745.00    1.38495   1.35095   -1.000
 5746.00    1.38137   1.35013   -1.000
 5747.00    1.37275   1.34859   44.299
 5748.00    1.36767   1.34792   44.288
 5749.00    1.36495   1.34858   44.724
 5750.00    1.36711   1.34881   45.303
 5751.00    1.35754   1.34655   45.921
 5752.00    1.34987   1.34193   46.244
 5753.00    1.35275   1.33785   45.897
 5754.00    1.35306   1.33769   45.124
 5755.00    1.35020   1.34211   44.506
 5756.00    1.36054   1.34880   44.285
 5757.00    1.36593   1.35468   44.232
 5758.00    1.35429   1.35742   44.165
 5759.00    1.35496   1.35596   44.218
 5760.00    1.35913   1.35106   44.358
 5761.00    1.34721   1.34516   44.586
 5762.00    1.33595   1.34158   44.861
 5763.00    1.33817   1.34292   45.009
 5764.00    1.34355   1.34857   45.071
 5765.00    1.35015   1.35477   45.006
 5766.00    1.35614   1.35836   44.802
 5767.00    1.35009   1.35920   44.718
 5768.00    1.34359   1.35860   44.828
 5769.00    1.33306   1.35747   45.384
 5770.00    1.31769   1.35612   46.357
 5771.00    1.31964   1.35470   47.062
 5772.00    1.33760   1.35316   47.102
 5773.00    1.36358   1.35113   46.919
 5774.00    1.38052   1.34863   -1.000
 5775.00    1.38368   1.34658   -1.000
 5776.00    1.38653   1.34562   -1.000
 5777.00    1.38869   1.34474   -1.000
 5778.00    1.38162   1.34250   -1.000
 5779.00    1.37107   1.33858   -1.000
 5780.00    1.36292   1.33385   45.285
 5781.00    1.36430   1.32975   -1.000
 5782.00    1.36584   1.32757   -1.000
 5783.00    1.36848   1.32751   -1.000
 5784.00    1.36798   1.32879   -1.000
 5785.00    1.36054   1.33076   44.270
 5786.00    1.34819   1.33330   44.491
 5787.00    1.34120   1.33626   44.780
 5788.00    1.35203   1.33913   44.652
 5789.00    1.37794   1.34123   -1.000
 5790.00    1.38251   1.34236   -1.000
 5791.00    1.35373   1.34346   43.335
 5792.00    1.34845   1.34601   43.635
 5793.00    1.35967   1.35028   43.990
 5794.00    1.36103   1.35477   44.346
 5795.00    1.36865   1.35722   44.571
 5796.00    1.38689   1.35676   -1.000
 5797.00    1.38513   1.35500   -1.000
 5798.00    1.37753   1.35463   44.209
 5799.00    1.37062   1.35669   44.188
 5800.00    1.38222   1.35994   44.154
 5801.00    1.38767   1.36257   44.003
 5802.00    1.36941   1.36331   43.866
 5803.00    1.37321   1.36215   43.924
 5804.00    1.37149   1.36043   44.256
 5805.00    1.37939   1.35977   44.489
 5806.00    1.37863   1.36065   44.316
 5807.00    1.38034   1.36240   44.013
 5808.00    1.38244   1.36398   43.763
 5809.00    1.39705   1.36490   -1.000
 5810.00    1.38375   1.36544   43.391
 5811.00    1.38255   1.36579   43.435
 5812.00    1.39197   1.36549   43.583
 5813.00    1.38039   1.36388   43.534
 5814.00    1.38031   1.36114   43.464
 5815.00    1.38357   1.35872   43.385
 5816.00    1.37795   1.35840   43.339
 5817.00    1.37911   1.36057   43.346
 5818.00    1.39157   1.36382   43.426
 5819.00    1.39110   1.36645   43.359
 5820.00    1.39546   1.36796   43.358
 5821.00    1.38741   1.36870   43.307
 5822.00    1.37969   1.36896   43.378
 5823.00    1.37538   1.36887   43.652
 5824.00    1.38705   1.36870   43.748
 5825.00    1.39842   1.36892   43.620
 5826.00    1.40205   1.36977   -1.000
 5827.00    1.39908   1.37110   43.647
 5828.00    1.38299   1.37261   43.754
 5829.00    1.38096   1.37377   43.635
 5830.00    1.39806   1.37406   43.324
 5831.00    1.39013   1.37347   43.088
 5832.00    1.37558   1.37223   43.079
 5833.00    1.38259   1.37055   43.215
 5834.00    1.39240   1.36900   43.383
 5835.00    1.38470   1.36834   43.666
 5836.00    1.38099   1.36886   43.890
 5837.00    1.38522   1.37029   44.107
 5838.00    1.39086   1.37220   44.077
 5839.00    1.39777   1.37408   44.138
 5840.00    1.40247   1.37528   44.380
 5841.00    1.39436   1.37533   44.659
 5842.00    1.37732   1.37411   45.093
 5843.00    1.39373   1.37181   45.324
 5844.00    1.40705   1.36902   -1.000
 5845.00    1.39658   1.36641   -1.000
 5846.00    1.38119   1.36439   45.904
 5847.00    1.38903   1.36302   -1.000
 5848.00    1.40458   1.36193   -1.000
 5849.00    1.39839   1.36038   -1.000
 5850.00    1.40441   1.35747   -1.000
 5851.00    1.40982   1.35269   -1.000
 5852.00    1.39713   1.34692   -1.000
 5853.00    1.38547   1.34232   -1.000
 5854.00    1.37973   1.33968   -1.000
 5855.00    1.36224   1.33697   44.954
 5856.00    1.35309   1.33243   45.174
 5857.00    1.32802   1.32806   45.137
 5858.00    1.32744   1.32761   44.717
 5859.00    1.36171   1.33208   -1.000
 5860.00    1.38614   1.33880   -1.000
 5861.00    1.37919   1.34461   -1.000
 5862.00    1.37419   1.34836   44.244
 5863.00    1.37085   1.35023   44.253
 5864.00    1.37516   1.35026   44.187
 5865.00    1.37915   1.34864   44.314
 5866.00    1.36682   1.34682   44.506
 5867.00    1.36273   1.34691   44.572
 5868.00    1.38965   1.34963   -1.000
 5869.00    1.40506   1.35358   -1.000
 5870.00    1.39599   1.35671   -1.000
 5871.00    1.39714   1.35782   -1.000
 5872.00    1.40275   1.35692   -1.000
 5873.00    1.39083   1.35474   -1.000
 5874.00    1.38760   1.35210   -1.000
 5875.00    1.39514   1.34970   -1.000
 5876.00    1.34719   1.34783   46.040
 5877.00    1.19887   1.34590   -1.000
 5878.00    0.84124   1.34319   -1.000
 5879.00    0.33842   1.34004   -1.000
 5880.00    0.09069   1.33730   -1.000
 5881.00    0.34706   1.33502   -1.000
 5882.00    0.86011   1.33244   -1.000
 5883.00    1.14519   1.32899   -1.000
 5884.00    1.02175   1.32459   -1.000
 5885.00    0.74323   1.31796   -1.000
 5886.00    0.61251   1.30468   -1.000
 5887.00    0.75432   1.27947   -1.000
 5888.00    1.02757   1.24443   -1.000
 5889.00    1.22228   1.21376   47.557
 5890.00    1.27890   1.20348   -1.000
 5891.00    1.27625   1.21530   -1.000
 5892.00    1.30814   1.23464   -1.000
 5893.00    1.32727   1.24390   -1.000
 5894.00    1.30746   1.23743   -1.000
 5895.00    1.28711   1.22555   -1.000
 5896.00    1.28889   1.22395   -1.000
 5897.00    1.31700   1.23818   -1.000
 5898.00    1.34613   1.26070   -1.000
 5899.00    1.35357   1.28207   -1.000
 5900.00    1.35899   1.29871   -1.000
 5901.00    1.36643   1.31096   -1.000
 5902.00    1.37114   1.31970   -1.000
 5903.00    1.38253   1.32547   -1.000
 5904.00    1.36526   1.32894   -1.000
 5905.00    1.34612   1.33103   46.615
 5906.00    1.34471   1.33247   46.327
 5907.00    1.38423   1.33373   -1.000
 5908.00    1.39668   1.33514   -1.000
 5909.00    1.37681   1.33647   -1.000
 5910.00    1.37115   1.33690   -1.000
 5911.00    1.37378   1.33553   -1.000
 5912.00    1.36244   1.33192   -1.000
 5913.00    1.34862   1.32670   45.564
 5914.00    1.34444   1.32172   45.428
 5915.00    1.35418   1.31887   -1.000
 5916.00    1.36490   1.31886   -1.000
 5917.00    1.35799   1.32117   -1.000
 5918.00    1.37177   1.32464   -1.000
 5919.00    1.36643   1.32794   -1.000
 5920.00    1.37870   1.33015   -1.000
 5921.00    1.39400   1.33125   -1.000
 5922.00    1.35885   1.33183   45.376
 5923.00    1.34220   1.33282   45.770
 5924.00    1.36140   1.33488   46.077
 5925.00    1.40344   1.33759   -1.000
 5926.00    1.38641   1.33973   -1.000
 5927.00    1.39388   1.34005   -1.000
 5928.00    1.38579   1.33817   -1.000
 5929.00    1.37242   1.33555   -1.000
 5930.00    1.35330   1.33445   45.961
 5931.00    1.34773   1.33546   46.178
 5932.00    1.36341   1.33709   46.115
 5933.00    1.35691   1.33771   45.815
 5934.00    1.35541   1.33724   45.551
 5935.00    1.35217   1.33700   45.383
 5936.00    1.35735   1.33794   45.554
 5937.00    1.35973   1.33920   46.000
 5938.00    1.36343   1.33898   46.495
 5939.00    1.35484   1.33669   46.538
 5940.00    1.36775   1.33358   -1.000
 5941.00    1.37594   1.33117   -1.000
 5942.00    1.37806   1.33030   -1.000
 5943.00    1.38372   1.33131   -1.000
 5944.00    1.39271   1.33364   -1.000
 5945.00    1.39386   1.33559   -1.000
 5946.00    1.40035   1.33568   -1.000
 5947.00    1.38605   1.33422   -1.000
 5948.00    1.37432   1.33313   -1.000
 5949.00    1.36791   1.33385   -1.000
 5950.00    1.36194   1.33567   45.171
 5951.00    1.35407   1.33715   45.034
 5952.00    1.35769   1.33785   45.000
 5953.00    1.36085   1.33782   45.131
 5954.00    1.35379   1.33673   45.403
 5955.00    1.34572   1.33464   45.534
 5956.00    1.34230   1.33276   45.702
 5957.00    1.34284   1.33274   45.543
 5958.00    1.33717   1.33523   45.165
 5959.00    1.35464   1.33931   45.105
 5960.00    1.35799   1.34347   45.099
 5961.00    1.36815   1.34652   44.984
 5962.00    1.37577   1.34777   -1.000
 5963.00    1.36998   1.34705   45.252
 5964.00    1.36662   1.34486   45.624
 5965.00    1.36599   1.34235   45.968
 5966.00    1.37588   1.34090   -1.000
 5967.00    1.37009   1.34117   -1.000
 5968.00    1.37467   1.34272   -1.000
 5969.00    1.38547   1.34476   -1.000
 5970.00    1.38140   1.34668   -1.000
 5971.00    1.38392   1.34793   -1.000
 5972.00    1.38198   1.34816   -1.000
 5973.00    1.38658   1.34737   -1.000
 5974.00    1.37205   1.34549   -1.000
 5975.00    1.36311   1.34255   46.559
 5976.00    1.36464   1.33953   46.038
 5977.00    1.35149   1.33796   45.810
 5978.00    1.35120   1.33868   45.665
 5979.00    1.36682   1.34115   45.445
 5980.00    1.36203   1.34352   45.569
 5981.00    1.36889   1.34396   45.651
 5982.00    1.37984   1.34192   -1.000
 5983.00    1.35462   1.33870   44.981
 5984.00    1.34241   1.33650   44.929
 5985.00    1.35326   1.33669   45.307
 5986.00    1.35894   1.33886   45.604
 5987.00    1.36259   1.34158   45.779
 5988.00    1.35440   1.34364   45.847
 5989.00    1.36427   1.34453   45.749
 5990.00    1.37749   1.34472   -1.000
 5991.00    1.37872   1.34558   -1.000
 5992.00    1.37204   1.34820   -1.000
 5993.00    1.37967   1.35193   -1.000
 5994.00    1.37863   1.35472   -1.000
 5995.00    1.36806   1.35500   46.158
 5996.00    1.37568   1.35313   -1.000
 5997.00    1.36208   1.35093   46.989
 5998.00    1.37430   1.34982   -1.000
 5999.00    1.37292   1.34956   -1.000
 6000.00    1.36497   1.34904   45.840
 6001.00    1.35526   1.34782   45.970
 6002.00    1.35110   1.34644   46.353
 6003.00    1.35443   1.34549   46.521
 6004.00    1.36723   1.34469   -1.000
 6005.00    1.37117   1.34297   -1.000
 6006.00    1.35603   1.33996   46.524
 6007.00    1.34291   1.33716   46.569
 6008.00    1.35344   1.33688   46.450
 6009.00    1.35019   1.33971   46.657
 6010.00    1.36186   1.34356   46.914
 6011.00    1.36713   1.34588   -1.000
 6012.00    1.36533   1.34634   46.343
 6013.00    1.35977   1.34636   46.282
 6014.00    1.36956   1.34687   -1.000
 6015.00    1.37366   1.34724   -1.000
 6016.00    1.36034   1.34659   45.771
 6017.00    1.35680   1.34505   45.464
 6018.00    1.35450   1.34324   45.303
 6019.00    1.35017   1.34167   45.267
 6020.00    1.34570   1.34070   45.301
 6021.00    1.34175   1.34040   45.393
 6022.00    1.35202   1.34073   45.263
 6023.00    1.34014   1.34201   45.061
 6024.00    1.33405   1.34458   44.975
 6025.00    1.35038   1.34801   44.957
 6026.00    1.35437   1.35135   44.881
 6027.00    1.35886   1.35405   44.985
 6028.00    1.36002   1.35600   45.244
 6029.00    1.34583   1.35720   45.315
 6030.00    1.36016   1.35795   45.434
 6031.00    1.36735   1.35865   45.304
 6032.00    1.37089   1.35947   45.227
 6033.00    1.37036   1.36062   44.944
 6034.00    1.36888   1.36212   44.636
 6035.00    1.37019   1.36322   44.717
 6036.00    1.36705   1.36282   44.701
 6037.00    1.36743   1.36070   44.638
 6038.00    1.35885   1.35772   44.720
 6039.00    1.36427   1.35482   44.881
 6040.00    1.37673   1.35211   -1.000
 6041.00    1.36683   1.34883   45.003
 6042.00    1.35756   1.34544   45.115
 6043.00    1.35066   1.34537   45.304
 6044.00    1.34614   1.35061   45.455
 6045.00    1.36629   1.35791   45.705
 6046.00    1.38030   1.36299   45.783
 6047.00    1.37823   1.36487   45.646
 6048.00    1.38657   1.36468   -1.000
 6049.00    1.36371   1.36355   45.214
 6050.00    1.36078   1.36228   45.316
 6051.00    1.36665   1.36113   45.528
 6052.00    1.36492   1.35994   46.307
 6053.00    1.34810   1.35847   46.722
 6054.00    1.24608   1.35663   -1.000
 6055.00    1.17563   1.35472   -1.000
 6056.00    0.91899   1.35333   -1.000
 6057.00    0.69262   1.35283   -1.000
 6058.00    1.94262   1.35327   -1.000
 6059.00    1.50048   1.35439   -1.000
 6060.00    1.25418   1.35515   43.905
 6061.00    1.11025   1.35390   -1.000
 6062.00    1.01546   1.34962   -1.000
 6063.00    0.66150   1.34326   -1.000
 6064.00    1.29190   1.33783   44.925
 6065.00    1.34574   1.33659   45.112
 6066.00    1.33365   1.34065   45.361
 6067.00    1.34912   1.34794   45.644
 6068.00    1.36553   1.35497   45.995
 6069.00    1.37488   1.35976   46.204
 6070.00    1.37173   1.36256   46.204
 6071.00    1.36893   1.36429   46.275
 6072.00    1.37397   1.36546   46.386
 6073.00    1.38039   1.36587   46.357
 6074.00    1.37374   1.36509   46.318
 6075.00    1.36454   1.36306   46.246
 6076.00    1.36812   1.36028   46.088
 6077.00    1.36576   1.35762   45.966
 6078.00    1.35946   1.35569   46.138
 6079.00    1.36615   1.35444   46.416
 6080.00    1.36204   1.35324   46.544
 6081.00    1.36546   1.35173   46.425
 6082.00    1.36716   1.35035   46.115
 6083.00    1.35710   1.34993   45.888
 6084.00    1.35375   1.35064   45.638
 6085.00    1.35520   1.35204   45.505
 6086.00    1.34739   1.35365   45.571
 6087.00    1.34397   1.35505   45.670
 6088.00    1.35619   1.35556   45.681
 6089.00    1.36127   1.35467   45.830
 6090.00    1.36368   1.35279   46.600
 6091.00    1.35928   1.35135   47.699
 6092.00    1.34932   1.35164   48.102
 6093.00    1.37168   1.35372   -1.000
 6094.00    1.38109   1.35674   -1.000
 6095.00    1.36277   1.35977   46.056
 6096.00    1.36246   1.36226   46.046
 6097.00    1.36978   1.36378   46.233
 6098.00    1.37360   1.36341   46.297
 6099.00    1.36666   1.35964   46.242
 6100.00    1.34820   1.35165   46.103
 6101.00    1.32523   1.34109   45.947
 6102.00    1.30799   1.33268   45.890
 6103.00    1.30880   1.33095   45.656
 6104.00    1.32548   1.33604   45.651
 6105.00    1.34446   1.34408   45.894
 6106.00    1.34721   1.35136   46.136
 6107.00    1.34182   1.35677   46.222
 6108.00    1.34597   1.36061   46.605
 6109.00    1.35085   1.36286   47.307
 6110.00    1.36353   1.36332   47.857
 6111.00    1.37735   1.36258   -1.000
 6112.00    1.38556   1.36191   -1.000
 6113.00    1.38660   1.36197   -1.000
 6114.00    1.37491   1.36241   46.709
 6115.00    1.36834   1.36262   46.842
 6116.00    1.36264   1.36215   47.030
 6117.00    1.35440   1.35979   46.919
 6118.00    1.35515   1.35359   46.725
 6119.00    1.35763   1.34321   46.294
 6120.00    1.34393   1.33121   45.967
 6121.00    1.32588   1.32220   45.966
 6122.00    1.31125   1.32098   46.185
 6123.00    1.32311   1.32835   46.860
 6124.00    1.33814   1.33933   48.094
 6125.00    1.35002   1.34810   49.480
 6126.00    1.36377   1.35239   -1.000
 6127.00    1.36639   1.35327   -1.000
 6128.00    1.36196   1.35360   48.446
 6129.00    1.36866   1.35595   47.364
 6130.00    1.36765   1.36027   47.130
 6131.00    1.35469   1.36401   47.259
 6132.00    1.34884   1.36426   47.130
 6133.00    1.34946   1.35863   46.569
 6134.00    1.35278   1.34593   46.183
 6135.00    1.32985   1.32871   46.262
 6136.00    1.29270   1.31439   46.526
 6137.00    1.27437   1.31002   46.843
 6138.00    1.28318   1.31516   47.162
 6139.00    1.30232   1.32266   47.331
 6140.00    1.31753   1.32704   47.244
 6141.00    1.32446   1.32978   46.997
 6142.00    1.32504   1.33500   46.756
 6143.00    1.33827   1.34287   46.898
 6144.00    1.35289   1.34989   47.278
 6145.00    1.35165   1.35321   47.421
 6146.00    1.33747   1.35261   47.500
 6147.00    1.33437   1.34952   47.835
 6148.00    1.34773   1.34602   48.527
 6149.00    1.35166   1.34407   49.703
 6150.00    1.34763   1.34454   51.242
 6151.00    1.34537   1.34675   52.330
 6152.00    1.35539   1.34892   52.235
 6153.00    1.37269   1.34947   -1.000
 6154.00    1.37074   1.34801   -1.000
 6155.00    1.36025   1.34536   -1.000
 6156.00    1.34962   1.34235   49.361
 6157.00    1.34366   1.33880   49.725
 6158.00    1.34341   1.33304   50.362
 6159.00    1.32757   1.32257   50.490
 6160.00    1.29886   1.30717   49.787
 6161.00    1.28004   1.29177   48.888
 6162.00    1.28698   1.28376   48.538
 6163.00    1.29104   1.28618   48.643
 6164.00    1.29105   1.29530   48.604
 6165.00    1.30365   1.30486   48.483
 6166.00    1.30639   1.31080   48.379
 6167.00    1.30015   1.31215   48.196
 6168.00    1.30173   1.31025   47.975
 6169.00    1.29610   1.30829   47.818
 6170.00    1.29452   1.30957   47.635
 6171.00    1.29703   1.31466   47.450
 6172.00    1.30669   1.32122   47.434
 6173.00    1.31616   1.32695   47.579
 6174.00    1.31995   1.33128   47.845
 6175.00    1.33613   1.33439   48.311
 6176.00    1.34641   1.33632   48.839
 6177.00    1.33252   1.33739   49.322
 6178.00    1.32525   1.33802   49.738
 6179.00    1.33037   1.33859   50.221
 6180.00    1.35180   1.33944   50.759
 6181.00    1.35889   1.34059   -1.000
 6182.00    1.35485   1.34150   49.678
 6183.00    1.35981   1.34166   -1.000
 6184.00    1.35641   1.34091   48.067
 6185.00    1.35377   1.33901   47.910
 6186.00    1.35230   1.33577   48.032
 6187.00    1.33749   1.33101   48.494
 6188.00    1.32100   1.32421   48.999
 6189.00    1.32118   1.31553   49.170
 6190.00    1.31365   1.30760   48.871
 6191.00    1.29322   1.30478   48.283
 6192.00    1.27854   1.30921   47.896
 6193.00    1.29558   1.31848   47.871
 6194.00    1.32953   1.32806   47.838
 6195.00    1.34226   1.33491   47.787
 6196.00    1.35607   1.33818   47.885
 6197.00    1.36459   1.33798   -1.000
 6198.00    1.34931   1.33539   48.076
 6199.00    1.33572   1.33312   48.425
 6200.00    1.33381   1.33375   48.854
 6201.00    1.34152   1.33738   49.276
 6202.00    1.35728   1.34202   49.905
 6203.00    1.35461   1.34576   50.562
 6204.00    1.32863   1.34800   50.857
 6205.00    1.32068   1.34915   50.556
 6206.00    1.31483   1.34977   50.043
 6207.00    1.29048   1.34999   50.164
 6208.00    1.28947   1.34948   50.301
 6209.00    1.30481   1.34778   49.963
 6210.00    1.29254   1.34453   49.935
 6211.00    1.27805   1.33948   52.014
 6212.00    1.29501   1.33300   53.256
 6213.00    1.33267   1.32663   50.633
 6214.00    1.38323   1.32217   -1.000
 6215.00    1.37715   1.32012   -1.000
 6216.00    1.33990   1.31944   -1.000
 6217.00    1.35016   1.31873   -1.000
 6218.00    1.35200   1.31763   -1.000
 6219.00    1.34929   1.31709   -1.000
 6220.00    1.35593   1.31822   -1.000
 6221.00    1.36656   1.32079   -1.000
 6222.00    1.36752   1.32343   -1.000
 6223.00    1.37101   1.32523   -1.000
 6224.00    1.35444   1.32644   -1.000
 6225.00    1.32885   1.32724   49.226
 6226.00    1.33981   1.32669   49.685
 6227.00    1.35231   1.32316   -1.000
 6228.00    1.34046   1.31586   -1.000
 6229.00    1.32663   1.30666   -1.000
 6230.00    1.31952   1.29982   -1.000
 6231.00    1.32735   1.29912   -1.000
 6232.00    1.33828   1.30486   -1.000
 6233.00    1.35836   1.31386   -1.000
 6234.00    1.39190   1.32187   -1.000
 6235.00    1.40597   1.32591   -1.000
 6236.00    1.40063   1.32544   -1.000
 6237.00    1.39464   1.32201   -1.000
 6238.00    1.38394   1.31795   -1.000
 6239.00    1.37388   1.31503   -1.000
 6240.00    1.37908   1.31364   -1.000
 6241.00    1.38142   1.31261   -1.000
 6242.00    1.36794   1.31032   -1.000
 6243.00    1.36224   1.30633   -1.000
 6244.00    1.35839   1.30205   -1.000
 6245.00    1.34579   1.30007   -1.000
 6246.00    1.33572   1.30237   -1.000
 6247.00    1.33335   1.30854   -1.000
 6248.00    1.35478   1.31552   -1.000
 6249.00    1.37942   1.31948   -1.000
 6250.00    1.38529   1.31810   -1.000
 6251.00    1.37706   1.31222   -1.000
 6252.00    1.36228   1.30538   -1.000
 6253.00    1.34945   1.30105   -1.000
 6254.00    1.34351   1.30002   -1.000
 6255.00    1.33975   1.30076   -1.000
 6256.00    1.33647   1.30167   -1.000
 6257.00    1.34209   1.30277   -1.000
 6258.00    1.35172   1.30528   -1.000
 6259.00    1.35751   1.30977   -1.000
 6260.00    1.36914   1.31546   -1.000
 6261.00    1.38899   1.32106   -1.000
 6262.00    1.38945   1.32546   -1.000
 6263.00    1.37540   1.32792   -1.000
 6264.00    1.36197   1.32859   -1.000
 6265.00    1.33949   1.32873   51.279
 6266.00    1.31953   1.32930   52.420
 6267.00    1.31145   1.32975   53.546
 6268.00    1.31414   1.32899   54.102
 6269.00    1.33026   1.32717   54.073
 6270.00    1.33809   1.32529   -1.000
 6271.00    1.32703   1.32364   52.513
 6272.00    1.32561   1.32104   51.666
 6273.00    1.33957   1.31584   -1.000
 6274.00    1.34359   1.30745   -1.000
 6275.00    1.34442   1.29716   -1.000
 6276.00    1.34819   1.28748   -1.000
 6277.00    1.34436   1.28063   -1.000
 6278.00    1.35174   1.27764   -1.000
 6279.00    1.36146   1.27855   -1.000
 6280.00    1.36584   1.28309   -1.000
 6281.00    1.37536   1.29081   -1.000
 6282.00    1.39107   1.30050   -1.000
 6283.00    1.38783   1.31021   -1.000
 6284.00    1.32505   1.31819   51.025
 6285.00    1.16814   1.32376   -1.000
 6286.00    0.81350   1.32713   -1.000
 6287.00    0.39277   1.32842   -1.000
 6288.00   -0.40562   1.32747    0.000
 6289.00   -2.00065   1.32473    0.000
 6290.00   -3.06286   1.32153    0.000
 6291.00   -0.87805   1.31901    0.000
 6292.00    2.20070   1.31728   -1.000
 6293.00    2.61480   1.31554   -1.000
 6294.00    1.83016   1.31291   -1.000
 6295.00    1.49603   1.30924   -1.000
 6296.00    1.42066   1.30557   -1.000
 6297.00    1.38256   1.30330   -1.000
 6298.00    1.37542   1.30276   -1.000
 6299.00    1.39864   1.30292   -1.000
 6300.00    1.41033   1.30307   -1.000
 6301.00    1.40217   1.30413   -1.000
 6302.00    1.39987   1.30742   -1.000
 6303.00    1.40320   1.31259   -1.000
 6304.00    1.41168   1.31777   -1.000
 6305.00    1.42567   1.32172   -1.000
 6306.00    1.42819   1.32468   -1.000
 6307.00    1.43048   1.32733   -1.000
 6308.00    1.42573   1.32960   -1.000
 6309.00    1.42393   1.33095   -1.000
 6310.00    1.42100   1.33099   -1.000
 6311.00    1.41243   1.32974   -1.000
 6312.00    1.41775   1.32763   -1.000
 6313.00    1.41996   1.32515   -1.000
 6314.00    1.41470   1.32269   -1.000
 6315.00    1.41104   1.32035   -1.000
 6316.00    1.40681   1.31817   -1.000
 6317.00    1.40267   1.31680   -1.000
 6318.00    1.39986   1.31765   -1.000
 6319.00    1.40038   1.32125   -1.000
 6320.00    1.40800   1.32622   -1.000
 6321.00    1.41818   1.33090   -1.000
 6322.00    1.42839   1.33497   -1.000
 6323.00    1.43898   1.33865   -1.000
 6324.00    1.44223   1.34145   -1.000
 6325.00    1.41591   1.34275   -1.000
 6326.00    1.41016   1.34280   -1.000
 6327.00    1.43876   1.34237   -1.000
 6328.00    1.44534   1.34201   -1.000
 6329.00    1.43673   1.34208   -1.000
 6330.00    1.44090   1.34270   -1.000
 6331.00    1.43895   1.34318   -1.000
 6332.00    1.42819   1.34192   -1.000
 6333.00    1.42117   1.33757   -1.000
 6334.00    1.41201   1.33098   -1.000
 6335.00    1.40209   1.32549   -1.000
 6336.00    1.39937   1.32438   -1.000
 6337.00    1.40200   1.32781   -1.000
 6338.00    1.40902   1.33324   -1.000
 6339.00    1.42248   1.33807   -1.000
 6340.00    1.42923   1.34109   -1.000
 6341.00    1.43397   1.34202   -1.000
 6342.00    1.43946   1.34095   -1.000
 6343.00    1.43025   1.33844   -1.000
 6344.00    1.41667   1.33580   -1.000
 6345.00    1.41454   1.33453   -1.000
 6346.00    1.41832   1.33556   -1.000
 6347.00    1.41593   1.33888   -1.000
 6348.00    1.38424   1.34361   -1.000
 6349.00    1.30187   1.34819   49.734
 6350.00    1.14808   1.35106   -1.000
 6351.00    0.85335   1.35140   -1.000
 6352.00    0.41319   1.34949   -1.000
 6353.00    0.05775   1.34645   -1.000
 6354.00    0.40721   1.34358   -1.000
 6355.00    1.23152   1.34141   48.456
 6356.00    1.55629   1.33949   -1.000
 6357.00    1.49434   1.33715   -1.000
 6358.00    1.42342   1.33447   -1.000
 6359.00    1.39659   1.33209   -1.000
 6360.00    1.39444   1.33027   -1.000
 6361.00    1.38446   1.32901   -1.000
 6362.00    1.38492   1.32885   -1.000
 6363.00    1.40212   1.33051   -1.000
 6364.00    1.40574   1.33376   -1.000
 6365.00    1.40123   1.33743   -1.000
 6366.00    1.39541   1.34051   -1.000
 6367.00    1.39229   1.34244   -1.000
 6368.00    1.38580   1.34284   -1.000
 6369.00    1.37760   1.34192   -1.000
 6370.00    1.37230   1.34082   -1.000
 6371.00    1.37843   1.34087   -1.000
 6372.00    1.38331   1.34255   -1.000
 6373.00    1.38541   1.34503   -1.000
 6374.00    1.38393   1.34684   -1.000
 6375.00    1.37206   1.34715   -1.000
 6376.00    1.36262   1.34608   -1.000
 6377.00    1.35957   1.34409   -1.000
 6378.00    1.35696   1.34168   -1.000
 6379.00    1.35195   1.33943   -1.000
 6380.00    1.33774   1.33791   50.385
 6381.00    1.33404   1.33750   51.124
 6382.00    1.32514   1.33813   51.632
 6383.00    1.31336   1.33942   51.580
 6384.00    1.30577   1.34097   50.909
 6385.00    1.30603   1.34262   50.681
 6386.00    1.30186   1.34423   50.936
 6387.00    1.29363   1.34533   51.633
 6388.00    1.28820   1.34529   52.760
 6389.00    1.29423   1.34351   53.314
 6390.00    1.28405   1.33937   52.916
 6391.00    1.25573   1.33315   52.101
 6392.00    1.23336   1.32720   51.734
 6393.00    1.21449   1.32493   51.819
 6394.00    1.20001   1.32777   -1.000
 6395.00    1.21643   1.33334   -1.000
 6396.00    1.21983   1.33718   -1.000
 6397.00    1.19308   1.33630   -1.000
 6398.00    1.17983   1.33155   -1.000
 6399.00    1.15429   1.32703   -1.000
 6400.00    1.13426   1.32694   -1.000
 6401.00    1.13932   1.33210   -1.000
 6402.00    1.14823   1.33961   -1.000
 6403.00    1.13797   1.34550   -1.000
 6404.00    1.12441   1.34734   -1.000
 6405.00    1.12075   1.34478   -1.000
 6406.00    1.11443   1.33912   -1.000
 6407.00    1.09709   1.33303   -1.000
 6408.00    1.07746   1.32964   -1.000
 6409.00    1.05380   1.33005   -1.000
 6410.00    1.04452   1.33226   -1.000
 6411.00    1.04245   1.33399   -1.000
 6412.00    1.04199   1.33516   -1.000
 6413.00    1.02509   1.33659   -1.000
 6414.00    1.00088   1.33843   -1.000
 6415.00    1.00041   1.34034   -1.000
 6416.00    0.99113   1.34161   -1.000
 6417.00    0.97642   1.34105   -1.000
 6418.00    0.97137   1.33799   -1.000
 6419.00    0.94076   1.33359   -1.000
 6420.00    0.19402   1.33078   -1.000
 6421.00    0.00000   1.33204   -2.000
 6422.00    0.00000   1.33727   -2.000
 6423.00    0.00000   1.34413   -2.000
 6424.00    0.00000   1.35016   -2.000
 6425.00    0.00000   1.35414   -2.000
 6426.00    0.00000   1.35543   -2.000
 6427.00    0.00000   1.35316   -2.000
 6428.00    0.00000   1.34708   -2.000
