###################################################################
## OUTPUT of StarlightChains_v04.for    [Cid@UFSC - 01/Apr/2007] ##
###################################################################

## Some input info
NGC5946_a_1.cxt                          [arq_obs]
Base.BC03.S                              [arq_base]
NGC5946_a_1.msk                          [arq_masks]
StCv04.C11.config                        [arq_config]
  150                                    [N_base]
    0                                    [N_YAV_components = # of components with extra extinction!]
    0                                    [i_FitPowerLaw (1/0 = Yes/No)]
-9.99                                    [alpha_PowerLaw]
CCM                                      [red_law_option]
 1.458241                                [q_norm = A(l_norm)/A(V)]

## (Re)Sampling Parameters
 3359.00                                 [l_ini (A)]
 6428.00                                 [l_fin (A)]
    1.00                                 [dl    (A)]     (OBS: dl_cushion =    50.00 A)

## Normalization info
 4020.00                                 [l_norm (A) - for base]
 4010.00                                 [llow_norm (A) - window for f_obs]
 4060.00                                 [lupp_norm (A) - window for f_obs]
2.679293E-15                             [fobs_norm (in input units)]

## S/N
 4730.00                                 [llow_SN (A) - window for S/N]
 4780.00                                 [lupp_SN (A) - window for S/N]
  76.219                                 [S/N in S/N window]
  50.437                                 [S/N in norm. window]
 152.898                                 [S/N_err in S/N window]
 101.177                                 [S/N_err in norm. window]
  1.0000                                 [fscale_chi2]

## etc...
  2147483630                             [idum_orig]
  3068                                   [NOl_eff]
   810                                   [Nl_eff]
  2258    NSIGMA                         [Ntot_cliped & clip_method]
  1859830                                [Nglobal_steps]
   7                                     [N_chains]
  25                                     [NEX0s_base = N_base in EX0s-fits]
 0   0   1      136   2.0   2.373E+02    [Clip-Bug, RC-Crash & Burn-In warning-flags, n_censored_weights, wei_nsig_threshold & wei_limit]
    86     86.148     86.135      0.012  [idt_all, wdt_TotTime, wdt_UsrTime & wdt_SysTime (sec)]

## Synthesis Results - Best model ##

 2.47142E+00                             [chi2/Nl_eff]
     1.68306                             [adev (%)]

    97.93842                             [sum-of-x (%)]
 3.80578E-14                             [Flux_tot (units of input spectrum!)]
 1.05789E-09                             [Mini_tot (???)]
 5.17202E-10                             [Mcor_tot (???)]

 -37.49                                  [v0_min  (km/s)]
  77.52                                  [vd_min  (km/s)]
 1.9912                                  [AV_min  (mag)]
 0.0000                                  [YAV_min (mag)]

# j     x_j(%)      Mini_j(%)     Mcor_j(%)     age_j(yr)     Z_j      (L/M)_j    YAV?  Mstars   component_j        a/Fe...       SSP_chi2r SSP_adev(%)   SSP_AV   SSP_x(%)
  1      0.1669     7.5136E-04    1.5368E-03    1.000000E+06  0.00010  8.160E-03    0   1.0000   age020_m22            0.0000     2.3108E+03    35.5246   4.0000    95.5152
  2      1.8010     1.3901E-03    2.8433E-03    3.160000E+06  0.00010  4.759E-02    0   1.0000   age045_m22            0.0000     2.2180E+01     3.6359   3.3075    97.5317
  3      9.0159     1.7142E-02    3.3596E-02    5.010000E+06  0.00010  1.932E-02    0   0.9582   age055_m22            0.0000     1.8801E+02    12.0311   3.5729    84.2955
  4      0.0000     0.0000E+00    0.0000E+00    6.610000E+06  0.00010  9.973E-03    0   0.9297   age061_m22            0.0000     2.1847E+03    34.0952   4.0000    98.3308
  5      0.0000     0.0000E+00    0.0000E+00    8.710000E+06  0.00010  7.690E-03    0   0.9030   age067_m22            0.0000     2.1395E+03    33.6218   4.0000    98.8409
  6      0.0000     0.0000E+00    0.0000E+00    1.000000E+07  0.00010  6.375E-03    0   0.8902   age070_m22            0.0000     2.1594E+03    33.5280   4.0000    99.1385
  7      0.0000     0.0000E+00    0.0000E+00    1.445000E+07  0.00010  4.874E-03    0   0.8589   age078_m22            0.0000     1.5722E+03    29.0362   4.0000   101.5172
  8      0.0000     0.0000E+00    0.0000E+00    2.512000E+07  0.00010  4.103E-03    0   0.8174   age090_m22            0.0000     5.9324E+02    18.6104   4.0000   104.4522
  9      0.0000     0.0000E+00    0.0000E+00    4.000000E+07  0.00010  3.654E-03    0   0.7830   age104_m22            0.0000     2.2008E+02    10.1549   4.0000   104.6089
 10      0.0000     0.0000E+00    0.0000E+00    5.500000E+07  0.00010  3.093E-03    0   0.7597   age110_m22            0.0000     1.5933E+02     7.8887   4.0000   104.1574
 11      0.0000     0.0000E+00    0.0000E+00    1.015200E+08  0.00010  2.431E-03    0   0.7138   age116_m22            0.0000     1.0597E+02     7.6702   3.9402   100.2061
 12      0.0000     0.0000E+00    0.0000E+00    1.609000E+08  0.00010  1.319E-03    0   0.6775   age120_m22            0.0000     1.1223E+02     7.9672   3.4619   102.3978
 13      0.0000     0.0000E+00    0.0000E+00    2.861200E+08  0.00010  1.075E-03    0   0.6412   age125_m22            0.0000     3.3957E+02    14.3957   3.5528   105.5858
 14      0.0000     0.0000E+00    0.0000E+00    5.088000E+08  0.00010  7.183E-04    0   0.6083   age130_m22            0.0000     4.2856E+02    16.2753   3.3386   106.8814
 15      0.0000     0.0000E+00    0.0000E+00    9.047900E+08  0.00010  4.524E-04    0   0.5785   age135_m22            0.0000     4.3845E+02    16.5636   3.1456   107.8405
 16      0.0000     0.0000E+00    0.0000E+00    1.278050E+09  0.00010  3.018E-04    0   0.5588   age138_m22            0.0000     2.1530E+02    11.7402   2.6009   106.2546
 17      0.0000     0.0000E+00    0.0000E+00    1.434000E+09  0.00010  2.691E-04    0   0.5532   age139_m22            0.0000     1.7834E+02    10.7333   2.4451   105.6293
 18      0.0000     0.0000E+00    0.0000E+00    2.500000E+09  0.00010  1.582E-04    0   0.5296   age150_m22            0.0000     1.4844E+02     9.8577   2.3268   106.3560
 19      0.0000     0.0000E+00    0.0000E+00    4.250000E+09  0.00010  1.007E-04    0   0.5110   age158_m22            0.0000     8.0628E+01     7.2933   2.1729   104.6561
 20      0.0000     0.0000E+00    0.0000E+00    6.250000E+09  0.00010  6.869E-05    0   0.4985   age166_m22            0.0000     3.3342E+01     4.6809   2.1094   101.9129
 21      0.1060     6.6322E-02    6.6892E-02    7.500000E+09  0.00010  5.873E-05    0   0.4931   age171_m22            0.0000     2.6236E+01     4.1627   2.0938   101.3980
 22      0.2672     2.1904E-01    2.1747E-01    1.000000E+10  0.00010  4.481E-05    0   0.4854   age181_m22            0.0000     2.5063E+01     4.1078   2.0554   101.0536
 23      1.2652     1.3320E+00    1.3053E+00    1.300000E+10  0.00010  3.489E-05    0   0.4791   age193_m22            0.0000     2.2249E+01     3.9255   2.0007   100.4875
 24      1.5246     1.8452E+00    1.7987E+00    1.500000E+10  0.00010  3.035E-05    0   0.4766   age201_m22            0.0000     2.0117E+01     3.7661   1.9609   100.3438
 25      7.1508     1.0465E+01    1.0135E+01    1.800000E+10  0.00010  2.510E-05    0   0.4735   age213_m22            0.0000     1.5255E+01     3.3577   1.8920    99.7754
 26      0.0000     0.0000E+00    0.0000E+00    1.000000E+06  0.00040  8.458E-03    0   1.0000   age020_m32            0.0000     2.3464E+03    35.4086   4.0000    96.2747
 27      0.0000     0.0000E+00    0.0000E+00    3.160000E+06  0.00040  3.973E-02    0   1.0000   age045_m32            0.0000     4.4445E+02    16.6095   4.0000   102.7215
 28      0.0000     0.0000E+00    0.0000E+00    5.010000E+06  0.00040  1.935E-02    0   0.9532   age055_m32            0.0000     9.4919E+02    24.2488   4.0000    98.8704
 29      0.0000     0.0000E+00    0.0000E+00    6.610000E+06  0.00040  1.204E-02    0   0.9243   age061_m32            0.0000     1.7202E+03    30.7224   4.0000    99.9326
 30      0.0000     0.0000E+00    0.0000E+00    8.710000E+06  0.00040  9.433E-03    0   0.9001   age067_m32            0.0000     1.6095E+03    29.7053   4.0000   100.8536
 31      0.0000     0.0000E+00    0.0000E+00    1.000000E+07  0.00040  8.053E-03    0   0.8877   age070_m32            0.0000     1.5055E+03    28.8519   4.0000   101.1110
 32      0.0000     0.0000E+00    0.0000E+00    1.445000E+07  0.00040  7.027E-03    0   0.8578   age078_m32            0.0000     4.0340E+02    16.5230   4.0000   100.2325
 33      0.0000     0.0000E+00    0.0000E+00    2.512000E+07  0.00040  4.707E-03    0   0.8166   age090_m32            0.0000     1.0153E+02     8.8223   4.0000    98.7139
 34      0.0000     0.0000E+00    0.0000E+00    4.000000E+07  0.00040  3.714E-03    0   0.7827   age104_m32            0.0000     4.3072E+01     4.8877   4.0000    97.6376
 35      0.6706     8.2607E-03    1.2830E-02    5.500000E+07  0.00040  2.982E-03    0   0.7593   age110_m32            0.0000     5.4970E+01     5.4276   3.9689    98.1739
 36      0.0000     0.0000E+00    0.0000E+00    1.015200E+08  0.00040  2.188E-03    0   0.7143   age116_m32            0.0000     1.6860E+02     9.8128   3.7214   102.5085
 37      0.0000     0.0000E+00    0.0000E+00    1.609000E+08  0.00040  1.690E-03    0   0.6856   age120_m32            0.0000     2.6330E+02    12.6145   3.5218   105.0725
 38      0.0000     0.0000E+00    0.0000E+00    2.861200E+08  0.00040  1.152E-03    0   0.6509   age125_m32            0.0000     3.6567E+02    14.9888   3.3171   106.4255
 39      0.0000     0.0000E+00    0.0000E+00    5.088000E+08  0.00040  7.331E-04    0   0.6182   age130_m32            0.0000     4.0656E+02    15.8696   3.1639   106.9129
 40      0.0000     0.0000E+00    0.0000E+00    9.047900E+08  0.00040  3.960E-04    0   0.5890   age135_m32            0.0000     2.3276E+02    12.1994   2.7022   105.4051
 41      0.0000     0.0000E+00    0.0000E+00    1.278050E+09  0.00040  2.854E-04    0   0.5687   age138_m32            0.0000     1.7669E+02    10.7788   2.4021   107.2160
 42      0.0000     0.0000E+00    0.0000E+00    1.434000E+09  0.00040  2.531E-04    0   0.5632   age139_m32            0.0000     1.7119E+02    10.6310   2.3414   107.1468
 43      0.0000     0.0000E+00    0.0000E+00    2.500000E+09  0.00040  1.488E-04    0   0.5386   age150_m32            0.0000     1.2232E+02     9.0575   2.0865   105.3059
 44      2.0117     8.1365E-01    8.6524E-01    4.250000E+09  0.00040  9.082E-05    0   0.5199   age158_m32            0.0000     3.8186E+01     5.1918   1.9792   102.0884
 45     14.8539     8.5763E+00    8.9043E+00    6.250000E+09  0.00040  6.362E-05    0   0.5076   age166_m32            0.0000     6.0491E+00     2.4116   1.9276    98.8018
 46     12.6860     8.8105E+00    9.0592E+00    7.500000E+09  0.00040  5.289E-05    0   0.5027   age171_m32            0.0000     4.9181E+00     2.2694   1.8906    97.5824
 47      2.8727     2.6567E+00    2.6887E+00    1.000000E+10  0.00040  3.972E-05    0   0.4948   age181_m32            0.0000     5.9400E+00     2.3924   1.8293    96.2616
 48      7.0845     7.9266E+00    7.8958E+00    1.300000E+10  0.00040  3.283E-05    0   0.4870   age193_m32            0.0000     1.1967E+01     3.1996   1.7909    98.9813
 49     11.1541     1.4007E+01    1.3907E+01    1.500000E+10  0.00040  2.925E-05    0   0.4854   age201_m32            0.0000     2.1027E+01     4.0603   1.7754   100.5687
 50     19.4832     2.8986E+01    2.8571E+01    1.800000E+10  0.00040  2.469E-05    0   0.4819   age213_m32            0.0000     2.6030E+01     4.4758   1.7367   101.1028
 51      0.0000     0.0000E+00    0.0000E+00    1.000000E+06  0.00400  1.114E-02    0   1.0000   age020_m42            0.0000     2.1262E+03    33.9143   4.0000    96.4784
 52      0.0000     0.0000E+00    0.0000E+00    3.160000E+06  0.00400  4.073E-02    0   0.9999   age045_m42            0.0000     1.2906E+02     9.0649   4.0000    99.9403
 53      0.0000     0.0000E+00    0.0000E+00    5.010000E+06  0.00400  2.534E-02    0   0.9488   age055_m42            0.0000     6.5988E+02    20.1708   4.0000   100.1839
 54      0.0000     0.0000E+00    0.0000E+00    6.610000E+06  0.00400  2.583E-02    0   0.9220   age061_m42            0.0000     4.3714E+01     5.4277   4.0000    96.7767
 55      1.1332     2.4400E-03    4.4833E-03    8.710000E+06  0.00400  1.706E-02    0   0.8983   age067_m42            0.0000     4.7598E+01     6.5939   3.8995    92.7877
 56      0.5294     1.5299E-03    2.7731E-03    1.000000E+07  0.00400  1.271E-02    0   0.8862   age070_m42            0.0000     8.3997E+01     8.7230   3.8747    91.3512
 57      0.0000     0.0000E+00    0.0000E+00    1.445000E+07  0.00400  7.666E-03    0   0.8571   age078_m42            0.0000     2.2406E+02    13.9410   4.0000    93.8932
 58      0.0000     0.0000E+00    0.0000E+00    2.512000E+07  0.00400  5.070E-03    0   0.8174   age090_m42            0.0000     6.8637E+01     7.9484   3.7465    93.0463
 59      0.0000     0.0000E+00    0.0000E+00    4.000000E+07  0.00400  3.505E-03    0   0.7851   age104_m42            0.0000     3.6105E+01     5.8063   3.4368    96.2734
 60      0.0000     0.0000E+00    0.0000E+00    5.500000E+07  0.00400  3.059E-03    0   0.7629   age110_m42            0.0000     4.9978E+01     5.3709   3.5108   100.9130
 61      0.0000     0.0000E+00    0.0000E+00    1.015200E+08  0.00400  2.268E-03    0   0.7207   age116_m42            0.0000     2.2802E+02    11.8199   3.4450   105.8813
 62      0.0000     0.0000E+00    0.0000E+00    1.609000E+08  0.00400  1.720E-03    0   0.6930   age120_m42            0.0000     2.6432E+02    12.7567   3.3126   107.2480
 63      0.0000     0.0000E+00    0.0000E+00    2.861200E+08  0.00400  1.079E-03    0   0.6613   age125_m42            0.0000     2.7203E+02    13.0440   2.9594   107.4889
 64      0.0000     0.0000E+00    0.0000E+00    5.088000E+08  0.00400  6.261E-04    0   0.6313   age130_m42            0.0000     3.1863E+02    14.2840   2.7753   109.9415
 65      0.0000     0.0000E+00    0.0000E+00    9.047900E+08  0.00400  3.535E-04    0   0.6024   age135_m42            0.0000     1.9671E+02    11.4444   2.3835   109.8866
 66      0.0000     0.0000E+00    0.0000E+00    1.278050E+09  0.00400  2.677E-04    0   0.5837   age138_m42            0.0000     1.0596E+02     8.8901   1.7124   107.2468
 67      0.0000     0.0000E+00    0.0000E+00    1.434000E+09  0.00400  1.910E-04    0   0.5716   age139_m42            0.0000     1.1942E+02     9.1630   1.8796   108.2186
 68      0.0000     0.0000E+00    0.0000E+00    2.500000E+09  0.00400  9.818E-05    0   0.5463   age150_m42            0.0000     6.6286E+01     6.9539   1.6173   103.1706
 69      0.0000     0.0000E+00    0.0000E+00    4.250000E+09  0.00400  5.491E-05    0   0.5269   age158_m42            0.0000     6.2078E+01     6.3898   1.4908   100.3580
 70      0.0000     0.0000E+00    0.0000E+00    6.250000E+09  0.00400  3.857E-05    0   0.5151   age166_m42            0.0000     8.0592E+01     6.9455   1.3717    98.9629
 71      0.0000     0.0000E+00    0.0000E+00    7.500000E+09  0.00400  3.243E-05    0   0.5110   age171_m42            0.0000     9.5958E+01     7.4205   1.2980    98.3662
 72      0.0000     0.0000E+00    0.0000E+00    1.000000E+10  0.00400  2.424E-05    0   0.5028   age181_m42            0.0000     1.1835E+02     8.1159   1.2255    97.6287
 73      0.0000     0.0000E+00    0.0000E+00    1.300000E+10  0.00400  1.883E-05    0   0.4927   age193_m42            0.0000     1.3634E+02     8.6967   1.1893    97.2529
 74      0.0000     0.0000E+00    0.0000E+00    1.500000E+10  0.00400  1.685E-05    0   0.4919   age201_m42            0.0000     1.3165E+02     8.5386   1.1921    97.3075
 75      0.0000     0.0000E+00    0.0000E+00    1.800000E+10  0.00400  1.452E-05    0   0.4874   age213_m42            0.0000     1.2266E+02     8.2558   1.2031    97.6612
 76      0.0000     0.0000E+00    0.0000E+00    1.000000E+06  0.00800  1.286E-02    0   1.0000   age020_m52            0.0000     1.9973E+03    32.5563   4.0000    98.5372
 77      0.0000     0.0000E+00    0.0000E+00    3.160000E+06  0.00800  3.147E-02    0   0.9966   age045_m52            0.0000     1.7452E+03    30.8476   4.0000    99.7588
 78      0.0029     3.9935E-06    7.7134E-06    5.010000E+06  0.00800  2.664E-02    0   0.9443   age055_m52            0.0000     8.9686E+02    23.2568   4.0000   100.6840
 79      0.0000     0.0000E+00    0.0000E+00    6.610000E+06  0.00800  2.151E-02    0   0.9177   age061_m52            0.0000     6.4333E+01     7.7106   3.4774    93.0551
 80      0.0000     0.0000E+00    0.0000E+00    8.710000E+06  0.00800  1.628E-02    0   0.8948   age067_m52            0.0000     5.8066E+01     7.4771   3.8456    93.4365
 81      0.0000     0.0000E+00    0.0000E+00    1.000000E+07  0.00800  1.215E-02    0   0.8827   age070_m52            0.0000     1.2088E+02    10.8073   4.0000    95.7179
 82      0.0000     0.0000E+00    0.0000E+00    1.445000E+07  0.00800  8.739E-03    0   0.8552   age078_m52            0.0000     1.2337E+02    10.4145   4.0000    98.1222
 83      0.0000     0.0000E+00    0.0000E+00    2.512000E+07  0.00800  5.676E-03    0   0.8162   age090_m52            0.0000     4.5938E+01     5.5397   3.8337    97.8159
 84      0.0041     3.8057E-05    6.1035E-05    4.000000E+07  0.00800  3.939E-03    0   0.7841   age104_m52            0.0000     5.7027E+01     5.5728   3.6861   100.1645
 85      0.0000     0.0000E+00    0.0000E+00    5.500000E+07  0.00800  3.155E-03    0   0.7627   age110_m52            0.0000     8.5746E+01     6.7242   3.6642   101.8655
 86      0.0000     0.0000E+00    0.0000E+00    1.015200E+08  0.00800  2.206E-03    0   0.7226   age116_m52            0.0000     1.6909E+02     9.9175   3.4966   105.7442
 87      0.0000     0.0000E+00    0.0000E+00    1.609000E+08  0.00800  1.596E-03    0   0.6963   age120_m52            0.0000     2.1270E+02    11.4133   3.2897   107.2605
 88      0.0000     0.0000E+00    0.0000E+00    2.861200E+08  0.00800  1.002E-03    0   0.6665   age125_m52            0.0000     3.4243E+02    14.7990   3.0207   109.6228
 89      0.0000     0.0000E+00    0.0000E+00    5.088000E+08  0.00800  5.759E-04    0   0.6377   age130_m52            0.0000     3.8137E+02    15.7670   2.6986   113.0415
 90      0.0000     0.0000E+00    0.0000E+00    9.047900E+08  0.00800  2.972E-04    0   0.6086   age135_m52            0.0000     2.4165E+02    12.4939   2.1774   111.2346
 91      0.0000     0.0000E+00    0.0000E+00    1.278050E+09  0.00800  2.242E-04    0   0.5907   age138_m52            0.0000     1.3250E+02     9.6017   1.5603   110.0846
 92      0.0000     0.0000E+00    0.0000E+00    1.434000E+09  0.00800  1.645E-04    0   0.5787   age139_m52            0.0000     1.1215E+02     8.8451   1.7051   109.5523
 93      0.0011     5.4535E-04    6.1562E-04    2.500000E+09  0.00800  7.723E-05    0   0.5519   age150_m52            0.0000     1.0481E+02     8.1551   1.3762   105.5637
 94      0.0000     0.0000E+00    0.0000E+00    4.250000E+09  0.00800  4.151E-05    0   0.5320   age158_m52            0.0000     1.0713E+02     8.0354   1.3082   102.8368
 95      0.0000     0.0000E+00    0.0000E+00    6.250000E+09  0.00800  3.010E-05    0   0.5197   age166_m52            0.0000     1.4464E+02     9.0197   1.1244   101.3179
 96      0.0000     0.0000E+00    0.0000E+00    7.500000E+09  0.00800  2.467E-05    0   0.5139   age171_m52            0.0000     1.5565E+02     9.3045   1.0862   100.8769
 97      0.0000     0.0000E+00    0.0000E+00    1.000000E+10  0.00800  1.862E-05    0   0.5054   age181_m52            0.0000     1.9291E+02    10.2300   0.9660   100.4207
 98      0.0000     0.0000E+00    0.0000E+00    1.300000E+10  0.00800  1.433E-05    0   0.4988   age193_m52            0.0000     2.3684E+02    11.3058   0.8796   100.9919
 99      0.0000     0.0000E+00    0.0000E+00    1.500000E+10  0.00800  1.244E-05    0   0.4936   age201_m52            0.0000     2.5533E+02    11.7355   0.8536   101.4351
100      0.0000     0.0000E+00    0.0000E+00    1.800000E+10  0.00800  1.070E-05    0   0.4888   age213_m52            0.0000     2.6804E+02    12.0090   0.8221   101.2708
101      0.0000     0.0000E+00    0.0000E+00    1.000000E+06  0.02000  1.989E-02    0   1.0000   age020_m62            0.0000     2.0221E+03    32.8913   4.0000    97.1037
102      0.0000     0.0000E+00    0.0000E+00    3.160000E+06  0.02000  3.772E-02    0   0.9858   age045_m62            0.0000     1.6050E+03    30.0339   4.0000    98.8599
103      1.1232     1.2786E-03    2.4431E-03    5.010000E+06  0.02000  3.227E-02    0   0.9342   age055_m62            0.0000     3.9796E+02    15.9709   4.0000   101.3997
104      0.0000     0.0000E+00    0.0000E+00    6.610000E+06  0.02000  2.387E-02    0   0.9090   age061_m62            0.0000     1.9064E+02    13.0869   4.0000    95.5480
105      0.0000     0.0000E+00    0.0000E+00    8.710000E+06  0.02000  1.102E-02    0   0.8861   age067_m62            0.0000     4.2337E+02    17.3574   3.8515    85.0036
106      0.0000     0.0000E+00    0.0000E+00    1.000000E+07  0.02000  1.011E-02    0   0.8751   age070_m62            0.0000     2.6777E+02    14.1954   3.8823    87.5574
107      0.0000     0.0000E+00    0.0000E+00    1.445000E+07  0.02000  7.331E-03    0   0.8472   age078_m62            0.0000     1.6553E+02    11.6003   3.9105    89.1018
108      0.0000     0.0000E+00    0.0000E+00    2.512000E+07  0.02000  4.206E-03    0   0.8099   age090_m62            0.0000     1.7222E+02    11.9947   3.8159    88.8209
109      0.0000     0.0000E+00    0.0000E+00    4.000000E+07  0.02000  3.373E-03    0   0.7799   age104_m62            0.0000     4.0438E+01     5.5900   3.6375    98.0341
110      0.0000     0.0000E+00    0.0000E+00    5.500000E+07  0.02000  2.747E-03    0   0.7595   age110_m62            0.0000     6.2437E+01     5.9569   3.5816   101.6518
111      0.0000     0.0000E+00    0.0000E+00    1.015200E+08  0.02000  1.878E-03    0   0.7221   age116_m62            0.0000     1.8435E+02    10.3774   3.4596   106.6458
112      0.0000     0.0000E+00    0.0000E+00    1.609000E+08  0.02000  1.378E-03    0   0.6978   age120_m62            0.0000     2.8840E+02    13.2432   3.3194   109.0328
113      0.0000     0.0000E+00    0.0000E+00    2.861200E+08  0.02000  8.869E-04    0   0.6700   age125_m62            0.0000     4.6091E+02    16.9788   2.9749   112.9480
114      0.0000     0.0000E+00    0.0000E+00    5.088000E+08  0.02000  4.834E-04    0   0.6430   age130_m62            0.0000     4.2384E+02    16.4267   2.5675   114.5929
115      0.0000     0.0000E+00    0.0000E+00    9.047900E+08  0.02000  2.312E-04    0   0.6152   age135_m62            0.0000     2.1546E+02    12.0478   1.9741   113.6099
116      0.0000     0.0000E+00    0.0000E+00    1.278050E+09  0.02000  1.387E-04    0   0.5927   age138_m62            0.0000     1.1505E+02     8.8183   1.5919   109.2641
117      0.0000     0.0000E+00    0.0000E+00    1.434000E+09  0.02000  1.168E-04    0   0.5865   age139_m62            0.0000     1.0459E+02     8.3283   1.5676   107.5630
118      0.0000     0.0000E+00    0.0000E+00    2.500000E+09  0.02000  5.505E-05    0   0.5610   age150_m62            0.0000     1.3442E+02     8.9091   1.2150   104.3332
119      0.0000     0.0000E+00    0.0000E+00    4.250000E+09  0.02000  3.070E-05    0   0.5407   age158_m62            0.0000     2.1973E+02    11.0090   0.9418   104.0938
120      0.0000     0.0000E+00    0.0000E+00    6.250000E+09  0.02000  2.104E-05    0   0.5277   age166_m62            0.0000     2.7243E+02    12.1396   0.8189   104.4231
121      0.0000     0.0000E+00    0.0000E+00    7.500000E+09  0.02000  1.770E-05    0   0.5223   age171_m62            0.0000     3.0232E+02    12.7316   0.7362   104.7793
122      0.0000     0.0000E+00    0.0000E+00    1.000000E+10  0.02000  1.297E-05    0   0.5121   age181_m62            0.0000     3.6813E+02    13.9400   0.5860   105.2791
123      0.0000     0.0000E+00    0.0000E+00    1.300000E+10  0.02000  9.691E-06    0   0.5047   age193_m62            0.0000     4.1617E+02    14.7633   0.5068   105.6583
124      2.0006     8.7902E+00    8.9880E+00    1.500000E+10  0.02000  8.360E-06    0   0.4999   age201_m62            0.0000     4.5758E+02    15.4476   0.4409   105.9000
125      1.0294     5.4715E+00    5.5353E+00    1.800000E+10  0.02000  6.911E-06    0   0.4946   age213_m62            0.0000     5.0997E+02    16.2751   0.3723   106.1876
126      0.0000     0.0000E+00    0.0000E+00    1.000000E+06  0.05000  2.651E-02    0   0.9998   age020_m72            0.0000     1.9917E+03    32.3896   4.0000    98.3174
127      0.0000     0.0000E+00    0.0000E+00    3.160000E+06  0.05000  4.817E-02    0   0.9577   age045_m72            0.0000     1.1468E+03    25.6467   4.0000   101.6404
128      0.0000     0.0000E+00    0.0000E+00    5.010000E+06  0.05000  3.101E-02    0   0.9147   age055_m72            0.0000     4.7500E+02    18.1640   4.0000    99.3839
129      0.0000     0.0000E+00    0.0000E+00    6.610000E+06  0.05000  1.472E-02    0   0.8877   age061_m72            0.0000     3.1730E+02    15.5328   4.0000    87.5414
130      0.0000     0.0000E+00    0.0000E+00    8.710000E+06  0.05000  1.050E-02    0   0.8638   age067_m72            0.0000     4.8143E+02    18.8859   4.0000    96.4964
131      0.0000     0.0000E+00    0.0000E+00    1.000000E+07  0.05000  8.954E-03    0   0.8524   age070_m72            0.0000     8.6959E+02    22.7605   4.0000   101.4175
132      0.0000     0.0000E+00    0.0000E+00    1.445000E+07  0.05000  6.392E-03    0   0.8262   age078_m72            0.0000     7.4470E+02    21.0854   4.0000   102.0613
133      0.0000     0.0000E+00    0.0000E+00    2.512000E+07  0.05000  4.207E-03    0   0.7902   age090_m72            0.0000     1.8640E+02    11.3996   4.0000   100.6331
134      0.0000     0.0000E+00    0.0000E+00    4.000000E+07  0.05000  3.198E-03    0   0.7618   age104_m72            0.0000     1.0298E+02     7.4513   3.8292   102.1405
135      0.0000     0.0000E+00    0.0000E+00    5.500000E+07  0.05000  2.593E-03    0   0.7432   age110_m72            0.0000     1.4510E+02     9.0748   3.7383   104.1656
136      0.0000     0.0000E+00    0.0000E+00    1.015200E+08  0.05000  1.716E-03    0   0.7092   age116_m72            0.0000     2.3554E+02    11.7604   3.5506   106.6871
137      0.0000     0.0000E+00    0.0000E+00    1.609000E+08  0.05000  1.218E-03    0   0.6876   age120_m72            0.0000     3.4768E+02    14.5560   3.3016   109.3083
138      0.0000     0.0000E+00    0.0000E+00    2.861200E+08  0.05000  7.047E-04    0   0.6618   age125_m72            0.0000     4.5610E+02    17.0028   2.7900   113.0213
139      0.0000     0.0000E+00    0.0000E+00    5.088000E+08  0.05000  3.590E-04    0   0.6356   age130_m72            0.0000     3.7451E+02    15.4700   2.2395   115.1865
140      0.0000     0.0000E+00    0.0000E+00    9.047900E+08  0.05000  1.484E-04    0   0.6088   age135_m72            0.0000     1.7249E+02    10.8478   1.5182   108.2161
141      0.0000     0.0000E+00    0.0000E+00    1.278050E+09  0.05000  9.435E-05    0   0.5924   age138_m72            0.0000     1.9829E+02    10.8843   1.1346   105.1214
142      0.0000     0.0000E+00    0.0000E+00    1.434000E+09  0.05000  7.827E-05    0   0.5847   age139_m72            0.0000     1.9110E+02    10.6114   1.1447   104.4294
143      0.0000     0.0000E+00    0.0000E+00    2.500000E+09  0.05000  3.759E-05    0   0.5583   age150_m72            0.0000     2.6647E+02    12.0671   0.8317   103.5848
144      0.0000     0.0000E+00    0.0000E+00    4.250000E+09  0.05000  1.842E-05    0   0.5374   age158_m72            0.0000     3.6895E+02    13.7208   0.5242   103.0170
145      0.0000     0.0000E+00    0.0000E+00    6.250000E+09  0.05000  1.207E-05    0   0.5242   age166_m72            0.0000     4.6730E+02    15.2084   0.2930   102.9283
146      0.0000     0.0000E+00    0.0000E+00    7.500000E+09  0.05000  9.993E-06    0   0.5183   age171_m72            0.0000     4.8219E+02    15.3929   0.2489   102.9572
147      0.0000     0.0000E+00    0.0000E+00    1.000000E+10  0.05000  7.291E-06    0   0.5081   age181_m72            0.0000     5.5291E+02    16.4356   0.1318   103.0294
148      0.0000     0.0000E+00    0.0000E+00    1.300000E+10  0.05000  5.316E-06    0   0.5018   age193_m72            0.0000     6.6889E+02    18.0813  -0.0467   103.2140
149      0.0000     0.0000E+00    0.0000E+00    1.500000E+10  0.05000  4.497E-06    0   0.4972   age201_m72            0.0000     7.2912E+02    18.9277  -0.1179   103.6360
150      0.0000     3.0949E-04    3.1171E-04    1.800000E+10  0.05000  3.739E-06    0   0.4924   age213_m72            0.0000     8.0764E+02    20.0189  -0.2198   103.9887


## Synthesis Results - Average & Chains ##

# j      x_j: min, <> & last-chain-values for 1 ...  7 chains
  1      0.1669      0.1705      0.0000      0.1182      0.3101      0.2569      0.0000      0.0000      0.2152
  2      1.8010      0.2562      0.2916      0.2655      0.5272      0.0000      0.2528      0.0372      0.3707
  3      9.0159      7.9857      8.1904      8.0183      7.7496      7.3396      8.5518      8.6550      8.4861
  4      0.0000      0.0217      0.0000      0.0110      0.1214      0.1310      0.0000      0.0000      0.0000
  5      0.0000      0.0241      0.0000      0.0000      0.0000      0.0000      0.0000      0.0000      0.0021
  6      0.0000      0.1337      0.1501      0.2607      0.3579      0.2196      0.2021      0.0000      0.0000
  7      0.0000      0.0176      0.0000      0.0000      0.0000      0.0000      0.0000      0.0000      0.0036
  8      0.0000      0.1012      0.0000      0.0403      0.0000      0.2047      0.0000      0.0000      0.0000
  9      0.0000      0.0680      0.2140      0.1730      0.1374      0.1459      0.0994      0.0000      0.0000
 10      0.0000      0.0218      0.0000      0.0076      0.0000      0.0000      0.1590      0.1554      0.0000
 11      0.0000      0.0421      0.0000      0.2477      0.1632      0.0007      0.0455      0.0000      0.1240
 12      0.0000      0.0352      0.0000      0.0000      0.0000      0.1337      0.0541      0.2381      0.1279
 13      0.0000      0.0121      0.0000      0.0000      0.0044      0.0000      0.0222      0.0000      0.0221
 14      0.0000      0.0178      0.0000      0.0000      0.0000      0.0000      0.0165      0.0000      0.0000
 15      0.0000      0.0135      0.0000      0.0012      0.0000      0.0000      0.0000      0.0000      0.0000
 16      0.0000      0.0192      0.0000      0.0000      0.0000      0.0000      0.0000      0.0000      0.0000
 17      0.0000      0.0225      0.0000      0.0000      0.0000      0.0000      0.0000      0.0000      0.0202
 18      0.0000      0.0436      0.0000      0.0231      0.0239      0.0396      0.0000      0.0298      0.0000
 19      0.0000      0.1114      0.0000      0.0825      0.0328      0.0000      0.0000      0.0338      0.0200
 20      0.0000      0.1642      0.0000      0.0000      0.0000      0.2933      0.0000      0.0000      0.0000
 21      0.1060      0.5280      0.7335      1.2104      1.3842      0.2341      0.3387      1.5751      0.5758
 22      0.2672      0.4768      0.0351      0.6777      0.0834      0.2385      0.2157      0.0713      0.3055
 23      1.2652      0.4604      0.0000      0.7388      0.8761      0.5352      0.1415      0.1947      0.4034
 24      1.5246      0.8983      0.3932      1.2911      0.4061      0.3436      0.3040      0.9719      1.6710
 25      7.1508      6.3989      6.5828      6.0598      7.9131      7.4168      7.1021      9.5675      6.3534
 26      0.0000      0.0485      0.0000      0.0000      0.0000      0.0000      0.0000      0.0000      0.0000
 27      0.0000      0.1782      0.2388      0.5350      0.1824      0.0903      0.2619      0.2340      0.0000
 28      0.0000      0.1909      0.3593      0.3831      0.2186      0.5919      0.0883      0.1981      0.1261
 29      0.0000      0.0367      0.0000      0.0266      0.0000      0.0000      0.0000      0.0000      0.0000
 30      0.0000      0.0503      0.1144      0.0000      0.0000      0.0000      0.0990      0.1656      0.0000
 31      0.0000      0.1056      0.0822      0.1773      0.0000      0.0263      0.1680      0.0896      0.0000
 32      0.0000      0.1611      0.2431      0.1100      0.1502      0.1840      0.0972      0.5716      0.0000
 33      0.0000      0.0428      0.0000      0.0000      0.0000      0.0000      0.3636      0.0000      0.0000
 34      0.0000      0.1050      0.2432      0.1980      0.1079      0.0910      0.0000      0.3028      0.1498
 35      0.6706      0.0644      0.0159      0.0000      0.3231      0.0000      0.0000      0.0000      0.2229
 36      0.0000      0.0512      0.1012      0.0000      0.0000      0.0180      0.0479      0.0000      0.0000
 37      0.0000      0.0303      0.0069      0.0000      0.0000      0.0000      0.0000      0.0000      0.0000
 38      0.0000      0.0192      0.0000      0.0000      0.0000      0.0000      0.0000      0.0000      0.0000
 39      0.0000      0.0103      0.1463      0.0000      0.0000      0.0000      0.0000      0.0000      0.0000
 40      0.0000      0.0104      0.0000      0.0000      0.0000      0.0076      0.0000      0.0000      0.0000
 41      0.0000      0.0317      0.0000      0.0000      0.0655      0.0000      0.0000      0.0000      0.0224
 42      0.0000      0.0528      0.0582      0.0000      0.0200      0.0000      0.1919      0.0000      0.0276
 43      0.0000      0.1662      0.1004      0.0000      0.1013      0.4968      0.0000      0.0000      0.0000
 44      2.0117      0.3477      0.7028      0.6645      0.6817      0.0000      0.1427      0.0000      0.5601
 45     14.8539     12.7279     13.2598     13.1647     13.0856     14.0994     13.3389     13.8782     12.7252
 46     12.6860     11.6611     11.4433     12.5732     12.0012     12.4746     12.3506     11.4394     10.8479
 47      2.8727      5.3120      5.6294      4.9310      5.2667      4.6210      5.2906      4.9144      5.8120
 48      7.0845      9.5973      8.8749      7.9797      8.8984      9.7409     10.1540      8.9764      9.4280
 49     11.1541     13.2699     13.5474     13.3288     13.5048     13.1450     13.7482     11.8120     13.4204
 50     19.4832     19.4223     20.8651     19.3855     17.9098     19.1189     18.7591     18.0836     19.5202
 51      0.0000      0.0324      0.0670      0.0000      0.0000      0.0880      0.0000      0.0394      0.0116
 52      0.0000      0.0847      0.0000      0.3355      0.0000      0.2729      0.0000      0.1006      0.1297
 53      0.0000      0.0936      0.2495      0.0883      0.0000      0.0172      0.0032      0.0000      0.1016
 54      0.0000      0.1022      0.0702      0.0097      0.0000      0.1497      0.0034      0.0000      0.0000
 55      1.1332      0.2953      0.4397      0.2691      0.3019      0.1871      0.5702      0.3221      1.3426
 56      0.5294      0.1278      0.0000      0.4369      0.2538      0.1120      0.4783      0.0000      0.4168
 57      0.0000      0.0364      0.0353      0.0000      0.0000      0.0385      0.0000      0.0000      0.0000
 58      0.0000      0.0331      0.0000      0.0000      0.0185      0.0000      0.0000      0.0000      0.0000
 59      0.0000      0.0285      0.0000      0.0000      0.0000      0.0000      0.0000      0.0000      0.0000
 60      0.0000      0.0174      0.0000      0.0000      0.0000      0.0000      0.0000      0.0000      0.0209
 61      0.0000      0.0233      0.0000      0.0060      0.0000      0.2438      0.0000      0.0000      0.0000
 62      0.0000      0.0223      0.0000      0.0000      0.0000      0.0780      0.0000      0.0000      0.0000
 63      0.0000      0.0136      0.0000      0.0000      0.0000      0.0099      0.0000      0.0000      0.0000
 64      0.0000      0.0224      0.0000      0.0000      0.0216      0.0000      0.0000      0.2173      0.0000
 65      0.0000      0.0435      0.0000      0.1294      0.0000      0.0000      0.0000      0.3638      0.0000
 66      0.0000      0.0393      0.0000      0.0000      0.0000      0.0000      0.0000      0.0000      0.0298
 67      0.0000      0.0406      0.0000      0.0000      0.0000      0.0000      0.1606      0.0183      0.0000
 68      0.0000      0.0584      0.0000      0.0000      0.1265      0.0000      0.0907      0.0000      0.0000
 69      0.0000      0.0578      0.0000      0.1261      0.0259      0.0000      0.0000      0.0000      0.0355
 70      0.0000      0.0379      0.0000      0.0260      0.0000      0.0555      0.0000      0.0000      0.0000
 71      0.0000      0.0273      0.0000      0.0000      0.0000      0.0000      0.0000      0.0000      0.0000
 72      0.0000      0.0248      0.0005      0.0000      0.0000      0.1519      0.0000      0.0000      0.0000
 73      0.0000      0.0206      0.0179      0.0000      0.0000      0.0000      0.0000      0.0000      0.0000
 74      0.0000      0.0159      0.0000      0.0000      0.0000      0.0000      0.1274      0.0000      0.0000
 75      0.0000      0.0145      0.0277      0.0000      0.0000      0.0000      0.0000      0.0000      0.0000
 76      0.0000      0.0575      0.0448      0.0000      0.0000      0.0588      0.0000      0.0262      0.0000
 77      0.0000      0.0220      0.0180      0.0964      0.0000      0.0160      0.0000      0.0043      0.0000
 78      0.0029      0.0700      0.0163      0.1052      0.0000      0.0000      0.0000      0.0000      0.1891
 79      0.0000      0.0415      0.0000      0.0000      0.1088      0.1230      0.0395      0.0732      0.0000
 80      0.0000      0.0445      0.0000      0.0000      0.0000      0.0450      0.2333      0.0000      0.0000
 81      0.0000      0.0964      0.0531      0.0000      0.1763      0.2229      0.0538      0.0000      0.1428
 82      0.0000      0.0640      0.1537      0.0183      0.0000      0.0560      0.2430      0.1989      0.0000
 83      0.0000      0.0413      0.0000      0.0000      0.0000      0.1354      0.0709      0.0000      0.0000
 84      0.0041      0.0636      0.3394      0.0000      0.0000      0.0000      0.2380      0.0000      0.4385
 85      0.0000      0.0228      0.1313      0.0000      0.0782      0.0000      0.0000      0.0000      0.0000
 86      0.0000      0.0131      0.0000      0.0157      0.0057      0.0000      0.0000      0.0000      0.0000
 87      0.0000      0.0164      0.0000      0.0000      0.0000      0.0000      0.0000      0.0004      0.0000
 88      0.0000      0.0079      0.0000      0.0000      0.0000      0.0000      0.0000      0.0000      0.0000
 89      0.0000      0.0117      0.0000      0.0000      0.0000      0.0000      0.0000      0.0000      0.0000
 90      0.0000      0.0113      0.0000      0.0000      0.0298      0.0000      0.0000      0.0000      0.0000
 91      0.0000      0.0133      0.0000      0.0000      0.0000      0.0000      0.0000      0.0074      0.0423
 92      0.0000      0.0118      0.0000      0.0000      0.0000      0.0000      0.0000      0.0000      0.0000
 93      0.0011      0.0526      0.0000      0.0803      0.0000      0.0329      0.0000      0.4347      0.2027
 94      0.0000      0.0980      0.0000      0.6515      0.0000      0.0000      0.1579      0.0000      0.0000
 95      0.0000      0.0401      0.0000      0.0000      0.0000      0.0000      0.0000      0.0000      0.0000
 96      0.0000      0.0424      0.0000      0.0000      0.0000      0.0000      0.0000      0.0315      0.0000
 97      0.0000      0.0346      0.0000      0.0000      0.0000      0.0000      0.0000      0.1365      0.0000
 98      0.0000      0.0550      0.0907      0.0000      0.2229      0.0000      0.0739      0.0000      0.1658
 99      0.0000      0.0255      0.0000      0.0000      0.0000      0.0000      0.0000      0.0000      0.0002
100      0.0000      0.0439      0.0983      0.1288      0.3575      0.2661      0.0000      0.0030      0.0000
101      0.0000      0.0367      0.1071      0.0000      0.0000      0.0377      0.0000      0.0000      0.0100
102      0.0000      0.1099      0.0000      0.0026      0.1966      0.1466      0.0741      0.1292      0.1891
103      1.1232      0.1485      0.0917      0.0755      0.1914      0.1701      0.0000      0.2659      0.3313
104      0.0000      0.1567      0.1919      0.1202      0.0000      0.0975      0.0000      0.1327      0.0721
105      0.0000      0.1075      0.0250      0.0000      0.2456      0.3019      0.0000      0.0000      0.0000
106      0.0000      0.0364      0.0000      0.0000      0.0000      0.0000      0.0000      0.0000      0.0000
107      0.0000      0.0221      0.0000      0.0000      0.0000      0.0000      0.0000      0.0000      0.0000
108      0.0000      0.0265      0.0000      0.0046      0.0000      0.0000      0.0000      0.0000      0.0000
109      0.0000      0.0246      0.0000      0.0000      0.0000      0.0000      0.0000      0.0000      0.0000
110      0.0000      0.0206      0.0000      0.0000      0.0000      0.0000      0.0000      0.0000      0.0000
111      0.0000      0.0159      0.0000      0.0000      0.0000      0.0000      0.0000      0.0000      0.0000
112      0.0000      0.0120      0.0000      0.0000      0.0000      0.0000      0.0000      0.0000      0.0000
113      0.0000      0.0093      0.0000      0.0000      0.0256      0.0000      0.0000      0.0000      0.0000
114      0.0000      0.0056      0.0000      0.0000      0.0000      0.0000      0.0000      0.0000      0.0000
115      0.0000      0.0156      0.0000      0.0000      0.0273      0.0000      0.0000      0.0000      0.0000
116      0.0000      0.0215      0.0000      0.0000      0.0000      0.0000      0.0000      0.0000      0.0034
117      0.0000      0.0244      0.0000      0.0000      0.1017      0.0000      0.0000      0.0123      0.0291
118      0.0000      0.0377      0.0000      0.0000      0.0000      0.0239      0.0000      0.0000      0.0000
119      0.0000      0.0259      0.1804      0.0000      0.0000      0.0214      0.0000      0.0000      0.0000
120      0.0000      0.0461      0.0000      0.0000      0.0000      0.0452      0.0469      0.0000      0.0000
121      0.0000      0.0357      0.0000      0.0000      0.0802      0.0118      0.1812      0.1544      0.0000
122      0.0000      0.0191      0.1792      0.0000      0.0000      0.0000      0.0000      0.0513      0.0000
123      0.0000      0.1106      0.0000      0.1355      0.2636      0.0000      0.0000      0.0000      0.0082
124      2.0006      1.1924      1.2398      1.0872      1.2235      1.3499      1.2120      1.2662      1.0900
125      1.0294      0.5633      0.5469      0.4102      0.4797      0.5953      0.4422      0.5407      0.6723
126      0.0000      0.0632      0.1767      0.0000      0.0663      0.0000      0.1448      0.0000      0.0000
127      0.0000      0.0694      0.1379      0.0000      0.0000      0.0000      0.0000      0.2041      0.0000
128      0.0000      0.0540      0.0000      0.0000      0.2217      0.0000      0.0000      0.0000      0.0000
129      0.0000      0.0201      0.0000      0.2033      0.0000      0.0000      0.0000      0.0000      0.0000
130      0.0000      0.0160      0.0000      0.0000      0.0000      0.0000      0.0000      0.0040      0.0000
131      0.0000      0.0187      0.0000      0.0000      0.0000      0.0000      0.0000      0.2243      0.0009
132      0.0000      0.0258      0.0000      0.0000      0.0000      0.0000      0.0219      0.0000      0.0000
133      0.0000      0.0156      0.0000      0.0000      0.0000      0.0000      0.0000      0.0000      0.0000
134      0.0000      0.0137      0.0000      0.0000      0.0000      0.0000      0.0000      0.0662      0.0000
135      0.0000      0.0123      0.0000      0.0010      0.0000      0.0000      0.0000      0.0000      0.0000
136      0.0000      0.0123      0.0000      0.0000      0.0000      0.0000      0.0208      0.0000      0.0000
137      0.0000      0.0095      0.0000      0.0000      0.0000      0.0000      0.0394      0.0000      0.0000
138      0.0000      0.0057      0.0000      0.0000      0.0000      0.0000      0.0000      0.0000      0.0000
139      0.0000      0.0099      0.0000      0.0000      0.0000      0.0000      0.0000      0.0000      0.0000
140      0.0000      0.0116      0.0000      0.0000      0.0000      0.0000      0.0000      0.0000      0.0000
141      0.0000      0.0220      0.0000      0.0000      0.0000      0.0000      0.0000      0.0000      0.0000
142      0.0000      0.0301      0.0000      0.0000      0.0000      0.0000      0.0000      0.0000      0.0000
143      0.0000      0.0377      0.0000      0.0000      0.0000      0.0010      0.0000      0.0000      0.0000
144      0.0000      0.0177      0.0000      0.0000      0.0000      0.0000      0.0000      0.0000      0.0000
145      0.0000      0.0098      0.0539      0.0000      0.0000      0.0000      0.0000      0.0000      0.0000
146      0.0000      0.0089      0.0171      0.0000      0.0000      0.0000      0.0000      0.1276      0.0000
147      0.0000      0.0286      0.0000      0.1078      0.0000      0.0000      0.0000      0.0000      0.1556
148      0.0000      0.0131      0.0000      0.0000      0.0000      0.0000      0.0000      0.0000      0.0000
149      0.0000      0.0130      0.0000      0.0000      0.0000      0.0000      0.0000      0.0000      0.0000
150      0.0000      0.5586      0.5358      0.5825      0.4437      0.5113      0.5661      0.6038      0.5542

# j      m_j: min, <> & last-chain-values for 1 ...  7 chains
  1  1.5368E-03  1.5011E-03  0.0000E+00  1.0550E-03  2.7473E-03  2.2558E-03  0.0000E+00  0.0000E+00  1.8968E-03
  2  2.8433E-03  3.8677E-04  4.3857E-04  4.0613E-04  8.0081E-04  0.0000E+00  3.8570E-04  5.6213E-05  5.6032E-04
  3  3.3596E-02  2.8451E-02  2.9074E-02  2.8955E-02  2.7787E-02  2.6082E-02  3.0798E-02  3.0836E-02  3.0275E-02
  4  0.0000E+00  1.4523E-04  0.0000E+00  7.4741E-05  8.1800E-04  8.7502E-04  0.0000E+00  0.0000E+00  0.0000E+00
  5  0.0000E+00  2.0364E-04  0.0000E+00  0.0000E+00  0.0000E+00  0.0000E+00  0.0000E+00  0.0000E+00  1.8032E-05
  6  0.0000E+00  1.3413E-03  1.5001E-03  2.6506E-03  3.6134E-03  2.1972E-03  2.0494E-03  0.0000E+00  0.0000E+00
  7  0.0000E+00  2.2293E-04  0.0000E+00  0.0000E+00  0.0000E+00  0.0000E+00  0.0000E+00  0.0000E+00  4.5348E-05
  8  0.0000E+00  1.4485E-03  0.0000E+00  5.8430E-04  0.0000E+00  2.9224E-03  0.0000E+00  0.0000E+00  0.0000E+00
  9  0.0000E+00  1.0473E-03  3.2824E-03  2.6994E-03  2.1282E-03  2.2403E-03  1.5467E-03  0.0000E+00  0.0000E+00
 10  0.0000E+00  3.8406E-04  0.0000E+00  1.3524E-04  0.0000E+00  0.0000E+00  2.8356E-03  2.7418E-03  0.0000E+00
 11  0.0000E+00  8.8834E-04  0.0000E+00  5.2957E-03  3.4639E-03  1.5051E-05  9.7053E-04  0.0000E+00  2.6191E-03
 12  0.0000E+00  1.2998E-03  0.0000E+00  0.0000E+00  0.0000E+00  4.9205E-03  2.0196E-03  8.7869E-03  4.7250E-03
 13  0.0000E+00  5.1672E-04  0.0000E+00  0.0000E+00  1.8772E-04  0.0000E+00  9.6006E-04  0.0000E+00  9.4908E-04
 14  0.0000E+00  1.0834E-03  0.0000E+00  0.0000E+00  0.0000E+00  0.0000E+00  1.0117E-03  0.0000E+00  0.0000E+00
 15  0.0000E+00  1.2442E-03  0.0000E+00  1.1411E-04  0.0000E+00  0.0000E+00  0.0000E+00  0.0000E+00  0.0000E+00
 16  0.0000E+00  2.5511E-03  0.0000E+00  0.0000E+00  0.0000E+00  0.0000E+00  0.0000E+00  0.0000E+00  0.0000E+00
 17  0.0000E+00  3.3244E-03  0.0000E+00  0.0000E+00  0.0000E+00  0.0000E+00  0.0000E+00  0.0000E+00  2.9861E-03
 18  0.0000E+00  1.0492E-02  0.0000E+00  5.6224E-03  5.7849E-03  9.5019E-03  0.0000E+00  7.1766E-03  0.0000E+00
 19  0.0000E+00  4.0603E-02  0.0000E+00  3.0483E-02  1.2040E-02  0.0000E+00  0.0000E+00  1.2303E-02  7.2959E-03
 20  0.0000E+00  8.5577E-02  0.0000E+00  0.0000E+00  0.0000E+00  1.5250E-01  0.0000E+00  0.0000E+00  0.0000E+00
 21  6.6892E-02  3.1848E-01  4.4082E-01  7.3993E-01  8.4019E-01  1.4085E-01  2.0649E-01  9.5003E-01  3.4778E-01
 22  2.1747E-01  3.7105E-01  2.7187E-02  5.3451E-01  6.5348E-02  1.8511E-01  1.6963E-01  5.5453E-02  2.3805E-01
 23  1.3053E+00  4.5417E-01  0.0000E+00  7.3866E-01  8.6974E-01  5.2660E-01  1.4114E-01  1.9207E-01  3.9850E-01
 24  1.7987E+00  1.0133E+00  4.4190E-01  1.4762E+00  4.6108E-01  3.8656E-01  3.4663E-01  1.0963E+00  1.8876E+00
 25  1.0135E+01  8.6713E+00  8.8882E+00  8.3233E+00  1.0792E+01  1.0025E+01  9.7285E+00  1.2965E+01  8.6215E+00
 26  0.0000E+00  4.1150E-04  0.0000E+00  0.0000E+00  0.0000E+00  0.0000E+00  0.0000E+00  0.0000E+00  0.0000E+00
 27  0.0000E+00  3.2226E-04  4.3028E-04  9.8050E-04  3.3197E-04  1.6288E-04  4.7871E-04  4.2313E-04  0.0000E+00
 28  0.0000E+00  6.7554E-04  1.2669E-03  1.3739E-03  7.7834E-04  2.0892E-03  3.1574E-04  7.0113E-04  4.4690E-04
 29  0.0000E+00  2.0239E-04  0.0000E+00  1.4854E-04  0.0000E+00  0.0000E+00  0.0000E+00  0.0000E+00  0.0000E+00
 30  0.0000E+00  3.4446E-04  7.8122E-04  0.0000E+00  0.0000E+00  0.0000E+00  6.8581E-04  1.1348E-03  0.0000E+00
 31  0.0000E+00  8.3640E-04  6.4854E-04  1.4232E-03  0.0000E+00  2.0788E-04  1.3447E-03  7.0931E-04  0.0000E+00
 32  0.0000E+00  1.4126E-03  2.1241E-03  9.7737E-04  1.3254E-03  1.6094E-03  8.6114E-04  5.0128E-03  0.0000E+00
 33  0.0000E+00  5.3287E-04  0.0000E+00  0.0000E+00  0.0000E+00  0.0000E+00  4.5804E-03  0.0000E+00  0.0000E+00
 34  0.0000E+00  1.5890E-03  3.6684E-03  3.0377E-03  1.6436E-03  1.3734E-03  0.0000E+00  4.5837E-03  2.2715E-03
 35  1.2830E-02  1.1776E-03  2.9014E-04  0.0000E+00  5.9480E-03  0.0000E+00  0.0000E+00  0.0000E+00  4.0834E-03
 36  0.0000E+00  1.2001E-03  2.3658E-03  0.0000E+00  0.0000E+00  4.2201E-04  1.1355E-03  0.0000E+00  0.0000E+00
 37  0.0000E+00  8.8177E-04  2.0102E-04  0.0000E+00  0.0000E+00  0.0000E+00  0.0000E+00  0.0000E+00  0.0000E+00
 38  0.0000E+00  7.7769E-04  0.0000E+00  0.0000E+00  0.0000E+00  0.0000E+00  0.0000E+00  0.0000E+00  0.0000E+00
 39  0.0000E+00  6.2188E-04  8.8276E-03  0.0000E+00  0.0000E+00  0.0000E+00  0.0000E+00  0.0000E+00  0.0000E+00
 40  0.0000E+00  1.1098E-03  0.0000E+00  0.0000E+00  0.0000E+00  8.1117E-04  0.0000E+00  0.0000E+00  0.0000E+00
 41  0.0000E+00  4.5342E-03  0.0000E+00  0.0000E+00  9.4349E-03  0.0000E+00  0.0000E+00  0.0000E+00  3.2142E-03
 42  0.0000E+00  8.4424E-03  9.2667E-03  0.0000E+00  3.2155E-03  0.0000E+00  3.1001E-02  0.0000E+00  4.4181E-03
 43  0.0000E+00  4.3224E-02  2.6016E-02  0.0000E+00  2.6518E-02  1.2883E-01  0.0000E+00  0.0000E+00  0.0000E+00
 44  8.6524E-01  1.4297E-01  2.8795E-01  2.7696E-01  2.8213E-01  0.0000E+00  5.9316E-02  0.0000E+00  2.3066E-01
 45  8.9043E+00  7.2949E+00  7.5722E+00  7.6477E+00  7.5480E+00  8.0602E+00  7.7279E+00  7.9543E+00  7.3033E+00
 46  9.0592E+00  7.9618E+00  7.7847E+00  8.7011E+00  8.2465E+00  8.4953E+00  8.5239E+00  7.8105E+00  7.4167E+00
 47  2.6887E+00  4.7535E+00  5.0193E+00  4.4725E+00  4.7431E+00  4.1245E+00  4.7856E+00  4.3977E+00  5.2080E+00
 48  7.8958E+00  1.0227E+01  9.4228E+00  8.6186E+00  9.5429E+00  1.0353E+01  1.0937E+01  9.5653E+00  1.0060E+01
 49  1.3907E+01  1.5819E+01  1.6091E+01  1.6105E+01  1.6202E+01  1.5630E+01  1.6567E+01  1.4081E+01  1.6020E+01
 50  2.8571E+01  2.7231E+01  2.9148E+01  2.7549E+01  2.5272E+01  2.6737E+01  2.6586E+01  2.5355E+01  2.7406E+01
 51  0.0000E+00  2.0905E-04  4.3062E-04  0.0000E+00  0.0000E+00  5.6570E-04  0.0000E+00  2.5391E-04  7.4716E-05
 52  0.0000E+00  1.4943E-04  0.0000E+00  5.9960E-04  0.0000E+00  4.8002E-04  0.0000E+00  1.7749E-04  2.2902E-04
 53  0.0000E+00  2.5187E-04  6.6874E-04  2.4067E-04  0.0000E+00  4.6258E-05  8.7942E-06  0.0000E+00  2.7364E-04
 54  0.0000E+00  2.6206E-04  1.7933E-04  2.5300E-05  0.0000E+00  3.8290E-04  8.8104E-06  0.0000E+00  0.0000E+00
 55  4.4833E-03  1.1168E-03  1.6570E-03  1.0317E-03  1.1493E-03  7.0591E-04  2.1802E-03  1.2183E-03  5.0853E-03
 56  2.7731E-03  6.4007E-04  0.0000E+00  2.2182E-03  1.2795E-03  5.5967E-04  2.4215E-03  0.0000E+00  2.0905E-03
 57  0.0000E+00  2.9256E-04  2.8268E-04  0.0000E+00  0.0000E+00  3.0851E-04  0.0000E+00  0.0000E+00  0.0000E+00
 58  0.0000E+00  3.8289E-04  0.0000E+00  0.0000E+00  2.1610E-04  0.0000E+00  0.0000E+00  0.0000E+00  0.0000E+00
 59  0.0000E+00  4.5806E-04  0.0000E+00  0.0000E+00  0.0000E+00  0.0000E+00  0.0000E+00  0.0000E+00  0.0000E+00
 60  0.0000E+00  3.1117E-04  0.0000E+00  0.0000E+00  0.0000E+00  0.0000E+00  0.0000E+00  0.0000E+00  3.7500E-04
 61  0.0000E+00  5.3079E-04  0.0000E+00  1.3772E-04  0.0000E+00  5.5517E-03  0.0000E+00  0.0000E+00  0.0000E+00
 62  0.0000E+00  6.4643E-04  0.0000E+00  0.0000E+00  0.0000E+00  2.2512E-03  0.0000E+00  0.0000E+00  0.0000E+00
 63  0.0000E+00  5.9676E-04  0.0000E+00  0.0000E+00  0.0000E+00  4.3259E-04  0.0000E+00  0.0000E+00  0.0000E+00
 64  0.0000E+00  1.6235E-03  0.0000E+00  0.0000E+00  1.5777E-03  0.0000E+00  0.0000E+00  1.5740E-02  0.0000E+00
 65  0.0000E+00  5.3241E-03  0.0000E+00  1.6053E-02  0.0000E+00  0.0000E+00  0.0000E+00  4.4540E-02  0.0000E+00
 66  0.0000E+00  6.1483E-03  0.0000E+00  0.0000E+00  0.0000E+00  0.0000E+00  0.0000E+00  0.0000E+00  4.6695E-03
 67  0.0000E+00  8.7209E-03  0.0000E+00  0.0000E+00  0.0000E+00  0.0000E+00  3.4900E-02  3.9419E-03  0.0000E+00
 68  0.0000E+00  2.3335E-02  0.0000E+00  0.0000E+00  5.0869E-02  0.0000E+00  3.6658E-02  0.0000E+00  0.0000E+00
 69  0.0000E+00  3.9862E-02  0.0000E+00  8.8073E-02  1.7987E-02  0.0000E+00  0.0000E+00  0.0000E+00  2.4515E-02
 70  0.0000E+00  3.6326E-02  0.0000E+00  2.5319E-02  0.0000E+00  5.3151E-02  0.0000E+00  0.0000E+00  0.0000E+00
 71  0.0000E+00  3.0949E-02  0.0000E+00  0.0000E+00  0.0000E+00  0.0000E+00  0.0000E+00  0.0000E+00  0.0000E+00
 72  0.0000E+00  3.6915E-02  7.4178E-04  0.0000E+00  0.0000E+00  2.2574E-01  0.0000E+00  0.0000E+00  0.0000E+00
 73  0.0000E+00  3.8720E-02  3.3521E-02  0.0000E+00  0.0000E+00  0.0000E+00  0.0000E+00  0.0000E+00  0.0000E+00
 74  0.0000E+00  3.3240E-02  0.0000E+00  0.0000E+00  0.0000E+00  0.0000E+00  2.7014E-01  0.0000E+00  0.0000E+00
 75  0.0000E+00  3.4849E-02  6.6603E-02  0.0000E+00  0.0000E+00  0.0000E+00  0.0000E+00  0.0000E+00  0.0000E+00
 76  0.0000E+00  3.2102E-04  2.4908E-04  0.0000E+00  0.0000E+00  3.2737E-04  0.0000E+00  1.4624E-04  0.0000E+00
 77  0.0000E+00  5.0029E-05  4.0731E-05  2.2237E-04  0.0000E+00  3.6282E-05  0.0000E+00  9.8240E-06  0.0000E+00
 78  7.7134E-06  1.7813E-04  4.1464E-05  2.7150E-04  0.0000E+00  0.0000E+00  0.0000E+00  0.0000E+00  4.8225E-04
 79  0.0000E+00  1.2729E-04  0.0000E+00  0.0000E+00  3.3548E-04  3.7592E-04  1.2232E-04  2.2421E-04  0.0000E+00
 80  0.0000E+00  1.7564E-04  0.0000E+00  0.0000E+00  0.0000E+00  1.7737E-04  9.3126E-04  0.0000E+00  0.0000E+00
 81  0.0000E+00  5.0312E-04  2.7594E-04  0.0000E+00  9.2584E-04  1.1605E-03  2.8374E-04  0.0000E+00  7.4626E-04
 82  0.0000E+00  4.5007E-04  1.0768E-03  1.3046E-04  0.0000E+00  3.9296E-04  1.7266E-03  1.3985E-03  0.0000E+00
 83  0.0000E+00  4.2660E-04  0.0000E+00  0.0000E+00  0.0000E+00  1.3946E-03  7.4046E-04  0.0000E+00  0.0000E+00
 84  6.1035E-05  9.0980E-04  4.8355E-03  0.0000E+00  0.0000E+00  0.0000E+00  3.4400E-03  0.0000E+00  6.2790E-03
 85  0.0000E+00  3.9677E-04  2.2710E-03  0.0000E+00  1.3673E-03  0.0000E+00  0.0000E+00  0.0000E+00  0.0000E+00
 86  0.0000E+00  3.0823E-04  0.0000E+00  3.7429E-04  1.3430E-04  0.0000E+00  0.0000E+00  0.0000E+00  0.0000E+00
 87  0.0000E+00  5.1281E-04  0.0000E+00  0.0000E+00  0.0000E+00  0.0000E+00  0.0000E+00  1.3039E-05  0.0000E+00
 88  0.0000E+00  3.7631E-04  0.0000E+00  0.0000E+00  0.0000E+00  0.0000E+00  0.0000E+00  0.0000E+00  0.0000E+00
 89  0.0000E+00  9.2752E-04  0.0000E+00  0.0000E+00  0.0000E+00  0.0000E+00  0.0000E+00  0.0000E+00  0.0000E+00
 90  0.0000E+00  1.6594E-03  0.0000E+00  0.0000E+00  4.4185E-03  0.0000E+00  0.0000E+00  0.0000E+00  0.0000E+00
 91  0.0000E+00  2.5241E-03  0.0000E+00  0.0000E+00  0.0000E+00  0.0000E+00  0.0000E+00  1.3924E-03  8.0229E-03
 92  0.0000E+00  2.9765E-03  0.0000E+00  0.0000E+00  0.0000E+00  0.0000E+00  0.0000E+00  0.0000E+00  0.0000E+00
 93  6.1562E-04  2.6978E-02  0.0000E+00  4.1787E-02  0.0000E+00  1.6834E-02  0.0000E+00  2.2314E-01  1.0419E-01
 94  0.0000E+00  9.0245E-02  0.0000E+00  6.0799E-01  0.0000E+00  0.0000E+00  1.4696E-01  0.0000E+00  0.0000E+00
 95  0.0000E+00  4.9687E-02  0.0000E+00  0.0000E+00  0.0000E+00  0.0000E+00  0.0000E+00  0.0000E+00  0.0000E+00
 96  0.0000E+00  6.3408E-02  0.0000E+00  0.0000E+00  0.0000E+00  0.0000E+00  0.0000E+00  4.7109E-02  0.0000E+00
 97  0.0000E+00  6.7380E-02  0.0000E+00  0.0000E+00  0.0000E+00  0.0000E+00  0.0000E+00  2.6609E-01  0.0000E+00
 98  0.0000E+00  1.3756E-01  2.2587E-01  0.0000E+00  5.6081E-01  0.0000E+00  1.8666E-01  0.0000E+00  4.1503E-01
 99  0.0000E+00  7.2744E-02  0.0000E+00  0.0000E+00  0.0000E+00  0.0000E+00  0.0000E+00  0.0000E+00  7.0715E-04
100  0.0000E+00  1.4418E-01  3.2149E-01  4.2843E-01  1.1807E+00  8.7093E-01  0.0000E+00  9.9066E-03  0.0000E+00
101  0.0000E+00  1.3265E-04  3.8528E-04  0.0000E+00  0.0000E+00  1.3571E-04  0.0000E+00  0.0000E+00  3.6105E-05
102  0.0000E+00  2.0624E-04  0.0000E+00  4.9166E-06  3.7146E-04  2.7452E-04  1.4055E-04  2.4265E-04  3.5555E-04
103  2.4431E-03  3.0883E-04  1.9003E-04  1.5908E-04  4.0063E-04  3.5290E-04  0.0000E+00  5.5296E-04  6.8985E-04
104  0.0000E+00  4.2872E-04  5.2313E-04  3.3329E-04  0.0000E+00  2.6605E-04  0.0000E+00  3.6294E-04  1.9758E-04
105  0.0000E+00  6.2106E-04  1.4414E-04  0.0000E+00  1.4277E-03  1.7392E-03  0.0000E+00  0.0000E+00  0.0000E+00
106  0.0000E+00  2.2658E-04  0.0000E+00  0.0000E+00  0.0000E+00  0.0000E+00  0.0000E+00  0.0000E+00  0.0000E+00
107  0.0000E+00  1.8353E-04  0.0000E+00  0.0000E+00  0.0000E+00  0.0000E+00  0.0000E+00  0.0000E+00  0.0000E+00
108  0.0000E+00  3.6722E-04  0.0000E+00  6.4324E-05  0.0000E+00  0.0000E+00  0.0000E+00  0.0000E+00  0.0000E+00
109  0.0000E+00  4.0808E-04  0.0000E+00  0.0000E+00  0.0000E+00  0.0000E+00  0.0000E+00  0.0000E+00  0.0000E+00
110  0.0000E+00  4.0818E-04  0.0000E+00  0.0000E+00  0.0000E+00  0.0000E+00  0.0000E+00  0.0000E+00  0.0000E+00
111  0.0000E+00  4.3805E-04  0.0000E+00  0.0000E+00  0.0000E+00  0.0000E+00  0.0000E+00  0.0000E+00  0.0000E+00
112  0.0000E+00  4.3623E-04  0.0000E+00  0.0000E+00  0.0000E+00  0.0000E+00  0.0000E+00  0.0000E+00  0.0000E+00
113  0.0000E+00  5.0394E-04  0.0000E+00  0.0000E+00  1.3988E-03  0.0000E+00  0.0000E+00  0.0000E+00  0.0000E+00
114  0.0000E+00  5.3859E-04  0.0000E+00  0.0000E+00  0.0000E+00  0.0000E+00  0.0000E+00  0.0000E+00  0.0000E+00
115  0.0000E+00  2.9761E-03  0.0000E+00  0.0000E+00  5.2566E-03  0.0000E+00  0.0000E+00  0.0000E+00  0.0000E+00
116  0.0000E+00  6.5974E-03  0.0000E+00  0.0000E+00  0.0000E+00  0.0000E+00  0.0000E+00  0.0000E+00  1.0376E-03
117  0.0000E+00  8.7837E-03  0.0000E+00  0.0000E+00  3.6917E-02  0.0000E+00  0.0000E+00  4.4386E-03  1.0503E-02
118  0.0000E+00  2.7600E-02  0.0000E+00  0.0000E+00  0.0000E+00  1.7421E-02  0.0000E+00  0.0000E+00  0.0000E+00
119  0.0000E+00  3.2831E-02  2.2741E-01  0.0000E+00  0.0000E+00  2.6979E-02  0.0000E+00  0.0000E+00  0.0000E+00
120  0.0000E+00  8.3102E-02  0.0000E+00  0.0000E+00  0.0000E+00  8.1290E-02  8.5468E-02  0.0000E+00  0.0000E+00
121  0.0000E+00  7.5730E-02  0.0000E+00  0.0000E+00  1.7104E-01  2.4915E-02  3.8833E-01  3.2739E-01  0.0000E+00
122  0.0000E+00  5.4162E-02  5.0629E-01  0.0000E+00  0.0000E+00  0.0000E+00  0.0000E+00  1.4549E-01  0.0000E+00
123  0.0000E+00  4.1372E-01  0.0000E+00  5.1366E-01  9.9233E-01  0.0000E+00  0.0000E+00  0.0000E+00  3.0541E-02
124  8.9880E+00  5.1220E+00  5.3064E+00  4.7333E+00  5.2893E+00  5.7836E+00  5.2627E+00  5.4389E+00  4.6887E+00
125  5.5353E+00  2.8959E+00  2.8015E+00  2.1377E+00  2.4819E+00  3.0527E+00  2.2981E+00  2.7796E+00  3.4608E+00
126  0.0000E+00  1.7116E-04  4.7708E-04  0.0000E+00  1.8064E-04  0.0000E+00  3.9662E-04  0.0000E+00  0.0000E+00
127  0.0000E+00  9.9053E-05  1.9618E-04  0.0000E+00  0.0000E+00  0.0000E+00  0.0000E+00  2.9148E-04  0.0000E+00
128  0.0000E+00  1.1432E-04  0.0000E+00  0.0000E+00  4.7270E-04  0.0000E+00  0.0000E+00  0.0000E+00  0.0000E+00
129  0.0000E+00  8.7250E-05  0.0000E+00  8.9264E-04  0.0000E+00  0.0000E+00  0.0000E+00  0.0000E+00  0.0000E+00
130  0.0000E+00  9.4811E-05  0.0000E+00  0.0000E+00  0.0000E+00  0.0000E+00  0.0000E+00  2.3866E-05  0.0000E+00
131  0.0000E+00  1.2763E-04  0.0000E+00  0.0000E+00  0.0000E+00  0.0000E+00  0.0000E+00  1.5340E-03  6.4353E-06
132  0.0000E+00  2.3962E-04  0.0000E+00  0.0000E+00  0.0000E+00  0.0000E+00  2.0513E-04  0.0000E+00  0.0000E+00
133  0.0000E+00  2.1053E-04  0.0000E+00  0.0000E+00  0.0000E+00  0.0000E+00  0.0000E+00  0.0000E+00  0.0000E+00
134  0.0000E+00  2.3380E-04  0.0000E+00  0.0000E+00  0.0000E+00  0.0000E+00  0.0000E+00  1.1324E-03  0.0000E+00
135  0.0000E+00  2.5275E-04  0.0000E+00  2.0589E-05  0.0000E+00  0.0000E+00  0.0000E+00  0.0000E+00  0.0000E+00
136  0.0000E+00  3.6566E-04  0.0000E+00  0.0000E+00  0.0000E+00  0.0000E+00  6.2471E-04  0.0000E+00  0.0000E+00
137  0.0000E+00  3.8421E-04  0.0000E+00  0.0000E+00  0.0000E+00  0.0000E+00  1.6165E-03  0.0000E+00  0.0000E+00
138  0.0000E+00  3.8489E-04  0.0000E+00  0.0000E+00  0.0000E+00  0.0000E+00  0.0000E+00  0.0000E+00  0.0000E+00
139  0.0000E+00  1.2554E-03  0.0000E+00  0.0000E+00  0.0000E+00  0.0000E+00  0.0000E+00  0.0000E+00  0.0000E+00
140  0.0000E+00  3.4221E-03  0.0000E+00  0.0000E+00  0.0000E+00  0.0000E+00  0.0000E+00  0.0000E+00  0.0000E+00
141  0.0000E+00  9.9295E-03  0.0000E+00  0.0000E+00  0.0000E+00  0.0000E+00  0.0000E+00  0.0000E+00  0.0000E+00
142  0.0000E+00  1.6153E-02  0.0000E+00  0.0000E+00  0.0000E+00  0.0000E+00  0.0000E+00  0.0000E+00  0.0000E+00
143  0.0000E+00  4.0206E-02  0.0000E+00  0.0000E+00  0.0000E+00  1.0500E-03  0.0000E+00  0.0000E+00  0.0000E+00
144  0.0000E+00  3.6998E-02  0.0000E+00  0.0000E+00  0.0000E+00  0.0000E+00  0.0000E+00  0.0000E+00  0.0000E+00
145  0.0000E+00  3.0661E-02  1.6749E-01  0.0000E+00  0.0000E+00  0.0000E+00  0.0000E+00  0.0000E+00  0.0000E+00
146  0.0000E+00  3.3288E-02  6.3323E-02  0.0000E+00  0.0000E+00  0.0000E+00  0.0000E+00  4.7539E-01  0.0000E+00
147  0.0000E+00  1.4324E-01  0.0000E+00  5.4674E-01  0.0000E+00  0.0000E+00  0.0000E+00  0.0000E+00  7.8011E-01
148  0.0000E+00  8.9157E-02  0.0000E+00  0.0000E+00  0.0000E+00  0.0000E+00  0.0000E+00  0.0000E+00  0.0000E+00
149  0.0000E+00  1.0307E-01  0.0000E+00  0.0000E+00  0.0000E+00  0.0000E+00  0.0000E+00  0.0000E+00  0.0000E+00
150  3.1171E-04  5.2847E+00  5.0507E+00  5.5850E+00  4.2240E+00  4.8246E+00  5.4130E+00  5.7120E+00  5.2497E+00

# AV, chi2 & Mass for <> & i_chain = 1 ...  7 solutions
AV       1.9912      1.9602      1.9611      1.9673      1.9639      1.9603      1.9642      1.9652      1.9685
chi2 2.4714E+00  2.5840E+00  2.5654E+00  2.5495E+00  2.5523E+00  2.5649E+00  2.5551E+00  2.5527E+00  2.5507E+00
Mass 5.1720E-10  5.1885E-10  5.2140E-10  5.1683E-10  5.1816E-10  5.2028E-10  5.1605E-10  5.2234E-10  5.2398E-10
 -37.49                                  [v0_min (km/s) before EX0s...]
  77.52                                  [vd_min (km/s) before EX0s...]


## Synthetic spectrum (Best Model) ##l_obs f_obs f_syn wei
 3070    [Nl_obs]
 3359.00    0.28728   0.37344   -1.000
 3360.00    0.26005   0.36903   -1.000
 3361.00    0.24948   0.38124   -1.000
 3362.00    0.24920   0.40252   -1.000
 3363.00    0.24001   0.42234   -1.000
 3364.00    0.26099   0.43102   -1.000
 3365.00    0.28604   0.42929   -1.000
 3366.00    0.28813   0.42475   -1.000
 3367.00    0.26113   0.42005   -1.000
 3368.00    0.28413   0.41320   -1.000
 3369.00    0.31262   0.40145   -1.000
 3370.00    0.29003   0.38740   -1.000
 3371.00    0.27319   0.38031   -1.000
 3372.00    0.30322   0.38601   -1.000
 3373.00    0.33068   0.40209   -1.000
 3374.00    0.34053   0.42141   -1.000
 3375.00    0.36256   0.43586   -1.000
 3376.00    0.36307   0.43999   -1.000
 3377.00    0.34369   0.43527   -1.000
 3378.00    0.33646   0.42849   -1.000
 3379.00    0.35705   0.42660   -1.000
 3380.00    0.34236   0.43054   -1.000
 3381.00    0.33602   0.43622   -1.000
 3382.00    0.34441   0.44034   -1.000
 3383.00    0.32921   0.44291   -1.000
 3384.00    0.31895   0.44536   -1.000
 3385.00    0.32922   0.44507   -1.000
 3386.00    0.34216   0.43892   -1.000
 3387.00    0.35088   0.43110   -1.000
 3388.00    0.37710   0.42943   -1.000
 3389.00    0.38801   0.43622   35.088
 3390.00    0.39373   0.44567   35.486
 3391.00    0.38609   0.44973   35.762
 3392.00    0.35882   0.44726   -1.000
 3393.00    0.34472   0.44560   -1.000
 3394.00    0.36593   0.44974   32.357
 3395.00    0.40244   0.45828   30.924
 3396.00    0.39518   0.46764   30.007
 3397.00    0.39361   0.47534   28.988
 3398.00    0.42993   0.47998   28.208
 3399.00    0.43477   0.47990   28.117
 3400.00    0.44750   0.47432   28.801
 3401.00    0.46822   0.46339   29.659
 3402.00    0.45537   0.45123   30.048
 3403.00    0.41932   0.44363   30.589
 3404.00    0.43348   0.44265   31.122
 3405.00    0.43526   0.44576   31.467
 3406.00    0.41126   0.44713   31.766
 3407.00    0.43799   0.44506   32.133
 3408.00    0.47858   0.44327   32.137
 3409.00    0.45616   0.44551   31.581
 3410.00    0.41370   0.44809   30.930
 3411.00    0.41471   0.44520   31.387
 3412.00    0.42753   0.43797   32.427
 3413.00    0.41209   0.43287   32.714
 3414.00    0.40834   0.43669   32.297
 3415.00    0.42124   0.44850   31.215
 3416.00    0.44220   0.46097   29.804
 3417.00    0.44505   0.47005   28.346
 3418.00    0.43748   0.47640   27.502
 3419.00    0.44007   0.48109   27.368
 3420.00    0.44546   0.48239   27.337
 3421.00    0.46247   0.47608   27.791
 3422.00    0.47725   0.46326   28.533
 3423.00    0.45320   0.45268   28.509
 3424.00    0.42582   0.45081   27.706
 3425.00    0.43365   0.45636   27.238
 3426.00    0.47416   0.46593   45.023
 3427.00    0.48355   0.47818  237.300
 3428.00    0.47852   0.49063  237.300
 3429.00    0.47885   0.49795   -1.000
 3430.00    0.48941   0.49448  237.300
 3431.00    0.50280   0.48205   54.456
 3432.00    0.48577   0.47159   27.191
 3433.00    0.46085   0.47235   45.090
 3434.00    0.46621   0.48271   -1.000
 3435.00    0.46914   0.49140   53.878
 3436.00    0.46889   0.48980   27.637
 3437.00    0.47881   0.47934   29.105
 3438.00    0.45607   0.46581   31.110
 3439.00    0.43941   0.45229   33.055
 3440.00    0.45926   0.43970   33.800
 3441.00    0.43634   0.43034   33.756
 3442.00    0.43417   0.42715   33.055
 3443.00    0.47858   0.43055   31.499
 3444.00    0.47507   0.43921   29.761
 3445.00    0.44309   0.45286   28.397
 3446.00    0.46556   0.47039   46.619
 3447.00    0.48777   0.48734  237.300
 3448.00    0.46053   0.49801   -1.000
 3449.00    0.46623   0.49734   -1.000
 3450.00    0.51152   0.48575   -1.000
 3451.00    0.50218   0.47176   -1.000
 3452.00    0.47070   0.46416  237.300
 3453.00    0.47355   0.46526  237.300
 3454.00    0.47112   0.47143  237.300
 3455.00    0.47585   0.47694  237.300
 3456.00    0.49267   0.47800   -1.000
 3457.00    0.51225   0.47449   53.075
 3458.00    0.50691   0.46783   27.328
 3459.00    0.50606   0.45974   27.444
 3460.00    0.49797   0.45390   46.247
 3461.00    0.45850   0.45504  237.300
 3462.00    0.46222   0.46213  237.300
 3463.00    0.47451   0.46849  237.300
 3464.00    0.46845   0.47007  237.300
 3465.00    0.48608   0.47025   -1.000
 3466.00    0.49869   0.47502   -1.000
 3467.00    0.50106   0.48487   -1.000
 3468.00    0.51623   0.49569   -1.000
 3469.00    0.53125   0.50291   -1.000
 3470.00    0.52825   0.50365   -1.000
 3471.00    0.53547   0.49753   -1.000
 3472.00    0.53618   0.48504   -1.000
 3473.00    0.51351   0.46925   52.831
 3474.00    0.50143   0.45717   27.857
 3475.00    0.50839   0.45408   28.126
 3476.00    0.49930   0.46094   47.327
 3477.00    0.48018   0.47347  237.300
 3478.00    0.50873   0.48554   -1.000
 3479.00    0.53494   0.49514   -1.000
 3480.00    0.53326   0.50116   -1.000
 3481.00    0.53978   0.50174   -1.000
 3482.00    0.52787   0.49838   -1.000
 3483.00    0.52176   0.49546   -1.000
 3484.00    0.53865   0.49684   -1.000
 3485.00    0.54512   0.50211   -1.000
 3486.00    0.54998   0.50603   -1.000
 3487.00    0.54128   0.50416   -1.000
 3488.00    0.53715   0.49626   -1.000
 3489.00    0.54486   0.48654   -1.000
 3490.00    0.51494   0.48204   -1.000
 3491.00    0.47540   0.48554  237.300
 3492.00    0.48594   0.49151  237.300
 3493.00    0.50921   0.49325   -1.000
 3494.00    0.52891   0.48959   -1.000
 3495.00    0.52657   0.48388   -1.000
 3496.00    0.50631   0.48108   -1.000
 3497.00    0.53197   0.48250   -1.000
 3498.00    0.54198   0.48544   -1.000
 3499.00    0.52821   0.48727   -1.000
 3500.00    0.52112   0.48767   -1.000
 3501.00    0.49856   0.48985  211.150
 3502.00    0.51534   0.49447   -1.000
 3503.00    0.53406   0.49718   -1.000
 3504.00    0.52970   0.49465   -1.000
 3505.00    0.52562   0.48803   -1.000
 3506.00    0.50825   0.48157   -1.000
 3507.00    0.48494   0.47848  219.510
 3508.00    0.50563   0.47957   -1.000
 3509.00    0.54258   0.48271   -1.000
 3510.00    0.54172   0.48378   -1.000
 3511.00    0.51277   0.48044   -1.000
 3512.00    0.48706   0.47423   -1.000
 3513.00    0.48901   0.47068   -1.000
 3514.00    0.50299   0.47514   -1.000
 3515.00    0.50552   0.48866   -1.000
 3516.00    0.49102   0.50548   -1.000
 3517.00    0.52010   0.51546  218.059
 3518.00    0.55905   0.51292   -1.000
 3519.00    0.54435   0.50162   -1.000
 3520.00    0.51640   0.48997   -1.000
 3521.00    0.51306   0.48157   -1.000
 3522.00    0.51149   0.47459   50.675
 3523.00    0.51092   0.46666   27.616
 3524.00    0.50865   0.45941   28.039
 3525.00    0.49288   0.45849   49.167
 3526.00    0.49911   0.46631   -1.000
 3527.00    0.50641   0.47961   -1.000
 3528.00    0.51833   0.49398   -1.000
 3529.00    0.51516   0.50577  227.798
 3530.00    0.51568   0.51269  231.052
 3531.00    0.52967   0.51185   -1.000
 3532.00    0.50304   0.50133  227.271
 3533.00    0.48387   0.48728  222.936
 3534.00    0.51485   0.48085   -1.000
 3535.00    0.52263   0.48805   -1.000
 3536.00    0.48145   0.50506   -1.000
 3537.00    0.47402   0.52139   -1.000
 3538.00    0.51856   0.53069  214.137
 3539.00    0.56328   0.53312   -1.000
 3540.00    0.55914   0.53146   -1.000
 3541.00    0.55625   0.53020   -1.000
 3542.00    0.55935   0.53274   -1.000
 3543.00    0.53072   0.53759  215.989
 3544.00    0.52122   0.53978   -1.000
 3545.00    0.52998   0.53760  222.234
 3546.00    0.51838   0.53350   -1.000
 3547.00    0.50611   0.53055   -1.000
 3548.00    0.50980   0.53069   -1.000
 3549.00    0.53776   0.53394  225.088
 3550.00    0.56452   0.53793   -1.000
 3551.00    0.55416   0.53809   -1.000
 3552.00    0.53552   0.53169  237.300
 3553.00    0.53078   0.52266  237.300
 3554.00    0.52873   0.51824  237.300
 3555.00    0.53875   0.52135   -1.000
 3556.00    0.53525   0.52946  237.300
 3557.00    0.51094   0.53800   -1.000
 3558.00    0.51298   0.54333   -1.000
 3559.00    0.52375   0.54531   -1.000
 3560.00    0.52207   0.54553   -1.000
 3561.00    0.49657   0.54341   -1.000
 3562.00    0.49153   0.53636   -1.000
 3563.00    0.50568   0.52355   49.502
 3564.00    0.50886   0.50817   27.979
 3565.00    0.50275   0.49597   28.381
 3566.00    0.48691   0.49068   28.131
 3567.00    0.48478   0.49039   28.535
 3568.00    0.48586   0.48974   29.293
 3569.00    0.48679   0.48496   29.077
 3570.00    0.49558   0.47789   27.953
 3571.00    0.50453   0.47381   49.751
 3572.00    0.50692   0.47487   -1.000
 3573.00    0.51417   0.47954   -1.000
 3574.00    0.51910   0.48629   -1.000
 3575.00    0.51581   0.49363   -1.000
 3576.00    0.51647   0.49955   -1.000
 3577.00    0.51427   0.50241   50.818
 3578.00    0.50516   0.50050   29.453
 3579.00    0.50332   0.49324   31.444
 3580.00    0.50281   0.48334   32.388
 3581.00    0.48267   0.47493   32.550
 3582.00    0.48471   0.47050   33.034
 3583.00    0.49486   0.46810   34.006
 3584.00    0.48119   0.46274   34.803
 3585.00    0.46716   0.45351   34.101
 3586.00    0.47325   0.44617   32.313
 3587.00    0.47664   0.44807   30.674
 3588.00    0.45452   0.46145   28.508
 3589.00    0.45965   0.48093   49.998
 3590.00    0.49125   0.49755  237.300
 3591.00    0.52721   0.50609   -1.000
 3592.00    0.53997   0.50831   -1.000
 3593.00    0.50980   0.51032  233.818
 3594.00    0.51252   0.51634  224.230
 3595.00    0.52268   0.52531  215.582
 3596.00    0.52392   0.53335  209.648
 3597.00    0.52671   0.53814  205.234
 3598.00    0.51098   0.53980   -1.000
 3599.00    0.51980   0.53807   -1.000
 3600.00    0.53645   0.53157  222.393
 3601.00    0.53107   0.52198  233.726
 3602.00    0.52096   0.51464  237.300
 3603.00    0.51335   0.51310  237.300
 3604.00    0.51340   0.51573  237.300
 3605.00    0.51893   0.51695  237.300
 3606.00    0.52026   0.51368  237.300
 3607.00    0.50994   0.50793  237.300
 3608.00    0.50082   0.50336  237.300
 3609.00    0.50583   0.50217  237.300
 3610.00    0.50943   0.50443  237.300
 3611.00    0.50934   0.50967  236.507
 3612.00    0.51584   0.51708  231.615
 3613.00    0.52464   0.52613  225.124
 3614.00    0.53925   0.53574  221.473
 3615.00    0.53136   0.54092  231.583
 3616.00    0.53635   0.53673  237.300
 3617.00    0.54902   0.52532   47.314
 3618.00    0.52691   0.51425   50.666
 3619.00    0.51382   0.51152  237.300
 3620.00    0.52503   0.51868  224.188
 3621.00    0.53270   0.53008  215.425
 3622.00    0.52603   0.54036  211.654
 3623.00    0.53816   0.54916  206.211
 3624.00    0.56274   0.55985  197.956
 3625.00    0.57401   0.57428  192.529
 3626.00    0.58418   0.58802  193.117
 3627.00    0.58172   0.59177  201.082
 3628.00    0.58883   0.57950  219.529
 3629.00    0.56957   0.55552   -1.000
 3630.00    0.51754   0.53252   -1.000
 3631.00    0.50946   0.52268  237.300
 3632.00    0.52418   0.52737  237.300
 3633.00    0.52945   0.53773  234.407
 3634.00    0.52889   0.54448   -1.000
 3635.00    0.53695   0.54714  217.387
 3636.00    0.57133   0.55176   -1.000
 3637.00    0.57136   0.56049  199.320
 3638.00    0.54696   0.56936   -1.000
 3639.00    0.56065   0.57434  198.727
 3640.00    0.57540   0.57384  204.705
 3641.00    0.55815   0.56803  213.898
 3642.00    0.53264   0.55913   -1.000
 3643.00    0.53254   0.55038   -1.000
 3644.00    0.53990   0.54363  231.387
 3645.00    0.52837   0.53885  235.315
 3646.00    0.52363   0.53558  237.300
 3647.00    0.52985   0.53394  233.894
 3648.00    0.52638   0.53399  225.745
 3649.00    0.52857   0.53596  215.561
 3650.00    0.55019   0.54091  205.860
 3651.00    0.57165   0.54971   -1.000
 3652.00    0.57668   0.56117  195.498
 3653.00    0.56476   0.57297  193.925
 3654.00    0.55181   0.58414   -1.000
 3655.00    0.55265   0.59357   -1.000
 3656.00    0.55774   0.59948   -1.000
 3657.00    0.57597   0.60118   -1.000
 3658.00    0.59542   0.59979  186.375
 3659.00    0.58762   0.59668  187.503
 3660.00    0.57229   0.59187   -1.000
 3661.00    0.58367   0.58562  192.278
 3662.00    0.58766   0.58035  194.590
 3663.00    0.56808   0.57904  193.912
 3664.00    0.55945   0.58183   -1.000
 3665.00    0.58298   0.58549  195.215
 3666.00    0.58793   0.58645  198.296
 3667.00    0.57995   0.58316  201.969
 3668.00    0.57430   0.57714  203.506
 3669.00    0.54994   0.57268   -1.000
 3670.00    0.55817   0.57327  192.952
 3671.00    0.56855   0.57848  190.886
 3672.00    0.55983   0.58451   -1.000
 3673.00    0.57952   0.58723  190.822
 3674.00    0.59109   0.58495  194.296
 3675.00    0.57333   0.57788  200.410
 3676.00    0.56740   0.56715  206.566
 3677.00    0.56666   0.55623  212.280
 3678.00    0.55229   0.55000  214.326
 3679.00    0.55543   0.55030  210.828
 3680.00    0.55590   0.55437  204.922
 3681.00    0.53525   0.55859   -1.000
 3682.00    0.53460   0.56113   -1.000
 3683.00    0.55351   0.56149  210.109
 3684.00    0.56625   0.55963  218.809
 3685.00    0.56603   0.55627  224.991
 3686.00    0.55482   0.55496  223.071
 3687.00    0.55010   0.55994  211.750
 3688.00    0.57189   0.57130  197.628
 3689.00    0.59251   0.58370  188.584
 3690.00    0.58796   0.59159  186.955
 3691.00    0.58327   0.59415  190.569
 3692.00    0.58311   0.59379  194.404
 3693.00    0.58187   0.59317  195.043
 3694.00    0.57505   0.59308   -1.000
 3695.00    0.56736   0.59218   -1.000
 3696.00    0.57098   0.59090   -1.000
 3697.00    0.59864   0.59378  181.527
 3698.00    0.63497   0.60386   -1.000
 3699.00    0.64866   0.61662   -1.000
 3700.00    0.63100   0.62131  185.286
 3701.00    0.60107   0.60902  198.905
 3702.00    0.57456   0.58208  218.074
 3703.00    0.58338   0.55261   -1.000
 3704.00    0.56048   0.53331   -1.000
 3705.00    0.54335   0.52908   -1.000
 3706.00    0.56206   0.53640   -1.000
 3707.00    0.56990   0.54738   -1.000
 3708.00    0.56613   0.55416   -1.000
 3709.00    0.56204   0.55307  205.111
 3710.00    0.55679   0.54806  194.389
 3711.00    0.56344   0.54801  184.316
 3712.00    0.57414   0.55958  177.977
 3713.00    0.59976   0.58189  175.823
 3714.00    0.63358   0.60662   -1.000
 3715.00    0.62515   0.62428  184.950
 3716.00    0.61612   0.62850  198.535
 3717.00    0.61406   0.61613  223.327
 3718.00    0.59738   0.58634   -1.000
 3719.00    0.57090   0.54435   45.190
 3720.00    0.53203   0.50595   55.654
 3721.00    0.50856   0.49046   -1.000
 3722.00    0.50656   0.50471  213.609
 3723.00    0.53340   0.53962  199.350
 3724.00    0.58212   0.57744  196.806
 3725.00    0.60673   0.60377  201.259
 3726.00    0.61794   0.61658  205.082
 3727.00    0.61836   0.62211  203.752
 3728.00    0.62316   0.62500  203.500
 3729.00    0.63424   0.62330   -1.000
 3730.00    0.60814   0.60889  226.886
 3731.00    0.57952   0.57510   43.708
 3732.00    0.56942   0.52781   28.842
 3733.00    0.52900   0.48409   30.976
 3734.00    0.48893   0.46007   30.528
 3735.00    0.48671   0.46472   28.176
 3736.00    0.51131   0.49527   54.888
 3737.00    0.54491   0.53968  224.470
 3738.00    0.59729   0.58502   -1.000
 3739.00    0.63541   0.62138   -1.000
 3740.00    0.64552   0.64091  206.145
 3741.00    0.65673   0.64185   -1.000
 3742.00    0.65210   0.62932   -1.000
 3743.00    0.63903   0.61109   -1.000
 3744.00    0.60259   0.59181   -1.000
 3745.00    0.58213   0.57163   44.239
 3746.00    0.58853   0.54747   28.445
 3747.00    0.55248   0.51851   29.404
 3748.00    0.51563   0.49102   60.669
 3749.00    0.48990   0.47669   -1.000
 3750.00    0.48487   0.48630  218.744
 3751.00    0.51572   0.52008  199.996
 3752.00    0.56916   0.56667  187.682
 3753.00    0.62359   0.61093  181.512
 3754.00    0.65516   0.64149  186.021
 3755.00    0.68594   0.65369   -1.000
 3756.00    0.67023   0.64891   -1.000
 3757.00    0.63813   0.63453  237.300
 3758.00    0.64691   0.62146   -1.000
 3759.00    0.63828   0.61758   -1.000
 3760.00    0.64193   0.62377   -1.000
 3761.00    0.67208   0.63417   -1.000
 3762.00    0.68348   0.64102   -1.000
 3763.00    0.66813   0.64096   -1.000
 3764.00    0.65709   0.63454   -1.000
 3765.00    0.65621   0.62259   -1.000
 3766.00    0.64078   0.60423   -1.000
 3767.00    0.62118   0.57841   -1.000
 3768.00    0.59020   0.54848   -1.000
 3769.00    0.56741   0.52447   -1.000
 3770.00    0.55915   0.51841   -1.000
 3771.00    0.56836   0.53562   -1.000
 3772.00    0.59706   0.56912   -1.000
 3773.00    0.63258   0.60452   -1.000
 3774.00    0.63740   0.63064  187.124
 3775.00    0.63385   0.64715  186.618
 3776.00    0.66978   0.66097  184.831
 3777.00    0.70852   0.67804   -1.000
 3778.00    0.72386   0.69828   -1.000
 3779.00    0.74148   0.71725   -1.000
 3780.00    0.76709   0.73022   -1.000
 3781.00    0.77479   0.73487   -1.000
 3782.00    0.77895   0.73273   -1.000
 3783.00    0.78300   0.72647   -1.000
 3784.00    0.74597   0.71759   -1.000
 3785.00    0.70833   0.70643  204.751
 3786.00    0.71531   0.69382   -1.000
 3787.00    0.71624   0.68227   -1.000
 3788.00    0.70555   0.67516   -1.000
 3789.00    0.70018   0.67263   -1.000
 3790.00    0.70087   0.67082   -1.000
 3791.00    0.69450   0.66469   -1.000
 3792.00    0.68071   0.65019   -1.000
 3793.00    0.66834   0.62569   -1.000
 3794.00    0.63328   0.59237   -1.000
 3795.00    0.60287   0.55378   -1.000
 3796.00    0.55771   0.51740   -1.000
 3797.00    0.52147   0.49507   -1.000
 3798.00    0.51478   0.49930   -1.000
 3799.00    0.52686   0.53345  211.399
 3800.00    0.56210   0.58522   -1.000
 3801.00    0.61334   0.63490   -1.000
 3802.00    0.65452   0.67028  190.938
 3803.00    0.69094   0.68973  192.347
 3804.00    0.70171   0.69813  198.030
 3805.00    0.70696   0.70132  203.395
 3806.00    0.71081   0.70511  201.541
 3807.00    0.71896   0.71358  194.549
 3808.00    0.72309   0.72656  190.285
 3809.00    0.73378   0.73946  191.809
 3810.00    0.75738   0.74472   -1.000
 3811.00    0.76197   0.73703   -1.000
 3812.00    0.76175   0.71945   -1.000
 3813.00    0.74024   0.70137   -1.000
 3814.00    0.71184   0.69138   -1.000
 3815.00    0.70671   0.69285   -1.000
 3816.00    0.70152   0.70113  229.054
 3817.00    0.71297   0.70613  237.300
 3818.00    0.73938   0.70068   -1.000
 3819.00    0.73244   0.68809   -1.000
 3820.00    0.70867   0.67882   -1.000
 3821.00    0.70504   0.67844   -1.000
 3822.00    0.71832   0.68095   -1.000
 3823.00    0.67858   0.67563   43.615
 3824.00    0.64199   0.66132   28.734
 3825.00    0.64607   0.64533   28.807
 3826.00    0.65818   0.63247   28.414
 3827.00    0.64588   0.62264   27.947
 3828.00    0.63994   0.61349   27.991
 3829.00    0.65727   0.60195   28.924
 3830.00    0.64851   0.58453   30.874
 3831.00    0.61759   0.55799   32.419
 3832.00    0.58695   0.52251   32.364
 3833.00    0.53313   0.48547   31.279
 3834.00    0.49969   0.45966   30.373
 3835.00    0.49307   0.45407   30.535
 3836.00    0.49957   0.46842   31.258
 3837.00    0.52551   0.49606   31.183
 3838.00    0.56013   0.52913   29.821
 3839.00    0.58461   0.56296   64.436
 3840.00    0.61730   0.59727   -1.000
 3841.00    0.65908   0.63248   -1.000
 3842.00    0.69461   0.66667   -1.000
 3843.00    0.71023   0.69591   -1.000
 3844.00    0.72301   0.71698  219.893
 3845.00    0.73709   0.73132  220.110
 3846.00    0.75500   0.74177   -1.000
 3847.00    0.77381   0.74799   -1.000
 3848.00    0.75962   0.74881   -1.000
 3849.00    0.75118   0.74717  234.718
 3850.00    0.74877   0.74967  228.647
 3851.00    0.75331   0.75927  227.413
 3852.00    0.76019   0.77118  231.772
 3853.00    0.77842   0.77749  237.300
 3854.00    0.78566   0.77415   -1.000
 3855.00    0.75809   0.76353  237.300
 3856.00    0.75777   0.75032   40.536
 3857.00    0.77350   0.73820   27.910
 3858.00    0.74472   0.73086   28.149
 3859.00    0.70950   0.73208   62.586
 3860.00    0.72291   0.74229   -1.000
 3861.00    0.76182   0.75724  217.987
 3862.00    0.78742   0.77009   -1.000
 3863.00    0.78594   0.77641  218.856
 3864.00    0.78817   0.77727   -1.000
 3865.00    0.80177   0.77744   -1.000
 3866.00    0.82212   0.77996   -1.000
 3867.00    0.82580   0.78336   -1.000
 3868.00    0.78308   0.78298  237.300
 3869.00    0.76829   0.77508   40.850
 3870.00    0.75262   0.76072   62.381
 3871.00    0.71964   0.74483   -1.000
 3872.00    0.70436   0.73366   -1.000
 3873.00    0.71564   0.73100  212.024
 3874.00    0.75276   0.73419   -1.000
 3875.00    0.76899   0.73533   -1.000
 3876.00    0.76280   0.72850   -1.000
 3877.00    0.74480   0.71628   -1.000
 3878.00    0.72273   0.70663   -1.000
 3879.00    0.69922   0.70433  237.300
 3880.00    0.69001   0.70544  237.300
 3881.00    0.68089   0.70202   -1.000
 3882.00    0.66766   0.69133   -1.000
 3883.00    0.67359   0.67363  218.086
 3884.00    0.68306   0.64649   -1.000
 3885.00    0.66080   0.60826   -1.000
 3886.00    0.62530   0.56365   -1.000
 3887.00    0.59550   0.52517   -1.000
 3888.00    0.55001   0.50830   -1.000
 3889.00    0.53952   0.52091   -1.000
 3890.00    0.59072   0.55774   -1.000
 3891.00    0.65036   0.60315   -1.000
 3892.00    0.68388   0.64112   -1.000
 3893.00    0.70519   0.66562   -1.000
 3894.00    0.71565   0.68175   -1.000
 3895.00    0.73861   0.69627   -1.000
 3896.00    0.74804   0.71118   -1.000
 3897.00    0.74077   0.72442   -1.000
 3898.00    0.74485   0.73378  180.331
 3899.00    0.77666   0.74059   -1.000
 3900.00    0.77694   0.74727   -1.000
 3901.00    0.77327   0.75246   -1.000
 3902.00    0.78778   0.75355   -1.000
 3903.00    0.80725   0.75073   -1.000
 3904.00    0.78927   0.74798   -1.000
 3905.00    0.78905   0.75108   -1.000
 3906.00    0.79740   0.76338   -1.000
 3907.00    0.80120   0.78322   -1.000
 3908.00    0.82784   0.80444   -1.000
 3909.00    0.86251   0.82056   -1.000
 3910.00    0.86666   0.82904   -1.000
 3911.00    0.85930   0.83147   -1.000
 3912.00    0.86738   0.82937   -1.000
 3913.00    0.86001   0.82358   -1.000
 3914.00    0.85065   0.81718   -1.000
 3915.00    0.83711   0.81326   -1.000
 3916.00    0.84371   0.81029   -1.000
 3917.00    0.83595   0.80485   -1.000
 3918.00    0.81592   0.79665   -1.000
 3919.00    0.80853   0.78864   -1.000
 3920.00    0.80042   0.78347   -1.000
 3921.00    0.80264   0.78193   -1.000
 3922.00    0.80060   0.78337   -1.000
 3923.00    0.81314   0.78471   -1.000
 3924.00    0.82992   0.78108   -1.000
 3925.00    0.83102   0.76774   -1.000
 3926.00    0.79691   0.74299   43.384
 3927.00    0.73739   0.70796   33.229
 3928.00    0.67379   0.66327   38.912
 3929.00    0.61062   0.60759   45.858
 3930.00    0.52526   0.53799   53.888
 3931.00    0.44365   0.45992   60.350
 3932.00    0.39697   0.39340   60.441
 3933.00    0.38874   0.36376   54.070
 3934.00    0.42755   0.38546   45.331
 3935.00    0.50054   0.44975   37.285
 3936.00    0.57273   0.53208   31.122
 3937.00    0.61393   0.61122   70.460
 3938.00    0.65528   0.67600   -1.000
 3939.00    0.71448   0.72203  235.345
 3940.00    0.76075   0.75118   -1.000
 3941.00    0.76702   0.76677  230.307
 3942.00    0.77921   0.77296  222.325
 3943.00    0.79701   0.77655   -1.000
 3944.00    0.79867   0.78363   -1.000
 3945.00    0.80589   0.79480   -1.000
 3946.00    0.82350   0.80522   -1.000
 3947.00    0.83660   0.80982   -1.000
 3948.00    0.83795   0.80882   -1.000
 3949.00    0.85190   0.80593   -1.000
 3950.00    0.85899   0.80354   -1.000
 3951.00    0.84752   0.80295   -1.000
 3952.00    0.84052   0.80559   -1.000
 3953.00    0.85229   0.80955   -1.000
 3954.00    0.87119   0.81004   -1.000
 3955.00    0.86781   0.80498   -1.000
 3956.00    0.82847   0.79698   -1.000
 3957.00    0.81904   0.79023   -1.000
 3958.00    0.83019   0.78372   -1.000
 3959.00    0.81459   0.77058   -1.000
 3960.00    0.78784   0.74770   -1.000
 3961.00    0.76043   0.71795   -1.000
 3962.00    0.70920   0.68447   40.174
 3963.00    0.65740   0.64565   31.372
 3964.00    0.59485   0.59298   38.034
 3965.00    0.49730   0.52136   46.700
 3966.00    0.41387   0.43778   53.493
 3967.00    0.36784   0.36275   52.510
 3968.00    0.34437   0.32249   44.771
 3969.00    0.34176   0.33161   36.794
 3970.00    0.37426   0.38438   30.621
 3971.00    0.45827   0.46111   71.257
 3972.00    0.53754   0.54046  229.681
 3973.00    0.60552   0.60924  205.713
 3974.00    0.67817   0.66490  188.322
 3975.00    0.73383   0.70901   -1.000
 3976.00    0.76758   0.74448   -1.000
 3977.00    0.80037   0.77343   -1.000
 3978.00    0.83110   0.79627   -1.000
 3979.00    0.85320   0.81159   -1.000
 3980.00    0.85340   0.81938   -1.000
 3981.00    0.84818   0.82381   -1.000
 3982.00    0.84989   0.82964   -1.000
 3983.00    0.84991   0.83904  150.790
 3984.00    0.88183   0.85111   -1.000
 3985.00    0.92165   0.86334   -1.000
 3986.00    0.91537   0.87460   -1.000
 3987.00    0.90482   0.88445   -1.000
 3988.00    0.91812   0.89113   -1.000
 3989.00    0.93966   0.89481   -1.000
 3990.00    0.94074   0.89877   -1.000
 3991.00    0.93593   0.90495   -1.000
 3992.00    0.96418   0.91178   -1.000
 3993.00    0.95979   0.91526   -1.000
 3994.00    0.94392   0.91211   -1.000
 3995.00    0.92244   0.90275   -1.000
 3996.00    0.89596   0.89274  146.053
 3997.00    0.89872   0.88921  140.256
 3998.00    0.91914   0.89500   -1.000
 3999.00    0.93969   0.90662   -1.000
 4000.00    0.96745   0.91796   -1.000
 4001.00    0.98721   0.92470   -1.000
 4002.00    0.97376   0.92448   -1.000
 4003.00    0.96301   0.91721   -1.000
 4004.00    0.94926   0.90727   -1.000
 4005.00    0.91698   0.90268  141.297
 4006.00    0.91322   0.90815  134.889
 4007.00    0.95573   0.92126   -1.000
 4008.00    0.97116   0.93507   -1.000
 4009.00    0.98266   0.94433   -1.000
 4010.00    1.02011   0.94892   -1.000
 4011.00    0.99775   0.95080   -1.000
 4012.00    0.96104   0.95172  130.737
 4013.00    0.97477   0.95341  129.106
 4014.00    1.00090   0.95688   -1.000
 4015.00    0.99574   0.96126   -1.000
 4016.00    0.98718   0.96531   -1.000
 4017.00    0.99655   0.96920   -1.000
 4018.00    1.00736   0.97308   -1.000
 4019.00    0.99563   0.97578  130.310
 4020.00    1.01103   0.97561   -1.000
 4021.00    1.01268   0.97218   -1.000
 4022.00    0.99207   0.96704   -1.000
 4023.00    0.98441   0.96243  131.149
 4024.00    1.00842   0.96117   -1.000
 4025.00    1.00230   0.96548   -1.000
 4026.00    0.99830   0.97399  123.772
 4027.00    1.01280   0.98036   -1.000
 4028.00    1.01452   0.97797   -1.000
 4029.00    0.98523   0.96576  142.430
 4030.00    0.95569   0.94961  145.331
 4031.00    0.94875   0.93766  144.446
 4032.00    0.95059   0.93447  140.471
 4033.00    0.96533   0.94071   -1.000
 4034.00    0.94417   0.95519  127.454
 4035.00    0.97734   0.97475  122.471
 4036.00    1.00461   0.99410  120.948
 4037.00    1.03146   1.00701   -1.000
 4038.00    1.05378   1.01045   -1.000
 4039.00    1.05202   1.00697   -1.000
 4040.00    1.03565   1.00090   -1.000
 4041.00    1.02013   0.99350   -1.000
 4042.00    1.00000   0.98135  144.050
 4043.00    1.00658   0.96211   -1.000
 4044.00    0.98332   0.94114   -1.000
 4045.00    0.94462   0.93012  141.717
 4046.00    0.94485   0.93759  131.658
 4047.00    0.96323   0.95965  126.788
 4048.00    0.99184   0.98358  124.768
 4049.00    1.01797   0.99925  125.015
 4050.00    1.03342   1.00512   -1.000
 4051.00    1.04369   1.00433   -1.000
 4052.00    1.04185   0.99981   -1.000
 4053.00    1.00773   0.99438  134.926
 4054.00    0.99593   0.99011  135.873
 4055.00    1.00522   0.98773  137.165
 4056.00    0.98048   0.98752  136.369
 4057.00    0.98445   0.99059  132.246
 4058.00    1.00085   0.99740  129.005
 4059.00    1.02204   1.00326  129.947
 4060.00    1.04328   1.00021   -1.000
 4061.00    1.00466   0.98475   -1.000
 4062.00    0.98383   0.96351   -1.000
 4063.00    0.97251   0.94731   -1.000
 4064.00    0.96100   0.94163  137.758
 4065.00    0.96534   0.94575  134.154
 4066.00    0.99180   0.95439   -1.000
 4067.00    1.02894   0.96135   -1.000
 4068.00    1.04020   0.96318   -1.000
 4069.00    1.00774   0.95852   -1.000
 4070.00    0.99323   0.94869   -1.000
 4071.00    0.97521   0.94021   -1.000
 4072.00    0.97294   0.93894   -1.000
 4073.00    0.99811   0.94241   -1.000
 4074.00    0.99387   0.94232   -1.000
 4075.00    0.98763   0.93346   -1.000
 4076.00    0.96493   0.92027   -1.000
 4077.00    0.93121   0.91287  141.577
 4078.00    0.93296   0.91864  131.759
 4079.00    0.95807   0.93579  126.454
 4080.00    0.99636   0.95479   -1.000
 4081.00    1.01072   0.96627   -1.000
 4082.00    1.00643   0.96693   -1.000
 4083.00    0.98252   0.96061  132.631
 4084.00    0.96072   0.95458  128.723
 4085.00    0.96841   0.95461  123.885
 4086.00    0.99027   0.96126   -1.000
 4087.00    1.00907   0.97020   -1.000
 4088.00    1.02772   0.97578   -1.000
 4089.00    1.02044   0.97532   -1.000
 4090.00    1.01709   0.97040   -1.000
 4091.00    1.00348   0.96316   -1.000
 4092.00    0.96658   0.95312  127.287
 4093.00    0.95482   0.93892  132.281
 4094.00    0.95671   0.92011   -1.000
 4095.00    0.92488   0.89742   -1.000
 4096.00    0.88810   0.87135  141.000
 4097.00    0.86486   0.83927   -1.000
 4098.00    0.86213   0.79688   -1.000
 4099.00    0.83797   0.74455   -1.000
 4100.00    0.75663   0.69528   -1.000
 4101.00    0.68417   0.67106  160.100
 4102.00    0.68483   0.68694  147.262
 4103.00    0.72730   0.73609  138.490
 4104.00    0.80056   0.79601  133.498
 4105.00    0.87547   0.84650   -1.000
 4106.00    0.88068   0.88027  132.841
 4107.00    0.88690   0.90080  135.142
 4108.00    0.92479   0.91382  137.323
 4109.00    0.94913   0.92397   -1.000
 4110.00    0.95165   0.93436  133.716
 4111.00    0.95501   0.94636  131.226
 4112.00    0.96064   0.95991  129.155
 4113.00    0.99956   0.97393   -1.000
 4114.00    1.01619   0.98628   -1.000
 4115.00    0.99283   0.99335  130.143
 4116.00    0.99534   0.99279  134.194
 4117.00    0.99416   0.98633  136.514
 4118.00    0.98423   0.97895  135.562
 4119.00    1.01341   0.97608   -1.000
 4120.00    1.01208   0.97948   -1.000
 4121.00    1.00385   0.98662  132.777
 4122.00    1.00926   0.99422  130.614
 4123.00    1.03756   1.00102   -1.000
 4124.00    1.04559   1.00698   -1.000
 4125.00    1.05781   1.01092   -1.000
 4126.00    1.05828   1.01169   -1.000
 4127.00    1.02828   1.01033  135.885
 4128.00    1.02627   1.00832  137.354
 4129.00    1.02480   1.00460  141.093
 4130.00    1.01424   0.99766  145.598
 4131.00    0.98894   0.98967  146.981
 4132.00    0.99391   0.98667  143.287
 4133.00    1.00625   0.99299  136.539
 4134.00    1.00301   1.00672  131.502
 4135.00    1.02437   1.02274  128.900
 4136.00    1.03510   1.03754  126.887
 4137.00    1.04568   1.04982  126.041
 4138.00    1.06753   1.05802  127.922
 4139.00    1.07945   1.05844  133.742
 4140.00    1.08433   1.04847   -1.000
 4141.00    1.05549   1.03063   -1.000
 4142.00    1.03518   1.01297   -1.000
 4143.00    1.00403   1.00487  141.926
 4144.00    0.99684   1.00984  135.861
 4145.00    1.02221   1.02281  133.644
 4146.00    1.05565   1.03462  135.322
 4147.00    1.06623   1.04064   -1.000
 4148.00    1.04934   1.04289  141.135
 4149.00    1.03550   1.04432  140.712
 4150.00    1.03895   1.04510  139.827
 4151.00    1.03533   1.04358  140.663
 4152.00    1.02867   1.03949  142.787
 4153.00    1.10895   1.03494   -1.000
 4154.00    1.34942   1.03306   -1.000
 4155.00    1.22939   1.03611   -1.000
 4156.00    0.80352   1.04364   -1.000
 4157.00    0.88739   1.05328   -1.000
 4158.00    1.08587   1.06207   -1.000
 4159.00    1.09579   1.06814   -1.000
 4160.00    1.07486   1.07183  129.340
 4161.00    1.07091   1.07480  129.650
 4162.00    1.07780   1.07856  131.518
 4163.00    1.07206   1.08252  133.545
 4164.00    1.06280   1.08404   -1.000
 4165.00    1.06521   1.08093  138.668
 4166.00    1.06432   1.07506  138.294
 4167.00    1.05482   1.07025  136.135
 4168.00    1.05741   1.06727  136.717
 4169.00    1.06697   1.06253  143.436
 4170.00    1.06576   1.05133  152.260
 4171.00    1.05064   1.03554  154.631
 4172.00    1.00969   1.02345  150.225
 4173.00    1.00396   1.02149  144.735
 4174.00    1.01960   1.02920  143.513
 4175.00    1.03513   1.03966  144.208
 4176.00    1.02522   1.04726   -1.000
 4177.00    1.03791   1.05235  141.966
 4178.00    1.05020   1.05744  140.400
 4179.00    1.06562   1.06295  140.212
 4180.00    1.07494   1.06594  139.054
 4181.00    1.06690   1.06608  136.499
 4182.00    1.06277   1.06764  133.999
 4183.00    1.06242   1.07132  133.661
 4184.00    1.07112   1.07284  137.312
 4185.00    1.05899   1.06904  141.458
 4186.00    1.06778   1.06216  141.295
 4187.00    1.05406   1.05786  138.421
 4188.00    1.04421   1.05875  137.089
 4189.00    1.06622   1.06255  135.483
 4190.00    1.05774   1.06610  132.750
 4191.00    1.07264   1.06906  130.748
 4192.00    1.08275   1.07284  133.433
 4193.00    1.08870   1.07591  139.909
 4194.00    1.08200   1.07309  145.156
 4195.00    1.05481   1.06213  148.151
 4196.00    1.05200   1.04655  148.912
 4197.00    1.04535   1.03194  147.642
 4198.00    1.01392   1.02261  145.391
 4199.00    1.01940   1.02033  144.604
 4200.00    1.04316   1.02334  143.796
 4201.00    1.05649   1.02880   -1.000
 4202.00    1.04981   1.03663  140.508
 4203.00    1.05084   1.04724  138.111
 4204.00    1.03051   1.05844   -1.000
 4205.00    1.04800   1.06786  131.995
 4206.00    1.06047   1.07507  130.975
 4207.00    1.07751   1.08011  131.309
 4208.00    1.07627   1.08302  131.202
 4209.00    1.10242   1.08514  130.387
 4210.00    1.07574   1.08836  130.817
 4211.00    1.06697   1.09229   -1.000
 4212.00    1.06201   1.09197   -1.000
 4213.00    1.05788   1.08360   -1.000
 4214.00    1.06546   1.07125  141.479
 4215.00    1.06525   1.06307  133.115
 4216.00    1.05841   1.06488  126.691
 4217.00    1.05519   1.07552  122.797
 4218.00    1.08495   1.08868  121.095
 4219.00    1.10872   1.09882  121.755
 4220.00    1.10707   1.10307  126.056
 4221.00    1.08155   1.09904  134.270
 4222.00    1.08084   1.08348  146.877
 4223.00    1.08866   1.05459   -1.000
 4224.00    1.05303   1.01901   -1.000
 4225.00    0.99520   0.99078  174.320
 4226.00    0.95754   0.98479   -1.000
 4227.00    0.95699   1.00650   -1.000
 4228.00    1.01680   1.04650   -1.000
 4229.00    1.06257   1.08431  125.797
 4230.00    1.07643   1.10421   -1.000
 4231.00    1.08064   1.10586   -1.000
 4232.00    1.08653   1.09687  133.013
 4233.00    1.08275   1.08527  135.799
 4234.00    1.07386   1.07826  138.424
 4235.00    1.06760   1.07786  138.020
 4236.00    1.07007   1.08164  135.127
 4237.00    1.06033   1.08794   -1.000
 4238.00    1.05892   1.09597   -1.000
 4239.00    1.07712   1.10543   -1.000
 4240.00    1.09680   1.11592  127.869
 4241.00    1.08341   1.12528   -1.000
 4242.00    1.07923   1.13081   -1.000
 4243.00    1.09091   1.13111   -1.000
 4244.00    1.07889   1.12585   -1.000
 4245.00    1.09971   1.11462  134.127
 4246.00    1.06938   1.09939   -1.000
 4247.00    1.05870   1.08479   -1.000
 4248.00    1.03782   1.07529   -1.000
 4249.00    1.03177   1.07333   -1.000
 4250.00    1.04272   1.07922   -1.000
 4251.00    1.07352   1.08896  132.229
 4252.00    1.08497   1.09642  135.419
 4253.00    1.07220   1.09933   -1.000
 4254.00    1.06957   1.10098   -1.000
 4255.00    1.06266   1.10555   -1.000
 4256.00    1.08338   1.11065   -1.000
 4257.00    1.09904   1.10939  139.042
 4258.00    1.09570   1.10040  143.434
 4259.00    1.07248   1.09098  139.494
 4260.00    1.05067   1.09060   -1.000
 4261.00    1.04940   1.10198   -1.000
 4262.00    1.07661   1.11973   -1.000
 4263.00    1.10498   1.13520   -1.000
 4264.00    1.12508   1.14274  122.194
 4265.00    1.12868   1.14272  125.955
 4266.00    1.12719   1.13751  129.869
 4267.00    1.10453   1.12753   -1.000
 4268.00    1.08146   1.11230   -1.000
 4269.00    1.07867   1.09255  152.038
 4270.00    1.07058   1.07300  154.911
 4271.00    1.02609   1.06000   -1.000
 4272.00    1.00586   1.05728   -1.000
 4273.00    1.00712   1.06471   -1.000
 4274.00    1.02456   1.07974   -1.000
 4275.00    1.04728   1.09971   -1.000
 4276.00    1.08200   1.12077   -1.000
 4277.00    1.10599   1.13539   -1.000
 4278.00    1.11837   1.13805  135.281
 4279.00    1.09458   1.13011   -1.000
 4280.00    1.06560   1.11916   -1.000
 4281.00    1.06790   1.11260   -1.000
 4282.00    1.07799   1.11162   -1.000
 4283.00    1.09383   1.11275  138.284
 4284.00    1.09397   1.11117  141.893
 4285.00    1.08267   1.10373  144.146
 4286.00    1.05009   1.08984   -1.000
 4287.00    1.03497   1.07158   -1.000
 4288.00    1.03416   1.05337  157.926
 4289.00    1.01904   1.04226   -1.000
 4290.00    1.00400   1.04351   -1.000
 4291.00    1.01241   1.05504   -1.000
 4292.00    1.04199   1.06783   -1.000
 4293.00    1.06453   1.07422  140.921
 4294.00    1.05192   1.07379   -1.000
 4295.00    1.03820   1.06805   -1.000
 4296.00    1.03048   1.05481   -1.000
 4297.00    1.00506   1.03361   -1.000
 4298.00    0.96816   1.00830   -1.000
 4299.00    0.92506   0.98613   -1.000
 4300.00    0.90826   0.97369   -1.000
 4301.00    0.92795   0.97276   -1.000
 4302.00    0.95426   0.97989   -1.000
 4303.00    0.93970   0.98934   -1.000
 4304.00    0.95385   0.99462   -1.000
 4305.00    0.97061   0.99171   -1.000
 4306.00    0.97501   0.98285  187.052
 4307.00    0.93910   0.97497   -1.000
 4308.00    0.90505   0.97478   -1.000
 4309.00    0.90391   0.98367   -1.000
 4310.00    0.91915   0.99823   -1.000
 4311.00    0.95847   1.01408   -1.000
 4312.00    0.98016   1.03034   -1.000
 4313.00    0.98938   1.05120   -1.000
 4314.00    1.02227   1.07998   -1.000
 4315.00    1.07817   1.11537   -1.000
 4316.00    1.12048   1.14828   -1.000
 4317.00    1.14063   1.16866   -1.000
 4318.00    1.16166   1.17380  117.631
 4319.00    1.15609   1.16791  121.459
 4320.00    1.14332   1.15566  127.220
 4321.00    1.12817   1.13831  136.238
 4322.00    1.08611   1.11556   -1.000
 4323.00    1.05116   1.09029   -1.000
 4324.00    1.01161   1.07132   -1.000
 4325.00    0.99666   1.06929   -1.000
 4326.00    1.03973   1.08560   -1.000
 4327.00    1.08396   1.11075   -1.000
 4328.00    1.11699   1.13108  119.209
 4329.00    1.12062   1.13965  118.719
 4330.00    1.10400   1.13971   -1.000
 4331.00    1.11983   1.13678  115.480
 4332.00    1.10578   1.13134   -1.000
 4333.00    1.07707   1.11930   -1.000
 4334.00    1.07499   1.09583  123.683
 4335.00    1.05203   1.05697  135.281
 4336.00    1.01735   1.00102  148.001
 4337.00    0.96478   0.93115   -1.000
 4338.00    0.88198   0.86249  165.567
 4339.00    0.79364   0.81709   -1.000
 4340.00    0.74679   0.81359   -1.000
 4341.00    0.78689   0.85476   -1.000
 4342.00    0.87578   0.92368   -1.000
 4343.00    0.94867   0.99340   -1.000
 4344.00    1.00034   1.04765   -1.000
 4345.00    1.02838   1.08557   -1.000
 4346.00    1.07740   1.11253   -1.000
 4347.00    1.09887   1.13085   -1.000
 4348.00    1.09716   1.13786   -1.000
 4349.00    1.12259   1.13157  132.301
 4350.00    1.09086   1.11813   -1.000
 4351.00    1.05544   1.10907   -1.000
 4352.00    1.04171   1.11402   -1.000
 4353.00    1.06851   1.13300   -1.000
 4354.00    1.09281   1.15714   -1.000
 4355.00    1.11842   1.17636   -1.000
 4356.00    1.15243   1.18627   -1.000
 4357.00    1.17201   1.18846  121.501
 4358.00    1.16787   1.18785  119.563
 4359.00    1.16690   1.18982  116.008
 4360.00    1.17823   1.19650  114.467
 4361.00    1.18440   1.20626  113.935
 4362.00    1.16474   1.21548   -1.000
 4363.00    1.17629   1.22125   -1.000
 4364.00    1.19614   1.22214   -1.000
 4365.00    1.18737   1.21766   -1.000
 4366.00    1.18565   1.20887   -1.000
 4367.00    1.16543   1.19962   -1.000
 4368.00    1.15037   1.19311   -1.000
 4369.00    1.16494   1.18923   -1.000
 4370.00    1.17706   1.18553  120.636
 4371.00    1.17104   1.17866  125.207
 4372.00    1.16565   1.16717  130.258
 4373.00    1.14943   1.15352  130.868
 4374.00    1.11774   1.14552   -1.000
 4375.00    1.13309   1.15085  119.672
 4376.00    1.16237   1.16964  117.152
 4377.00    1.19260   1.19162  117.601
 4378.00    1.17412   1.20487   -1.000
 4379.00    1.19385   1.20349  124.915
 4380.00    1.17948   1.18677  137.994
 4381.00    1.16408   1.15767  153.773
 4382.00    1.13560   1.12621  157.003
 4383.00    1.10268   1.10631  143.847
 4384.00    1.06520   1.10673   -1.000
 4385.00    1.10209   1.12495   -1.000
 4386.00    1.14000   1.14847  124.891
 4387.00    1.14910   1.16641  126.168
 4388.00    1.15135   1.17628   -1.000
 4389.00    1.16672   1.18128  124.469
 4390.00    1.18629   1.18510  121.668
 4391.00    1.19600   1.18853  122.159
 4392.00    1.19820   1.18916  124.746
 4393.00    1.19528   1.18543  124.595
 4394.00    1.19338   1.18194  119.299
 4395.00    1.18278   1.18522  115.611
 4396.00    1.18575   1.19409  116.796
 4397.00    1.20524   1.20103  120.941
 4398.00    1.19685   1.20072  124.646
 4399.00    1.18645   1.19537  123.631
 4400.00    1.18598   1.19080  121.418
 4401.00    1.19498   1.18923  125.110
 4402.00    1.20513   1.18782  132.281
 4403.00    1.20414   1.18382  133.980
 4404.00    1.17924   1.17969  129.880
 4405.00    1.16207   1.18044  127.744
 4406.00    1.17229   1.18687  126.563
 4407.00    1.17553   1.19640  122.009
 4408.00    1.15622   1.20866   -1.000
 4409.00    1.15602   1.22440   -1.000
 4410.00    1.20379   1.24001   -1.000
 4411.00    1.23120   1.24796  113.875
 4412.00    1.27040   1.24330  120.221
 4413.00    1.23020   1.22761  124.826
 4414.00    1.18560   1.20811   -1.000
 4415.00    1.17175   1.19563   -1.000
 4416.00    1.15470   1.19758   -1.000
 4417.00    1.16156   1.21337   -1.000
 4418.00    1.17625   1.23436   -1.000
 4419.00    1.18486   1.25069   -1.000
 4420.00    1.18791   1.25711   -1.000
 4421.00    1.17754   1.25554   -1.000
 4422.00    1.17104   1.25138   -1.000
 4423.00    1.17328   1.24761   -1.000
 4424.00    1.18629   1.24410   -1.000
 4425.00    1.18698   1.24110   -1.000
 4426.00    1.15997   1.24081   -1.000
 4427.00    1.15647   1.24492   -1.000
 4428.00    1.17929   1.25169   -1.000
 4429.00    1.17732   1.25788   -1.000
 4430.00    1.17260   1.26152   -1.000
 4431.00    1.18620   1.26129   -1.000
 4432.00    1.20845   1.25527   -1.000
 4433.00    1.20027   1.24427   -1.000
 4434.00    1.16669   1.23481   -1.000
 4435.00    1.14391   1.23659   -1.000
 4436.00    1.19140   1.25343   -1.000
 4437.00    1.24445   1.27691   -1.000
 4438.00    1.25719   1.29308   -1.000
 4439.00    1.25701   1.29237   -1.000
 4440.00    1.24458   1.27625   -1.000
 4441.00    1.21542   1.25487   -1.000
 4442.00    1.18179   1.24126   -1.000
 4443.00    1.17399   1.24283   -1.000
 4444.00    1.18749   1.25720   -1.000
 4445.00    1.23710   1.27527   -1.000
 4446.00    1.24401   1.28874   -1.000
 4447.00    1.23771   1.29576   -1.000
 4448.00    1.25975   1.29862   -1.000
 4449.00    1.25749   1.29942   -1.000
 4450.00    1.24747   1.29894   -1.000
 4451.00    1.25765   1.29624   -1.000
 4452.00    1.26100   1.28877   -1.000
 4453.00    1.25377   1.27585   -1.000
 4454.00    1.24286   1.26321  124.012
 4455.00    1.21677   1.25860   -1.000
 4456.00    1.21251   1.26364   -1.000
 4457.00    1.23381   1.27201   -1.000
 4458.00    1.25123   1.27723   -1.000
 4459.00    1.24802   1.27847   -1.000
 4460.00    1.24028   1.27911   -1.000
 4461.00    1.24665   1.28294   -1.000
 4462.00    1.26026   1.29053   -1.000
 4463.00    1.27123   1.29862   -1.000
 4464.00    1.27626   1.30265   -1.000
 4465.00    1.26308   1.30015   -1.000
 4466.00    1.27482   1.29212  118.038
 4467.00    1.26921   1.28287  118.848
 4468.00    1.22612   1.27812   -1.000
 4469.00    1.23863   1.28252   -1.000
 4470.00    1.25864   1.29662   -1.000
 4471.00    1.28301   1.31559   -1.000
 4472.00    1.29527   1.33263   -1.000
 4473.00    1.31286   1.34317   -1.000
 4474.00    1.32673   1.34744  105.015
 4475.00    1.33367   1.34871  104.378
 4476.00    1.32310   1.34908   -1.000
 4477.00    1.33330   1.34649  109.006
 4478.00    1.30438   1.33680   -1.000
 4479.00    1.30855   1.32071  117.291
 4480.00    1.29456   1.30580  116.210
 4481.00    1.27765   1.30144   -1.000
 4482.00    1.26566   1.31194   -1.000
 4483.00    1.26772   1.33282   -1.000
 4484.00    1.31363   1.35412   -1.000
 4485.00    1.33438   1.36711   -1.000
 4486.00    1.33867   1.36848   -1.000
 4487.00    1.33390   1.36046   -1.000
 4488.00    1.32743   1.35013   -1.000
 4489.00    1.31248   1.34527   -1.000
 4490.00    1.30486   1.34854   -1.000
 4491.00    1.31833   1.35477   -1.000
 4492.00    1.32260   1.35627   -1.000
 4493.00    1.30921   1.35141   -1.000
 4494.00    1.30806   1.34527   -1.000
 4495.00    1.30908   1.34327   -1.000
 4496.00    1.28800   1.34643   -1.000
 4497.00    1.28133   1.35138   -1.000
 4498.00    1.29940   1.35340   -1.000
 4499.00    1.30254   1.35070   -1.000
 4500.00    1.29139   1.34761   -1.000
 4501.00    1.29550   1.35092   -1.000
 4502.00    1.33716   1.36275   -1.000
 4503.00    1.36613   1.37776  100.277
 4504.00    1.36564   1.38815  102.300
 4505.00    1.38794   1.39067  103.356
 4506.00    1.38045   1.38803  103.472
 4507.00    1.35060   1.38532   -1.000
 4508.00    1.35652   1.38550   -1.000
 4509.00    1.37624   1.38767  102.789
 4510.00    1.38215   1.38877  104.796
 4511.00    1.37113   1.38730  106.686
 4512.00    1.35838   1.38426   -1.000
 4513.00    1.38058   1.38098  106.905
 4514.00    1.36297   1.37806  106.806
 4515.00    1.33519   1.37546   -1.000
 4516.00    1.35717   1.37271  108.731
 4517.00    1.35042   1.36957  106.969
 4518.00    1.33387   1.36737   -1.000
 4519.00    1.32211   1.36767   -1.000
 4520.00    1.34928   1.36910  107.517
 4521.00    1.35872   1.36811  109.724
 4522.00    1.33529   1.36350   -1.000
 4523.00    1.33345   1.35786   -1.000
 4524.00    1.30895   1.35315   -1.000
 4525.00    1.30238   1.34771   -1.000
 4526.00    1.29716   1.33945   -1.000
 4527.00    1.30090   1.33001   -1.000
 4528.00    1.29626   1.32380   -1.000
 4529.00    1.30420   1.32305  115.690
 4530.00    1.31022   1.32520  115.072
 4531.00    1.29417   1.32460   -1.000
 4532.00    1.31589   1.31797  122.221
 4533.00    1.32069   1.30948  120.808
 4534.00    1.29384   1.30852  114.040
 4535.00    1.28298   1.32107   -1.000
 4536.00    1.30724   1.34459   -1.000
 4537.00    1.34400   1.37011   -1.000
 4538.00    1.36722   1.38833  107.722
 4539.00    1.35412   1.39561   -1.000
 4540.00    1.33651   1.39518   -1.000
 4541.00    1.39381   1.39276  106.506
 4542.00    1.11277   1.39140   -1.000
 4543.00    0.10515   1.39025   -1.000
 4544.00   -0.04566   1.38777    0.000
 4545.00    0.25842   1.38371   -1.000
 4546.00    0.96596   1.37700   -1.000
 4547.00    0.33375   1.36602   -1.000
 4548.00    1.16950   1.35343   -1.000
 4549.00    1.28450   1.34687   -1.000
 4550.00    1.29841   1.35056   -1.000
 4551.00    1.33702   1.35865   -1.000
 4552.00    1.34186   1.36181  114.427
 4553.00    1.29570   1.35874   -1.000
 4554.00    1.30393   1.35693   -1.000
 4555.00    1.31576   1.36393   -1.000
 4556.00    1.33529   1.38008   -1.000
 4557.00    1.36228   1.39902   -1.000
 4558.00    1.37812   1.41406   -1.000
 4559.00    1.38570   1.42263   -1.000
 4560.00    1.37894   1.42448   -1.000
 4561.00    1.38658   1.41972   -1.000
 4562.00    1.38565   1.41057   -1.000
 4563.00    1.36284   1.40262   -1.000
 4564.00    1.36085   1.40173   -1.000
 4565.00    1.38622   1.40909   -1.000
 4566.00    1.39701   1.42014   -1.000
 4567.00    1.40123   1.42801   -1.000
 4568.00    1.39987   1.42785   -1.000
 4569.00    1.39941   1.41935  108.506
 4570.00    1.37287   1.40722   -1.000
 4571.00    1.33297   1.39953   -1.000
 4572.00    1.35131   1.40235   -1.000
 4573.00    1.36619   1.41345   -1.000
 4574.00    1.38474   1.42427   -1.000
 4575.00    1.41077   1.42873  104.136
 4576.00    1.40270   1.42687   -1.000
 4577.00    1.38800   1.42083   -1.000
 4578.00    1.38270   1.41176   -1.000
 4579.00    1.37164   1.40123   -1.000
 4580.00    1.34418   1.39234   -1.000
 4581.00    1.35787   1.38765   -1.000
 4582.00    1.36239   1.38704   -1.000
 4583.00    1.34176   1.38931   -1.000
 4584.00    1.36046   1.39415   -1.000
 4585.00    1.36263   1.40144   -1.000
 4586.00    1.36000   1.41010   -1.000
 4587.00    1.40989   1.41814  102.941
 4588.00    1.42561   1.42367  104.437
 4589.00    1.41058   1.42604  106.390
 4590.00    1.39306   1.42567   -1.000
 4591.00    1.37984   1.42358   -1.000
 4592.00    1.37370   1.42213   -1.000
 4593.00    1.36346   1.42387   -1.000
 4594.00    1.37968   1.42913   -1.000
 4595.00    1.39432   1.43593   -1.000
 4596.00    1.38823   1.44139   -1.000
 4597.00    1.38272   1.44331   -1.000
 4598.00    1.39837   1.44107   -1.000
 4599.00    1.40258   1.43563   -1.000
 4600.00    1.41703   1.42927  106.928
 4601.00    1.39360   1.42513   -1.000
 4602.00    1.38510   1.42542   -1.000
 4603.00    1.38633   1.42976   -1.000
 4604.00    1.40765   1.43554   -1.000
 4605.00    1.39889   1.44079   -1.000
 4606.00    1.41314   1.44597   -1.000
 4607.00    1.40059   1.45224   -1.000
 4608.00    1.43965   1.45885   99.549
 4609.00    1.43479   1.46302   -1.000
 4610.00    1.45255   1.46300  102.050
 4611.00    1.43690   1.46044  102.714
 4612.00    1.42485   1.45844   -1.000
 4613.00    1.41208   1.45816   -1.000
 4614.00    1.42508   1.45877   -1.000
 4615.00    1.43330   1.45910   -1.000
 4616.00    1.44014   1.45870  102.321
 4617.00    1.42527   1.45800   -1.000
 4618.00    1.41629   1.45846   -1.000
 4619.00    1.43622   1.46188   -1.000
 4620.00    1.44128   1.46838   -1.000
 4621.00    1.43690   1.47518   -1.000
 4622.00    1.45134   1.47851   -1.000
 4623.00    1.43682   1.47719   -1.000
 4624.00    1.42130   1.47345   -1.000
 4625.00    1.41765   1.47029   -1.000
 4626.00    1.41204   1.46903   -1.000
 4627.00    1.41869   1.46910   -1.000
 4628.00    1.40694   1.46980   -1.000
 4629.00    1.39518   1.47179   -1.000
 4630.00    1.42594   1.47549   -1.000
 4631.00    1.44748   1.47912   -1.000
 4632.00    1.44884   1.48047   -1.000
 4633.00    1.43892   1.47970   -1.000
 4634.00    1.44117   1.47863   -1.000
 4635.00    1.44864   1.47797   -1.000
 4636.00    1.45353   1.47693   -1.000
 4637.00    1.45835   1.47571  105.825
 4638.00    1.41188   1.47638   -1.000
 4639.00    1.41440   1.48071   -1.000
 4640.00    1.45135   1.48801   -1.000
 4641.00    1.45487   1.49536   -1.000
 4642.00    1.44748   1.49938   -1.000
 4643.00    1.45626   1.49805   -1.000
 4644.00    1.46148   1.49156   -1.000
 4645.00    1.46649   1.48213  108.655
 4646.00    1.44347   1.47393   -1.000
 4647.00    1.43360   1.47199   -1.000
 4648.00    1.43708   1.47778   -1.000
 4649.00    1.42652   1.48719   -1.000
 4650.00    1.46261   1.49458   -1.000
 4651.00    1.47313   1.49710   -1.000
 4652.00    1.45929   1.49503   -1.000
 4653.00    1.47109   1.49039  107.278
 4654.00    1.43778   1.48624   -1.000
 4655.00    1.42599   1.48581   -1.000
 4656.00    1.42571   1.49110   -1.000
 4657.00    1.43025   1.50245   -1.000
 4658.00    1.47293   1.51727   -1.000
 4659.00    1.48680   1.52973   -1.000
 4660.00    1.50266   1.53464   -1.000
 4661.00    1.47049   1.53153   -1.000
 4662.00    1.45002   1.52395   -1.000
 4663.00    1.45831   1.51511   -1.000
 4664.00    1.46323   1.50518   -1.000
 4665.00    1.45946   1.49268   -1.000
 4666.00    1.45103   1.47865   -1.000
 4667.00    1.42207   1.46855   -1.000
 4668.00    1.39916   1.46826   -1.000
 4669.00    1.40514   1.47796   -1.000
 4670.00    1.43089   1.49210   -1.000
 4671.00    1.46588   1.50432   -1.000
 4672.00    1.48605   1.51182   -1.000
 4673.00    1.47402   1.51615   -1.000
 4674.00    1.48694   1.52006   -1.000
 4675.00    1.48381   1.52375   -1.000
 4676.00    1.48324   1.52447   -1.000
 4677.00    1.48865   1.51992   -1.000
 4678.00    1.48356   1.51134   -1.000
 4679.00    1.45309   1.50212   -1.000
 4680.00    1.42867   1.49550   -1.000
 4681.00    1.41691   1.49382   -1.000
 4682.00    1.45248   1.49756   -1.000
 4683.00    1.49397   1.50443  101.364
 4684.00    1.49147   1.51067  101.392
 4685.00    1.49217   1.51388  101.994
 4686.00    1.49953   1.51448  101.978
 4687.00    1.49187   1.51451  101.989
 4688.00    1.49574   1.51528  102.754
 4689.00    1.49200   1.51648   -1.000
 4690.00    1.48708   1.51745   -1.000
 4691.00    1.48111   1.51861   -1.000
 4692.00    1.48316   1.52066   -1.000
 4693.00    1.47942   1.52339   -1.000
 4694.00    1.51033   1.52614   97.208
 4695.00    1.51608   1.52778  100.115
 4696.00    1.52509   1.52621  103.154
 4697.00    1.53843   1.52033  104.282
 4698.00    1.51404   1.51212  103.362
 4699.00    1.49250   1.50462  104.205
 4700.00    1.47713   1.49850  106.102
 4701.00    1.47674   1.49292  106.600
 4702.00    1.48761   1.48888  104.469
 4703.00    1.46172   1.48921   -1.000
 4704.00    1.45000   1.49398   -1.000
 4705.00    1.47301   1.49860   -1.000
 4706.00    1.48020   1.49868  107.628
 4707.00    1.48414   1.49509  106.995
 4708.00    1.47254   1.49311  103.724
 4709.00    1.46536   1.49705   -1.000
 4710.00    1.49558   1.50599   99.968
 4711.00    1.50229   1.51476  101.016
 4712.00    1.49448   1.51890   -1.000
 4713.00    1.49999   1.51866  102.892
 4714.00    1.48045   1.51863   -1.000
 4715.00    1.46233   1.52285   -1.000
 4716.00    1.48861   1.53100   -1.000
 4717.00    1.51152   1.53947   -1.000
 4718.00    1.50690   1.54558   -1.000
 4719.00    1.53413   1.54907   98.488
 4720.00    1.53237   1.55069   99.181
 4721.00    1.50763   1.55150   -1.000
 4722.00    1.49364   1.55299   -1.000
 4723.00    1.48381   1.55573   -1.000
 4724.00    1.51707   1.55784   -1.000
 4725.00    1.52583   1.55644   -1.000
 4726.00    1.50561   1.55034   -1.000
 4727.00    1.48888   1.54136   -1.000
 4728.00    1.45852   1.53328   -1.000
 4729.00    1.47791   1.52878   -1.000
 4730.00    1.48438   1.52829   -1.000
 4731.00    1.49493   1.53154   -1.000
 4732.00    1.50517   1.53722   -1.000
 4733.00    1.48696   1.54245   -1.000
 4734.00    1.50866   1.54488   -1.000
 4735.00    1.51120   1.54458   -1.000
 4736.00    1.49966   1.54355   -1.000
 4737.00    1.50768   1.54396   -1.000
 4738.00    1.48283   1.54607   -1.000
 4739.00    1.50425   1.54843   -1.000
 4740.00    1.51632   1.55026   -1.000
 4741.00    1.51556   1.55290   -1.000
 4742.00    1.53534   1.55771   99.554
 4743.00    1.52320   1.56378   -1.000
 4744.00    1.51492   1.56927   -1.000
 4745.00    1.51863   1.57414   -1.000
 4746.00    1.52916   1.57986   -1.000
 4747.00    1.55174   1.58657   -1.000
 4748.00    1.53456   1.59264   -1.000
 4749.00    1.49998   1.59717   -1.000
 4750.00    1.53465   1.60017   -1.000
 4751.00    1.52944   1.60087   -1.000
 4752.00    1.52188   1.59864   -1.000
 4753.00    1.52000   1.59487   -1.000
 4754.00    1.51861   1.59204   -1.000
 4755.00    1.49328   1.59144   -1.000
 4756.00    1.51172   1.59267   -1.000
 4757.00    1.51072   1.59452   -1.000
 4758.00    1.48904   1.59561   -1.000
 4759.00    1.48370   1.59473   -1.000
 4760.00    1.49857   1.59087   -1.000
 4761.00    1.50253   1.58387   -1.000
 4762.00    1.46761   1.57576   -1.000
 4763.00    1.46043   1.57011   -1.000
 4764.00    1.47987   1.56946   -1.000
 4765.00    1.48594   1.57407   -1.000
 4766.00    1.48812   1.58267   -1.000
 4767.00    1.51263   1.59353   -1.000
 4768.00    1.53027   1.60443   -1.000
 4769.00    1.52335   1.61241   -1.000
 4770.00    1.51871   1.61523   -1.000
 4771.00    1.51307   1.61384   -1.000
 4772.00    1.52467   1.61253   -1.000
 4773.00    1.51155   1.61504   -1.000
 4774.00    1.51935   1.62070   -1.000
 4775.00    1.54292   1.62570   -1.000
 4776.00    1.53217   1.62754   -1.000
 4777.00    1.52407   1.62638   -1.000
 4778.00    1.52144   1.62336   -1.000
 4779.00    1.53174   1.61992   -1.000
 4780.00    1.54346   1.61770   -1.000
 4781.00    1.53222   1.61697   -1.000
 4782.00    1.53987   1.61636   -1.000
 4783.00    1.55900   1.61491   -1.000
 4784.00    1.53635   1.61276   -1.000
 4785.00    1.52494   1.61018   -1.000
 4786.00    1.53991   1.60778   -1.000
 4787.00    1.51047   1.60685   -1.000
 4788.00    1.50763   1.60836   -1.000
 4789.00    1.50540   1.61267   -1.000
 4790.00    1.53351   1.62024   -1.000
 4791.00    1.56096   1.63058   -1.000
 4792.00    1.55690   1.64153   -1.000
 4793.00    1.55004   1.65063   -1.000
 4794.00    1.57417   1.65618   -1.000
 4795.00    1.57620   1.65725   -1.000
 4796.00    1.55900   1.65422   -1.000
 4797.00    1.55937   1.64887   -1.000
 4798.00    1.53752   1.64432   -1.000
 4799.00    1.54045   1.64396   -1.000
 4800.00    1.53636   1.64882   -1.000
 4801.00    1.56453   1.65594   -1.000
 4802.00    1.58664   1.65995   -1.000
 4803.00    1.56551   1.65727   -1.000
 4804.00    1.55223   1.64985   -1.000
 4805.00    1.53450   1.64338   -1.000
 4806.00    1.52821   1.64192   -1.000
 4807.00    1.55490   1.64558   -1.000
 4808.00    1.58241   1.65164   -1.000
 4809.00    1.54805   1.65694   -1.000
 4810.00    1.52788   1.66046   -1.000
 4811.00    1.55695   1.66363   -1.000
 4812.00    1.57118   1.66801   -1.000
 4813.00    1.57494   1.67355   -1.000
 4814.00    1.56742   1.67877   -1.000
 4815.00    1.56716   1.68256   -1.000
 4816.00    1.58523   1.68496   -1.000
 4817.00    1.57728   1.68622   -1.000
 4818.00    1.57102   1.68624   -1.000
 4819.00    1.57951   1.68471   -1.000
 4820.00    1.57841   1.68076   -1.000
 4821.00    1.56541   1.67317   -1.000
 4822.00    1.54509   1.66248   -1.000
 4823.00    1.54381   1.65265   -1.000
 4824.00    1.52998   1.64866   -1.000
 4825.00    1.53324   1.65145   -1.000
 4826.00    1.56701   1.65676   -1.000
 4827.00    1.56280   1.65960   -1.000
 4828.00    1.55697   1.65873   -1.000
 4829.00    1.57450   1.65631   -1.000
 4830.00    1.59091   1.65450   -1.000
 4831.00    1.55290   1.65389   -1.000
 4832.00    1.55456   1.65458   -1.000
 4833.00    1.56870   1.65668   -1.000
 4834.00    1.58676   1.65948   -1.000
 4835.00    1.55329   1.66167   -1.000
 4836.00    1.56488   1.66237   -1.000
 4837.00    1.57477   1.66150   -1.000
 4838.00    1.54345   1.65914   -1.000
 4839.00    1.57612   1.65618   -1.000
 4840.00    1.55708   1.65408   -1.000
 4841.00    1.54247   1.65291   -1.000
 4842.00    1.54331   1.65179   -1.000
 4843.00    1.56562   1.65110   -1.000
 4844.00    1.57141   1.65202   -1.000
 4845.00    1.54156   1.65386   -1.000
 4846.00    1.55468   1.65345   -1.000
 4847.00    1.53686   1.64885   -1.000
 4848.00    1.53621   1.64231   -1.000
 4849.00    1.53798   1.63720   -1.000
 4850.00    1.53699   1.63364   -1.000
 4851.00    1.52114   1.62896   -1.000
 4852.00    1.52749   1.61971   -1.000
 4853.00    1.52490   1.60307   -1.000
 4854.00    1.49236   1.57957   -1.000
 4855.00    1.43327   1.55345   -1.000
 4856.00    1.41661   1.52528   -1.000
 4857.00    1.43477   1.48486   -1.000
 4858.00    1.39015   1.41710   -1.000
 4859.00    1.27892   1.32165   -1.000
 4860.00    1.13602   1.22866   -1.000
 4861.00    1.05293   1.18498   -1.000
 4862.00    1.09445   1.21622   -1.000
 4863.00    1.20840   1.30375   -1.000
 4864.00    1.31186   1.40299   -1.000
 4865.00    1.38439   1.48145   -1.000
 4866.00    1.43818   1.53341   -1.000
 4867.00    1.46320   1.56651   -1.000
 4868.00    1.46988   1.58552   -1.000
 4869.00    1.46762   1.59056   -1.000
 4870.00    1.46122   1.58475   -1.000
 4871.00    1.44290   1.57806   -1.000
 4872.00    1.42568   1.58125   -1.000
 4873.00    1.46893   1.59660   -1.000
 4874.00    1.51159   1.61666   -1.000
 4875.00    1.51258   1.63285   -1.000
 4876.00    1.50003   1.64303   -1.000
 4877.00    1.50197   1.65101   -1.000
 4878.00    1.50952   1.66111   -1.000
 4879.00    1.51847   1.67314   -1.000
 4880.00    1.51871   1.68205   -1.000
 4881.00    1.53291   1.68367   -1.000
 4882.00    1.52357   1.67999   -1.000
 4883.00    1.54669   1.67624   -1.000
 4884.00    1.53298   1.67496   -1.000
 4885.00    1.51705   1.67561   -1.000
 4886.00    1.51726   1.67653   -1.000
 4887.00    1.54420   1.67544   -1.000
 4888.00    1.54317   1.67006   -1.000
 4889.00    1.55641   1.66102   -1.000
 4890.00    1.52256   1.65408   -1.000
 4891.00    1.49691   1.65775   -1.000
 4892.00    1.52459   1.67566   -1.000
 4893.00    1.57293   1.70210   -1.000
 4894.00    1.61137   1.72718   -1.000
 4895.00    1.62479   1.74462   -1.000
 4896.00    1.60962   1.75341   -1.000
 4897.00    1.61478   1.75485   -1.000
 4898.00    1.62587   1.75054   -1.000
 4899.00    1.61593   1.74291   -1.000
 4900.00    1.59749   1.73529   -1.000
 4901.00    1.60364   1.72981   -1.000
 4902.00    1.60333   1.72668   -1.000
 4903.00    1.60239   1.72694   -1.000
 4904.00    1.61953   1.73282   -1.000
 4905.00    1.64886   1.74285   -1.000
 4906.00    1.65290   1.75026   -1.000
 4907.00    1.64397   1.74964   -1.000
 4908.00    1.65295   1.74202   -1.000
 4909.00    1.62942   1.73225   -1.000
 4910.00    1.58954   1.72524   -1.000
 4911.00    1.58235   1.72422   -1.000
 4912.00    1.61875   1.72931   -1.000
 4913.00    1.64122   1.73759   -1.000
 4914.00    1.64121   1.74475   -1.000
 4915.00    1.65217   1.74596   -1.000
 4916.00    1.65681   1.73634   -1.000
 4917.00    1.63361   1.71391   -1.000
 4918.00    1.59642   1.68342   -1.000
 4919.00    1.56518   1.65576   -1.000
 4920.00    1.52575   1.64187   -1.000
 4921.00    1.53452   1.64490   -1.000
 4922.00    1.57974   1.65807   -1.000
 4923.00    1.61110   1.67260   -1.000
 4924.00    1.59372   1.68678   -1.000
 4925.00    1.61984   1.70407   -1.000
 4926.00    1.63359   1.72488   -1.000
 4927.00    1.64910   1.74498   -1.000
 4928.00    1.67259   1.76036   -1.000
 4929.00    1.66331   1.76904   -1.000
 4930.00    1.67049   1.76902   -1.000
 4931.00    1.66504   1.75862   -1.000
 4932.00    1.65343   1.74004   -1.000
 4933.00    1.61368   1.72148   -1.000
 4934.00    1.59545   1.71188   -1.000
 4935.00    1.60281   1.71181   -1.000
 4936.00    1.64663   1.71291   -1.000
 4937.00    1.64492   1.70865   -1.000
 4938.00    1.61389   1.70276   -1.000
 4939.00    1.59314   1.70485   -1.000
 4940.00    1.62153   1.71975   -1.000
 4941.00    1.66157   1.74282   -1.000
 4942.00    1.66638   1.76447   -1.000
 4943.00    1.68162   1.77785   -1.000
 4944.00    1.69626   1.78236   -1.000
 4945.00    1.67293   1.78196   -1.000
 4946.00    1.66976   1.78161   -1.000
 4947.00    1.67979   1.78425   -1.000
 4948.00    1.67741   1.78943   -1.000
 4949.00    1.69370   1.79433   -1.000
 4950.00    1.68950   1.79656   -1.000
 4951.00    1.70388   1.79570   -1.000
 4952.00    1.70099   1.79222   -1.000
 4953.00    1.69451   1.78510   -1.000
 4954.00    1.69815   1.77053   -1.000
 4955.00    1.67987   1.74551   -1.000
 4956.00    1.64150   1.71558   -1.000
 4957.00    1.60023   1.69637   -1.000
 4958.00    1.59689   1.70131   -1.000
 4959.00    1.61729   1.72764   -1.000
 4960.00    1.65494   1.75934   -1.000
 4961.00    1.69243   1.78201   -1.000
 4962.00    1.69330   1.79143   -1.000
 4963.00    1.69743   1.79039   -1.000
 4964.00    1.69564   1.78297   -1.000
 4965.00    1.67900   1.77342   -1.000
 4966.00    1.66436   1.76628   -1.000
 4967.00    1.65552   1.76417   -1.000
 4968.00    1.67840   1.76686   -1.000
 4969.00    1.68841   1.77310   -1.000
 4970.00    1.67112   1.78156   -1.000
 4971.00    1.67148   1.79049   -1.000
 4972.00    1.67302   1.79790   -1.000
 4973.00    1.67725   1.80212   -1.000
 4974.00    1.69533   1.80249   -1.000
 4975.00    1.69819   1.79965   -1.000
 4976.00    1.69002   1.79477   -1.000
 4977.00    1.68406   1.78874   -1.000
 4978.00    1.69900   1.78144   -1.000
 4979.00    1.68022   1.77080   -1.000
 4980.00    1.66781   1.75457   -1.000
 4981.00    1.65663   1.73463   -1.000
 4982.00    1.61399   1.71782   -1.000
 4983.00    1.61957   1.71160   -1.000
 4984.00    1.63167   1.71856   -1.000
 4985.00    1.63410   1.73531   -1.000
 4986.00    1.65302   1.75570   -1.000
 4987.00    1.67250   1.77297   -1.000
 4988.00    1.67831   1.78107   -1.000
 4989.00    1.68873   1.77872   -1.000
 4990.00    1.68167   1.77147   -1.000
 4991.00    1.68657   1.76704   -1.000
 4992.00    1.68414   1.76887   -1.000
 4993.00    1.67571   1.77539   -1.000
 4994.00    1.67492   1.78363   -1.000
 4995.00    1.68880   1.79081   -1.000
 4996.00    1.70425   1.79321   -1.000
 4997.00    1.69757   1.78729   -1.000
 4998.00    1.69000   1.77327   -1.000
 4999.00    1.68568   1.75719   -1.000
 5000.00    1.66727   1.74758   -1.000
 5001.00    1.66217   1.74792   -1.000
 5002.00    1.68365   1.75338   -1.000
 5003.00    1.68691   1.75532   -1.000
 5004.00    1.68105   1.74859   -1.000
 5005.00    1.66612   1.73665   -1.000
 5006.00    1.65192   1.72995   -1.000
 5007.00    1.67476   1.73586   -1.000
 5008.00    1.69886   1.75026   -1.000
 5009.00    1.71387   1.76154   -1.000
 5010.00    1.71361   1.76129   -1.000
 5011.00    1.69250   1.74969   -1.000
 5012.00    1.67118   1.73378   -1.000
 5013.00    1.64358   1.72224   -1.000
 5014.00    1.63106   1.71984   -1.000
 5015.00    1.64298   1.72439   -1.000
 5016.00    1.67363   1.72948   -1.000
 5017.00    1.67660   1.73184   -1.000
 5018.00    1.69045   1.73498   -1.000
 5019.00    1.69082   1.74353   -1.000
 5020.00    1.67822   1.75612   -1.000
 5021.00    1.69338   1.76791   -1.000
 5022.00    1.70125   1.77752   -1.000
 5023.00    1.69798   1.78698   -1.000
 5024.00    1.70899   1.79648   -1.000
 5025.00    1.71354   1.80305   -1.000
 5026.00    1.70272   1.80487   -1.000
 5027.00    1.70541   1.80446   -1.000
 5028.00    1.71903   1.80594   -1.000
 5029.00    1.73155   1.81099   -1.000
 5030.00    1.74661   1.81850   -1.000
 5031.00    1.73541   1.82611   -1.000
 5032.00    1.74358   1.83031   -1.000
 5033.00    1.74975   1.82728   -1.000
 5034.00    1.72630   1.81644   -1.000
 5035.00    1.72448   1.80253   -1.000
 5036.00    1.71541   1.79129   -1.000
 5037.00    1.71268   1.78239   -1.000
 5038.00    1.70573   1.76976   -1.000
 5039.00    1.68109   1.75088   -1.000
 5040.00    1.62332   1.73343   -1.000
 5041.00    1.60513   1.73037   -1.000
 5042.00    1.65044   1.74783   -1.000
 5043.00    1.64401   1.77961   -1.000
 5044.00    0.59947   1.81315   -1.000
 5045.00   -0.06576   1.83787    0.000
 5046.00    0.02205   1.84816   -1.000
 5047.00    0.46536   1.84305   -1.000
 5048.00    1.37601   1.82663   -1.000
 5049.00    1.77721   1.80731   -1.000
 5050.00    1.68983   1.79429   -1.000
 5051.00    1.70309   1.79364   -1.000
 5052.00    1.73318   1.80601   -1.000
 5053.00    1.76276   1.82632   -1.000
 5054.00    1.78553   1.84656   -1.000
 5055.00    1.77816   1.86089   -1.000
 5056.00    1.78488   1.86845   -1.000
 5057.00    1.80242   1.87174   -1.000
 5058.00    1.78283   1.87362   -1.000
 5059.00    1.78056   1.87564   -1.000
 5060.00    1.78967   1.87739   -1.000
 5061.00    1.78516   1.87634   -1.000
 5062.00    1.79330   1.86914   -1.000
 5063.00    1.77159   1.85529   -1.000
 5064.00    1.73906   1.83965   -1.000
 5065.00    1.72060   1.82918   -1.000
 5066.00    1.74491   1.82671   -1.000
 5067.00    1.77161   1.82956   -1.000
 5068.00    1.79153   1.83409   -1.000
 5069.00    1.79190   1.83866   -1.000
 5070.00    1.77690   1.84210   -1.000
 5071.00    1.77931   1.84287   -1.000
 5072.00    1.77761   1.84107   -1.000
 5073.00    1.77973   1.83886   -1.000
 5074.00    1.78269   1.83787   -1.000
 5075.00    1.77529   1.83697   -1.000
 5076.00    1.77191   1.83265   -1.000
 5077.00    1.78611   1.82185   -1.000
 5078.00    1.75265   1.80600   -1.000
 5079.00    1.71858   1.79220   -1.000
 5080.00    1.70773   1.78768   -1.000
 5081.00    1.72114   1.79305   -1.000
 5082.00    1.75860   1.80372   -1.000
 5083.00    1.75873   1.81668   -1.000
 5084.00    1.77176   1.83157   -1.000
 5085.00    1.79226   1.84662   -1.000
 5086.00    1.80371   1.85832   -1.000
 5087.00    1.81899   1.86529   -1.000
 5088.00    1.83164   1.86945   -1.000
 5089.00    1.83704   1.87330   -1.000
 5090.00    1.82531   1.87791   -1.000
 5091.00    1.88629   1.88358   97.216
 5092.00    1.88234   1.88991   98.341
 5093.00    1.81592   1.89467   -1.000
 5094.00    1.82293   1.89437   -1.000
 5095.00    1.82050   1.88684   -1.000
 5096.00    1.81609   1.87310   -1.000
 5097.00    1.81025   1.85771   -1.000
 5098.00    1.78448   1.84731   -1.000
 5099.00    1.76769   1.84734   -1.000
 5100.00    1.76224   1.85749   -1.000
 5101.00    1.79433   1.87113   -1.000
 5102.00    1.83382   1.88066   -1.000
 5103.00    1.82966   1.88256   -1.000
 5104.00    1.80448   1.87704   -1.000
 5105.00    1.79548   1.86542   -1.000
 5106.00    1.78882   1.85046   -1.000
 5107.00    1.77257   1.83739   -1.000
 5108.00    1.77405   1.83133   -1.000
 5109.00    1.78168   1.83424   -1.000
 5110.00    1.79948   1.84535   -1.000
 5111.00    1.82546   1.86214   -1.000
 5112.00    1.84424   1.88020   -1.000
 5113.00    1.83110   1.89512   -1.000
 5114.00    1.82580   1.90542   -1.000
 5115.00    1.84117   1.91255   -1.000
 5116.00    1.83942   1.91810   -1.000
 5117.00    1.85144   1.92169   -1.000
 5118.00    1.87100   1.92169   -1.000
 5119.00    1.85884   1.91677   -1.000
 5120.00    1.83537   1.90661   -1.000
 5121.00    1.82333   1.89202   -1.000
 5122.00    1.82150   1.87560   -1.000
 5123.00    1.82109   1.86173   -1.000
 5124.00    1.80310   1.85423   -1.000
 5125.00    1.80998   1.85308   -1.000
 5126.00    1.81285   1.85462   -1.000
 5127.00    1.82018   1.85599   -1.000
 5128.00    1.78858   1.85787   -1.000
 5129.00    1.79044   1.86256   -1.000
 5130.00    1.80382   1.87079   -1.000
 5131.00    1.82645   1.88077   -1.000
 5132.00    1.84087   1.88997   -1.000
 5133.00    1.84008   1.89669   -1.000
 5134.00    1.85752   1.89967   -1.000
 5135.00    1.85637   1.89725   -1.000
 5136.00    1.82199   1.88827   -1.000
 5137.00    1.80882   1.87467   -1.000
 5138.00    1.80883   1.86207   -1.000
 5139.00    1.80163   1.85589   -1.000
 5140.00    1.79558   1.85670   -1.000
 5141.00    1.78677   1.86096   -1.000
 5142.00    1.78707   1.86623   -1.000
 5143.00    1.80842   1.87307   -1.000
 5144.00    1.84283   1.88115   -1.000
 5145.00    1.85413   1.88732   -1.000
 5146.00    1.86301   1.88938  105.277
 5147.00    1.85699   1.88844   -1.000
 5148.00    1.84413   1.88598   -1.000
 5149.00    1.83496   1.88140   -1.000
 5150.00    1.83841   1.87435   -1.000
 5151.00    1.82070   1.86766   -1.000
 5152.00    1.82113   1.86589   -1.000
 5153.00    1.82426   1.87136   -1.000
 5154.00    1.84643   1.88327   -1.000
 5155.00    1.87481   1.89935   98.748
 5156.00    1.91249   1.91650   98.195
 5157.00    1.90474   1.93102   98.271
 5158.00    1.89953   1.94014   -1.000
 5159.00    1.89489   1.94309   -1.000
 5160.00    1.90287   1.94040   -1.000
 5161.00    1.89000   1.93298   -1.000
 5162.00    1.90844   1.92052  107.359
 5163.00    1.89753   1.89894  116.885
 5164.00    1.86673   1.86112  128.516
 5165.00    1.81157   1.80492  134.854
 5166.00    1.73511   1.74262  130.659
 5167.00    1.68252   1.69798  123.984
 5168.00    1.66641   1.68633  124.269
 5169.00    1.72293   1.69824   -1.000
 5170.00    1.76257   1.70886   -1.000
 5171.00    1.75241   1.70652   -1.000
 5172.00    1.69423   1.70641  116.976
 5173.00    1.70168   1.73165   -1.000
 5174.00    1.78635   1.78494  105.135
 5175.00    1.86544   1.84571  104.235
 5176.00    1.90950   1.89188  104.297
 5177.00    1.92511   1.91637  105.872
 5178.00    1.93744   1.92261  110.429
 5179.00    1.93231   1.91214  119.497
 5180.00    1.91626   1.88138   -1.000
 5181.00    1.88774   1.83021   -1.000
 5182.00    1.81119   1.77289   -1.000
 5183.00    1.71069   1.73669  116.306
 5184.00    1.69600   1.74277   -1.000
 5185.00    1.78264   1.78607  105.009
 5186.00    1.86245   1.83925  104.282
 5187.00    1.91531   1.87734   -1.000
 5188.00    1.90739   1.89378  105.785
 5189.00    1.87964   1.89400  109.184
 5190.00    1.88216   1.88423  111.425
 5191.00    1.85834   1.87039  110.180
 5192.00    1.83303   1.86034   -1.000
 5193.00    1.81612   1.86011   -1.000
 5194.00    1.82210   1.86929   -1.000
 5195.00    1.86658   1.88330  102.946
 5196.00    1.89786   1.89843  101.395
 5197.00    1.90892   1.91304  100.751
 5198.00    1.89905   1.92574   -1.000
 5199.00    1.91645   1.93444  101.930
 5200.00    1.93455   1.93637  103.929
 5201.00    1.92257   1.92890  106.511
 5202.00    1.91852   1.91117  109.908
 5203.00    1.91159   1.88588  112.688
 5204.00    1.88059   1.85968  112.984
 5205.00    1.82479   1.84012  113.620
 5206.00    1.82868   1.83100  113.830
 5207.00    1.85196   1.83110  111.621
 5208.00    1.85873   1.83894  107.700
 5209.00    1.85394   1.85605  103.346
 5210.00    1.87983   1.88295   99.703
 5211.00    1.92511   1.91365   98.372
 5212.00    1.94733   1.93763   99.876
 5213.00    1.95339   1.94717  102.074
 5214.00    1.95301   1.94276  102.820
 5215.00    1.92945   1.93295  101.571
 5216.00    1.90339   1.92904   99.444
 5217.00    1.90456   1.93699   -1.000
 5218.00    1.94921   1.95396   97.484
 5219.00    1.97824   1.97215   97.452
 5220.00    1.98957   1.98486   99.158
 5221.00    2.00942   1.98856  102.503
 5222.00    2.01730   1.98078   -1.000
 5223.00    2.00284   1.95943   -1.000
 5224.00    1.97399   1.92580   -1.000
 5225.00    1.90951   1.88902  109.801
 5226.00    1.83964   1.86497  103.851
 5227.00    1.84780   1.86638  100.203
 5228.00    1.89591   1.89126   98.883
 5229.00    1.93543   1.92300   99.265
 5230.00    1.96844   1.94335  101.345
 5231.00    1.96332   1.94563  102.699
 5232.00    1.94396   1.93705  101.897
 5233.00    1.94198   1.93120   99.429
 5234.00    1.94142   1.93752   97.324
 5235.00    1.95026   1.95565   96.514
 5236.00    1.99330   1.97752   96.562
 5237.00    2.00369   1.99465   96.785
 5238.00    1.99917   2.00378   96.498
 5239.00    2.00397   2.00674   96.063
 5240.00    2.01450   2.00706   96.175
 5241.00    2.00830   2.00708   95.965
 5242.00    2.00171   2.00756   96.268
 5243.00    2.00370   2.00789   98.562
 5244.00    1.99123   2.00571  101.545
 5245.00    2.00592   1.99816  103.395
 5246.00    1.98403   1.98538  103.528
 5247.00    1.96401   1.97162  103.828
 5248.00    1.96459   1.96163  104.263
 5249.00    1.95794   1.95704  103.486
 5250.00    1.94553   1.95724  102.091
 5251.00    1.93920   1.96113  101.336
 5252.00    1.96129   1.96692  101.239
 5253.00    1.98517   1.97282  100.088
 5254.00    1.99353   1.97940   97.574
 5255.00    2.00044   1.98920   95.322
 5256.00    2.01298   2.00268   94.969
 5257.00    2.03700   2.01560   96.337
 5258.00    2.05186   2.02114   99.403
 5259.00    2.04588   2.01412   -1.000
 5260.00    2.02350   1.99390   -1.000
 5261.00    1.98652   1.96442  111.841
 5262.00    1.95288   1.93249  113.607
 5263.00    1.91759   1.90501  113.276
 5264.00    1.89103   1.88686  111.168
 5265.00    1.88093   1.87879  110.190
 5266.00    1.89166   1.87574  113.308
 5267.00    1.90697   1.86891   -1.000
 5268.00    1.89286   1.85505   -1.000
 5269.00    1.85962   1.84384  106.401
 5270.00    1.85233   1.85089  102.764
 5271.00    1.89141   1.88024  102.152
 5272.00    1.92974   1.91818  102.189
 5273.00    1.95874   1.94791  101.519
 5274.00    1.98159   1.96529   99.101
 5275.00    1.99267   1.97810   95.998
 5276.00    2.00510   1.99377   94.854
 5277.00    2.02126   2.01153   95.957
 5278.00    2.07028   2.02415   -1.000
 5279.00    2.08214   2.02494   -1.000
 5280.00    2.05862   2.01372   -1.000
 5281.00    2.03784   1.99713   -1.000
 5282.00    1.95481   1.98449   -1.000
 5283.00    1.87393   1.98347   -1.000
 5284.00    2.00392   1.99663   94.016
 5285.00    2.04096   2.01959   93.723
 5286.00    2.07687   2.04324   94.160
 5287.00    2.10400   2.06031   -1.000
 5288.00    2.08131   2.06922   93.487
 5289.00    2.09005   2.07226   93.491
 5290.00    2.09294   2.07177   94.165
 5291.00    2.07723   2.06928   95.162
 5292.00    2.07270   2.06573   96.767
 5293.00    2.06394   2.06024   99.739
 5294.00    2.06298   2.05009  103.368
 5295.00    2.04756   2.03376  105.227
 5296.00    2.01724   2.01438  103.874
 5297.00    1.99611   1.99937  101.306
 5298.00    1.98995   1.99520   99.772
 5299.00    2.01412   2.00201   99.053
 5300.00    2.05879   2.01448   -1.000
 5301.00    2.04668   2.02774   94.927
 5302.00    2.04291   2.04074   93.606
 5303.00    2.06137   2.05364   93.732
 5304.00    2.08338   2.06433   94.688
 5305.00    2.09848   2.07004   95.139
 5306.00    2.09418   2.07106   94.339
 5307.00    2.08635   2.07103   93.428
 5308.00    2.09372   2.07358   93.027
 5309.00    2.11475   2.07883   -1.000
 5310.00    2.11558   2.08388   93.786
 5311.00    2.12174   2.08579   -1.000
 5312.00    2.13406   2.08336   -1.000
 5313.00    2.12557   2.07675   -1.000
 5314.00    2.11673   2.06687   -1.000
 5315.00    2.08652   2.05642   96.378
 5316.00    2.06043   2.04995   95.700
 5317.00    2.05383   2.05078   95.506
 5318.00    2.06900   2.05762   95.984
 5319.00    2.09442   2.06487   96.793
 5320.00    2.10096   2.06656   -1.000
 5321.00    2.10067   2.06006   -1.000
 5322.00    2.10952   2.04671   -1.000
 5323.00    2.09109   2.03016   -1.000
 5324.00    2.07640   2.01230   -1.000
 5325.00    2.05702   1.99064   -1.000
 5326.00    2.05208   1.96303   -1.000
 5327.00    2.01341   1.93690   -1.000
 5328.00    1.95395   1.92846  101.022
 5329.00    1.96868   1.94762   98.512
 5330.00    2.04265   1.98575   -1.000
 5331.00    2.09030   2.02360   -1.000
 5332.00    2.08930   2.04847   -1.000
 5333.00    2.08492   2.06088   95.571
 5334.00    2.10073   2.06612   -1.000
 5335.00    2.12404   2.06709   -1.000
 5336.00    2.13463   2.06407   -1.000
 5337.00    2.11982   2.05661   -1.000
 5338.00    2.12066   2.04506   -1.000
 5339.00    2.08422   2.03272   -1.000
 5340.00    2.06871   2.02608   -1.000
 5341.00    2.07139   2.03032   -1.000
 5342.00    2.07781   2.04331   -1.000
 5343.00    2.10524   2.05668   -1.000
 5344.00    2.12543   2.06301   -1.000
 5345.00    2.11606   2.06138   -1.000
 5346.00    2.10438   2.05558   -1.000
 5347.00    2.10063   2.05013   -1.000
 5348.00    2.09455   2.04845   -1.000
 5349.00    2.09918   2.05276   -1.000
 5350.00    2.11418   2.06308   -1.000
 5351.00    2.14464   2.07659   -1.000
 5352.00    2.15382   2.08924   -1.000
 5353.00    2.14006   2.09914   -1.000
 5354.00    2.13725   2.10715   91.521
 5355.00    2.14583   2.11430   91.664
 5356.00    2.16889   2.12018   -1.000
 5357.00    2.16869   2.12360   -1.000
 5358.00    2.16975   2.12389   -1.000
 5359.00    2.16354   2.12088   -1.000
 5360.00    2.13859   2.11458   96.402
 5361.00    2.12400   2.10546   97.003
 5362.00    2.12232   2.09480   97.568
 5363.00    2.10968   2.08462   97.909
 5364.00    2.10178   2.07712   97.635
 5365.00    2.08685   2.07331   97.931
 5366.00    2.10707   2.07129   -1.000
 5367.00    2.11475   2.06610   -1.000
 5368.00    2.11279   2.05319   -1.000
 5369.00    2.08819   2.03369   -1.000
 5370.00    2.06478   2.01670   -1.000
 5371.00    2.04732   2.01412   -1.000
 5372.00    2.08143   2.03098   -1.000
 5373.00    2.13718   2.06055   -1.000
 5374.00    2.14947   2.08965   -1.000
 5375.00    2.16244   2.10919   -1.000
 5376.00    2.19254   2.11873   -1.000
 5377.00    2.19714   2.12202   -1.000
 5378.00    2.18214   2.12172   -1.000
 5379.00    2.15913   2.11803   -1.000
 5380.00    2.14410   2.11133   96.380
 5381.00    2.14288   2.10387   -1.000
 5382.00    2.12696   2.09913   95.523
 5383.00    2.13496   2.09988   -1.000
 5384.00    2.15246   2.10638   -1.000
 5385.00    2.16358   2.11582   -1.000
 5386.00    2.17789   2.12353   -1.000
 5387.00    2.18761   2.12555   -1.000
 5388.00    2.18926   2.12090   -1.000
 5389.00    2.18423   2.11164   -1.000
 5390.00    2.17647   2.10111   -1.000
 5391.00    2.17773   2.09177   -1.000
 5392.00    2.16110   2.08422   -1.000
 5393.00    2.13026   2.07684   -1.000
 5394.00    2.12588   2.06713   -1.000
 5395.00    2.12635   2.05463   -1.000
 5396.00    2.10256   2.04403   -1.000
 5397.00    2.09248   2.04311   -1.000
 5398.00    2.11867   2.05535   -1.000
 5399.00    2.14102   2.07508   -1.000
 5400.00    2.15255   2.09118   -1.000
 5401.00    2.16042   2.09495   -1.000
 5402.00    2.16824   2.08361   -1.000
 5403.00    2.14496   2.06107   -1.000
 5404.00    2.09170   2.03754   -1.000
 5405.00    2.07727   2.02511   -1.000
 5406.00    2.09666   2.02884   -1.000
 5407.00    2.12170   2.04228   -1.000
 5408.00    2.13991   2.05476   -1.000
 5409.00    2.13737   2.06260   -1.000
 5410.00    2.13009   2.07065   -1.000
 5411.00    2.13430   2.08303   -1.000
 5412.00    2.16693   2.09711   -1.000
 5413.00    2.18219   2.10745   -1.000
 5414.00    2.17580   2.11316   -1.000
 5415.00    2.15620   2.11803   -1.000
 5416.00    2.16400   2.12448   -1.000
 5417.00    2.18331   2.13136   -1.000
 5418.00    2.18506   2.13616   -1.000
 5419.00    2.17665   2.13775   -1.000
 5420.00    2.19093   2.13642   -1.000
 5421.00    2.20483   2.13236   -1.000
 5422.00    2.19381   2.12642   -1.000
 5423.00    2.17926   2.12155   -1.000
 5424.00    2.16222   2.12131   -1.000
 5425.00    2.16920   2.12567   -1.000
 5426.00    2.17452   2.12884   -1.000
 5427.00    2.18270   2.12357   -1.000
 5428.00    2.18265   2.10970   -1.000
 5429.00    2.14644   2.09569   -1.000
 5430.00    2.12649   2.08969   -1.000
 5431.00    2.14179   2.09056   -1.000
 5432.00    2.16931   2.09052   -1.000
 5433.00    2.16914   2.08648   -1.000
 5434.00    2.13182   2.08435   -1.000
 5435.00    2.11796   2.09217   96.412
 5436.00    2.14497   2.11123   94.654
 5437.00    2.18759   2.13492   -1.000
 5438.00    2.22242   2.15550   -1.000
 5439.00    2.23554   2.16937   -1.000
 5440.00    2.23556   2.17693   -1.000
 5441.00    2.23477   2.17917   -1.000
 5442.00    2.22866   2.17450   -1.000
 5443.00    2.20768   2.15972   -1.000
 5444.00    2.19557   2.13464   -1.000
 5445.00    2.15831   2.10630   -1.000
 5446.00    2.11050   2.08746   98.536
 5447.00    2.12333   2.08797   -1.000
 5448.00    2.15178   2.10666   -1.000
 5449.00    2.21063   2.13192   -1.000
 5450.00    2.24501   2.15087   -1.000
 5451.00    2.24387   2.15633   -1.000
 5452.00    2.21954   2.14744   -1.000
 5453.00    2.20452   2.12826   -1.000
 5454.00    2.18983   2.10767   -1.000
 5455.00    2.14481   2.09788   -1.000
 5456.00    2.14527   2.10662   -1.000
 5457.00    2.19385   2.13014   -1.000
 5458.00    2.23996   2.15521   -1.000
 5459.00    2.25815   2.16992   -1.000
 5460.00    2.25376   2.17112   -1.000
 5461.00    2.24716   2.16367   -1.000
 5462.00    2.21955   2.15499   -1.000
 5463.00    2.20341   2.15126   -1.000
 5464.00    2.21768   2.15468   -1.000
 5465.00    2.22836   2.16286   -1.000
 5466.00    2.23148   2.17157   -1.000
 5467.00    2.23909   2.17806   -1.000
 5468.00    2.24701   2.18172   -1.000
 5469.00    2.26466   2.18244   -1.000
 5470.00    2.28515   2.18016   -1.000
 5471.00    2.27954   2.17504   -1.000
 5472.00    2.26875   2.16709   -1.000
 5473.00    2.26100   2.15565   -1.000
 5474.00    2.23853   2.14049   -1.000
 5475.00    2.21381   2.12514   -1.000
 5476.00    2.17930   2.11701   -1.000
 5477.00    2.17503   2.12162   -1.000
 5478.00    2.20514   2.13627   -1.000
 5479.00    2.21325   2.15155   -1.000
 5480.00    2.21311   2.16005   -1.000
 5481.00    2.22199   2.16299   -1.000
 5482.00    2.21239   2.16645   -1.000
 5483.00    2.20294   2.17384   96.648
 5484.00    2.20986   2.18283   97.865
 5485.00    2.21545   2.18860   99.014
 5486.00    2.22102   2.18875   99.336
 5487.00    2.22666   2.18514   -1.000
 5488.00    2.24412   2.18172   -1.000
 5489.00    2.26250   2.18141   -1.000
 5490.00    2.27288   2.18438   -1.000
 5491.00    2.25398   2.18872   -1.000
 5492.00    2.24854   2.19179   -1.000
 5493.00    2.25938   2.19173   -1.000
 5494.00    2.27503   2.18765   -1.000
 5495.00    2.27036   2.18021   -1.000
 5496.00    2.26037   2.17226   -1.000
 5497.00    2.25407   2.16731   -1.000
 5498.00    2.25277   2.16634   -1.000
 5499.00    2.25394   2.16646   -1.000
 5500.00    2.27378   2.16452   -1.000
 5501.00    2.25894   2.16163   -1.000
 5502.00    2.22689   2.16095   -1.000
 5503.00    2.21936   2.16208   -1.000
 5504.00    2.25371   2.16123   -1.000
 5505.00    2.23623   2.15696   -1.000
 5506.00    2.21284   2.15390   -1.000
 5507.00    2.22428   2.15758   -1.000
 5508.00    2.24927   2.16725   -1.000
 5509.00    2.26018   2.17621   -1.000
 5510.00    2.27208   2.17830   -1.000
 5511.00    2.25940   2.17336   -1.000
 5512.00    2.25027   2.16668   -1.000
 5513.00    2.24418   2.16374   -1.000
 5514.00    2.24377   2.16722   -1.000
 5515.00    2.27492   2.17675   -1.000
 5516.00    2.30842   2.18978   -1.000
 5517.00    2.30886   2.20299   -1.000
 5518.00    2.29682   2.21332   -1.000
 5519.00    2.30791   2.21937   -1.000
 5520.00    2.32031   2.22188   -1.000
 5521.00    2.31400   2.22264   -1.000
 5522.00    2.29860   2.22236   -1.000
 5523.00    2.29029   2.21907   -1.000
 5524.00    2.29686   2.20935   -1.000
 5525.00    2.27680   2.19192   -1.000
 5526.00    2.23447   2.17088   -1.000
 5527.00    2.21567   2.15525   -1.000
 5528.00    2.21415   2.15356   -1.000
 5529.00    2.22687   2.16670   -1.000
 5530.00    2.24760   2.18655   -1.000
 5531.00    2.26570   2.20205   -1.000
 5532.00    2.27236   2.20757   -1.000
 5533.00    2.27429   2.20578   -1.000
 5534.00    2.28145   2.20341   -1.000
 5535.00    2.26657   2.20520   -1.000
 5536.00    2.26176   2.21154   -1.000
 5537.00    2.29088   2.21988   -1.000
 5538.00    2.31179   2.22755   -1.000
 5539.00    2.30579   2.23328   -1.000
 5540.00    2.31684   2.23635   -1.000
 5541.00    2.31893   2.23641   -1.000
 5542.00    2.31149   2.23413   -1.000
 5543.00    2.30259   2.23147   -1.000
 5544.00    2.29885   2.23053   -1.000
 5545.00    2.29145   2.23228   -1.000
 5546.00    2.29105   2.23643   -1.000
 5547.00    2.30462   2.24220   -1.000
 5548.00    2.33824   2.24840   -1.000
 5549.00    2.35021   2.25309   -1.000
 5550.00    2.33903   2.25469   -1.000
 5551.00    2.33604   2.25332   -1.000
 5552.00    2.34240   2.25052   -1.000
 5553.00    2.34233   2.24791   -1.000
 5554.00    2.33166   2.24650   -1.000
 5555.00    2.32524   2.24651   -1.000
 5556.00    2.33056   2.24764   -1.000
 5557.00    2.34218   2.24937   -1.000
 5558.00    2.34418   2.25117   -1.000
 5559.00    2.34508   2.25216   -1.000
 5560.00    2.34625   2.25144   -1.000
 5561.00    2.34386   2.24854   -1.000
 5562.00    2.32551   2.24434   -1.000
 5563.00    2.30979   2.24042   -1.000
 5564.00    2.31679   2.23741   -1.000
 5565.00    2.32230   2.23472   -1.000
 5566.00    2.31862   2.23149   -1.000
 5567.00    2.32169   2.22783   -1.000
 5568.00    2.31989   2.22446   -1.000
 5569.00    2.29620   2.22140   -1.000
 5570.00    2.27308   2.21847   -1.000
 5571.00    2.23992   2.21614   98.832
 5572.00    2.10384   2.21588   -1.000
 5573.00    1.93155   2.21932   -1.000
 5574.00    2.10875   2.22607   -1.000
 5575.00    2.64720   2.23392   -1.000
 5576.00    2.91537   2.24132   -1.000
 5577.00    2.69596   2.24785   -1.000
 5578.00    2.41784   2.25324   -1.000
 5579.00    2.37178   2.25665   -1.000
 5580.00    2.38107   2.25753   -1.000
 5581.00    2.35360   2.25653   -1.000
 5582.00    2.33065   2.25423   -1.000
 5583.00    2.32858   2.24889   -1.000
 5584.00    2.35844   2.23721   -1.000
 5585.00    2.34186   2.21827   -1.000
 5586.00    2.29630   2.19665   -1.000
 5587.00    2.27105   2.18036   -1.000
 5588.00    2.26440   2.17559   -1.000
 5589.00    2.28205   2.18268   -1.000
 5590.00    2.29147   2.19649   -1.000
 5591.00    2.30173   2.21024   -1.000
 5592.00    2.32550   2.21973   -1.000
 5593.00    2.31980   2.22570   -1.000
 5594.00    2.30521   2.23105   -1.000
 5595.00    2.32724   2.23606   -1.000
 5596.00    2.34578   2.23810   -1.000
 5597.00    2.33665   2.23489   -1.000
 5598.00    2.32296   2.22757   -1.000
 5599.00    2.30591   2.21947   -1.000
 5600.00    2.31665   2.21344   -1.000
 5601.00    2.31563   2.21250   -1.000
 5602.00    2.29678   2.22007   -1.000
 5603.00    2.29635   2.23682   -1.000
 5604.00    2.32923   2.25848   -1.000
 5605.00    2.36593   2.27854   -1.000
 5606.00    2.37013   2.29262   -1.000
 5607.00    2.37203   2.30028   -1.000
 5608.00    2.38673   2.30385   -1.000
 5609.00    2.39631   2.30542   -1.000
 5610.00    2.39487   2.30483   -1.000
 5611.00    2.38839   2.29942   -1.000
 5612.00    2.38517   2.28598   -1.000
 5613.00    2.37576   2.26546   -1.000
 5614.00    2.34357   2.24524   -1.000
 5615.00    2.30629   2.23504   -1.000
 5616.00    2.31048   2.23971   -1.000
 5617.00    2.34548   2.25465   -1.000
 5618.00    2.35933   2.27055   -1.000
 5619.00    2.37072   2.28126   -1.000
 5620.00    2.39161   2.28588   -1.000
 5621.00    2.39665   2.28581   -1.000
 5622.00    2.39369   2.28196   -1.000
 5623.00    2.37855   2.27613   -1.000
 5624.00    2.36583   2.27201   -1.000
 5625.00    2.37110   2.27293   -1.000
 5626.00    2.38917   2.27929   -1.000
 5627.00    2.40684   2.28863   -1.000
 5628.00    2.40008   2.29760   -1.000
 5629.00    2.39814   2.30425   -1.000
 5630.00    2.41949   2.30772   -1.000
 5631.00    2.43156   2.30809   -1.000
 5632.00    2.40443   2.30642   -1.000
 5633.00    2.38903   2.30371   -1.000
 5634.00    2.39668   2.30021   -1.000
 5635.00    2.42365   2.29589   -1.000
 5636.00    2.41713   2.29137   -1.000
 5637.00    2.39636   2.28787   -1.000
 5638.00    2.38269   2.28593   -1.000
 5639.00    2.37964   2.28495   -1.000
 5640.00    2.39669   2.28444   -1.000
 5641.00    2.40418   2.28489   -1.000
 5642.00    2.38977   2.28690   -1.000
 5643.00    2.39461   2.29021   -1.000
 5644.00    2.41238   2.29361   -1.000
 5645.00    2.41962   2.29617   -1.000
 5646.00    2.41869   2.29790   -1.000
 5647.00    2.42807   2.29910   -1.000
 5648.00    2.42782   2.30015   -1.000
 5649.00    2.41967   2.30163   -1.000
 5650.00    2.42912   2.30379   -1.000
 5651.00    2.44113   2.30618   -1.000
 5652.00    2.44175   2.30740   -1.000
 5653.00    2.43791   2.30546   -1.000
 5654.00    2.43913   2.29823   -1.000
 5655.00    2.42240   2.28468   -1.000
 5656.00    2.39637   2.26713   -1.000
 5657.00    2.36919   2.25175   -1.000
 5658.00    2.33730   2.24548   -1.000
 5659.00    2.34185   2.24999   -1.000
 5660.00    2.38580   2.26066   -1.000
 5661.00    2.40878   2.27251   -1.000
 5662.00    2.40816   2.28384   -1.000
 5663.00    2.40157   2.29485   -1.000
 5664.00    2.40150   2.30357   -1.000
 5665.00    2.41676   2.30620   -1.000
 5666.00    2.41541   2.30256   -1.000
 5667.00    2.40672   2.29709   -1.000
 5668.00    2.39087   2.29472   -1.000
 5669.00    2.38028   2.29734   -1.000
 5670.00    2.40436   2.30356   -1.000
 5671.00    2.42430   2.31103   -1.000
 5672.00    2.43743   2.31793   -1.000
 5673.00    2.45185   2.32313   -1.000
 5674.00    2.45012   2.32639   -1.000
 5675.00    2.44921   2.32821   -1.000
 5676.00    2.45903   2.32913   -1.000
 5677.00    2.45824   2.32894   -1.000
 5678.00    2.46423   2.32684   -1.000
 5679.00    2.45825   2.32200   -1.000
 5680.00    2.45584   2.31438   -1.000
 5681.00    2.45231   2.30521   -1.000
 5682.00    2.43625   2.29727   -1.000
 5683.00    2.40512   2.29330   -1.000
 5684.00    2.38435   2.29401   -1.000
 5685.00    2.39905   2.29716   -1.000
 5686.00    2.40656   2.29969   -1.000
 5687.00    2.40379   2.30065   -1.000
 5688.00    2.41325   2.30176   -1.000
 5689.00    2.42759   2.30556   -1.000
 5690.00    2.44552   2.31275   -1.000
 5691.00    2.45500   2.32165   -1.000
 5692.00    2.46060   2.32943   -1.000
 5693.00    2.46491   2.33428   -1.000
 5694.00    2.46344   2.33609   -1.000
 5695.00    2.46030   2.33562   -1.000
 5696.00    2.45352   2.33327   -1.000
 5697.00    2.43351   2.32894   -1.000
 5698.00    2.42432   2.32277   -1.000
 5699.00    2.41533   2.31587   -1.000
 5700.00    2.39323   2.31043   -1.000
 5701.00    2.37297   2.30869   -1.000
 5702.00    2.36594   2.31093   -1.000
 5703.00    2.38760   2.31492   -1.000
 5704.00    2.40472   2.31685   -1.000
 5705.00    2.41653   2.31366   -1.000
 5706.00    2.43325   2.30502   -1.000
 5707.00    2.42484   2.29288   -1.000
 5708.00    2.39015   2.28102   -1.000
 5709.00    2.36541   2.27383   -1.000
 5710.00    2.35668   2.27461   -1.000
 5711.00    2.37531   2.28385   -1.000
 5712.00    2.42079   2.29856   -1.000
 5713.00    2.44287   2.31387   -1.000
 5714.00    2.44956   2.32637   -1.000
 5715.00    2.45027   2.33534   -1.000
 5716.00    2.44516   2.34201   -1.000
 5717.00    2.45328   2.34778   -1.000
 5718.00    2.45792   2.35309   -1.000
 5719.00    2.46646   2.35784   -1.000
 5720.00    2.47979   2.36166   -1.000
 5721.00    2.48541   2.36426   -1.000
 5722.00    2.47317   2.36550   -1.000
 5723.00    2.46706   2.36496   -1.000
 5724.00    2.48201   2.36198   -1.000
 5725.00    2.48423   2.35688   -1.000
 5726.00    2.46641   2.35165   -1.000
 5727.00    2.47629   2.34866   -1.000
 5728.00    2.48561   2.34868   -1.000
 5729.00    2.49362   2.35051   -1.000
 5730.00    2.48533   2.35271   -1.000
 5731.00    2.47185   2.35531   -1.000
 5732.00    2.46814   2.35926   -1.000
 5733.00    2.49021   2.36421   -1.000
 5734.00    2.50871   2.36902   -1.000
 5735.00    2.49645   2.37236   -1.000
 5736.00    2.49108   2.37384   -1.000
 5737.00    2.49969   2.37441   -1.000
 5738.00    2.50856   2.37459   -1.000
 5739.00    2.50270   2.37454   -1.000
 5740.00    2.50103   2.37423   -1.000
 5741.00    2.48837   2.37385   -1.000
 5742.00    2.48080   2.37419   -1.000
 5743.00    2.47912   2.37583   -1.000
 5744.00    2.47320   2.37813   -1.000
 5745.00    2.47807   2.37944   -1.000
 5746.00    2.48190   2.37909   -1.000
 5747.00    2.47860   2.37820   -1.000
 5748.00    2.48936   2.37798   -1.000
 5749.00    2.49855   2.37806   -1.000
 5750.00    2.50462   2.37621   -1.000
 5751.00    2.51390   2.37132   -1.000
 5752.00    2.50818   2.36563   -1.000
 5753.00    2.49031   2.36318   -1.000
 5754.00    2.47968   2.36690   -1.000
 5755.00    2.48097   2.37574   -1.000
 5756.00    2.49974   2.38598   -1.000
 5757.00    2.51946   2.39322   -1.000
 5758.00    2.51949   2.39508   -1.000
 5759.00    2.51403   2.39145   -1.000
 5760.00    2.51929   2.38480   -1.000
 5761.00    2.51898   2.37955   -1.000
 5762.00    2.50223   2.37984   -1.000
 5763.00    2.48996   2.38638   -1.000
 5764.00    2.49885   2.39593   -1.000
 5765.00    2.51943   2.40418   -1.000
 5766.00    2.53045   2.40849   -1.000
 5767.00    2.53025   2.40960   -1.000
 5768.00    2.52005   2.40903   -1.000
 5769.00    2.50741   2.40773   -1.000
 5770.00    2.49245   2.40593   -1.000
 5771.00    2.47662   2.40343   -1.000
 5772.00    2.46819   2.40020   -1.000
 5773.00    2.45933   2.39644   -1.000
 5774.00    2.45089   2.39311   -1.000
 5775.00    2.40456   2.39069   95.986
 5776.00    2.32968   2.38846   -1.000
 5777.00    2.29293   2.38487   -1.000
 5778.00    2.32195   2.37859   -1.000
 5779.00    2.36675   2.37037  101.052
 5780.00    2.41237   2.36231   -1.000
 5781.00    2.45741   2.35684   -1.000
 5782.00    2.49003   2.35514   -1.000
 5783.00    2.50100   2.35692   -1.000
 5784.00    2.48917   2.36103   -1.000
 5785.00    2.47898   2.36644   -1.000
 5786.00    2.48910   2.37253   -1.000
 5787.00    2.51452   2.37879   -1.000
 5788.00    2.53294   2.38405   -1.000
 5789.00    2.52923   2.38774   -1.000
 5790.00    2.49008   2.39056   -1.000
 5791.00    2.46432   2.39422   -1.000
 5792.00    2.46947   2.39995   -1.000
 5793.00    2.46139   2.40693   -1.000
 5794.00    2.46503   2.41246   -1.000
 5795.00    2.49869   2.41442   -1.000
 5796.00    2.51915   2.41335   -1.000
 5797.00    2.51501   2.41221   -1.000
 5798.00    2.53441   2.41396   -1.000
 5799.00    2.55788   2.41881   -1.000
 5800.00    2.56114   2.42437   -1.000
 5801.00    2.55904   2.42771   -1.000
 5802.00    2.55408   2.42774   -1.000
 5803.00    2.55434   2.42589   -1.000
 5804.00    2.55872   2.42417   -1.000
 5805.00    2.54838   2.42448   -1.000
 5806.00    2.54852   2.42683   -1.000
 5807.00    2.54318   2.42997   -1.000
 5808.00    2.54003   2.43292   -1.000
 5809.00    2.55205   2.43539   -1.000
 5810.00    2.54924   2.43758   -1.000
 5811.00    2.55435   2.43919   -1.000
 5812.00    2.57076   2.43916   -1.000
 5813.00    2.56599   2.43706   -1.000
 5814.00    2.55823   2.43382   -1.000
 5815.00    2.56696   2.43184   -1.000
 5816.00    2.57700   2.43288   -1.000
 5817.00    2.58266   2.43692   -1.000
 5818.00    2.58880   2.44202   -1.000
 5819.00    2.60207   2.44626   -1.000
 5820.00    2.60643   2.44912   -1.000
 5821.00    2.59545   2.45086   -1.000
 5822.00    2.60571   2.45191   -1.000
 5823.00    2.62815   2.45233   -1.000
 5824.00    2.62454   2.45270   -1.000
 5825.00    2.61357   2.45375   -1.000
 5826.00    2.61395   2.45586   -1.000
 5827.00    2.61440   2.45872   -1.000
 5828.00    2.60909   2.46104   -1.000
 5829.00    2.61335   2.46203   -1.000
 5830.00    2.62220   2.46140   -1.000
 5831.00    2.62097   2.45957   -1.000
 5832.00    2.62766   2.45750   -1.000
 5833.00    2.62778   2.45584   -1.000
 5834.00    2.61915   2.45538   -1.000
 5835.00    2.60464   2.45635   -1.000
 5836.00    2.59041   2.45863   -1.000
 5837.00    2.58794   2.46175   -1.000
 5838.00    2.59471   2.46501   -1.000
 5839.00    2.58853   2.46773   -1.000
 5840.00    2.58461   2.46904   -1.000
 5841.00    2.59233   2.46824   -1.000
 5842.00    2.59342   2.46540   -1.000
 5843.00    2.59443   2.46142   -1.000
 5844.00    2.59406   2.45745   -1.000
 5845.00    2.58316   2.45444   -1.000
 5846.00    2.58417   2.45275   -1.000
 5847.00    2.58598   2.45202   -1.000
 5848.00    2.58641   2.45141   -1.000
 5849.00    2.58626   2.44936   -1.000
 5850.00    2.60056   2.44441   -1.000
 5851.00    2.60201   2.43668   -1.000
 5852.00    2.57433   2.42834   -1.000
 5853.00    2.56941   2.42128   -1.000
 5854.00    2.58169   2.41522   -1.000
 5855.00    2.56306   2.40857   -1.000
 5856.00    2.54633   2.40189   -1.000
 5857.00    2.56796   2.39877   -1.000
 5858.00    2.58256   2.40267   -1.000
 5859.00    2.57323   2.41245   -1.000
 5860.00    2.57628   2.42410   -1.000
 5861.00    2.58762   2.43345   -1.000
 5862.00    2.58474   2.43904   -1.000
 5863.00    2.59596   2.44098   -1.000
 5864.00    2.61777   2.43994   -1.000
 5865.00    2.62333   2.43780   -1.000
 5866.00    2.61004   2.43753   -1.000
 5867.00    2.60431   2.44092   -1.000
 5868.00    2.60228   2.44749   -1.000
 5869.00    2.59680   2.45418   -1.000
 5870.00    2.60971   2.45807   -1.000
 5871.00    2.62145   2.45830   -1.000
 5872.00    2.62903   2.45575   -1.000
 5873.00    2.63130   2.45194   -1.000
 5874.00    2.62419   2.44821   -1.000
 5875.00    2.61986   2.44514   -1.000
 5876.00    2.61503   2.44229   -1.000
 5877.00    2.60659   2.43891   -1.000
 5878.00    2.59351   2.43487   -1.000
 5879.00    2.59069   2.43081   -1.000
 5880.00    2.59175   2.42751   -1.000
 5881.00    2.58461   2.42444   -1.000
 5882.00    2.55820   2.42029   -1.000
 5883.00    2.46695   2.41354   -1.000
 5884.00    2.28418   2.40217   -1.000
 5885.00    1.99561   2.38181   -1.000
 5886.00    1.75521   2.34674   -1.000
 5887.00    1.78372   2.29624   -1.000
 5888.00    2.00417   2.24330   -1.000
 5889.00    2.15076   2.20776   -1.000
 5890.00    2.09634   2.20371   -1.000
 5891.00    1.91944   2.22331   -1.000
 5892.00    1.77781   2.24509   -1.000
 5893.00    1.84732   2.25107   -1.000
 5894.00    2.09663   2.24230   -1.000
 5895.00    2.29537   2.23644   -1.000
 5896.00    2.36961   2.24725   -1.000
 5897.00    2.41946   2.27677   -1.000
 5898.00    2.49462   2.31447   -1.000
 5899.00    2.55577   2.34940   -1.000
 5900.00    2.58454   2.37681   -1.000
 5901.00    2.59728   2.39677   -1.000
 5902.00    2.61625   2.41070   -1.000
 5903.00    2.62223   2.41999   -1.000
 5904.00    2.61546   2.42623   -1.000
 5905.00    2.60967   2.43060   -1.000
 5906.00    2.60813   2.43424   -1.000
 5907.00    2.59931   2.43762   -1.000
 5908.00    2.58032   2.44067   -1.000
 5909.00    2.59030   2.44262   -1.000
 5910.00    2.61125   2.44229   -1.000
 5911.00    2.61265   2.43865   -1.000
 5912.00    2.60423   2.43187   -1.000
 5913.00    2.59761   2.42392   -1.000
 5914.00    2.58760   2.41793   -1.000
 5915.00    2.56066   2.41601   -1.000
 5916.00    2.54496   2.41851   -1.000
 5917.00    2.55543   2.42354   -1.000
 5918.00    2.56637   2.42898   -1.000
 5919.00    2.56683   2.43353   -1.000
 5920.00    2.57299   2.43706   -1.000
 5921.00    2.57834   2.44001   -1.000
 5922.00    2.58241   2.44340   -1.000
 5923.00    2.60643   2.44782   -1.000
 5924.00    2.61358   2.45279   -1.000
 5925.00    2.61218   2.45707   -1.000
 5926.00    2.63783   2.45864   -1.000
 5927.00    2.63850   2.45705   -1.000
 5928.00    2.61954   2.45386   -1.000
 5929.00    2.60855   2.45197   -1.000
 5930.00    2.59311   2.45261   -1.000
 5931.00    2.59984   2.45512   -1.000
 5932.00    2.62338   2.45696   -1.000
 5933.00    2.62929   2.45705   -1.000
 5934.00    2.61931   2.45651   -1.000
 5935.00    2.61836   2.45696   -1.000
 5936.00    2.63335   2.45851   -1.000
 5937.00    2.62965   2.45937   -1.000
 5938.00    2.61496   2.45761   -1.000
 5939.00    2.61068   2.45348   -1.000
 5940.00    2.61809   2.44887   -1.000
 5941.00    2.61286   2.44623   -1.000
 5942.00    2.59118   2.44691   -1.000
 5943.00    2.58735   2.45017   -1.000
 5944.00    2.58855   2.45403   -1.000
 5945.00    2.59692   2.45645   -1.000
 5946.00    2.61338   2.45665   -1.000
 5947.00    2.62214   2.45639   -1.000
 5948.00    2.60615   2.45755   -1.000
 5949.00    2.60062   2.46012   -1.000
 5950.00    2.63195   2.46305   -1.000
 5951.00    2.64534   2.46455   -1.000
 5952.00    2.63040   2.46447   -1.000
 5953.00    2.62733   2.46327   -1.000
 5954.00    2.61907   2.46143   -1.000
 5955.00    2.60686   2.45985   -1.000
 5956.00    2.61220   2.46005   -1.000
 5957.00    2.61146   2.46338   -1.000
 5958.00    2.61458   2.46969   -1.000
 5959.00    2.65432   2.47732   -1.000
 5960.00    2.66445   2.48382   -1.000
 5961.00    2.65306   2.48752   -1.000
 5962.00    2.66648   2.48795   -1.000
 5963.00    2.66747   2.48574   -1.000
 5964.00    2.65317   2.48238   -1.000
 5965.00    2.63020   2.47996   -1.000
 5966.00    2.61161   2.47962   -1.000
 5967.00    2.60823   2.48163   -1.000
 5968.00    2.62442   2.48507   -1.000
 5969.00    2.64135   2.48866   -1.000
 5970.00    2.63143   2.49133   -1.000
 5971.00    2.63644   2.49234   -1.000
 5972.00    2.64690   2.49166   -1.000
 5973.00    2.64116   2.48916   -1.000
 5974.00    2.63496   2.48526   -1.000
 5975.00    2.63361   2.48131   -1.000
 5976.00    2.63978   2.47880   -1.000
 5977.00    2.64263   2.47961   -1.000
 5978.00    2.65639   2.48321   -1.000
 5979.00    2.65711   2.48770   -1.000
 5980.00    2.65036   2.49003   -1.000
 5981.00    2.66640   2.48859   -1.000
 5982.00    2.67211   2.48410   -1.000
 5983.00    2.65689   2.47962   -1.000
 5984.00    2.64629   2.47816   -1.000
 5985.00    2.65435   2.48041   -1.000
 5986.00    2.66106   2.48530   -1.000
 5987.00    2.63528   2.49048   -1.000
 5988.00    2.61973   2.49432   -1.000
 5989.00    2.63951   2.49669   -1.000
 5990.00    2.65479   2.49887   -1.000
 5991.00    2.66159   2.50253   -1.000
 5992.00    2.65317   2.50800   -1.000
 5993.00    2.64571   2.51333   -1.000
 5994.00    2.66254   2.51606   -1.000
 5995.00    2.66755   2.51555   -1.000
 5996.00    2.65543   2.51313   -1.000
 5997.00    2.65395   2.51134   -1.000
 5998.00    2.66809   2.51085   -1.000
 5999.00    2.66820   2.51094   -1.000
 6000.00    2.65096   2.51044   -1.000
 6001.00    2.63617   2.50863   -1.000
 6002.00    2.64104   2.50648   -1.000
 6003.00    2.63825   2.50397   -1.000
 6004.00    2.63825   2.50060   -1.000
 6005.00    2.63915   2.49614   -1.000
 6006.00    2.60806   2.49169   -1.000
 6007.00    2.57539   2.49019   -1.000
 6008.00    2.57123   2.49333   -1.000
 6009.00    2.59695   2.49927   -1.000
 6010.00    2.62795   2.50510   -1.000
 6011.00    2.64962   2.50840   -1.000
 6012.00    2.67396   2.50974   -1.000
 6013.00    2.67229   2.51063   -1.000
 6014.00    2.67124   2.51118   -1.000
 6015.00    2.66523   2.51130   -1.000
 6016.00    2.65661   2.51045   -1.000
 6017.00    2.65661   2.50847   -1.000
 6018.00    2.65959   2.50580   -1.000
 6019.00    2.66329   2.50310   -1.000
 6020.00    2.65540   2.50124   -1.000
 6021.00    2.64615   2.50120   -1.000
 6022.00    2.64813   2.50351   -1.000
 6023.00    2.63819   2.50819   -1.000
 6024.00    2.63990   2.51450   -1.000
 6025.00    2.65253   2.52101   -1.000
 6026.00    2.64952   2.52661   -1.000
 6027.00    2.66278   2.53092   -1.000
 6028.00    2.68212   2.53412   -1.000
 6029.00    2.68864   2.53688   -1.000
 6030.00    2.66483   2.53937   -1.000
 6031.00    2.64490   2.54201   -1.000
 6032.00    2.65638   2.54515   -1.000
 6033.00    2.67845   2.54867   -1.000
 6034.00    2.67620   2.55169   -1.000
 6035.00    2.66239   2.55255   -1.000
 6036.00    2.66139   2.55020   -1.000
 6037.00    2.67393   2.54512   -1.000
 6038.00    2.68253   2.53916   -1.000
 6039.00    2.67834   2.53486   -1.000
 6040.00    2.67883   2.53297   -1.000
 6041.00    2.67810   2.53306   -1.000
 6042.00    2.68525   2.53599   -1.000
 6043.00    2.69491   2.54130   -1.000
 6044.00    2.69963   2.54841   -1.000
 6045.00    2.71299   2.55515   -1.000
 6046.00    2.70913   2.55980   -1.000
 6047.00    2.70096   2.56197   -1.000
 6048.00    2.71084   2.56229   -1.000
 6049.00    2.70294   2.56106   -1.000
 6050.00    2.69337   2.55869   -1.000
 6051.00    2.70377   2.55623   -1.000
 6052.00    2.71281   2.55377   -1.000
 6053.00    2.71417   2.55150   -1.000
 6054.00    2.70381   2.54915   -1.000
 6055.00    2.68755   2.54719   -1.000
 6056.00    2.68077   2.54597   -1.000
 6057.00    2.68316   2.54588   -1.000
 6058.00    2.78280   2.54667   -1.000
 6059.00    2.81356   2.54719   -1.000
 6060.00    2.71781   2.54594   -1.000
 6061.00    2.07562   2.54094   -1.000
 6062.00    1.02824   2.53233   -1.000
 6063.00    1.41010   2.52295   -1.000
 6064.00    2.39848   2.51750   -1.000
 6065.00    2.52296   2.51957  103.869
 6066.00    2.43410   2.52884   -1.000
 6067.00    2.04605   2.54123   -1.000
 6068.00    1.18056   2.55270   -1.000
 6069.00    1.88269   2.56083   -1.000
 6070.00    2.75758   2.56593   -1.000
 6071.00    2.71453   2.56915   -1.000
 6072.00    2.69711   2.57077   -1.000
 6073.00    2.69292   2.57072   -1.000
 6074.00    2.69122   2.56857   -1.000
 6075.00    2.69436   2.56477   -1.000
 6076.00    2.69244   2.56040   -1.000
 6077.00    2.69232   2.55670   -1.000
 6078.00    2.70905   2.55407   -1.000
 6079.00    2.70872   2.55216   -1.000
 6080.00    2.69164   2.55026   -1.000
 6081.00    2.67813   2.54851   -1.000
 6082.00    2.66455   2.54748   -1.000
 6083.00    2.68534   2.54785   -1.000
 6084.00    2.70808   2.54972   -1.000
 6085.00    2.70688   2.55277   -1.000
 6086.00    2.70966   2.55609   -1.000
 6087.00    2.71584   2.55835   -1.000
 6088.00    2.72940   2.55848   -1.000
 6089.00    2.73141   2.55666   -1.000
 6090.00    2.71884   2.55469   -1.000
 6091.00    2.71620   2.55458   -1.000
 6092.00    2.71588   2.55726   -1.000
 6093.00    2.70414   2.56209   -1.000
 6094.00    2.71033   2.56751   -1.000
 6095.00    2.71657   2.57246   -1.000
 6096.00    2.70653   2.57598   -1.000
 6097.00    2.69684   2.57679   -1.000
 6098.00    2.69912   2.57300   -1.000
 6099.00    2.69595   2.56335   -1.000
 6100.00    2.67716   2.54871   -1.000
 6101.00    2.64312   2.53474   -1.000
 6102.00    2.62982   2.52719   -1.000
 6103.00    2.64461   2.52998   -1.000
 6104.00    2.66522   2.54049   -1.000
 6105.00    2.68361   2.55383   -1.000
 6106.00    2.68871   2.56559   -1.000
 6107.00    2.70311   2.57428   -1.000
 6108.00    2.70079   2.57986   -1.000
 6109.00    2.67322   2.58274   -1.000
 6110.00    2.67189   2.58351   -1.000
 6111.00    2.70036   2.58361   -1.000
 6112.00    2.71317   2.58396   -1.000
 6113.00    2.69936   2.58487   -1.000
 6114.00    2.69528   2.58566   -1.000
 6115.00    2.69071   2.58520   -1.000
 6116.00    2.67747   2.58200   -1.000
 6117.00    2.68773   2.57313   -1.000
 6118.00    2.69950   2.55860   -1.000
 6119.00    2.68994   2.54020   -1.000
 6120.00    2.66948   2.52337   -1.000
 6121.00    2.64304   2.51535   -1.000
 6122.00    2.64544   2.51918   -1.000
 6123.00    2.66425   2.53256   -1.000
 6124.00    2.68509   2.54911   -1.000
 6125.00    2.69148   2.56236   -1.000
 6126.00    2.68175   2.57075   -1.000
 6127.00    2.68818   2.57623   -1.000
 6128.00    2.70264   2.58134   -1.000
 6129.00    2.70738   2.58726   -1.000
 6130.00    2.70538   2.59259   -1.000
 6131.00    2.70813   2.59435   -1.000
 6132.00    2.72441   2.58841   -1.000
 6133.00    2.72112   2.57233   -1.000
 6134.00    2.68726   2.54714   -1.000
 6135.00    2.64654   2.52144   -1.000
 6136.00    2.60076   2.50501   -1.000
 6137.00    2.58295   2.50381   -1.000
 6138.00    2.60781   2.51352   -1.000
 6139.00    2.64712   2.52579   -1.000
 6140.00    2.66164   2.53618   -1.000
 6141.00    2.63240   2.54572   -1.000
 6142.00    2.61779   2.55718   -1.000
 6143.00    2.66213   2.56956   -1.000
 6144.00    2.70494   2.57930   -1.000
 6145.00    2.69694   2.58401   -1.000
 6146.00    2.68383   2.58365   -1.000
 6147.00    2.68566   2.58045   -1.000
 6148.00    2.68082   2.57694   -1.000
 6149.00    2.67831   2.57531   -1.000
 6150.00    2.68979   2.57620   -1.000
 6151.00    2.68350   2.57901   -1.000
 6152.00    2.67730   2.58147   -1.000
 6153.00    2.66265   2.58204   -1.000
 6154.00    2.65403   2.58037   -1.000
 6155.00    2.66746   2.57714   -1.000
 6156.00    2.67565   2.57251   -1.000
 6157.00    2.66896   2.56458   -1.000
 6158.00    2.65065   2.55000   -1.000
 6159.00    2.62914   2.52737   -1.000
 6160.00    2.60196   2.50115   -1.000
 6161.00    2.54908   2.48069   -1.000
 6162.00    2.51965   2.47401   -1.000
 6163.00    2.54432   2.48186   -1.000
 6164.00    2.58366   2.49704   -1.000
 6165.00    2.60263   2.51106   -1.000
 6166.00    2.59198   2.51838   -1.000
 6167.00    2.58283   2.51926   -1.000
 6168.00    2.57115   2.51763   -1.000
 6169.00    2.56984   2.51897   -1.000
 6170.00    2.57059   2.52592   -1.000
 6171.00    2.58038   2.53733   -1.000
 6172.00    2.60305   2.54965   -1.000
 6173.00    2.62141   2.56036   -1.000
 6174.00    2.61491   2.56848   -1.000
 6175.00    2.60600   2.57429   -1.000
 6176.00    2.60950   2.57810   -1.000
 6177.00    2.61315   2.58036   -1.000
 6178.00    2.60321   2.58184  101.980
 6179.00    2.61387   2.58355   -1.000
 6180.00    2.63127   2.58609   -1.000
 6181.00    2.64382   2.58917   -1.000
 6182.00    2.63699   2.59185   -1.000
 6183.00    2.63887   2.59296   -1.000
 6184.00    2.65191   2.59164   -1.000
 6185.00    2.66941   2.58728   -1.000
 6186.00    2.68093   2.57971   -1.000
 6187.00    2.66685   2.56858   -1.000
 6188.00    2.63625   2.55467   -1.000
 6189.00    2.61400   2.54086   -1.000
 6190.00    2.60302   2.53264   -1.000
 6191.00    2.58311   2.53468   -1.000
 6192.00    2.57196   2.54693  102.917
 6193.00    2.60234   2.56386   -1.000
 6194.00    2.64363   2.57909   -1.000
 6195.00    2.65772   2.58827   -1.000
 6196.00    2.64998   2.59096   -1.000
 6197.00    2.63746   2.58863   -1.000
 6198.00    2.59324   2.58527  104.500
 6199.00    2.54542   2.58442   -1.000
 6200.00    2.54424   2.58810   -1.000
 6201.00    2.59077   2.59501  102.606
 6202.00    2.61842   2.60241  102.489
 6203.00    2.63175   2.60846  102.427
 6204.00    2.65087   2.61267   -1.000
 6205.00    2.66122   2.61545   -1.000
 6206.00    2.67110   2.61689   -1.000
 6207.00    2.67331   2.61673   -1.000
 6208.00    2.67461   2.61443   -1.000
 6209.00    2.67742   2.60959   -1.000
 6210.00    2.67763   2.60189   -1.000
 6211.00    2.66796   2.59177   -1.000
 6212.00    2.67044   2.58096   -1.000
 6213.00    2.66590   2.57217   -1.000
 6214.00    2.64815   2.56702   -1.000
 6215.00    2.64608   2.56470   -1.000
 6216.00    2.65735   2.56299   -1.000
 6217.00    2.66596   2.56058   -1.000
 6218.00    2.67545   2.55874   -1.000
 6219.00    2.41073   2.55947   -1.000
 6220.00    2.35640   2.56363   -1.000
 6221.00    2.58707   2.56959  107.640
 6222.00    2.68689   2.57529   -1.000
 6223.00    2.68053   2.57952   -1.000
 6224.00    2.66801   2.58196   -1.000
 6225.00    2.68228   2.58172   -1.000
 6226.00    2.69186   2.57682   -1.000
 6227.00    2.67430   2.56592   -1.000
 6228.00    2.65465   2.55096   -1.000
 6229.00    2.62618   2.53728   -1.000
 6230.00    2.59485   2.53140   -1.000
 6231.00    2.58676   2.53653   -1.000
 6232.00    2.61231   2.55033   -1.000
 6233.00    2.65044   2.56678   -1.000
 6234.00    2.66172   2.57921   -1.000
 6235.00    2.66505   2.58465   -1.000
 6236.00    2.67149   2.58329   -1.000
 6237.00    2.66050   2.57817   -1.000
 6238.00    2.64775   2.57216   -1.000
 6239.00    2.63333   2.56717   -1.000
 6240.00    2.62199   2.56304   -1.000
 6241.00    2.62801   2.55859   -1.000
 6242.00    2.63515   2.55329   -1.000
 6243.00    2.63925   2.54806   -1.000
 6244.00    2.64123   2.54552   -1.000
 6245.00    2.62746   2.54804   -1.000
 6246.00    2.61272   2.55590   -1.000
 6247.00    2.61687   2.56587   -1.000
 6248.00    2.62312   2.57297   -1.000
 6249.00    2.63343   2.57276   -1.000
 6250.00    2.63315   2.56498   -1.000
 6251.00    2.61520   2.55323   -1.000
 6252.00    2.60030   2.54275   -1.000
 6253.00    2.59029   2.53681   -1.000
 6254.00    2.58956   2.53527   -1.000
 6255.00    2.58525   2.53615   -1.000
 6256.00    2.58721   2.53861   -1.000
 6257.00    2.58702   2.54343   -1.000
 6258.00    2.60187   2.55191   -1.000
 6259.00    2.61457   2.56309   -1.000
 6260.00    2.60951   2.57492   -1.000
 6261.00    2.62107   2.58471   -1.000
 6262.00    2.63277   2.59138   -1.000
 6263.00    2.61829   2.59505   -1.000
 6264.00    2.59593   2.59721  106.895
 6265.00    2.58505   2.59933  106.956
 6266.00    2.59170   2.60148  107.502
 6267.00    2.60969   2.60287  107.545
 6268.00    2.62599   2.60277   -1.000
 6269.00    2.63029   2.60141   -1.000
 6270.00    2.61689   2.59887  107.063
 6271.00    2.59036   2.59400  107.730
 6272.00    2.56218   2.58531  108.596
 6273.00    2.52982   2.57186   -1.000
 6274.00    2.47196   2.55519   -1.000
 6275.00    2.39486   2.53804   -1.000
 6276.00    2.35587   2.52414   -1.000
 6277.00    2.33265   2.51563   -1.000
 6278.00    2.28953   2.51370   -1.000
 6279.00    2.23733   2.51829   -1.000
 6280.00    2.21558   2.52924   -1.000
 6281.00    2.24862   2.54511   -1.000
 6282.00    2.32129   2.56342   -1.000
 6283.00    2.40624   2.58051   -1.000
 6284.00    2.47517   2.59388   -1.000
 6285.00    2.52631   2.60248   -1.000
 6286.00    2.55989   2.60664   -1.000
 6287.00    2.60045   2.60691  107.267
 6288.00    2.59785   2.60430  108.106
 6289.00    2.58662   2.60019  108.467
 6290.00    2.58854   2.59638  108.587
 6291.00    2.59130   2.59335  108.761
 6292.00    2.59078   2.59063  109.439
 6293.00    2.58192   2.58682  110.219
 6294.00    2.55493   2.58126  110.524
 6295.00    2.51654   2.57478   -1.000
 6296.00    2.44832   2.56897   -1.000
 6297.00    2.42019   2.56569   -1.000
 6298.00    2.49000   2.56483   -1.000
 6299.00    2.58049   2.56561  111.326
 6300.00    2.58696   2.56781  110.970
 6301.00    2.55937   2.57228  109.343
 6302.00    2.54234   2.57978   -1.000
 6303.00    2.56527   2.58923  106.871
 6304.00    2.57093   2.59858  105.924
 6305.00    2.57028   2.60654   -1.000
 6306.00    2.58823   2.61276  105.875
 6307.00    2.60623   2.61762  106.552
 6308.00    2.61167   2.62109  107.050
 6309.00    2.59556   2.62275  107.472
 6310.00    2.60349   2.62229  107.662
 6311.00    2.62018   2.61965  108.418
 6312.00    2.58982   2.61540  108.998
 6313.00    2.57395   2.61041   -1.000
 6314.00    2.57616   2.60558  108.907
 6315.00    2.56938   2.60157   -1.000
 6316.00    2.56480   2.59920   -1.000
 6317.00    2.56204   2.60000   -1.000
 6318.00    2.56302   2.60476   -1.000
 6319.00    2.58824   2.61275  105.933
 6320.00    2.61888   2.62173  105.585
 6321.00    2.62128   2.63007  105.066
 6322.00    2.61077   2.63757  104.668
 6323.00    2.63783   2.64429  104.552
 6324.00    2.65839   2.64965  104.151
 6325.00    2.64870   2.65291  104.077
 6326.00    2.65495   2.65406  104.180
 6327.00    2.64889   2.65408  104.249
 6328.00    2.64304   2.65424  103.982
 6329.00    2.68458   2.65516   -1.000
 6330.00    2.66104   2.65606  103.920
 6331.00    2.51337   2.65481   -1.000
 6332.00    2.57588   2.64954   -1.000
 6333.00    2.63983   2.64039  106.972
 6334.00    2.61218   2.63101  106.273
 6335.00    2.60191   2.62583  105.210
 6336.00    2.61745   2.62763  104.067
 6337.00    2.62144   2.63519  103.398
 6338.00    2.61628   2.64502  102.912
 6339.00    2.62530   2.65338  102.844
 6340.00    2.64763   2.65821  103.585
 6341.00    2.63903   2.65901  103.956
 6342.00    2.62603   2.65725  103.748
 6343.00    2.61612   2.65522   -1.000
 6344.00    2.59731   2.65508   -1.000
 6345.00    2.59471   2.65784   -1.000
 6346.00    2.62757   2.66304   -1.000
 6347.00    2.64574   2.66975  101.854
 6348.00    2.63429   2.67641   -1.000
 6349.00    2.62038   2.68140   -1.000
 6350.00    2.63436   2.68313   -1.000
 6351.00    2.63833   2.68116   -1.000
 6352.00    2.63845   2.67640   -1.000
 6353.00    2.62804   2.67070   -1.000
 6354.00    2.61810   2.66553   -1.000
 6355.00    2.62283   2.66130   -1.000
 6356.00    2.61324   2.65739   -1.000
 6357.00    2.58816   2.65360   -1.000
 6358.00    2.55430   2.65033   -1.000
 6359.00    2.54724   2.64805   -1.000
 6360.00    2.52833   2.64690   -1.000
 6361.00    2.55108   2.64697   -1.000
 6362.00    2.57781   2.64895   -1.000
 6363.00    2.58108   2.65322   -1.000
 6364.00    2.59545   2.65923   -1.000
 6365.00    2.60213   2.66561   -1.000
 6366.00    2.59456   2.67091   -1.000
 6367.00    2.59680   2.67405   -1.000
 6368.00    2.60587   2.67478   -1.000
 6369.00    2.61891   2.67400   -1.000
 6370.00    2.61438   2.67355   -1.000
 6371.00    2.60155   2.67493   -1.000
 6372.00    2.59201   2.67810   -1.000
 6373.00    2.58592   2.68156   -1.000
 6374.00    2.56236   2.68370   -1.000
 6375.00    2.55410   2.68381   -1.000
 6376.00    2.56983   2.68236   -1.000
 6377.00    2.57138   2.67986   -1.000
 6378.00    2.57034   2.67697   -1.000
 6379.00    2.55594   2.67420   -1.000
 6380.00    2.54073   2.67239   -1.000
 6381.00    2.54658   2.67200   -1.000
 6382.00    2.55433   2.67312   -1.000
 6383.00    2.56539   2.67523   -1.000
 6384.00    2.56226   2.67792   -1.000
 6385.00    2.54228   2.68058   -1.000
 6386.00    2.52489   2.68258   -1.000
 6387.00    2.50938   2.68300   -1.000
 6388.00    2.50813   2.68079   -1.000
 6389.00    2.50671   2.67517   -1.000
 6390.00    2.48807   2.66646   -1.000
 6391.00    2.47456   2.65712   -1.000
 6392.00    2.42851   2.65139   -1.000
 6393.00    2.39958   2.65210   -1.000
 6394.00    2.40570   2.65830   -1.000
 6395.00    2.41589   2.66485   -1.000
 6396.00    2.41445   2.66646   -1.000
 6397.00    2.40097   2.66162   -1.000
 6398.00    2.36522   2.65412   -1.000
 6399.00    2.34191   2.65066   -1.000
 6400.00    2.32664   2.65538   -1.000
 6401.00    2.32692   2.66727   -1.000
 6402.00    2.33407   2.68066   -1.000
 6403.00    2.33529   2.69006   -1.000
 6404.00    2.32637   2.69255   -1.000
 6405.00    2.31035   2.68921   -1.000
 6406.00    2.29417   2.68326   -1.000
 6407.00    2.27628   2.67858   -1.000
 6408.00    2.25029   2.67688   -1.000
 6409.00    2.22720   2.67760   -1.000
 6410.00    2.21173   2.67931   -1.000
 6411.00    2.18928   2.68131   -1.000
 6412.00    2.19617   2.68423   -1.000
 6413.00    2.20629   2.68793   -1.000
 6414.00    2.17673   2.69138   -1.000
 6415.00    2.16544   2.69293   -1.000
 6416.00    2.15753   2.69129   -1.000
 6417.00    2.12866   2.68604   -1.000
 6418.00    2.08605   2.67863   -1.000
 6419.00    2.06863   2.67258   -1.000
 6420.00    2.04079   2.67182   -1.000
 6421.00    2.00186   2.67821   -1.000
 6422.00    1.97987   2.68975   -1.000
 6423.00    1.98590   2.70235   -1.000
 6424.00    1.99574   2.71212   -1.000
 6425.00    1.96885   2.71676   -1.000
 6426.00    1.93853   2.71526   -1.000
 6427.00    1.93417   2.70790   -1.000
 6428.00    0.57083   2.69712   -1.000
