###################################################################
## OUTPUT of StarlightChains_v04.for    [Cid@UFSC - 01/Apr/2007] ##
###################################################################

## Some input info
NGC5286_c_1.cxt                          [arq_obs]
Base.BC03.S                              [arq_base]
NGC5286_c_1.msk                          [arq_masks]
StCv04.C11.config                        [arq_config]
  150                                    [N_base]
    0                                    [N_YAV_components = # of components with extra extinction!]
    0                                    [i_FitPowerLaw (1/0 = Yes/No)]
-9.99                                    [alpha_PowerLaw]
CCM                                      [red_law_option]
 1.458241                                [q_norm = A(l_norm)/A(V)]

## (Re)Sampling Parameters
 3359.00                                 [l_ini (A)]
 6428.00                                 [l_fin (A)]
    1.00                                 [dl    (A)]     (OBS: dl_cushion =    50.00 A)

## Normalization info
 4020.00                                 [l_norm (A) - for base]
 4010.00                                 [llow_norm (A) - window for f_obs]
 4060.00                                 [lupp_norm (A) - window for f_obs]
3.906300E-14                             [fobs_norm (in input units)]

## S/N
 4730.00                                 [llow_SN (A) - window for S/N]
 4780.00                                 [lupp_SN (A) - window for S/N]
 103.062                                 [S/N in S/N window]
  88.537                                 [S/N in norm. window]
 171.763                                 [S/N_err in S/N window]
 147.556                                 [S/N_err in norm. window]
  1.0000                                 [fscale_chi2]

## etc...
  2147483636                             [idum_orig]
  3068                                   [NOl_eff]
  1649                                   [Nl_eff]
  1419    NSIGMA                         [Ntot_cliped & clip_method]
  1570940                                [Nglobal_steps]
   7                                     [N_chains]
  20                                     [NEX0s_base = N_base in EX0s-fits]
 0   0   1      214   2.0   3.215E+02    [Clip-Bug, RC-Crash & Burn-In warning-flags, n_censored_weights, wei_nsig_threshold & wei_limit]
    67     66.900     66.884      0.016  [idt_all, wdt_TotTime, wdt_UsrTime & wdt_SysTime (sec)]

## Synthesis Results - Best model ##

 2.79406E+00                             [chi2/Nl_eff]
     1.05808                             [adev (%)]

    98.36274                             [sum-of-x (%)]
 1.26601E-13                             [Flux_tot (units of input spectrum!)]
 2.96106E-09                             [Mini_tot (???)]
 1.44852E-09                             [Mcor_tot (???)]

 -20.20                                  [v0_min  (km/s)]
  59.11                                  [vd_min  (km/s)]
 0.8878                                  [AV_min  (mag)]
 0.0000                                  [YAV_min (mag)]

# j     x_j(%)      Mini_j(%)     Mcor_j(%)     age_j(yr)     Z_j      (L/M)_j    YAV?  Mstars   component_j        a/Fe...       SSP_chi2r SSP_adev(%)   SSP_AV   SSP_x(%)
  1      0.0000     0.0000E+00    0.0000E+00    1.000000E+06  0.00010  8.160E-03    0   1.0000   age020_m22            0.0000     3.9710E+02     9.9922   4.0000    77.8098
  2     12.3581     1.1287E-02    2.3074E-02    3.160000E+06  0.00010  4.759E-02    0   1.0000   age045_m22            0.0000     3.3606E+01     3.1514   2.1235    95.0996
  3      0.0000     0.0000E+00    0.0000E+00    5.010000E+06  0.00010  1.932E-02    0   0.9582   age055_m22            0.0000     3.4225E+02     9.9340   2.4264    81.7656
  4      0.0000     0.0000E+00    0.0000E+00    6.610000E+06  0.00010  9.973E-03    0   0.9297   age061_m22            0.0000     3.8542E+02    10.2203   4.0000    79.8964
  5      0.0000     0.0000E+00    0.0000E+00    8.710000E+06  0.00010  7.690E-03    0   0.9030   age067_m22            0.0000     3.6143E+02     9.9253   4.0000    80.1604
  6      0.0000     0.0000E+00    0.0000E+00    1.000000E+07  0.00010  6.375E-03    0   0.8902   age070_m22            0.0000     3.4660E+02     9.6350   4.0000    80.6357
  7      0.0000     0.0000E+00    0.0000E+00    1.445000E+07  0.00010  4.874E-03    0   0.8589   age078_m22            0.0000     2.4157E+02     8.4160   3.9068    81.5795
  8      0.0000     0.0000E+00    0.0000E+00    2.512000E+07  0.00010  4.103E-03    0   0.8174   age090_m22            0.0000     9.4165E+01     5.5160   3.4952    88.3421
  9      1.5676     1.8648E-02    2.9848E-02    4.000000E+07  0.00010  3.654E-03    0   0.7830   age104_m22            0.0000     4.9679E+01     3.7076   3.1917    93.5689
 10      1.0376     1.4581E-02    2.2645E-02    5.500000E+07  0.00010  3.093E-03    0   0.7597   age110_m22            0.0000     4.9370E+01     3.3875   3.0894    95.2559
 11      2.2556     4.0331E-02    5.8848E-02    1.015200E+08  0.00010  2.431E-03    0   0.7138   age116_m22            0.0000     7.0999E+01     3.5979   2.7347    98.6726
 12      0.0000     0.0000E+00    0.0000E+00    1.609000E+08  0.00010  1.319E-03    0   0.6775   age120_m22            0.0000     7.3525E+01     3.5567   2.2528   101.1928
 13      0.0000     0.0000E+00    0.0000E+00    2.861200E+08  0.00010  1.075E-03    0   0.6412   age125_m22            0.0000     2.8228E+02     7.4304   2.3140   105.2547
 14      0.0000     0.0000E+00    0.0000E+00    5.088000E+08  0.00010  7.183E-04    0   0.6083   age130_m22            0.0000     3.7434E+02     8.7034   2.0888   106.8899
 15      0.0000     0.0000E+00    0.0000E+00    9.047900E+08  0.00010  4.524E-04    0   0.5785   age135_m22            0.0000     3.8385E+02     8.8966   1.8892   108.0892
 16      0.0000     0.0000E+00    0.0000E+00    1.278050E+09  0.00010  3.018E-04    0   0.5588   age138_m22            0.0000     1.6461E+02     5.9263   1.3652   105.7686
 17      0.0000     0.0000E+00    0.0000E+00    1.434000E+09  0.00010  2.691E-04    0   0.5532   age139_m22            0.0000     1.3122E+02     5.3334   1.2131   104.9867
 18      0.0000     0.0000E+00    0.0000E+00    2.500000E+09  0.00010  1.582E-04    0   0.5296   age150_m22            0.0000     1.0005E+02     4.5413   1.0962   105.7946
 19      0.0000     0.0000E+00    0.0000E+00    4.250000E+09  0.00010  1.007E-04    0   0.5110   age158_m22            0.0000     4.4138E+01     3.0973   0.9510   103.6359
 20      0.0000     0.0000E+00    0.0000E+00    6.250000E+09  0.00010  6.869E-05    0   0.4985   age166_m22            0.0000     1.2908E+01     1.7749   0.8985   100.4209
 21      0.0000     0.0000E+00    0.0000E+00    7.500000E+09  0.00010  5.873E-05    0   0.4931   age171_m22            0.0000     8.9555E+00     1.4933   0.8856    99.8753
 22      0.0000     0.0000E+00    0.0000E+00    1.000000E+10  0.00010  4.481E-05    0   0.4854   age181_m22            0.0000     8.5387E+00     1.4833   0.8486    99.4628
 23      0.0000     0.0000E+00    0.0000E+00    1.300000E+10  0.00010  3.489E-05    0   0.4791   age193_m22            0.0000     7.6597E+00     1.4532   0.7947    98.8024
 24      0.0638     9.1354E-02    8.9003E-02    1.500000E+10  0.00010  3.035E-05    0   0.4766   age201_m22            0.0000     6.8975E+00     1.4121   0.7563    98.5791
 25     20.9672     3.6310E+01    3.5145E+01    1.800000E+10  0.00010  2.510E-05    0   0.4735   age213_m22            0.0000     5.6582E+00     1.3461   0.6896    97.8755
 26      0.0000     0.0000E+00    0.0000E+00    1.000000E+06  0.00040  8.458E-03    0   1.0000   age020_m32            0.0000     3.9765E+02     9.9792   4.0000    78.8075
 27      0.0000     0.0000E+00    0.0000E+00    3.160000E+06  0.00040  3.973E-02    0   1.0000   age045_m32            0.0000     1.0832E+02     5.8570   3.3947    88.2470
 28      0.0000     0.0000E+00    0.0000E+00    5.010000E+06  0.00040  1.935E-02    0   0.9532   age055_m32            0.0000     2.7888E+02     9.1509   3.6245    82.1762
 29      0.0000     0.0000E+00    0.0000E+00    6.610000E+06  0.00040  1.204E-02    0   0.9243   age061_m32            0.0000     3.0871E+02     9.4768   3.9416    80.0890
 30      0.0000     0.0000E+00    0.0000E+00    8.710000E+06  0.00040  9.433E-03    0   0.9001   age067_m32            0.0000     2.7404E+02     8.9598   3.9128    81.0075
 31      0.0000     0.0000E+00    0.0000E+00    1.000000E+07  0.00040  8.053E-03    0   0.8877   age070_m32            0.0000     2.6062E+02     8.7515   3.8776    81.4608
 32      0.0000     0.0000E+00    0.0000E+00    1.445000E+07  0.00040  7.027E-03    0   0.8578   age078_m32            0.0000     1.4773E+02     6.8399   3.3482    87.0423
 33      0.0000     0.0000E+00    0.0000E+00    2.512000E+07  0.00040  4.707E-03    0   0.8166   age090_m32            0.0000     7.6325E+01     5.0625   3.0481    91.2708
 34      0.0181     2.1217E-04    3.3947E-04    4.000000E+07  0.00040  3.714E-03    0   0.7827   age104_m32            0.0000     4.2506E+01     3.5248   2.8411    94.9859
 35      0.0151     2.1972E-04    3.4105E-04    5.500000E+07  0.00040  2.982E-03    0   0.7593   age110_m32            0.0000     4.2107E+01     3.1944   2.7776    96.3403
 36      0.4810     9.5550E-03    1.3952E-02    1.015200E+08  0.00040  2.188E-03    0   0.7143   age116_m32            0.0000     1.1848E+02     4.5285   2.5063   101.2442
 37      0.1242     3.1950E-03    4.4777E-03    1.609000E+08  0.00040  1.690E-03    0   0.6856   age120_m32            0.0000     2.0295E+02     6.0379   2.2912   104.4267
 38      0.0000     0.0000E+00    0.0000E+00    2.861200E+08  0.00040  1.152E-03    0   0.6509   age125_m32            0.0000     3.0669E+02     7.7893   2.0696   106.3498
 39      0.0000     0.0000E+00    0.0000E+00    5.088000E+08  0.00040  7.331E-04    0   0.6182   age130_m32            0.0000     3.5033E+02     8.4803   1.9106   106.9529
 40      0.0000     0.0000E+00    0.0000E+00    9.047900E+08  0.00040  3.960E-04    0   0.5890   age135_m32            0.0000     1.8564E+02     6.4902   1.4626   104.7984
 41      0.0000     0.0000E+00    0.0000E+00    1.278050E+09  0.00040  2.854E-04    0   0.5687   age138_m32            0.0000     1.2463E+02     5.2064   1.1642   106.7690
 42      0.0000     0.0000E+00    0.0000E+00    1.434000E+09  0.00040  2.531E-04    0   0.5632   age139_m32            0.0000     1.1897E+02     5.0486   1.1026   106.7519
 43      6.9644     2.0344E+00    2.2399E+00    2.500000E+09  0.00040  1.488E-04    0   0.5386   age150_m32            0.0000     7.7369E+01     4.1609   0.8522   104.6071
 44     13.6951     6.5545E+00    6.9660E+00    4.250000E+09  0.00040  9.082E-05    0   0.5199   age158_m32            0.0000     1.6965E+01     2.1723   0.7655   100.5100
 45     19.8683     1.3575E+01    1.4085E+01    6.250000E+09  0.00040  6.362E-05    0   0.5076   age166_m32            0.0000     7.6801E+00     1.5125   0.7298    96.6371
 46      0.0197     1.6195E-02    1.6643E-02    7.500000E+09  0.00040  5.289E-05    0   0.5027   age171_m32            0.0000     1.1213E+01     1.7086   0.6964    95.2370
 47      0.0000     0.0000E+00    0.0000E+00    1.000000E+10  0.00040  3.972E-05    0   0.4948   age181_m32            0.0000     1.5417E+01     1.9069   0.6375    93.7738
 48      0.0000     0.0000E+00    0.0000E+00    1.300000E+10  0.00040  3.283E-05    0   0.4870   age193_m32            0.0000     9.6074E+00     1.7094   0.5900    96.7393
 49      0.0002     3.3659E-04    3.3398E-04    1.500000E+10  0.00040  2.925E-05    0   0.4854   age201_m32            0.0000     1.1484E+01     1.9222   0.5694    98.4875
 50     15.2906     2.6919E+01    2.6518E+01    1.800000E+10  0.00040  2.469E-05    0   0.4819   age213_m32            0.0000     1.4071E+01     2.1136   0.5288    99.0557
 51      0.0000     0.0000E+00    0.0000E+00    1.000000E+06  0.00400  1.114E-02    0   1.0000   age020_m42            0.0000     3.6000E+02     9.7118   4.0000    77.7704
 52      0.0000     0.0000E+00    0.0000E+00    3.160000E+06  0.00400  4.073E-02    0   0.9999   age045_m42            0.0000     6.1206E+01     4.4665   3.1007    90.8888
 53      0.0000     0.0000E+00    0.0000E+00    5.010000E+06  0.00400  2.534E-02    0   0.9488   age055_m42            0.0000     1.7247E+02     7.2025   3.5071    84.3483
 54      1.7884     3.0095E-03    5.6721E-03    6.610000E+06  0.00400  2.583E-02    0   0.9220   age061_m42            0.0000     4.5781E+01     3.8349   2.9128    92.0029
 55      0.0000     0.0000E+00    0.0000E+00    8.710000E+06  0.00400  1.706E-02    0   0.8983   age067_m42            0.0000     9.2478E+01     5.5004   2.7361    90.0771
 56      0.0000     0.0000E+00    0.0000E+00    1.000000E+07  0.00400  1.271E-02    0   0.8862   age070_m42            0.0000     1.5507E+02     7.1734   2.7206    88.5925
 57      0.0000     0.0000E+00    0.0000E+00    1.445000E+07  0.00400  7.666E-03    0   0.8571   age078_m42            0.0000     2.1138E+02     7.9744   3.1266    85.0654
 58      0.0000     0.0000E+00    0.0000E+00    2.512000E+07  0.00400  5.070E-03    0   0.8174   age090_m42            0.0000     1.2861E+02     6.5505   2.5876    90.2951
 59      0.0000     0.0000E+00    0.0000E+00    4.000000E+07  0.00400  3.505E-03    0   0.7851   age104_m42            0.0000     6.6655E+01     4.7343   2.2720    93.3191
 60      0.0000     0.0000E+00    0.0000E+00    5.500000E+07  0.00400  3.059E-03    0   0.7629   age110_m42            0.0000     3.0507E+01     2.5661   2.3186    98.6076
 61      0.0000     0.0000E+00    0.0000E+00    1.015200E+08  0.00400  2.268E-03    0   0.7207   age116_m42            0.0000     1.7492E+02     5.8101   2.2167   104.7119
 62      0.0000     0.0000E+00    0.0000E+00    1.609000E+08  0.00400  1.720E-03    0   0.6930   age120_m42            0.0000     2.1058E+02     6.5752   2.0760   106.3177
 63      0.0000     0.0000E+00    0.0000E+00    2.861200E+08  0.00400  1.079E-03    0   0.6613   age125_m42            0.0000     2.2121E+02     6.7902   1.7220   106.7988
 64      0.0000     0.0000E+00    0.0000E+00    5.088000E+08  0.00400  6.261E-04    0   0.6313   age130_m42            0.0000     2.5772E+02     7.3374   1.5256   109.8641
 65      0.0000     0.0000E+00    0.0000E+00    9.047900E+08  0.00400  3.535E-04    0   0.6024   age135_m42            0.0000     1.4469E+02     5.8195   1.1419   109.2103
 66      0.0000     0.0000E+00    0.0000E+00    1.278050E+09  0.00400  2.677E-04    0   0.5837   age138_m42            0.0000     1.1098E+02     5.6388   0.5038   104.4467
 67      0.0000     0.0000E+00    0.0000E+00    1.434000E+09  0.00400  1.910E-04    0   0.5716   age139_m42            0.0000     1.0766E+02     5.4952   0.6594   105.8859
 68      0.0000     0.0000E+00    0.0000E+00    2.500000E+09  0.00400  9.818E-05    0   0.5463   age150_m42            0.0000     9.4089E+01     5.0405   0.4190    99.6324
 69      0.0000     0.0000E+00    0.0000E+00    4.250000E+09  0.00400  5.491E-05    0   0.5269   age158_m42            0.0000     1.0597E+02     5.0143   0.3046    96.3865
 70      0.0000     0.0000E+00    0.0000E+00    6.250000E+09  0.00400  3.857E-05    0   0.5151   age166_m42            0.0000     1.4021E+02     5.6087   0.1908    94.5904
 71      0.0000     0.0000E+00    0.0000E+00    7.500000E+09  0.00400  3.243E-05    0   0.5110   age171_m42            0.0000     1.6504E+02     6.0117   0.1205    93.7662
 72      0.0000     0.0000E+00    0.0000E+00    1.000000E+10  0.00400  2.424E-05    0   0.5028   age181_m42            0.0000     1.9992E+02     6.5308   0.0509    92.8046
 73      0.0000     0.0000E+00    0.0000E+00    1.300000E+10  0.00400  1.883E-05    0   0.4927   age193_m42            0.0000     2.2706E+02     6.9041   0.0172    92.2769
 74      0.0000     0.0000E+00    0.0000E+00    1.500000E+10  0.00400  1.685E-05    0   0.4919   age201_m42            0.0000     2.1976E+02     6.8029   0.0191    92.3848
 75      0.0000     0.0000E+00    0.0000E+00    1.800000E+10  0.00400  1.452E-05    0   0.4874   age213_m42            0.0000     2.0617E+02     6.6154   0.0306    92.7699
 76      0.0000     0.0000E+00    0.0000E+00    1.000000E+06  0.00800  1.286E-02    0   1.0000   age020_m52            0.0000     3.1080E+02     9.1532   4.0000    79.0603
 77      0.0000     0.0000E+00    0.0000E+00    3.160000E+06  0.00800  3.147E-02    0   0.9966   age045_m52            0.0000     2.9677E+02     9.1905   3.9569    79.6242
 78      0.0000     0.0000E+00    0.0000E+00    5.010000E+06  0.00800  2.664E-02    0   0.9443   age055_m52            0.0000     2.0933E+02     7.7493   3.6268    83.2273
 79      0.0000     0.0000E+00    0.0000E+00    6.610000E+06  0.00800  2.151E-02    0   0.9177   age061_m52            0.0000     1.2542E+02     6.0220   2.3236    89.8812
 80      0.0000     0.0000E+00    0.0000E+00    8.710000E+06  0.00800  1.628E-02    0   0.8948   age067_m52            0.0000     1.1404E+02     6.0720   2.6881    90.5630
 81      0.0000     0.0000E+00    0.0000E+00    1.000000E+07  0.00800  1.215E-02    0   0.8827   age070_m52            0.0000     1.4682E+02     6.8311   3.0280    88.6295
 82      0.0000     0.0000E+00    0.0000E+00    1.445000E+07  0.00800  8.739E-03    0   0.8552   age078_m52            0.0000     1.1013E+02     5.9553   3.0663    90.0396
 83      0.0000     0.0000E+00    0.0000E+00    2.512000E+07  0.00800  5.676E-03    0   0.8162   age090_m52            0.0000     6.1614E+01     4.4052   2.6579    95.3956
 84      0.0000     0.0000E+00    0.0000E+00    4.000000E+07  0.00800  3.939E-03    0   0.7841   age104_m52            0.0000     4.3775E+01     3.1946   2.4944    98.1601
 85      0.0000     0.0000E+00    0.0000E+00    5.500000E+07  0.00800  3.155E-03    0   0.7627   age110_m52            0.0000     5.4063E+01     3.0146   2.4620   100.1164
 86      0.0000     0.0000E+00    0.0000E+00    1.015200E+08  0.00800  2.206E-03    0   0.7226   age116_m52            0.0000     1.1970E+02     4.7374   2.2756   104.3453
 87      0.0000     0.0000E+00    0.0000E+00    1.609000E+08  0.00800  1.596E-03    0   0.6963   age120_m52            0.0000     1.6127E+02     5.7268   2.0591   106.1754
 88      0.0000     0.0000E+00    0.0000E+00    2.861200E+08  0.00800  1.002E-03    0   0.6665   age125_m52            0.0000     2.9875E+02     8.1293   1.7723   108.9647
 89      0.0000     0.0000E+00    0.0000E+00    5.088000E+08  0.00800  5.759E-04    0   0.6377   age130_m52            0.0000     3.4999E+02     9.0833   1.4397   112.4078
 90      0.0000     0.0000E+00    0.0000E+00    9.047900E+08  0.00800  2.972E-04    0   0.6086   age135_m52            0.0000     2.3751E+02     7.8744   0.9400   109.4186
 91      0.0000     0.0000E+00    0.0000E+00    1.278050E+09  0.00800  2.242E-04    0   0.5907   age138_m52            0.0000     1.6998E+02     6.8082   0.3468   106.7661
 92      0.0000     0.0000E+00    0.0000E+00    1.434000E+09  0.00800  1.645E-04    0   0.5787   age139_m52            0.0000     1.4131E+02     6.2491   0.4900   106.3113
 93      0.0000     0.0000E+00    0.0000E+00    2.500000E+09  0.00800  7.723E-05    0   0.5519   age150_m52            0.0000     1.6618E+02     6.4699   0.1741   101.4436
 94      0.0000     0.0000E+00    0.0000E+00    4.250000E+09  0.00800  4.151E-05    0   0.5320   age158_m52            0.0000     1.7511E+02     6.4435   0.1134    98.4979
 95      0.0000     0.0000E+00    0.0000E+00    6.250000E+09  0.00800  3.010E-05    0   0.5197   age166_m52            0.0000     2.3558E+02     7.2974  -0.0658    96.5736
 96      0.0000     0.0000E+00    0.0000E+00    7.500000E+09  0.00800  2.467E-05    0   0.5139   age171_m52            0.0000     2.5255E+02     7.5237  -0.1021    96.0149
 97      0.0000     0.0000E+00    0.0000E+00    1.000000E+10  0.00800  1.862E-05    0   0.5054   age181_m52            0.0000     3.0802E+02     8.2727  -0.2206    95.2684
 98      0.0000     0.0000E+00    0.0000E+00    1.300000E+10  0.00800  1.433E-05    0   0.4988   age193_m52            0.0000     3.7020E+02     9.0271  -0.3054    95.5053
 99      0.0000     0.0000E+00    0.0000E+00    1.500000E+10  0.00800  1.244E-05    0   0.4936   age201_m52            0.0000     3.9491E+02     9.2962  -0.3310    95.8257
100      0.0000     0.0000E+00    0.0000E+00    1.800000E+10  0.00800  1.070E-05    0   0.4888   age213_m52            0.0000     4.1306E+02     9.4993  -0.3617    95.5546
101      0.0000     0.0000E+00    0.0000E+00    1.000000E+06  0.02000  1.989E-02    0   1.0000   age020_m62            0.0000     3.5937E+02     9.7769   4.0000    77.7167
102      0.0000     0.0000E+00    0.0000E+00    3.160000E+06  0.02000  3.772E-02    0   0.9858   age045_m62            0.0000     3.2042E+02     9.4391   3.8871    79.3397
103      0.0000     0.0000E+00    0.0000E+00    5.010000E+06  0.02000  3.227E-02    0   0.9342   age055_m62            0.0000     1.1019E+02     5.8495   3.3541    87.6112
104      0.0000     0.0000E+00    0.0000E+00    6.610000E+06  0.02000  2.387E-02    0   0.9090   age061_m62            0.0000     1.9376E+02     7.7917   3.1018    87.0516
105      0.0000     0.0000E+00    0.0000E+00    8.710000E+06  0.02000  1.102E-02    0   0.8861   age067_m62            0.0000     6.5879E+02    14.3870   2.7206    82.3533
106      0.0000     0.0000E+00    0.0000E+00    1.000000E+07  0.02000  1.011E-02    0   0.8751   age070_m62            0.0000     4.3647E+02    11.6890   2.7406    84.9117
107      0.0000     0.0000E+00    0.0000E+00    1.445000E+07  0.02000  7.331E-03    0   0.8472   age078_m62            0.0000     2.8690E+02     9.4070   2.7598    86.3910
108      0.0000     0.0000E+00    0.0000E+00    2.512000E+07  0.02000  4.206E-03    0   0.8099   age090_m62            0.0000     2.9529E+02     9.5071   2.6689    85.9315
109      0.0000     0.0000E+00    0.0000E+00    4.000000E+07  0.02000  3.373E-03    0   0.7799   age104_m62            0.0000     6.2389E+01     4.4753   2.4583    95.6834
110      0.0000     0.0000E+00    0.0000E+00    5.500000E+07  0.02000  2.747E-03    0   0.7595   age110_m62            0.0000     4.9577E+01     3.2586   2.3843    99.7806
111      0.0000     0.0000E+00    0.0000E+00    1.015200E+08  0.02000  1.878E-03    0   0.7221   age116_m62            0.0000     1.3965E+02     4.9011   2.2350   105.5487
112      0.0000     0.0000E+00    0.0000E+00    1.609000E+08  0.02000  1.378E-03    0   0.6978   age120_m62            0.0000     2.3670E+02     6.6772   2.0792   108.4505
113      0.0000     0.0000E+00    0.0000E+00    2.861200E+08  0.02000  8.869E-04    0   0.6700   age125_m62            0.0000     4.1459E+02     9.1391   1.7110   113.0197
114      0.0000     0.0000E+00    0.0000E+00    5.088000E+08  0.02000  4.834E-04    0   0.6430   age130_m62            0.0000     3.9493E+02     9.5331   1.3045   114.1131
115      0.0000     0.0000E+00    0.0000E+00    9.047900E+08  0.02000  2.312E-04    0   0.6152   age135_m62            0.0000     2.1337E+02     7.6692   0.7345   111.6503
116      0.0000     0.0000E+00    0.0000E+00    1.278050E+09  0.02000  1.387E-04    0   0.5927   age138_m62            0.0000     1.4703E+02     6.4003   0.3752   105.9101
117      0.0000     0.0000E+00    0.0000E+00    1.434000E+09  0.02000  1.168E-04    0   0.5865   age139_m62            0.0000     1.4434E+02     6.2774   0.3563   103.9593
118      0.0000     0.0000E+00    0.0000E+00    2.500000E+09  0.02000  5.505E-05    0   0.5610   age150_m62            0.0000     2.1893E+02     7.2983   0.0123    99.8258
119      0.0000     0.0000E+00    0.0000E+00    4.250000E+09  0.02000  3.070E-05    0   0.5407   age158_m62            0.0000     3.4623E+02     8.9791  -0.2571    98.8722
120      0.0000     0.0000E+00    0.0000E+00    6.250000E+09  0.02000  2.104E-05    0   0.5277   age166_m62            0.0000     4.1913E+02     9.7779  -0.3784    98.8890
121      0.0000     0.0000E+00    0.0000E+00    7.500000E+09  0.02000  1.770E-05    0   0.5223   age171_m62            0.0000     4.6096E+02    10.2343  -0.4604    99.0519
122      0.0000     0.0000E+00    0.0000E+00    1.000000E+10  0.02000  1.297E-05    0   0.5121   age181_m62            0.0000     5.5123E+02    11.1351  -0.6087    99.1715
123      0.0000     0.0000E+00    0.0000E+00    1.300000E+10  0.02000  9.691E-06    0   0.5047   age193_m62            0.0000     6.1486E+02    11.7047  -0.6850    99.2765
124      0.0000     0.0000E+00    0.0000E+00    1.500000E+10  0.02000  8.360E-06    0   0.4999   age201_m62            0.0000     6.7053E+02    12.2122  -0.7508    99.3422
125      0.0000     0.0000E+00    0.0000E+00    1.800000E+10  0.02000  6.911E-06    0   0.4946   age213_m62            0.0000     7.4119E+02    12.8405  -0.8166    99.3329
126      0.0000     0.0000E+00    0.0000E+00    1.000000E+06  0.05000  2.651E-02    0   0.9998   age020_m72            0.0000     3.3616E+02     9.3308   4.0000    78.6025
127      0.0000     0.0000E+00    0.0000E+00    3.160000E+06  0.05000  4.817E-02    0   0.9577   age045_m72            0.0000     2.2871E+02     7.9608   3.7392    82.7072
128      0.0000     0.0000E+00    0.0000E+00    5.010000E+06  0.05000  3.101E-02    0   0.9147   age055_m72            0.0000     2.0915E+02     7.7263   3.3747    85.5921
129      0.0000     0.0000E+00    0.0000E+00    6.610000E+06  0.05000  1.472E-02    0   0.8877   age061_m72            0.0000     5.1297E+02    12.1799   2.9202    83.6959
130      0.0000     0.0000E+00    0.0000E+00    8.710000E+06  0.05000  1.050E-02    0   0.8638   age067_m72            0.0000     3.2444E+02     9.4757   3.3208    84.2085
131      0.0000     0.0000E+00    0.0000E+00    1.000000E+07  0.05000  8.954E-03    0   0.8524   age070_m72            0.0000     2.2390E+02     7.7939   3.6090    84.1195
132      0.0000     0.0000E+00    0.0000E+00    1.445000E+07  0.05000  6.392E-03    0   0.8262   age078_m72            0.0000     1.8547E+02     7.1242   3.5551    85.2640
133      0.0000     0.0000E+00    0.0000E+00    2.512000E+07  0.05000  4.207E-03    0   0.7902   age090_m72            0.0000     9.6461E+01     5.3355   3.1628    90.3533
134      0.0000     0.0000E+00    0.0000E+00    4.000000E+07  0.05000  3.198E-03    0   0.7618   age104_m72            0.0000     7.5751E+01     3.7336   2.6260   100.0293
135      0.0000     0.0000E+00    0.0000E+00    5.500000E+07  0.05000  2.593E-03    0   0.7432   age110_m72            0.0000     1.0721E+02     4.3317   2.5232   102.4964
136      0.0000     0.0000E+00    0.0000E+00    1.015200E+08  0.05000  1.716E-03    0   0.7092   age116_m72            0.0000     1.8593E+02     5.6380   2.3163   105.8478
137      0.0000     0.0000E+00    0.0000E+00    1.609000E+08  0.05000  1.218E-03    0   0.6876   age120_m72            0.0000     2.9505E+02     7.5293   2.0518   108.8208
138      0.0000     0.0000E+00    0.0000E+00    2.861200E+08  0.05000  7.047E-04    0   0.6618   age125_m72            0.0000     4.1966E+02     9.5028   1.5256   112.4745
139      0.0000     0.0000E+00    0.0000E+00    5.088000E+08  0.05000  3.590E-04    0   0.6356   age130_m72            0.0000     3.6498E+02     9.4089   0.9798   113.8380
140      0.0000     0.0000E+00    0.0000E+00    9.047900E+08  0.05000  1.484E-04    0   0.6088   age135_m72            0.0000     2.1984E+02     7.7799   0.2946   104.8109
141      0.0000     0.0000E+00    0.0000E+00    1.278050E+09  0.05000  9.435E-05    0   0.5924   age138_m72            0.0000     3.0349E+02     8.7627  -0.0752   100.4362
142      0.0000     0.0000E+00    0.0000E+00    1.434000E+09  0.05000  7.827E-05    0   0.5847   age139_m72            0.0000     2.9625E+02     8.5416  -0.0614    99.6990
143      0.0000     0.0000E+00    0.0000E+00    2.500000E+09  0.05000  3.759E-05    0   0.5583   age150_m72            0.0000     4.1223E+02     9.7169  -0.3676    98.1304
144      0.0000     0.0000E+00    0.0000E+00    4.250000E+09  0.05000  1.842E-05    0   0.5374   age158_m72            0.0000     5.4484E+02    10.8895  -0.6769    97.3103
145      0.2872     1.0344E+00    1.1084E+00    6.250000E+09  0.05000  1.207E-05    0   0.5242   age166_m72            0.0000     6.8372E+02    12.1989  -0.9036    96.6354
146      0.0000     0.0000E+00    0.0000E+00    7.500000E+09  0.05000  9.993E-06    0   0.5183   age171_m72            0.0000     7.0592E+02    12.3927  -0.9459    96.5310
147      0.0000     0.0000E+00    0.0000E+00    1.000000E+10  0.05000  7.291E-06    0   0.5081   age181_m72            0.0000     8.1182E+02    13.2229  -1.0000    94.5196
148      1.1547     9.4416E+00    9.6850E+00    1.300000E+10  0.05000  5.316E-06    0   0.5018   age193_m72            0.0000     1.0170E+03    14.6105  -1.0000    89.2978
149      0.4058     3.9222E+00    3.9864E+00    1.500000E+10  0.05000  4.497E-06    0   0.4972   age201_m72            0.0000     1.1277E+03    15.3486  -1.0000    87.4981
150      0.0000     0.0000E+00    0.0000E+00    1.800000E+10  0.05000  3.739E-06    0   0.4924   age213_m72            0.0000     1.2854E+03    16.2831  -1.0000    84.7269


## Synthesis Results - Average & Chains ##

# j      x_j: min, <> & last-chain-values for 1 ...  7 chains
  1      0.0000      0.0036      0.0000      0.0115      0.0121      0.0000      0.0000      0.0000      0.0000
  2     12.3581      7.6696      8.0159      8.1685      8.1541      7.7532      8.0132      7.8649      7.9243
  3      0.0000      0.0431      0.0000      0.1351      0.0000      0.1369      0.0774      0.0010      0.0000
  4      0.0000      0.0022      0.0000      0.0000      0.0000      0.0000      0.0000      0.0000      0.0000
  5      0.0000      0.0037      0.0000      0.0000      0.0000      0.0000      0.0000      0.0000      0.0000
  6      0.0000      0.0024      0.0000      0.0000      0.0000      0.0389      0.0000      0.0283      0.0000
  7      0.0000      0.0050      0.0000      0.0000      0.0000      0.0000      0.0000      0.0000      0.0000
  8      0.0000      0.0122      0.0000      0.0147      0.0038      0.0000      0.0000      0.0115      0.0000
  9      1.5676      1.6408      1.7758      1.6869      1.6584      1.6349      1.6115      1.8146      1.7630
 10      1.0376      1.1607      1.3066      1.2621      1.2034      1.2266      1.2149      1.0655      1.1678
 11      2.2556      2.0674      1.9937      1.9806      2.0274      2.0114      2.1581      2.1309      2.1174
 12      0.0000      0.0155      0.0000      0.0000      0.0000      0.0000      0.0000      0.0000      0.0485
 13      0.0000      0.0081      0.0000      0.0000      0.0000      0.0000      0.0000      0.0522      0.0000
 14      0.0000      0.0172      0.0000      0.0000      0.0000      0.0000      0.1018      0.0000      0.0000
 15      0.0000      0.0092      0.0000      0.0000      0.0000      0.0000      0.0000      0.0000      0.0000
 16      0.0000      0.0249      0.0141      0.0000      0.0000      0.0000      0.0000      0.0000      0.0000
 17      0.0000      0.0217      0.0000      0.0000      0.1576      0.0000      0.1269      0.0000      0.0000
 18      0.0000      0.0383      0.0000      0.1266      0.0489      0.0000      0.0434      0.0196      0.0000
 19      0.0000      0.0647      0.0000      0.0158      0.0548      0.0000      0.0000      0.1172      0.1478
 20      0.0000      0.1090      0.0548      0.0589      0.0000      0.1759      0.3763      0.1276      0.2365
 21      0.0000      0.1973      0.4842      0.0000      0.0000      0.0000      0.5329      0.4508      0.6095
 22      0.0000      0.2476      0.0289      0.0000      0.2648      0.6521      0.3113      0.0000      0.3732
 23      0.0000      0.2047      0.0000      0.0000      0.2736      0.0909      0.0990      0.0621      0.1732
 24      0.0638      0.5214      0.5920      0.4813      0.5809      0.4748      0.0000      0.0613      0.3728
 25     20.9672     20.7871     21.7799     20.7845     21.0636     20.8761     20.3503     21.0812     20.9915
 26      0.0000      0.0029      0.0000      0.0000      0.0000      0.0000      0.0000      0.0000      0.0000
 27      0.0000      0.0159      0.0378      0.0000      0.0000      0.0448      0.0000      0.0000      0.0000
 28      0.0000      0.0090      0.0000      0.0000      0.0844      0.0000      0.0123      0.0000      0.0535
 29      0.0000      0.0051      0.0000      0.0230      0.0000      0.0220      0.0000      0.0000      0.0000
 30      0.0000      0.0055      0.0000      0.0307      0.0000      0.0000      0.0000      0.0313      0.0000
 31      0.0000      0.0053      0.0000      0.0680      0.0103      0.0000      0.0000      0.0000      0.0000
 32      0.0000      0.0439      0.1130      0.0118      0.0000      0.0000      0.0000      0.0000      0.0269
 33      0.0000      0.0138      0.0954      0.0000      0.0000      0.0224      0.0534      0.0000      0.0000
 34      0.0181      0.4364      0.4802      0.4638      0.5958      0.5515      0.5612      0.4119      0.4439
 35      0.0151      0.5137      0.5010      0.3040      0.4001      0.4676      0.5814      0.5209      0.4327
 36      0.4810      0.6904      0.5958      0.7380      0.7042      0.7203      0.4758      0.7838      0.7955
 37      0.1242      0.0708      0.0000      0.2162      0.0714      0.0064      0.1041      0.0000      0.1337
 38      0.0000      0.0289      0.1471      0.0000      0.0362      0.0977      0.0000      0.0000      0.0000
 39      0.0000      0.0243      0.0201      0.0000      0.0000      0.0000      0.0000      0.0000      0.0000
 40      0.0000      0.0118      0.0000      0.0406      0.0473      0.0000      0.0130      0.0054      0.0000
 41      0.0000      0.0301      0.0529      0.0345      0.0000      0.0000      0.0000      0.0000      0.0108
 42      0.0000      0.0432      0.0000      0.1091      0.0600      0.0608      0.1035      0.0000      0.0000
 43      6.9644      4.3732      4.9268      4.7920      4.3167      4.9698      4.3970      4.2335      4.2291
 44     13.6951     12.3765     12.5848     12.2201     12.4176     13.0788     12.7989     13.0812     12.1011
 45     19.8683     20.9473     21.3123     21.0360     20.9032     19.8418     20.7032     21.0786     21.8470
 46      0.0197      0.7681      0.3656      0.7526      0.4470      0.7325      0.7445      0.8178      0.0000
 47      0.0000      0.0580      0.0000      0.0548      0.0190      0.0000      0.0412      0.0168      0.0407
 48      0.0000      0.2075      0.0000      0.0000      0.1249      0.0000      0.2374      0.0000      0.0000
 49      0.0002      2.0389      0.7712      2.0059      1.8824      2.0524      2.2038      1.5219      1.7216
 50     15.2906     16.5635     16.6434     16.3881     16.7175     16.7028     15.9314     16.8218     16.9362
 51      0.0000      0.0061      0.0000      0.0000      0.0000      0.0000      0.0000      0.0000      0.0013
 52      0.0000      0.0289      0.0000      0.0000      0.0000      0.0000      0.1346      0.0282      0.0000
 53      0.0000      0.0063      0.0028      0.0000      0.0000      0.0000      0.0000      0.0000      0.0000
 54      1.7884      1.7524      1.5265      1.8622      1.8680      1.8581      1.7221      2.0171      1.7912
 55      0.0000      0.0500      0.1166      0.0893      0.0291      0.0797      0.0000      0.0000      0.0000
 56      0.0000      0.0195      0.0000      0.0000      0.0000      0.0000      0.1154      0.0000      0.0105
 57      0.0000      0.0043      0.0000      0.0000      0.0073      0.0000      0.0000      0.0000      0.0000
 58      0.0000      0.0126      0.0000      0.0304      0.0000      0.0873      0.0000      0.0000      0.0000
 59      0.0000      0.0063      0.0000      0.0000      0.0000      0.0000      0.0000      0.0000      0.0000
 60      0.0000      0.0107      0.0000      0.0441      0.0000      0.0000      0.0000      0.0000      0.0000
 61      0.0000      0.0175      0.0000      0.0225      0.0000      0.0000      0.0823      0.0000      0.0000
 62      0.0000      0.0201      0.0000      0.0418      0.0000      0.0000      0.0000      0.0754      0.0088
 63      0.0000      0.0145      0.0402      0.0004      0.0499      0.0000      0.0187      0.1108      0.0000
 64      0.0000      0.0192      0.0000      0.0000      0.0155      0.0445      0.0022      0.0000      0.0000
 65      0.0000      0.0163      0.0000      0.1631      0.0000      0.0000      0.0000      0.0000      0.0000
 66      0.0000      0.0065      0.0000      0.0162      0.0000      0.0000      0.0000      0.0083      0.0000
 67      0.0000      0.0072      0.0000      0.0000      0.0000      0.0000      0.0000      0.0000      0.0000
 68      0.0000      0.0054      0.0000      0.0000      0.0000      0.0215      0.0000      0.0000      0.0000
 69      0.0000      0.0112      0.0000      0.0000      0.0000      0.0000      0.0959      0.0000      0.0000
 70      0.0000      0.0053      0.0000      0.0000      0.0000      0.0000      0.0000      0.0000      0.0000
 71      0.0000      0.0076      0.0009      0.0000      0.0000      0.0000      0.0000      0.0000      0.0000
 72      0.0000      0.0036      0.0000      0.0000      0.0000      0.0000      0.0000      0.0000      0.0000
 73      0.0000      0.0042      0.0154      0.0000      0.0000      0.0000      0.0000      0.0000      0.0000
 74      0.0000      0.0047      0.0000      0.0000      0.0000      0.0020      0.0000      0.0000      0.0000
 75      0.0000      0.0050      0.0421      0.0000      0.0000      0.0000      0.0000      0.0000      0.0000
 76      0.0000      0.0025      0.0000      0.0000      0.0000      0.0283      0.0000      0.0000      0.0000
 77      0.0000      0.0038      0.0000      0.0000      0.0000      0.0000      0.0000      0.0000      0.0177
 78      0.0000      0.0066      0.0000      0.0000      0.0000      0.0000      0.0000      0.0000      0.0000
 79      0.0000      0.0068      0.0000      0.0000      0.0000      0.0000      0.0000      0.0000      0.0000
 80      0.0000      0.0037      0.0000      0.0000      0.0243      0.0000      0.0000      0.0000      0.0000
 81      0.0000      0.0063      0.0000      0.0000      0.0000      0.0000      0.0000      0.0000      0.0000
 82      0.0000      0.0251      0.0000      0.0011      0.0036      0.0485      0.1586      0.0000      0.0000
 83      0.0000      0.0195      0.0000      0.0000      0.0000      0.0000      0.0564      0.0000      0.0334
 84      0.0000      0.0273      0.0329      0.0000      0.0000      0.0000      0.0000      0.0000      0.0000
 85      0.0000      0.0324      0.0000      0.0378      0.0000      0.0000      0.0669      0.0080      0.0000
 86      0.0000      0.0113      0.0000      0.0452      0.0102      0.0000      0.0000      0.0002      0.0000
 87      0.0000      0.0104      0.0000      0.0000      0.0000      0.0000      0.0000      0.0000      0.0000
 88      0.0000      0.0060      0.0047      0.0000      0.0168      0.0049      0.0000      0.0000      0.0000
 89      0.0000      0.0052      0.0000      0.0000      0.0000      0.0000      0.0000      0.0000      0.0000
 90      0.0000      0.0029      0.0000      0.0000      0.0000      0.0000      0.0000      0.0019      0.0000
 91      0.0000      0.0023      0.0000      0.0000      0.0000      0.0000      0.0000      0.0000      0.0000
 92      0.0000      0.0029      0.0000      0.0000      0.0000      0.0000      0.0000      0.0000      0.0000
 93      0.0000      0.0019      0.0000      0.0000      0.0000      0.0000      0.0000      0.0000      0.0000
 94      0.0000      0.0029      0.0000      0.0000      0.0000      0.0161      0.0000      0.0000      0.0000
 95      0.0000      0.0028      0.0000      0.0000      0.0000      0.0000      0.0000      0.0000      0.0000
 96      0.0000      0.0034      0.0000      0.0000      0.0000      0.0000      0.0000      0.0000      0.0000
 97      0.0000      0.0017      0.0000      0.0000      0.0000      0.0000      0.0000      0.0000      0.0000
 98      0.0000      0.0013      0.0000      0.0000      0.0000      0.0000      0.0000      0.0000      0.0000
 99      0.0000      0.0021      0.0000      0.0000      0.0000      0.0000      0.0000      0.0000      0.0000
100      0.0000      0.0021      0.0000      0.0000      0.0000      0.0000      0.0000      0.0000      0.0000
101      0.0000      0.0026      0.0000      0.0002      0.0000      0.0039      0.0000      0.0000      0.0000
102      0.0000      0.0019      0.0000      0.0000      0.0000      0.0000      0.0000      0.0000      0.0000
103      0.0000      0.0128      0.0038      0.0000      0.0000      0.0000      0.0434      0.0000      0.0137
104      0.0000      0.0053      0.0124      0.0000      0.0000      0.0000      0.0000      0.0000      0.0000
105      0.0000      0.0042      0.0000      0.0000      0.0000      0.0000      0.0025      0.0000      0.0000
106      0.0000      0.0025      0.0000      0.0000      0.0000      0.0000      0.0000      0.0000      0.0000
107      0.0000      0.0115      0.0000      0.0000      0.0000      0.0000      0.0000      0.0000      0.0000
108      0.0000      0.0039      0.0000      0.0000      0.0000      0.0000      0.0000      0.0000      0.0000
109      0.0000      0.0054      0.0515      0.0000      0.0000      0.0000      0.0000      0.0000      0.0000
110      0.0000      0.0030      0.0000      0.0000      0.0000      0.0000      0.0000      0.0000      0.0329
111      0.0000      0.0105      0.0000      0.0000      0.1676      0.0000      0.0000      0.0000      0.0000
112      0.0000      0.0047      0.0000      0.0000      0.0000      0.0120      0.0000      0.0000      0.0000
113      0.0000      0.0061      0.0000      0.1012      0.0000      0.0000      0.0000      0.0000      0.0000
114      0.0000      0.0050      0.0000      0.0000      0.0000      0.0000      0.0144      0.0000      0.0000
115      0.0000      0.0031      0.0000      0.0000      0.0000      0.0099      0.0000      0.0000      0.0000
116      0.0000      0.0034      0.0000      0.0000      0.0000      0.0000      0.0000      0.0000      0.0000
117      0.0000      0.0025      0.0000      0.0000      0.0000      0.0000      0.0000      0.0042      0.0000
118      0.0000      0.0025      0.0000      0.0000      0.0000      0.0000      0.0000      0.0000      0.0000
119      0.0000      0.0013      0.0000      0.0174      0.0000      0.0000      0.0000      0.0128      0.0000
120      0.0000      0.0013      0.0003      0.0000      0.0000      0.0000      0.0000      0.0000      0.0000
121      0.0000      0.0015      0.0000      0.0000      0.0000      0.0000      0.0000      0.0000      0.0000
122      0.0000      0.0015      0.0000      0.0000      0.0000      0.0000      0.0000      0.0000      0.0000
123      0.0000      0.0015      0.0000      0.0000      0.0000      0.0000      0.0009      0.0000      0.0000
124      0.0000      0.0169      0.0000      0.0000      0.0041      0.0000      0.0314      0.0000      0.0000
125      0.0000      0.0176      0.0000      0.0000      0.0000      0.0000      0.0031      0.0000      0.0000
126      0.0000      0.0016      0.0000      0.0000      0.0000      0.0000      0.0000      0.0000      0.0000
127      0.0000      0.0031      0.0000      0.0000      0.0000      0.0000      0.0000      0.0000      0.0000
128      0.0000      0.0035      0.0000      0.0000      0.0118      0.0000      0.0000      0.0000      0.0000
129      0.0000      0.0039      0.0000      0.0000      0.0000      0.0000      0.0000      0.0000      0.0000
130      0.0000      0.0036      0.0000      0.0024      0.0000      0.0000      0.0000      0.0000      0.0000
131      0.0000      0.0022      0.0207      0.0000      0.0000      0.0000      0.0000      0.0000      0.0000
132      0.0000      0.0012      0.0000      0.0000      0.0000      0.0000      0.0000      0.0000      0.0000
133      0.0000      0.0028      0.0000      0.0000      0.0000      0.0000      0.0000      0.0000      0.0000
134      0.0000      0.0052      0.0000      0.0000      0.0000      0.0000      0.0000      0.0000      0.0000
135      0.0000      0.0051      0.0000      0.0000      0.0000      0.0000      0.0356      0.0000      0.0000
136      0.0000      0.0123      0.0000      0.0000      0.0000      0.0000      0.0000      0.0000      0.0000
137      0.0000      0.0047      0.0000      0.0000      0.0000      0.0000      0.0000      0.0530      0.0000
138      0.0000      0.0053      0.0000      0.0000      0.0000      0.0000      0.0000      0.0000      0.0000
139      0.0000      0.0040      0.0000      0.0000      0.0000      0.0132      0.0000      0.0000      0.0000
140      0.0000      0.0046      0.0030      0.0000      0.0000      0.0000      0.0000      0.0000      0.0000
141      0.0000      0.0033      0.0000      0.0102      0.0000      0.0000      0.0000      0.0000      0.0000
142      0.0000      0.0047      0.0000      0.0000      0.0000      0.0000      0.0000      0.0000      0.0000
143      0.0000      0.0022      0.0000      0.0000      0.0000      0.0000      0.0000      0.0000      0.0000
144      0.0000      0.0404      0.0319      0.0686      0.0546      0.0000      0.0000      0.0000      0.0124
145      0.2872      0.2097      0.1851      0.2149      0.2176      0.1190      0.2006      0.1671      0.1900
146      0.0000      0.1692      0.1851      0.1667      0.1853      0.1214      0.2879      0.2766      0.1695
147      0.0000      0.1423      0.1304      0.2003      0.1669      0.1711      0.0804      0.1765      0.1098
148      1.1547      0.7843      0.7987      0.8547      0.8124      0.8746      0.8026      0.7876      0.8737
149      0.4058      0.1793      0.2530      0.2163      0.1328      0.1774      0.2017      0.2074      0.1883
150      0.0000      0.1361      0.1525      0.0592      0.1745      0.1380      0.1420      0.1503      0.1564

# j      m_j: min, <> & last-chain-values for 1 ...  7 chains
  1  0.0000E+00  3.7802E-05  0.0000E+00  1.2117E-04  1.2511E-04  0.0000E+00  0.0000E+00  0.0000E+00  0.0000E+00
  2  2.3074E-02  1.3681E-02  1.4260E-02  1.4717E-02  1.4515E-02  1.3860E-02  1.4506E-02  1.4026E-02  1.4046E-02
  3  0.0000E+00  1.8140E-04  0.0000E+00  5.7447E-04  0.0000E+00  5.7754E-04  3.3074E-04  4.2389E-06  0.0000E+00
  4  0.0000E+00  1.7113E-05  0.0000E+00  0.0000E+00  0.0000E+00  0.0000E+00  0.0000E+00  0.0000E+00  0.0000E+00
  5  0.0000E+00  3.6441E-05  0.0000E+00  0.0000E+00  0.0000E+00  0.0000E+00  0.0000E+00  0.0000E+00  0.0000E+00
  6  0.0000E+00  2.8632E-05  0.0000E+00  0.0000E+00  0.0000E+00  4.6179E-04  0.0000E+00  3.3592E-04  0.0000E+00
  7  0.0000E+00  7.4998E-05  0.0000E+00  0.0000E+00  0.0000E+00  0.0000E+00  0.0000E+00  0.0000E+00  0.0000E+00
  8  0.0000E+00  2.0682E-04  0.0000E+00  2.5115E-04  6.4542E-05  0.0000E+00  0.0000E+00  1.9366E-04  0.0000E+00
  9  2.9848E-02  2.9849E-02  3.2216E-02  3.0995E-02  3.0105E-02  2.9803E-02  2.9749E-02  3.3001E-02  3.1870E-02
 10  2.2645E-02  2.4201E-02  2.7170E-02  2.6580E-02  2.5040E-02  2.5631E-02  2.5707E-02  2.2212E-02  2.4197E-02
 11  5.8848E-02  5.1532E-02  4.9561E-02  4.9865E-02  5.0431E-02  5.0243E-02  5.4592E-02  5.3103E-02  5.2446E-02
 12  0.0000E+00  6.7643E-04  0.0000E+00  0.0000E+00  0.0000E+00  0.0000E+00  0.0000E+00  0.0000E+00  2.1008E-03
 13  0.0000E+00  4.1154E-04  0.0000E+00  0.0000E+00  0.0000E+00  0.0000E+00  0.0000E+00  2.6407E-03  0.0000E+00
 14  0.0000E+00  1.2344E-03  0.0000E+00  0.0000E+00  0.0000E+00  0.0000E+00  7.4295E-03  0.0000E+00  0.0000E+00
 15  0.0000E+00  1.0035E-03  0.0000E+00  0.0000E+00  0.0000E+00  0.0000E+00  0.0000E+00  0.0000E+00  0.0000E+00
 16  0.0000E+00  3.9087E-03  2.2139E-03  0.0000E+00  0.0000E+00  0.0000E+00  0.0000E+00  0.0000E+00  0.0000E+00
 17  0.0000E+00  3.7861E-03  0.0000E+00  0.0000E+00  2.7444E-02  0.0000E+00  2.2482E-02  0.0000E+00  0.0000E+00
 18  0.0000E+00  1.0875E-02  0.0000E+00  3.6349E-02  1.3874E-02  0.0000E+00  1.2522E-02  5.5784E-03  0.0000E+00
 19  0.0000E+00  2.7861E-02  0.0000E+00  6.8687E-03  2.3573E-02  0.0000E+00  0.0000E+00  5.0457E-02  6.3283E-02
 20  0.0000E+00  6.7151E-02  3.3644E-02  3.6679E-02  0.0000E+00  1.0858E-01  2.3530E-01  7.8613E-02  1.4477E-01
 21  0.0000E+00  1.4060E-01  3.4419E-01  0.0000E+00  0.0000E+00  0.0000E+00  3.8549E-01  3.2124E-01  4.3166E-01
 22  0.0000E+00  2.2772E-01  2.6471E-02  0.0000E+00  2.4297E-01  6.0094E-01  2.9050E-01  0.0000E+00  3.4098E-01
 23  0.0000E+00  2.3862E-01  0.0000E+00  0.0000E+00  3.1822E-01  1.0624E-01  1.1711E-01  7.2382E-02  2.0059E-01
 24  8.9003E-02  6.9511E-01  7.8708E-01  6.4800E-01  7.7280E-01  6.3432E-01  0.0000E+00  8.1690E-02  4.9383E-01
 25  3.5145E+01  3.3289E+01  3.4784E+01  3.3619E+01  3.3662E+01  3.3503E+01  3.3073E+01  3.3752E+01  3.3405E+01
 26  0.0000E+00  2.9282E-05  0.0000E+00  0.0000E+00  0.0000E+00  0.0000E+00  0.0000E+00  0.0000E+00  0.0000E+00
 27  0.0000E+00  3.3867E-05  8.0617E-05  0.0000E+00  0.0000E+00  9.5860E-05  0.0000E+00  0.0000E+00  0.0000E+00
 28  0.0000E+00  3.7544E-05  0.0000E+00  0.0000E+00  3.5215E-04  0.0000E+00  5.2400E-05  0.0000E+00  2.2229E-04
 29  0.0000E+00  3.3553E-05  0.0000E+00  1.5111E-04  0.0000E+00  1.4349E-04  0.0000E+00  0.0000E+00  0.0000E+00
 30  0.0000E+00  4.4289E-05  0.0000E+00  2.5144E-04  0.0000E+00  0.0000E+00  0.0000E+00  2.5359E-04  0.0000E+00
 31  0.0000E+00  4.9539E-05  0.0000E+00  6.4295E-04  9.6240E-05  0.0000E+00  0.0000E+00  0.0000E+00  0.0000E+00
 32  0.0000E+00  4.5498E-04  1.1679E-03  1.2337E-04  0.0000E+00  0.0000E+00  0.0000E+00  0.0000E+00  2.7740E-04
 33  0.0000E+00  2.0358E-04  1.4008E-03  0.0000E+00  0.0000E+00  3.3005E-04  7.9843E-04  0.0000E+00  0.0000E+00
 34  3.3947E-04  7.8080E-03  8.5674E-03  8.3813E-03  1.0636E-02  9.8878E-03  1.0189E-02  7.3674E-03  7.8907E-03
 35  3.4105E-04  1.1104E-02  1.0800E-02  6.6377E-03  8.6312E-03  1.0129E-02  1.2755E-02  1.1258E-02  9.2940E-03
 36  1.3952E-02  1.9135E-02  1.6467E-02  2.0658E-02  1.9476E-02  2.0005E-02  1.3382E-02  2.1716E-02  2.1907E-02
 37  4.4777E-03  2.4381E-03  0.0000E+00  7.5218E-03  2.4535E-03  2.2165E-04  3.6371E-03  0.0000E+00  4.5759E-03
 38  0.0000E+00  1.3839E-03  7.0368E-03  0.0000E+00  1.7305E-03  4.6973E-03  0.0000E+00  0.0000E+00  0.0000E+00
 39  0.0000E+00  1.7379E-03  1.4328E-03  0.0000E+00  0.0000E+00  0.0000E+00  0.0000E+00  0.0000E+00  0.0000E+00
 40  0.0000E+00  1.4883E-03  0.0000E+00  5.1729E-03  5.9630E-03  0.0000E+00  1.6652E-03  6.8752E-04  0.0000E+00
 41  0.0000E+00  5.0917E-03  8.9190E-03  5.8926E-03  0.0000E+00  0.0000E+00  0.0000E+00  0.0000E+00  1.8172E-03
 42  0.0000E+00  8.1682E-03  0.0000E+00  2.0814E-02  1.1315E-02  1.1509E-02  1.9841E-02  0.0000E+00  0.0000E+00
 43  2.2399E+00  1.3438E+00  1.5098E+00  1.4872E+00  1.3237E+00  1.5304E+00  1.3711E+00  1.3006E+00  1.2913E+00
 44  6.9660E+00  6.0145E+00  6.0991E+00  5.9981E+00  6.0219E+00  6.3694E+00  6.3120E+00  6.3555E+00  5.8437E+00
 45  1.4085E+01  1.4188E+01  1.4396E+01  1.4391E+01  1.4129E+01  1.3468E+01  1.4231E+01  1.4274E+01  1.4704E+01
 46  1.6643E-02  6.1975E-01  2.9421E-01  6.1336E-01  3.5995E-01  5.9227E-01  6.0959E-01  6.5971E-01  0.0000E+00
 47  0.0000E+00  6.1339E-02  0.0000E+00  5.8573E-02  2.0088E-02  0.0000E+00  4.4263E-02  1.7719E-02  4.2759E-02
 48  0.0000E+00  2.6128E-01  0.0000E+00  0.0000E+00  1.5691E-01  0.0000E+00  3.0342E-01  0.0000E+00  0.0000E+00
 49  3.3398E-04  2.8723E+00  1.0834E+00  2.8542E+00  2.6464E+00  2.8975E+00  3.1507E+00  2.1435E+00  2.4101E+00
 50  2.6518E+01  2.7444E+01  2.7502E+01  2.7426E+01  2.7642E+01  2.7734E+01  2.6788E+01  2.7866E+01  2.7885E+01
 51  0.0000E+00  4.6163E-05  0.0000E+00  0.0000E+00  0.0000E+00  0.0000E+00  0.0000E+00  0.0000E+00  9.9962E-06
 52  0.0000E+00  6.0204E-05  0.0000E+00  0.0000E+00  0.0000E+00  0.0000E+00  2.8465E-04  5.8696E-05  0.0000E+00
 53  0.0000E+00  1.9895E-05  8.7694E-06  0.0000E+00  0.0000E+00  0.0000E+00  0.0000E+00  0.0000E+00  0.0000E+00
 54  5.6721E-03  5.3101E-03  4.6129E-03  5.6996E-03  5.6487E-03  5.6426E-03  5.2956E-03  6.1109E-03  5.3935E-03
 55  0.0000E+00  2.2364E-04  5.1975E-04  4.0333E-04  1.2983E-04  3.5692E-04  0.0000E+00  0.0000E+00  0.0000E+00
 56  0.0000E+00  1.1514E-04  0.0000E+00  0.0000E+00  0.0000E+00  0.0000E+00  6.9348E-04  0.0000E+00  6.1790E-05
 57  0.0000E+00  4.0928E-05  0.0000E+00  0.0000E+00  6.9241E-05  0.0000E+00  0.0000E+00  0.0000E+00  0.0000E+00
 58  0.0000E+00  1.7288E-04  0.0000E+00  4.2033E-04  0.0000E+00  1.1971E-03  0.0000E+00  0.0000E+00  0.0000E+00
 59  0.0000E+00  1.1919E-04  0.0000E+00  0.0000E+00  0.0000E+00  0.0000E+00  0.0000E+00  0.0000E+00  0.0000E+00
 60  0.0000E+00  2.2566E-04  0.0000E+00  9.4307E-04  0.0000E+00  0.0000E+00  0.0000E+00  0.0000E+00  0.0000E+00
 61  0.0000E+00  4.7240E-04  0.0000E+00  6.1202E-04  0.0000E+00  0.0000E+00  2.2522E-03  0.0000E+00  0.0000E+00
 62  0.0000E+00  6.8859E-04  0.0000E+00  1.4433E-03  0.0000E+00  0.0000E+00  0.0000E+00  2.5773E-03  2.9801E-04
 63  0.0000E+00  7.5279E-04  2.0846E-03  2.0149E-05  2.5928E-03  0.0000E+00  9.8633E-04  5.7617E-03  0.0000E+00
 64  0.0000E+00  1.6435E-03  0.0000E+00  0.0000E+00  1.3249E-03  3.8147E-03  1.8926E-04  0.0000E+00  0.0000E+00
 65  0.0000E+00  2.3599E-03  0.0000E+00  2.3826E-02  0.0000E+00  0.0000E+00  0.0000E+00  0.0000E+00  0.0000E+00
 66  0.0000E+00  1.1999E-03  0.0000E+00  3.0314E-03  0.0000E+00  0.0000E+00  0.0000E+00  1.5329E-03  0.0000E+00
 67  0.0000E+00  1.8359E-03  0.0000E+00  0.0000E+00  0.0000E+00  0.0000E+00  0.0000E+00  0.0000E+00  0.0000E+00
 68  0.0000E+00  2.5608E-03  0.0000E+00  0.0000E+00  0.0000E+00  1.0197E-02  0.0000E+00  0.0000E+00  0.0000E+00
 69  0.0000E+00  9.0930E-03  0.0000E+00  0.0000E+00  0.0000E+00  0.0000E+00  7.9317E-02  0.0000E+00  0.0000E+00
 70  0.0000E+00  6.0458E-03  0.0000E+00  0.0000E+00  0.0000E+00  0.0000E+00  0.0000E+00  0.0000E+00  0.0000E+00
 71  0.0000E+00  1.0189E-02  1.1522E-03  0.0000E+00  0.0000E+00  0.0000E+00  0.0000E+00  0.0000E+00  0.0000E+00
 72  0.0000E+00  6.4266E-03  0.0000E+00  0.0000E+00  0.0000E+00  0.0000E+00  0.0000E+00  0.0000E+00  0.0000E+00
 73  0.0000E+00  9.3786E-03  3.4180E-02  0.0000E+00  0.0000E+00  0.0000E+00  0.0000E+00  0.0000E+00  0.0000E+00
 74  0.0000E+00  1.1681E-02  0.0000E+00  0.0000E+00  0.0000E+00  4.9858E-03  0.0000E+00  0.0000E+00  0.0000E+00
 75  0.0000E+00  1.4170E-02  1.1954E-01  0.0000E+00  0.0000E+00  0.0000E+00  0.0000E+00  0.0000E+00  0.0000E+00
 76  0.0000E+00  1.6440E-05  0.0000E+00  0.0000E+00  0.0000E+00  1.8746E-04  0.0000E+00  0.0000E+00  0.0000E+00
 77  0.0000E+00  1.0282E-05  0.0000E+00  0.0000E+00  0.0000E+00  0.0000E+00  0.0000E+00  0.0000E+00  4.7372E-05
 78  0.0000E+00  1.9747E-05  0.0000E+00  0.0000E+00  0.0000E+00  0.0000E+00  0.0000E+00  0.0000E+00  0.0000E+00
 79  0.0000E+00  2.4739E-05  0.0000E+00  0.0000E+00  0.0000E+00  0.0000E+00  0.0000E+00  0.0000E+00  0.0000E+00
 80  0.0000E+00  1.7121E-05  0.0000E+00  0.0000E+00  1.1327E-04  0.0000E+00  0.0000E+00  0.0000E+00  0.0000E+00
 81  0.0000E+00  3.8986E-05  0.0000E+00  0.0000E+00  0.0000E+00  0.0000E+00  0.0000E+00  0.0000E+00  0.0000E+00
 82  0.0000E+00  2.0834E-04  0.0000E+00  8.8262E-06  2.9531E-05  4.0369E-04  1.3369E-03  0.0000E+00  0.0000E+00
 83  0.0000E+00  2.3747E-04  0.0000E+00  0.0000E+00  0.0000E+00  0.0000E+00  6.9897E-04  0.0000E+00  4.0572E-04
 84  0.0000E+00  4.6105E-04  5.5525E-04  0.0000E+00  0.0000E+00  0.0000E+00  0.0000E+00  0.0000E+00  0.0000E+00
 85  0.0000E+00  6.6427E-04  0.0000E+00  7.8252E-04  0.0000E+00  0.0000E+00  1.3931E-03  1.6376E-04  0.0000E+00
 86  0.0000E+00  3.1349E-04  0.0000E+00  1.2690E-03  2.8342E-04  0.0000E+00  0.0000E+00  6.7741E-06  0.0000E+00
 87  0.0000E+00  3.8505E-04  0.0000E+00  0.0000E+00  0.0000E+00  0.0000E+00  0.0000E+00  0.0000E+00  0.0000E+00
 88  0.0000E+00  3.3763E-04  2.6583E-04  0.0000E+00  9.4446E-04  2.7613E-04  0.0000E+00  0.0000E+00  0.0000E+00
 89  0.0000E+00  4.8935E-04  0.0000E+00  0.0000E+00  0.0000E+00  0.0000E+00  0.0000E+00  0.0000E+00  0.0000E+00
 90  0.0000E+00  5.1226E-04  0.0000E+00  0.0000E+00  0.0000E+00  0.0000E+00  0.0000E+00  3.2973E-04  0.0000E+00
 91  0.0000E+00  5.0636E-04  0.0000E+00  0.0000E+00  0.0000E+00  0.0000E+00  0.0000E+00  0.0000E+00  0.0000E+00
 92  0.0000E+00  8.6325E-04  0.0000E+00  0.0000E+00  0.0000E+00  0.0000E+00  0.0000E+00  0.0000E+00  0.0000E+00
 93  0.0000E+00  1.1811E-03  0.0000E+00  0.0000E+00  0.0000E+00  0.0000E+00  0.0000E+00  0.0000E+00  0.0000E+00
 94  0.0000E+00  3.1308E-03  0.0000E+00  0.0000E+00  0.0000E+00  1.7571E-02  0.0000E+00  0.0000E+00  0.0000E+00
 95  0.0000E+00  4.0444E-03  0.0000E+00  0.0000E+00  0.0000E+00  0.0000E+00  0.0000E+00  0.0000E+00  0.0000E+00
 96  0.0000E+00  5.9488E-03  0.0000E+00  0.0000E+00  0.0000E+00  0.0000E+00  0.0000E+00  0.0000E+00  0.0000E+00
 97  0.0000E+00  3.8539E-03  0.0000E+00  0.0000E+00  0.0000E+00  0.0000E+00  0.0000E+00  0.0000E+00  0.0000E+00
 98  0.0000E+00  3.7275E-03  0.0000E+00  0.0000E+00  0.0000E+00  0.0000E+00  0.0000E+00  0.0000E+00  0.0000E+00
 99  0.0000E+00  6.9261E-03  0.0000E+00  0.0000E+00  0.0000E+00  0.0000E+00  0.0000E+00  0.0000E+00  0.0000E+00
100  0.0000E+00  8.0260E-03  0.0000E+00  0.0000E+00  0.0000E+00  0.0000E+00  0.0000E+00  0.0000E+00  0.0000E+00
101  0.0000E+00  1.1072E-05  0.0000E+00  1.0628E-06  0.0000E+00  1.6763E-05  0.0000E+00  0.0000E+00  0.0000E+00
102  0.0000E+00  4.1093E-06  0.0000E+00  0.0000E+00  0.0000E+00  0.0000E+00  0.0000E+00  0.0000E+00  0.0000E+00
103  0.0000E+00  3.1385E-05  9.3791E-06  0.0000E+00  0.0000E+00  0.0000E+00  1.0827E-04  0.0000E+00  3.3346E-05
104  0.0000E+00  1.7001E-05  4.0121E-05  0.0000E+00  0.0000E+00  0.0000E+00  0.0000E+00  0.0000E+00  0.0000E+00
105  0.0000E+00  2.8699E-05  0.0000E+00  0.0000E+00  0.0000E+00  0.0000E+00  1.7212E-05  0.0000E+00  0.0000E+00
106  0.0000E+00  1.8090E-05  0.0000E+00  0.0000E+00  0.0000E+00  0.0000E+00  0.0000E+00  0.0000E+00  0.0000E+00
107  0.0000E+00  1.1262E-04  0.0000E+00  0.0000E+00  0.0000E+00  0.0000E+00  0.0000E+00  0.0000E+00  0.0000E+00
108  0.0000E+00  6.4462E-05  0.0000E+00  0.0000E+00  0.0000E+00  0.0000E+00  0.0000E+00  0.0000E+00  0.0000E+00
109  0.0000E+00  1.0627E-04  1.0076E-03  0.0000E+00  0.0000E+00  0.0000E+00  0.0000E+00  0.0000E+00  0.0000E+00
110  0.0000E+00  7.0068E-05  0.0000E+00  0.0000E+00  0.0000E+00  0.0000E+00  0.0000E+00  0.0000E+00  7.6714E-04
111  0.0000E+00  3.4360E-04  0.0000E+00  0.0000E+00  5.4590E-03  0.0000E+00  0.0000E+00  0.0000E+00  0.0000E+00
112  0.0000E+00  2.0227E-04  0.0000E+00  0.0000E+00  0.0000E+00  5.1647E-04  0.0000E+00  0.0000E+00  0.0000E+00
113  0.0000E+00  3.9356E-04  0.0000E+00  6.5526E-03  0.0000E+00  0.0000E+00  0.0000E+00  0.0000E+00  0.0000E+00
114  0.0000E+00  5.6004E-04  0.0000E+00  0.0000E+00  0.0000E+00  0.0000E+00  1.6540E-03  0.0000E+00  0.0000E+00
115  0.0000E+00  6.9092E-04  0.0000E+00  0.0000E+00  0.0000E+00  2.2466E-03  0.0000E+00  0.0000E+00  0.0000E+00
116  0.0000E+00  1.2446E-03  0.0000E+00  0.0000E+00  0.0000E+00  0.0000E+00  0.0000E+00  0.0000E+00  0.0000E+00
117  0.0000E+00  1.0850E-03  0.0000E+00  0.0000E+00  0.0000E+00  0.0000E+00  0.0000E+00  1.7715E-03  0.0000E+00
118  0.0000E+00  2.1924E-03  0.0000E+00  0.0000E+00  0.0000E+00  0.0000E+00  0.0000E+00  0.0000E+00  0.0000E+00
119  0.0000E+00  1.9773E-03  0.0000E+00  2.6217E-02  0.0000E+00  0.0000E+00  0.0000E+00  1.9165E-02  0.0000E+00
120  0.0000E+00  2.7016E-03  7.4141E-04  0.0000E+00  0.0000E+00  0.0000E+00  0.0000E+00  0.0000E+00  0.0000E+00
121  0.0000E+00  3.6968E-03  0.0000E+00  0.0000E+00  0.0000E+00  0.0000E+00  0.0000E+00  0.0000E+00  0.0000E+00
122  0.0000E+00  5.1650E-03  0.0000E+00  0.0000E+00  0.0000E+00  0.0000E+00  0.0000E+00  0.0000E+00  0.0000E+00
123  0.0000E+00  6.7697E-03  0.0000E+00  0.0000E+00  0.0000E+00  0.0000E+00  4.1308E-03  0.0000E+00  0.0000E+00
124  0.0000E+00  8.5562E-02  0.0000E+00  0.0000E+00  2.0772E-02  0.0000E+00  1.6162E-01  0.0000E+00  0.0000E+00
125  0.0000E+00  1.0721E-01  0.0000E+00  0.0000E+00  0.0000E+00  0.0000E+00  1.9283E-02  0.0000E+00  0.0000E+00
126  0.0000E+00  5.0668E-06  0.0000E+00  0.0000E+00  0.0000E+00  0.0000E+00  0.0000E+00  0.0000E+00  0.0000E+00
127  0.0000E+00  5.2094E-06  0.0000E+00  0.0000E+00  0.0000E+00  0.0000E+00  0.0000E+00  0.0000E+00  0.0000E+00
128  0.0000E+00  8.7956E-06  0.0000E+00  0.0000E+00  2.9526E-05  0.0000E+00  0.0000E+00  0.0000E+00  0.0000E+00
129  0.0000E+00  1.9799E-05  0.0000E+00  0.0000E+00  0.0000E+00  0.0000E+00  0.0000E+00  0.0000E+00  0.0000E+00
130  0.0000E+00  2.5010E-05  0.0000E+00  1.7127E-05  0.0000E+00  0.0000E+00  0.0000E+00  0.0000E+00  0.0000E+00
131  0.0000E+00  1.7509E-05  1.6647E-04  0.0000E+00  0.0000E+00  0.0000E+00  0.0000E+00  0.0000E+00  0.0000E+00
132  0.0000E+00  1.3600E-05  0.0000E+00  0.0000E+00  0.0000E+00  0.0000E+00  0.0000E+00  0.0000E+00  0.0000E+00
133  0.0000E+00  4.4420E-05  0.0000E+00  0.0000E+00  0.0000E+00  0.0000E+00  0.0000E+00  0.0000E+00  0.0000E+00
134  0.0000E+00  1.0509E-04  0.0000E+00  0.0000E+00  0.0000E+00  0.0000E+00  0.0000E+00  0.0000E+00  0.0000E+00
135  0.0000E+00  1.2349E-04  0.0000E+00  0.0000E+00  0.0000E+00  0.0000E+00  8.8013E-04  0.0000E+00  0.0000E+00
136  0.0000E+00  4.3307E-04  0.0000E+00  0.0000E+00  0.0000E+00  0.0000E+00  0.0000E+00  0.0000E+00  0.0000E+00
137  0.0000E+00  2.2660E-04  0.0000E+00  0.0000E+00  0.0000E+00  0.0000E+00  0.0000E+00  2.5386E-03  0.0000E+00
138  0.0000E+00  4.2545E-04  0.0000E+00  0.0000E+00  0.0000E+00  0.0000E+00  0.0000E+00  0.0000E+00  0.0000E+00
139  0.0000E+00  6.0395E-04  0.0000E+00  0.0000E+00  0.0000E+00  1.9889E-03  0.0000E+00  0.0000E+00  0.0000E+00
140  0.0000E+00  1.6181E-03  1.0352E-03  0.0000E+00  0.0000E+00  0.0000E+00  0.0000E+00  0.0000E+00  0.0000E+00
141  0.0000E+00  1.7688E-03  0.0000E+00  5.5017E-03  0.0000E+00  0.0000E+00  0.0000E+00  0.0000E+00  0.0000E+00
142  0.0000E+00  2.9497E-03  0.0000E+00  0.0000E+00  0.0000E+00  0.0000E+00  0.0000E+00  0.0000E+00  0.0000E+00
143  0.0000E+00  2.7487E-03  0.0000E+00  0.0000E+00  0.0000E+00  0.0000E+00  0.0000E+00  0.0000E+00  0.0000E+00
144  0.0000E+00  1.0013E-01  7.8795E-02  1.7168E-01  1.3486E-01  0.0000E+00  0.0000E+00  0.0000E+00  3.0550E-02
145  1.1084E+00  7.7295E-01  6.8074E-01  8.0026E-01  8.0074E-01  4.3959E-01  7.5044E-01  6.1596E-01  6.9624E-01
146  0.0000E+00  7.4481E-01  8.1297E-01  7.4142E-01  8.1403E-01  5.3583E-01  1.2863E+00  1.2178E+00  7.4147E-01
147  0.0000E+00  8.4168E-01  7.6943E-01  1.1971E+00  9.8514E-01  1.0141E+00  4.8298E-01  1.0440E+00  6.4564E-01
148  9.6850E+00  6.2846E+00  6.3828E+00  6.9179E+00  6.4962E+00  7.0233E+00  6.5268E+00  6.3100E+00  6.9572E+00
149  3.9864E+00  1.6831E+00  2.3680E+00  2.0509E+00  1.2436E+00  1.6687E+00  1.9208E+00  1.9462E+00  1.7565E+00
150  0.0000E+00  1.5221E+00  1.7001E+00  6.6848E-01  1.9471E+00  1.5461E+00  1.6116E+00  1.6803E+00  1.7376E+00

# AV, chi2 & Mass for <> & i_chain = 1 ...  7 solutions
AV       0.8878      0.8576      0.8587      0.8640      0.8607      0.8631      0.8670      0.8573      0.8567
chi2 2.7941E+00  2.9646E+00  2.9365E+00  2.9345E+00  2.9400E+00  2.9364E+00  2.9355E+00  2.9433E+00  2.9456E+00
Mass 1.4485E-09  1.4559E-09  1.4621E-09  1.4540E-09  1.4651E-09  1.4637E-09  1.4529E-09  1.4557E-09  1.4635E-09
 -20.20                                  [v0_min (km/s) before EX0s...]
  59.11                                  [vd_min (km/s) before EX0s...]


## Synthetic spectrum (Best Model) ##l_obs f_obs f_syn wei
 3070    [Nl_obs]
 3359.00    0.18587   0.41845   -1.000
 3360.00    0.24109   0.40976   -1.000
 3361.00    0.24529   0.42144   -1.000
 3362.00    0.25920   0.44474   -1.000
 3363.00    0.27400   0.46921   -1.000
 3364.00    0.28935   0.48131   -1.000
 3365.00    0.30315   0.47864   -1.000
 3366.00    0.30835   0.47226   -1.000
 3367.00    0.31259   0.46670   -1.000
 3368.00    0.31069   0.46019   -1.000
 3369.00    0.30849   0.44945   -1.000
 3370.00    0.30990   0.43367   -1.000
 3371.00    0.30774   0.42353   -1.000
 3372.00    0.30735   0.42705   -1.000
 3373.00    0.31024   0.44325   -1.000
 3374.00    0.32298   0.46461   -1.000
 3375.00    0.33907   0.48293   -1.000
 3376.00    0.34460   0.48966   -1.000
 3377.00    0.35229   0.48460   -1.000
 3378.00    0.36165   0.47458   -1.000
 3379.00    0.35811   0.46973   -1.000
 3380.00    0.35675   0.47329   -1.000
 3381.00    0.35579   0.48038   -1.000
 3382.00    0.35616   0.48633   -1.000
 3383.00    0.35678   0.48978   -1.000
 3384.00    0.36609   0.49282   -1.000
 3385.00    0.37419   0.49406   -1.000
 3386.00    0.37920   0.48782   -1.000
 3387.00    0.38088   0.47798   -1.000
 3388.00    0.38078   0.47448   -1.000
 3389.00    0.38398   0.48126   -1.000
 3390.00    0.39209   0.49185   -1.000
 3391.00    0.39111   0.49700   -1.000
 3392.00    0.39103   0.49266   -1.000
 3393.00    0.39570   0.48873   -1.000
 3394.00    0.39872   0.49274   -1.000
 3395.00    0.40068   0.50269   -1.000
 3396.00    0.40856   0.51412   -1.000
 3397.00    0.41924   0.52321   -1.000
 3398.00    0.43191   0.52890   -1.000
 3399.00    0.43897   0.52879   -1.000
 3400.00    0.43827   0.52298   -1.000
 3401.00    0.43722   0.51122   -1.000
 3402.00    0.42970   0.49655   43.375
 3403.00    0.42560   0.48753   44.057
 3404.00    0.42478   0.48568   44.856
 3405.00    0.42131   0.48972   -1.000
 3406.00    0.41681   0.49139   -1.000
 3407.00    0.41446   0.48827   -1.000
 3408.00    0.41585   0.48449   -1.000
 3409.00    0.41318   0.48649   -1.000
 3410.00    0.41013   0.49142   -1.000
 3411.00    0.41924   0.49011   -1.000
 3412.00    0.42638   0.48368   46.404
 3413.00    0.42291   0.47738   47.543
 3414.00    0.42118   0.47965   47.655
 3415.00    0.42461   0.49137   46.706
 3416.00    0.42941   0.50416   -1.000
 3417.00    0.43626   0.51339   -1.000
 3418.00    0.44341   0.52007   -1.000
 3419.00    0.44837   0.52548   -1.000
 3420.00    0.45604   0.52887   39.813
 3421.00    0.46007   0.52469   39.937
 3422.00    0.46015   0.51106   40.898
 3423.00    0.45601   0.49772   41.893
 3424.00    0.45189   0.49398   41.174
 3425.00    0.45311   0.49880   40.057
 3426.00    0.46111   0.50739   39.650
 3427.00    0.46412   0.51917   -1.000
 3428.00    0.46857   0.53314   -1.000
 3429.00    0.47749   0.54402   -1.000
 3430.00    0.48126   0.54322   -1.000
 3431.00    0.48447   0.52898   -1.000
 3432.00    0.47813   0.51446   50.840
 3433.00    0.47095   0.51195   39.557
 3434.00    0.47137   0.52310   -1.000
 3435.00    0.48167   0.53548   -1.000
 3436.00    0.48256   0.53661   50.411
 3437.00    0.47894   0.52686   40.884
 3438.00    0.47163   0.51321   43.222
 3439.00    0.45852   0.49916   46.470
 3440.00    0.44854   0.48501   48.784
 3441.00    0.44722   0.47279   49.297
 3442.00    0.44102   0.46718   49.149
 3443.00    0.43962   0.46939   47.584
 3444.00    0.45139   0.47754   45.130
 3445.00    0.46502   0.49078   42.633
 3446.00    0.47226   0.50914   40.954
 3447.00    0.48053   0.52806   -1.000
 3448.00    0.49501   0.54175   -1.000
 3449.00    0.50190   0.54381   -1.000
 3450.00    0.49692   0.53122   -1.000
 3451.00    0.50006   0.51346   -1.000
 3452.00    0.50209   0.50229  321.468
 3453.00    0.49984   0.50165  321.468
 3454.00    0.49778   0.50813   -1.000
 3455.00    0.50711   0.51518  321.468
 3456.00    0.51484   0.51765  321.468
 3457.00    0.51390   0.51484  321.468
 3458.00    0.50767   0.50825   50.286
 3459.00    0.50029   0.49966   40.010
 3460.00    0.49974   0.49160   39.928
 3461.00    0.49769   0.49082  126.364
 3462.00    0.49515   0.49874  321.468
 3463.00    0.49914   0.50710  321.468
 3464.00    0.50504   0.50921  321.468
 3465.00    0.50946   0.50730  321.468
 3466.00    0.51415   0.51030  321.468
 3467.00    0.51168   0.52022  321.468
 3468.00    0.51926   0.53273   -1.000
 3469.00    0.52908   0.54228   -1.000
 3470.00    0.53291   0.54478   -1.000
 3471.00    0.53702   0.53962  321.468
 3472.00    0.53315   0.52741  321.468
 3473.00    0.52403   0.50953   -1.000
 3474.00    0.50321   0.49453   50.466
 3475.00    0.49328   0.48877   41.081
 3476.00    0.49485   0.49432   40.722
 3477.00    0.50006   0.50796  128.318
 3478.00    0.51387   0.52074  321.468
 3479.00    0.53591   0.53070  321.468
 3480.00    0.55335   0.53806   -1.000
 3481.00    0.55452   0.53930   -1.000
 3482.00    0.55231   0.53528   -1.000
 3483.00    0.54784   0.53099   -1.000
 3484.00    0.54731   0.53170   -1.000
 3485.00    0.55061   0.53877   -1.000
 3486.00    0.55578   0.54523   -1.000
 3487.00    0.55529   0.54460   -1.000
 3488.00    0.55758   0.53639   -1.000
 3489.00    0.54500   0.52414   -1.000
 3490.00    0.52596   0.51666   -1.000
 3491.00    0.52006   0.51977  321.468
 3492.00    0.51523   0.52735   -1.000
 3493.00    0.51885   0.52967   -1.000
 3494.00    0.52402   0.52503  321.468
 3495.00    0.52801   0.51677   -1.000
 3496.00    0.51861   0.51210  321.468
 3497.00    0.51801   0.51447  321.468
 3498.00    0.52739   0.51921  321.468
 3499.00    0.53419   0.52287   -1.000
 3500.00    0.54249   0.52265   -1.000
 3501.00    0.54521   0.52314   -1.000
 3502.00    0.54777   0.52771   -1.000
 3503.00    0.55198   0.53120   -1.000
 3504.00    0.55610   0.52961   -1.000
 3505.00    0.54763   0.52309   -1.000
 3506.00    0.54497   0.51626   -1.000
 3507.00    0.54434   0.51240   -1.000
 3508.00    0.54888   0.51259   -1.000
 3509.00    0.55265   0.51575   -1.000
 3510.00    0.54672   0.51734   -1.000
 3511.00    0.53833   0.51498   -1.000
 3512.00    0.53024   0.50872   -1.000
 3513.00    0.52675   0.50361   -1.000
 3514.00    0.52606   0.50582   -1.000
 3515.00    0.53122   0.51804   -1.000
 3516.00    0.54269   0.53664  321.468
 3517.00    0.54737   0.54974  314.262
 3518.00    0.55488   0.54914  320.904
 3519.00    0.55231   0.53699   -1.000
 3520.00    0.54392   0.52409   -1.000
 3521.00    0.54267   0.51577   -1.000
 3522.00    0.53393   0.50995   -1.000
 3523.00    0.52355   0.50269   49.453
 3524.00    0.51364   0.49381   40.690
 3525.00    0.50342   0.49039   40.795
 3526.00    0.50101   0.49722  133.453
 3527.00    0.50401   0.51042  321.468
 3528.00    0.51996   0.52565  321.468
 3529.00    0.53391   0.53848  321.468
 3530.00    0.53934   0.54679  321.468
 3531.00    0.54902   0.54890  321.468
 3532.00    0.55044   0.54060   -1.000
 3533.00    0.54583   0.52563   -1.000
 3534.00    0.54618   0.51589   -1.000
 3535.00    0.55071   0.51934   -1.000
 3536.00    0.54989   0.53540   -1.000
 3537.00    0.55246   0.55255  315.673
 3538.00    0.55650   0.56288  311.718
 3539.00    0.56444   0.56639  313.025
 3540.00    0.56679   0.56472  318.346
 3541.00    0.56536   0.56225  321.468
 3542.00    0.56400   0.56365  320.719
 3543.00    0.56794   0.56914  316.404
 3544.00    0.57449   0.57260  314.642
 3545.00    0.57647   0.57105  319.090
 3546.00    0.57529   0.56713  321.468
 3547.00    0.57300   0.56360  321.468
 3548.00    0.56996   0.56272  321.468
 3549.00    0.56407   0.56533  321.468
 3550.00    0.56267   0.57023   -1.000
 3551.00    0.56103   0.57258   -1.000
 3552.00    0.56389   0.56717  321.468
 3553.00    0.55842   0.55679  321.468
 3554.00    0.55232   0.55043  321.468
 3555.00    0.54843   0.55250  321.468
 3556.00    0.54778   0.56047   -1.000
 3557.00    0.55238   0.56970   -1.000
 3558.00    0.55386   0.57503   -1.000
 3559.00    0.55034   0.57594   -1.000
 3560.00    0.55102   0.57556   -1.000
 3561.00    0.55167   0.57467   -1.000
 3562.00    0.55638   0.57001   -1.000
 3563.00    0.55299   0.55866  321.468
 3564.00    0.54446   0.54233   49.399
 3565.00    0.52398   0.52737   41.270
 3566.00    0.51348   0.52010   41.234
 3567.00    0.51044   0.51987   40.950
 3568.00    0.50500   0.52066   42.013
 3569.00    0.50282   0.51679   42.929
 3570.00    0.49880   0.50844   42.003
 3571.00    0.49479   0.50211   40.225
 3572.00    0.50116   0.50159  135.642
 3573.00    0.50463   0.50515  321.468
 3574.00    0.50841   0.51130  321.468
 3575.00    0.51257   0.51904  321.468
 3576.00    0.51761   0.52613   -1.000
 3577.00    0.52076   0.53104   -1.000
 3578.00    0.52139   0.53156   50.905
 3579.00    0.52088   0.52522   43.902
 3580.00    0.50693   0.51472   46.547
 3581.00    0.49561   0.50501   47.299
 3582.00    0.48468   0.50010   47.511
 3583.00    0.48091   0.49910   48.510
 3584.00    0.48216   0.49461   50.041
 3585.00    0.47284   0.48359   50.940
 3586.00    0.46624   0.47254   48.990
 3587.00    0.46673   0.47074   46.393
 3588.00    0.47439   0.48209   44.106
 3589.00    0.49150   0.50195   40.487
 3590.00    0.51181   0.52020  135.231
 3591.00    0.52597   0.53033  321.468
 3592.00    0.53378   0.53277  321.468
 3593.00    0.54086   0.53379  321.468
 3594.00    0.54029   0.53897  321.468
 3595.00    0.53759   0.54829   -1.000
 3596.00    0.54549   0.55729   -1.000
 3597.00    0.55802   0.56290  303.404
 3598.00    0.56522   0.56531  297.854
 3599.00    0.56848   0.56497  299.794
 3600.00    0.56588   0.55949  312.130
 3601.00    0.55917   0.54888   -1.000
 3602.00    0.54930   0.53957  321.468
 3603.00    0.54115   0.53621  321.468
 3604.00    0.53289   0.53920  321.468
 3605.00    0.53071   0.54213   -1.000
 3606.00    0.52965   0.54009   -1.000
 3607.00    0.52919   0.53456  321.468
 3608.00    0.52708   0.52927  321.468
 3609.00    0.52283   0.52728  321.468
 3610.00    0.51975   0.52850   -1.000
 3611.00    0.52361   0.53264   -1.000
 3612.00    0.53440   0.53888  321.468
 3613.00    0.53918   0.54639   -1.000
 3614.00    0.54508   0.55663   -1.000
 3615.00    0.55161   0.56555   -1.000
 3616.00    0.55357   0.56456   -1.000
 3617.00    0.55292   0.55384  321.468
 3618.00    0.53993   0.54020   48.093
 3619.00    0.52781   0.53418  137.399
 3620.00    0.53394   0.54053  321.468
 3621.00    0.54935   0.55259  321.468
 3622.00    0.56155   0.56322  312.042
 3623.00    0.57032   0.57080  307.550
 3624.00    0.57387   0.57926  297.524
 3625.00    0.57616   0.59273   -1.000
 3626.00    0.58735   0.60853   -1.000
 3627.00    0.59446   0.61680   -1.000
 3628.00    0.59254   0.60803   -1.000
 3629.00    0.58150   0.58412  321.468
 3630.00    0.55411   0.55706  321.468
 3631.00    0.53684   0.54282  321.468
 3632.00    0.53295   0.54633   -1.000
 3633.00    0.54654   0.55920   -1.000
 3634.00    0.55462   0.56856   -1.000
 3635.00    0.56179   0.57061   -1.000
 3636.00    0.56707   0.57288  312.809
 3637.00    0.57214   0.58067   -1.000
 3638.00    0.57919   0.59004   -1.000
 3639.00    0.59210   0.59558  285.905
 3640.00    0.59503   0.59518  291.754
 3641.00    0.58574   0.58885  301.190
 3642.00    0.57424   0.57907  316.460
 3643.00    0.56442   0.57005   -1.000
 3644.00    0.55960   0.56380  321.468
 3645.00    0.55729   0.55975  321.468
 3646.00    0.55737   0.55680  321.468
 3647.00    0.55362   0.55530  321.468
 3648.00    0.55009   0.55522  321.468
 3649.00    0.55594   0.55643  321.468
 3650.00    0.56140   0.55992  310.113
 3651.00    0.56698   0.56729  296.719
 3652.00    0.57446   0.57841  288.519
 3653.00    0.58289   0.59006   -1.000
 3654.00    0.59287   0.60113   -1.000
 3655.00    0.59936   0.61087   -1.000
 3656.00    0.60192   0.61739   -1.000
 3657.00    0.60502   0.61956   -1.000
 3658.00    0.60383   0.61814   -1.000
 3659.00    0.60371   0.61505   -1.000
 3660.00    0.60334   0.61046   -1.000
 3661.00    0.60562   0.60398  277.176
 3662.00    0.59612   0.59778  281.633
 3663.00    0.59677   0.59548  284.266
 3664.00    0.59826   0.59814  281.761
 3665.00    0.59735   0.60232  281.290
 3666.00    0.59665   0.60415   -1.000
 3667.00    0.58988   0.60178   -1.000
 3668.00    0.58455   0.59602   -1.000
 3669.00    0.58728   0.59113  296.143
 3670.00    0.57900   0.59092   -1.000
 3671.00    0.58706   0.59600   -1.000
 3672.00    0.59594   0.60297   -1.000
 3673.00    0.59291   0.60657   -1.000
 3674.00    0.59434   0.60474   -1.000
 3675.00    0.59568   0.59792  285.645
 3676.00    0.59313   0.58692  294.584
 3677.00    0.58259   0.57504  303.564
 3678.00    0.57626   0.56781  311.561
 3679.00    0.56888   0.56854  312.204
 3680.00    0.56260   0.57381   -1.000
 3681.00    0.57276   0.57864  296.472
 3682.00    0.57689   0.58074  292.726
 3683.00    0.57619   0.58028  298.194
 3684.00    0.57595   0.57782  309.660
 3685.00    0.57071   0.57299  321.468
 3686.00    0.55850   0.56997   -1.000
 3687.00    0.55610   0.57512   -1.000
 3688.00    0.56873   0.58933   -1.000
 3689.00    0.58350   0.60456   -1.000
 3690.00    0.59725   0.61213   -1.000
 3691.00    0.60400   0.61306   -1.000
 3692.00    0.60823   0.61314  279.891
 3693.00    0.60996   0.61504  284.421
 3694.00    0.61164   0.61726  284.010
 3695.00    0.61498   0.61598  281.667
 3696.00    0.60463   0.61059  278.366
 3697.00    0.60333   0.60963  270.126
 3698.00    0.61953   0.62082  262.914
 3699.00    0.63359   0.64003  258.889
 3700.00    0.64280   0.65284   -1.000
 3701.00    0.64142   0.64407  273.389
 3702.00    0.62485   0.61379  297.140
 3703.00    0.59896   0.57699   -1.000
 3704.00    0.56952   0.55215   -1.000
 3705.00    0.56030   0.54741   -1.000
 3706.00    0.56883   0.55896   -1.000
 3707.00    0.58350   0.57615  321.468
 3708.00    0.59862   0.58708   -1.000
 3709.00    0.59474   0.58387   -1.000
 3710.00    0.58887   0.57118   -1.000
 3711.00    0.58797   0.56237   -1.000
 3712.00    0.59118   0.56915   -1.000
 3713.00    0.60787   0.59395   -1.000
 3714.00    0.63392   0.62688  256.165
 3715.00    0.66257   0.65472  261.731
 3716.00    0.67045   0.66885  272.778
 3717.00    0.66500   0.66486  296.524
 3718.00    0.63948   0.63860  321.468
 3719.00    0.59661   0.59121  321.468
 3720.00    0.54995   0.53850   47.875
 3721.00    0.52248   0.50765  150.361
 3722.00    0.52294   0.51224   -1.000
 3723.00    0.55436   0.54845  303.165
 3724.00    0.60078   0.59798  287.612
 3725.00    0.64316   0.63698  287.571
 3726.00    0.66179   0.65658  295.920
 3727.00    0.66799   0.66506  299.595
 3728.00    0.67179   0.67038  295.764
 3729.00    0.66702   0.67200  297.521
 3730.00    0.65777   0.66077  309.458
 3731.00    0.63298   0.62525  321.468
 3732.00    0.59410   0.56867   46.773
 3733.00    0.54497   0.51253   43.318
 3734.00    0.50342   0.47685   45.577
 3735.00    0.49657   0.47536   43.931
 3736.00    0.51806   0.50748   40.080
 3737.00    0.55924   0.55883  146.591
 3738.00    0.60960   0.61360  318.845
 3739.00    0.65183   0.66116  298.250
 3740.00    0.67959   0.68953  294.090
 3741.00    0.69403   0.69545  303.583
 3742.00    0.69093   0.68443  321.468
 3743.00    0.67874   0.66631   -1.000
 3744.00    0.65264   0.64543   -1.000
 3745.00    0.63043   0.62209   -1.000
 3746.00    0.60609   0.59327   47.357
 3747.00    0.57488   0.55707   42.142
 3748.00    0.53613   0.51865   42.980
 3749.00    0.51040   0.49112   -1.000
 3750.00    0.51000   0.49230   -1.000
 3751.00    0.54435   0.52718   -1.000
 3752.00    0.59275   0.58201  286.074
 3753.00    0.64161   0.63707  270.036
 3754.00    0.68165   0.67821  263.381
 3755.00    0.70468   0.69939  275.119
 3756.00    0.70668   0.69952  308.237
 3757.00    0.69417   0.68384   -1.000
 3758.00    0.67412   0.66651  321.468
 3759.00    0.66529   0.65865  321.468
 3760.00    0.67380   0.66316  313.815
 3761.00    0.69390   0.67558   -1.000
 3762.00    0.70505   0.68619   -1.000
 3763.00    0.70778   0.68896   -1.000
 3764.00    0.69714   0.68324   -1.000
 3765.00    0.69225   0.67017   -1.000
 3766.00    0.67672   0.64954   -1.000
 3767.00    0.65277   0.61898   -1.000
 3768.00    0.62474   0.58002   -1.000
 3769.00    0.59638   0.54355   -1.000
 3770.00    0.57617   0.52589   -1.000
 3771.00    0.57922   0.53888   -1.000
 3772.00    0.60654   0.57714   -1.000
 3773.00    0.64292   0.62225   -1.000
 3774.00    0.67601   0.65701   -1.000
 3775.00    0.69869   0.67948   -1.000
 3776.00    0.71554   0.69748   -1.000
 3777.00    0.73466   0.71907   -1.000
 3778.00    0.75328   0.74424  260.219
 3779.00    0.77480   0.76779  253.739
 3780.00    0.79042   0.78524  251.422
 3781.00    0.79723   0.79283  249.882
 3782.00    0.80517   0.79175   -1.000
 3783.00    0.80608   0.78595   -1.000
 3784.00    0.79866   0.77767   -1.000
 3785.00    0.78211   0.76591   -1.000
 3786.00    0.76516   0.75112   -1.000
 3787.00    0.75061   0.73653   -1.000
 3788.00    0.73966   0.72721   -1.000
 3789.00    0.73784   0.72415   -1.000
 3790.00    0.73869   0.72274   -1.000
 3791.00    0.72940   0.71684   -1.000
 3792.00    0.71914   0.70145   -1.000
 3793.00    0.69214   0.67417   -1.000
 3794.00    0.65305   0.63554   -1.000
 3795.00    0.62262   0.58921   -1.000
 3796.00    0.59065   0.54257   -1.000
 3797.00    0.54680   0.50757   -1.000
 3798.00    0.53405   0.50128   -1.000
 3799.00    0.55488   0.53333   -1.000
 3800.00    0.60192   0.59292  302.212
 3801.00    0.65500   0.65471  287.458
 3802.00    0.69598   0.70214  280.251
 3803.00    0.72812   0.73019  278.027
 3804.00    0.74753   0.74404  281.501
 3805.00    0.75647   0.74910  291.383
 3806.00    0.75755   0.75288  297.887
 3807.00    0.76480   0.76210  291.920
 3808.00    0.78020   0.77785  280.967
 3809.00    0.79898   0.79562  276.735
 3810.00    0.80268   0.80631  281.003
 3811.00    0.80722   0.80078  294.911
 3812.00    0.80069   0.77981   -1.000
 3813.00    0.77951   0.75588   -1.000
 3814.00    0.76373   0.74135   -1.000
 3815.00    0.76048   0.74248   -1.000
 3816.00    0.76625   0.75466   -1.000
 3817.00    0.77808   0.76575   -1.000
 3818.00    0.78160   0.76365   -1.000
 3819.00    0.76351   0.74874   -1.000
 3820.00    0.74392   0.73459   -1.000
 3821.00    0.74479   0.73207   -1.000
 3822.00    0.74988   0.73718   -1.000
 3823.00    0.74685   0.73318   -1.000
 3824.00    0.73081   0.71526   48.076
 3825.00    0.70584   0.69505   42.101
 3826.00    0.69461   0.68015   41.908
 3827.00    0.69345   0.66953   41.268
 3828.00    0.68863   0.65958   40.588
 3829.00    0.67859   0.64754   40.936
 3830.00    0.66745   0.62945   42.628
 3831.00    0.64051   0.60021   45.860
 3832.00    0.60346   0.55833   47.588
 3833.00    0.55937   0.51028   46.955
 3834.00    0.52690   0.47274   45.164
 3835.00    0.51323   0.45969   44.062
 3836.00    0.52092   0.47249   44.751
 3837.00    0.54755   0.50413   45.830
 3838.00    0.57478   0.54382   45.264
 3839.00    0.60627   0.58326   42.885
 3840.00    0.63468   0.62183  172.573
 3841.00    0.66774   0.66114  321.468
 3842.00    0.70898   0.69933   -1.000
 3843.00    0.74754   0.73324   -1.000
 3844.00    0.76389   0.75794  320.695
 3845.00    0.77135   0.77461  320.550
 3846.00    0.78802   0.78740  321.058
 3847.00    0.79860   0.79608  321.468
 3848.00    0.79465   0.79791  321.468
 3849.00    0.79036   0.79463  321.468
 3850.00    0.79135   0.79525  321.468
 3851.00    0.79384   0.80575   -1.000
 3852.00    0.80216   0.82088   -1.000
 3853.00    0.81617   0.83050   -1.000
 3854.00    0.81392   0.82856   -1.000
 3855.00    0.80594   0.81771   -1.000
 3856.00    0.79752   0.80478  321.468
 3857.00    0.78687   0.79373   45.179
 3858.00    0.77224   0.78566   41.280
 3859.00    0.76392   0.78470   40.812
 3860.00    0.76711   0.79344   -1.000
 3861.00    0.78724   0.80833   -1.000
 3862.00    0.82233   0.82125  314.620
 3863.00    0.84186   0.82719   -1.000
 3864.00    0.84221   0.82727   -1.000
 3865.00    0.83912   0.82645   -1.000
 3866.00    0.83614   0.82920  321.468
 3867.00    0.83310   0.83517  321.468
 3868.00    0.82959   0.83881   -1.000
 3869.00    0.81477   0.83334   -1.000
 3870.00    0.79205   0.81785   45.658
 3871.00    0.76850   0.79745   -1.000
 3872.00    0.75587   0.78041   -1.000
 3873.00    0.76020   0.77489   -1.000
 3874.00    0.77419   0.77993  306.577
 3875.00    0.79472   0.78489   -1.000
 3876.00    0.79382   0.77862   -1.000
 3877.00    0.76846   0.76244  321.468
 3878.00    0.74050   0.74799  321.468
 3879.00    0.72925   0.74399   -1.000
 3880.00    0.72937   0.74628   -1.000
 3881.00    0.72068   0.74261   -1.000
 3882.00    0.70637   0.72931   -1.000
 3883.00    0.70264   0.70963  316.555
 3884.00    0.69637   0.68113   -1.000
 3885.00    0.66865   0.63978   -1.000
 3886.00    0.63313   0.58777   -1.000
 3887.00    0.59700   0.53707   -1.000
 3888.00    0.56562   0.50720   -1.000
 3889.00    0.55739   0.51103   -1.000
 3890.00    0.58521   0.54768   -1.000
 3891.00    0.63069   0.60098   -1.000
 3892.00    0.67809   0.64947   -1.000
 3893.00    0.71394   0.68098   -1.000
 3894.00    0.72704   0.70017   -1.000
 3895.00    0.73809   0.71618   -1.000
 3896.00    0.75355   0.73331   -1.000
 3897.00    0.77302   0.74958   -1.000
 3898.00    0.78705   0.76027   -1.000
 3899.00    0.78949   0.76626   -1.000
 3900.00    0.79636   0.77402   -1.000
 3901.00    0.80242   0.78384   -1.000
 3902.00    0.81379   0.79017   -1.000
 3903.00    0.81496   0.79048   -1.000
 3904.00    0.81776   0.78711   -1.000
 3905.00    0.81429   0.78695   -1.000
 3906.00    0.81344   0.79640   -1.000
 3907.00    0.83536   0.81718   -1.000
 3908.00    0.86102   0.84244   -1.000
 3909.00    0.87068   0.86255  242.813
 3910.00    0.88449   0.87234   -1.000
 3911.00    0.88974   0.87300   -1.000
 3912.00    0.89029   0.86722   -1.000
 3913.00    0.88531   0.85727   -1.000
 3914.00    0.87799   0.84834   -1.000
 3915.00    0.87150   0.84572   -1.000
 3916.00    0.86960   0.84656   -1.000
 3917.00    0.86809   0.84467   -1.000
 3918.00    0.85879   0.83831   -1.000
 3919.00    0.84515   0.83067   -1.000
 3920.00    0.83590   0.82580   -1.000
 3921.00    0.83028   0.82424  295.660
 3922.00    0.83087   0.82548  290.448
 3923.00    0.84009   0.82755   -1.000
 3924.00    0.84198   0.82632   -1.000
 3925.00    0.83406   0.81592   -1.000
 3926.00    0.81061   0.79285   -1.000
 3927.00    0.77709   0.75914   49.667
 3928.00    0.73350   0.71622   50.198
 3929.00    0.67822   0.66468   58.744
 3930.00    0.61409   0.59953   69.426
 3931.00    0.52475   0.51922   81.346
 3932.00    0.43265   0.44147   89.679
 3933.00    0.38408   0.39576   87.295
 3934.00    0.39735   0.40583   76.550
 3935.00    0.46414   0.46772   63.591
 3936.00    0.55534   0.55305   52.245
 3937.00    0.63658   0.63526   43.808
 3938.00    0.70123   0.70361  186.827
 3939.00    0.75269   0.75254  321.468
 3940.00    0.78450   0.78423  321.468
 3941.00    0.80347   0.80168  321.468
 3942.00    0.80709   0.80798  321.468
 3943.00    0.80306   0.81004  320.589
 3944.00    0.81141   0.81503  292.446
 3945.00    0.83330   0.82499  274.418
 3946.00    0.85397   0.83586   -1.000
 3947.00    0.85891   0.84066   -1.000
 3948.00    0.85738   0.83822   -1.000
 3949.00    0.85921   0.83322   -1.000
 3950.00    0.86128   0.82917   -1.000
 3951.00    0.85961   0.82692   -1.000
 3952.00    0.85572   0.82862   -1.000
 3953.00    0.86596   0.83410   -1.000
 3954.00    0.87349   0.83651   -1.000
 3955.00    0.86469   0.83130   -1.000
 3956.00    0.85016   0.82071   -1.000
 3957.00    0.84018   0.81163   -1.000
 3958.00    0.83616   0.80670   -1.000
 3959.00    0.82933   0.79702   -1.000
 3960.00    0.80297   0.77537   -1.000
 3961.00    0.76225   0.74452   -1.000
 3962.00    0.72153   0.70954   -1.000
 3963.00    0.69178   0.67251   46.386
 3964.00    0.65058   0.62400   47.356
 3965.00    0.57840   0.55459   58.073
 3966.00    0.48220   0.46735   71.141
 3967.00    0.38456   0.37918   79.623
 3968.00    0.32012   0.32078   75.382
 3969.00    0.31450   0.31355   62.845
 3970.00    0.36530   0.35768   51.629
 3971.00    0.44533   0.43428   43.117
 3972.00    0.52778   0.51890  187.677
 3973.00    0.60034   0.59328  321.468
 3974.00    0.66891   0.65475   -1.000
 3975.00    0.72801   0.70376   -1.000
 3976.00    0.77351   0.74277   -1.000
 3977.00    0.80497   0.77436   -1.000
 3978.00    0.82852   0.80005   -1.000
 3979.00    0.85894   0.81878   -1.000
 3980.00    0.87155   0.82790   -1.000
 3981.00    0.86783   0.83121   -1.000
 3982.00    0.87256   0.83576   -1.000
 3983.00    0.87863   0.84577   -1.000
 3984.00    0.89986   0.86009   -1.000
 3985.00    0.91680   0.87355   -1.000
 3986.00    0.92440   0.88370   -1.000
 3987.00    0.92958   0.89236   -1.000
 3988.00    0.93352   0.89948   -1.000
 3989.00    0.94032   0.90376   -1.000
 3990.00    0.94776   0.90808   -1.000
 3991.00    0.95515   0.91486   -1.000
 3992.00    0.96206   0.92327   -1.000
 3993.00    0.96434   0.92943   -1.000
 3994.00    0.95415   0.92820   -1.000
 3995.00    0.94663   0.91815   -1.000
 3996.00    0.93903   0.90461   -1.000
 3997.00    0.92868   0.89735   -1.000
 3998.00    0.93052   0.90145   -1.000
 3999.00    0.94885   0.91332   -1.000
 4000.00    0.96160   0.92484   -1.000
 4001.00    0.98058   0.93126   -1.000
 4002.00    0.98335   0.93120   -1.000
 4003.00    0.98119   0.92487   -1.000
 4004.00    0.96084   0.91452   -1.000
 4005.00    0.94559   0.90784   -1.000
 4006.00    0.94640   0.91201   -1.000
 4007.00    0.96170   0.92572   -1.000
 4008.00    0.98052   0.94091   -1.000
 4009.00    0.99608   0.95030   -1.000
 4010.00    1.00000   0.95364   -1.000
 4011.00    0.99655   0.95353   -1.000
 4012.00    0.98761   0.95236   -1.000
 4013.00    0.98556   0.95291   -1.000
 4014.00    0.98616   0.95655   -1.000
 4015.00    0.99756   0.96210   -1.000
 4016.00    1.00336   0.96744   -1.000
 4017.00    1.00486   0.97208   -1.000
 4018.00    1.00370   0.97669   -1.000
 4019.00    1.00714   0.98034   -1.000
 4020.00    1.00372   0.98067   -1.000
 4021.00    1.00060   0.97619   -1.000
 4022.00    0.99526   0.96849   -1.000
 4023.00    0.99112   0.96042   -1.000
 4024.00    0.99228   0.95580   -1.000
 4025.00    0.99815   0.95883   -1.000
 4026.00    1.00984   0.96860   -1.000
 4027.00    1.01481   0.97677   -1.000
 4028.00    1.01095   0.97570   -1.000
 4029.00    0.99801   0.96475   -1.000
 4030.00    0.97768   0.94901   -1.000
 4031.00    0.96020   0.93699   -1.000
 4032.00    0.94941   0.93333  210.047
 4033.00    0.95414   0.93788  203.476
 4034.00    0.96571   0.94962  193.624
 4035.00    0.98819   0.96696   -1.000
 4036.00    1.00653   0.98634  177.357
 4037.00    1.02469   1.00167   -1.000
 4038.00    1.02637   1.00718   -1.000
 4039.00    1.02648   1.00410   -1.000
 4040.00    1.01983   0.99779   -1.000
 4041.00    1.01213   0.99181   -1.000
 4042.00    1.00832   0.98326   -1.000
 4043.00    0.99511   0.96665   -1.000
 4044.00    0.96720   0.94400   -1.000
 4045.00    0.94131   0.92702  223.681
 4046.00    0.94257   0.92883  202.669
 4047.00    0.97440   0.94902   -1.000
 4048.00    1.00481   0.97306   -1.000
 4049.00    1.01652   0.98883   -1.000
 4050.00    1.01897   0.99454   -1.000
 4051.00    1.01704   0.99360   -1.000
 4052.00    1.01452   0.98806   -1.000
 4053.00    1.01000   0.98123   -1.000
 4054.00    1.00332   0.97680   -1.000
 4055.00    0.99466   0.97568   -1.000
 4056.00    0.99142   0.97650  200.382
 4057.00    0.98881   0.97907  198.351
 4058.00    0.99450   0.98547  191.451
 4059.00    1.00237   0.99260  187.401
 4060.00    1.01649   0.99140   -1.000
 4061.00    0.99885   0.97751   -1.000
 4062.00    0.97343   0.95642   -1.000
 4063.00    0.95966   0.93881   -1.000
 4064.00    0.95790   0.93072   -1.000
 4065.00    0.96541   0.93260   -1.000
 4066.00    0.97319   0.94020   -1.000
 4067.00    0.98268   0.94725   -1.000
 4068.00    0.99789   0.95053   -1.000
 4069.00    1.00334   0.94792   -1.000
 4070.00    0.99570   0.93764   -1.000
 4071.00    0.97867   0.92555   -1.000
 4072.00    0.97069   0.92158   -1.000
 4073.00    0.97908   0.92612   -1.000
 4074.00    0.98216   0.92940   -1.000
 4075.00    0.96897   0.92164   -1.000
 4076.00    0.94484   0.90482   -1.000
 4077.00    0.92368   0.89159   -1.000
 4078.00    0.92885   0.89357   -1.000
 4079.00    0.94316   0.91125   -1.000
 4080.00    0.96873   0.93261   -1.000
 4081.00    0.99057   0.94585   -1.000
 4082.00    0.98645   0.94679   -1.000
 4083.00    0.97477   0.93902   -1.000
 4084.00    0.96584   0.92979   -1.000
 4085.00    0.95615   0.92583   -1.000
 4086.00    0.96215   0.92953   -1.000
 4087.00    0.97770   0.93776   -1.000
 4088.00    0.98713   0.94469   -1.000
 4089.00    0.98556   0.94573   -1.000
 4090.00    0.97400   0.94113   -1.000
 4091.00    0.96392   0.93353   -1.000
 4092.00    0.95474   0.92278   -1.000
 4093.00    0.94996   0.90783   -1.000
 4094.00    0.93480   0.88929   -1.000
 4095.00    0.91027   0.86690   -1.000
 4096.00    0.88777   0.84075   -1.000
 4097.00    0.86355   0.80890   -1.000
 4098.00    0.83302   0.76716   -1.000
 4099.00    0.78929   0.71266   -1.000
 4100.00    0.72552   0.65381   -1.000
 4101.00    0.66610   0.61516   -1.000
 4102.00    0.65492   0.61990   -1.000
 4103.00    0.70285   0.66767   -1.000
 4104.00    0.77347   0.73303   -1.000
 4105.00    0.82574   0.79056   -1.000
 4106.00    0.86159   0.82875   -1.000
 4107.00    0.88346   0.85165   -1.000
 4108.00    0.88928   0.86590   -1.000
 4109.00    0.89598   0.87657   -1.000
 4110.00    0.90566   0.88740   -1.000
 4111.00    0.91834   0.90011   -1.000
 4112.00    0.93333   0.91483   -1.000
 4113.00    0.94946   0.93020   -1.000
 4114.00    0.96186   0.94469   -1.000
 4115.00    0.97087   0.95470  186.656
 4116.00    0.97671   0.95651   -1.000
 4117.00    0.97066   0.95085   -1.000
 4118.00    0.96309   0.94260   -1.000
 4119.00    0.95796   0.93794   -1.000
 4120.00    0.95676   0.93962   -1.000
 4121.00    0.96213   0.94484  195.168
 4122.00    0.97536   0.95047   -1.000
 4123.00    0.97937   0.95660   -1.000
 4124.00    0.98152   0.96381  189.023
 4125.00    0.98970   0.96915   -1.000
 4126.00    0.99519   0.96902   -1.000
 4127.00    0.98905   0.96451   -1.000
 4128.00    0.98154   0.96015   -1.000
 4129.00    0.97401   0.95735  200.707
 4130.00    0.97052   0.95318  206.865
 4131.00    0.96760   0.94661   -1.000
 4132.00    0.95707   0.94282  214.353
 4133.00    0.95076   0.94841  207.666
 4134.00    0.96530   0.96222  197.292
 4135.00    0.98479   0.97803  190.664
 4136.00    0.99845   0.99197  187.427
 4137.00    1.01239   1.00350  184.497
 4138.00    1.02038   1.01272  183.651
 4139.00    1.02302   1.01673  187.194
 4140.00    1.02249   1.01092  196.789
 4141.00    1.00197   0.99505  213.209
 4142.00    0.96991   0.97516  224.930
 4143.00    0.94763   0.96213   -1.000
 4144.00    0.95395   0.96352  204.745
 4145.00    0.97687   0.97635  196.843
 4146.00    0.99557   0.98973  194.532
 4147.00    1.00437   0.99574  197.971
 4148.00    0.99663   0.99622  203.477
 4149.00    0.98957   0.99613  206.184
 4150.00    0.98968   0.99711  204.873
 4151.00    0.99191   0.99699  203.664
 4152.00    0.99418   0.99358  205.426
 4153.00    0.98989   0.98823  208.770
 4154.00    0.98037   0.98434  203.941
 4155.00    0.96844   0.98523   -1.000
 4156.00    1.04293   0.99119   -1.000
 4157.00    1.12130   0.99984   -1.000
 4158.00    0.98775   1.00801   -1.000
 4159.00    0.90568   1.01279   -1.000
 4160.00    0.98557   1.01416   -1.000
 4161.00    1.03002   1.01438  188.248
 4162.00    1.01809   1.01625  189.235
 4163.00    1.02034   1.02052  192.294
 4164.00    1.02272   1.02499  195.186
 4165.00    1.01917   1.02579  199.541
 4166.00    1.01563   1.02180  202.677
 4167.00    1.00807   1.01718  201.342
 4168.00    1.01022   1.01421  197.891
 4169.00    1.01654   1.00990  199.711
 4170.00    1.00656   0.99790  211.263
 4171.00    0.98287   0.97786  224.223
 4172.00    0.96125   0.96014  225.473
 4173.00    0.94567   0.95478   -1.000
 4174.00    0.94653   0.96369   -1.000
 4175.00    0.96595   0.97789   -1.000
 4176.00    0.97355   0.98549   -1.000
 4177.00    0.97090   0.98596   -1.000
 4178.00    0.97284   0.98668   -1.000
 4179.00    0.98379   0.99275   -1.000
 4180.00    0.99406   1.00014  204.464
 4181.00    0.99708   1.00225  202.362
 4182.00    0.99383   1.00235  198.342
 4183.00    0.99298   1.00505   -1.000
 4184.00    0.99487   1.00773   -1.000
 4185.00    0.99591   1.00606  201.346
 4186.00    0.98765   0.99955   -1.000
 4187.00    0.97690   0.99390   -1.000
 4188.00    0.97480   0.99414   -1.000
 4189.00    0.98503   0.99776   -1.000
 4190.00    0.99264   1.00048  197.092
 4191.00    0.99434   1.00217  192.850
 4192.00    1.00331   1.00546  190.228
 4193.00    1.01230   1.01004  195.515
 4194.00    1.00618   1.00989  205.748
 4195.00    0.99158   1.00065  212.728
 4196.00    0.97434   0.98555   -1.000
 4197.00    0.96625   0.97031  217.160
 4198.00    0.95810   0.95965  214.859
 4199.00    0.95547   0.95638  211.420
 4200.00    0.96283   0.95871  210.757
 4201.00    0.96595   0.96197  209.426
 4202.00    0.97053   0.96613  206.167
 4203.00    0.96896   0.97373  204.636
 4204.00    0.96760   0.98305   -1.000
 4205.00    0.97624   0.99137   -1.000
 4206.00    0.98744   0.99869  191.857
 4207.00    0.99708   1.00455  190.826
 4208.00    0.99948   1.00733  191.583
 4209.00    1.00281   1.00818  191.214
 4210.00    1.00317   1.01011  189.880
 4211.00    0.99827   1.01443   -1.000
 4212.00    1.00020   1.01713   -1.000
 4213.00    1.00551   1.01099  206.115
 4214.00    0.98555   0.99701   -1.000
 4215.00    0.96128   0.98446   -1.000
 4216.00    0.96143   0.98222   -1.000
 4217.00    0.98010   0.99185  183.452
 4218.00    0.99568   1.00555  178.273
 4219.00    1.01154   1.01622  176.277
 4220.00    1.02083   1.02180  177.789
 4221.00    1.01226   1.02087  185.011
 4222.00    0.99674   1.01057   -1.000
 4223.00    0.98439   0.98771  217.471
 4224.00    0.95573   0.95511  246.663
 4225.00    0.91782   0.92469  267.227
 4226.00    0.88615   0.91103   -1.000
 4227.00    0.88821   0.92420   -1.000
 4228.00    0.93052   0.95986   -1.000
 4229.00    0.98393   0.99869   -1.000
 4230.00    1.00416   1.01957   -1.000
 4231.00    1.00198   1.01949   -1.000
 4232.00    0.98816   1.00810   -1.000
 4233.00    0.97926   0.99498   -1.000
 4234.00    0.96852   0.98799   -1.000
 4235.00    0.97656   0.98911   -1.000
 4236.00    0.96719   0.99342   -1.000
 4237.00    0.96164   0.99880   -1.000
 4238.00    0.97037   1.00573   -1.000
 4239.00    0.98073   1.01391   -1.000
 4240.00    0.99077   1.02314   -1.000
 4241.00    0.99894   1.03126   -1.000
 4242.00    1.00234   1.03594   -1.000
 4243.00    1.00149   1.03615   -1.000
 4244.00    1.00664   1.03155   -1.000
 4245.00    1.00011   1.02125   -1.000
 4246.00    0.98427   1.00638   -1.000
 4247.00    0.96788   0.99275   -1.000
 4248.00    0.95137   0.98457   -1.000
 4249.00    0.94846   0.98196   -1.000
 4250.00    0.95303   0.98535   -1.000
 4251.00    0.96690   0.99431   -1.000
 4252.00    0.97680   1.00293   -1.000
 4253.00    0.98353   1.00673   -1.000
 4254.00    0.97249   1.00767   -1.000
 4255.00    0.97531   1.01066   -1.000
 4256.00    0.98672   1.01550   -1.000
 4257.00    0.99601   1.01513   -1.000
 4258.00    0.98919   1.00630   -1.000
 4259.00    0.96894   0.99514   -1.000
 4260.00    0.95563   0.99107   -1.000
 4261.00    0.96497   0.99896   -1.000
 4262.00    0.99126   1.01555   -1.000
 4263.00    1.00698   1.03219   -1.000
 4264.00    1.01783   1.04111   -1.000
 4265.00    1.02228   1.04162   -1.000
 4266.00    1.01936   1.03735   -1.000
 4267.00    1.00565   1.02931   -1.000
 4268.00    0.99120   1.01668   -1.000
 4269.00    0.97839   0.99896   -1.000
 4270.00    0.95220   0.97877   -1.000
 4271.00    0.93304   0.96334   -1.000
 4272.00    0.92390   0.95821   -1.000
 4273.00    0.93174   0.96353   -1.000
 4274.00    0.93777   0.97592   -1.000
 4275.00    0.94520   0.99298   -1.000
 4276.00    0.97978   1.01262   -1.000
 4277.00    1.00149   1.02827   -1.000
 4278.00    1.00104   1.03307   -1.000
 4279.00    0.98597   1.02714   -1.000
 4280.00    0.97303   1.01623   -1.000
 4281.00    0.96645   1.00802   -1.000
 4282.00    0.97278   1.00537   -1.000
 4283.00    0.97957   1.00636   -1.000
 4284.00    0.97302   1.00697   -1.000
 4285.00    0.95803   1.00242   -1.000
 4286.00    0.95046   0.99054   -1.000
 4287.00    0.94118   0.97276   -1.000
 4288.00    0.92299   0.95327   -1.000
 4289.00    0.89733   0.93894   -1.000
 4290.00    0.89031   0.93745   -1.000
 4291.00    0.90865   0.94857   -1.000
 4292.00    0.93333   0.96172   -1.000
 4293.00    0.94847   0.96623   -1.000
 4294.00    0.94524   0.96348   -1.000
 4295.00    0.93471   0.95969   -1.000
 4296.00    0.92852   0.95244   -1.000
 4297.00    0.91102   0.93701   -1.000
 4298.00    0.87751   0.91460   -1.000
 4299.00    0.85176   0.89102   -1.000
 4300.00    0.83457   0.87489   -1.000
 4301.00    0.83793   0.87053   -1.000
 4302.00    0.84237   0.87619   -1.000
 4303.00    0.85099   0.88768   -1.000
 4304.00    0.86415   0.89829   -1.000
 4305.00    0.86986   0.89983   -1.000
 4306.00    0.86212   0.89162   -1.000
 4307.00    0.84224   0.88143   -1.000
 4308.00    0.82718   0.87855   -1.000
 4309.00    0.82519   0.88608   -1.000
 4310.00    0.83746   0.89909   -1.000
 4311.00    0.86162   0.91045   -1.000
 4312.00    0.87779   0.91696   -1.000
 4313.00    0.89225   0.92481   -1.000
 4314.00    0.91913   0.94259   -1.000
 4315.00    0.95325   0.97212   -1.000
 4316.00    0.99144   1.00513  165.536
 4317.00    1.01856   1.02777  165.566
 4318.00    1.02895   1.03480  168.197
 4319.00    1.02464   1.03015  172.040
 4320.00    1.01284   1.02040  177.915
 4321.00    0.99783   1.00844  186.743
 4322.00    0.97522   0.99250   -1.000
 4323.00    0.94285   0.97063   -1.000
 4324.00    0.90903   0.94791   -1.000
 4325.00    0.89385   0.93811   -1.000
 4326.00    0.90885   0.94891   -1.000
 4327.00    0.94201   0.97124   -1.000
 4328.00    0.96964   0.98960   -1.000
 4329.00    0.97660   0.99502   -1.000
 4330.00    0.97538   0.99164   -1.000
 4331.00    0.97094   0.98739   -1.000
 4332.00    0.96144   0.98292   -1.000
 4333.00    0.95384   0.97349   -1.000
 4334.00    0.94737   0.95444  170.749
 4335.00    0.92696   0.92220  181.932
 4336.00    0.89300   0.87406   -1.000
 4337.00    0.84192   0.81003   -1.000
 4338.00    0.77590   0.74096   -1.000
 4339.00    0.71019   0.68777   -1.000
 4340.00    0.67705   0.67055  223.829
 4341.00    0.69556   0.69937  201.548
 4342.00    0.76164   0.76218  189.272
 4343.00    0.83175   0.83047  183.402
 4344.00    0.87694   0.88358  178.424
 4345.00    0.90637   0.92158   -1.000
 4346.00    0.92626   0.95056   -1.000
 4347.00    0.94426   0.97253   -1.000
 4348.00    0.95833   0.98390   -1.000
 4349.00    0.96861   0.98067  181.031
 4350.00    0.95882   0.96686  194.809
 4351.00    0.93281   0.95500   -1.000
 4352.00    0.92469   0.95666   -1.000
 4353.00    0.94129   0.97411   -1.000
 4354.00    0.97047   0.99850   -1.000
 4355.00    0.99150   1.01861   -1.000
 4356.00    1.00172   1.02904   -1.000
 4357.00    1.00653   1.03112   -1.000
 4358.00    1.00587   1.02963   -1.000
 4359.00    0.99892   1.03047   -1.000
 4360.00    1.00421   1.03635   -1.000
 4361.00    1.01990   1.04519   -1.000
 4362.00    1.02996   1.05364   -1.000
 4363.00    1.03409   1.05923   -1.000
 4364.00    1.03892   1.06085   -1.000
 4365.00    1.03884   1.05768   -1.000
 4366.00    1.02538   1.04919   -1.000
 4367.00    1.01061   1.03861   -1.000
 4368.00    1.00773   1.03129   -1.000
 4369.00    1.01104   1.02830   -1.000
 4370.00    1.01219   1.02709  174.314
 4371.00    1.01597   1.02369  176.119
 4372.00    1.01732   1.01457  183.538
 4373.00    0.99993   1.00004  190.852
 4374.00    0.98024   0.98749  190.753
 4375.00    0.97407   0.98793  182.617
 4376.00    0.99276   1.00420  173.369
 4377.00    1.01185   1.02675  170.474
 4378.00    1.02745   1.04203  171.617
 4379.00    1.03508   1.04442  174.763
 4380.00    1.03329   1.03415  183.234
 4381.00    1.01966   1.01092  204.077
 4382.00    0.98048   0.97943  227.323
 4383.00    0.94117   0.95348   -1.000
 4384.00    0.92748   0.94577   -1.000
 4385.00    0.94768   0.95880   -1.000
 4386.00    0.98088   0.98214  181.836
 4387.00    1.00294   1.00193  182.146
 4388.00    1.01131   1.01297  184.208
 4389.00    1.00476   1.01692  184.743
 4390.00    1.00748   1.01813  181.006
 4391.00    1.01664   1.01980  176.898
 4392.00    1.02070   1.01953  178.295
 4393.00    1.01756   1.01307  182.390
 4394.00    1.00545   1.00433  181.532
 4395.00    1.00680   1.00396  172.905
 4396.00    1.01727   1.01359  167.993
 4397.00    1.03402   1.02274  170.634
 4398.00    1.03602   1.02288  177.146
 4399.00    1.01812   1.01639  182.365
 4400.00    1.00764   1.01231  179.936
 4401.00    1.01557   1.01425  176.633
 4402.00    1.02609   1.01702  183.262
 4403.00    1.02476   1.01528  194.250
 4404.00    1.00475   1.01075  195.443
 4405.00    0.99957   1.00979  188.543
 4406.00    1.01278   1.01416  185.956
 4407.00    1.01672   1.01996  184.338
 4408.00    1.01303   1.02613  177.033
 4409.00    1.02387   1.03592  169.402
 4410.00    1.04374   1.04881  163.716
 4411.00    1.05879   1.05820  161.934
 4412.00    1.06911   1.05741  166.607
 4413.00    1.05815   1.04488  176.514
 4414.00    1.03944   1.02489  182.718
 4415.00    1.01730   1.00741  181.357
 4416.00    1.00755   1.00228  174.772
 4417.00    1.01657   1.01258  167.450
 4418.00    1.03065   1.03296  162.824
 4419.00    1.04886   1.05246  164.023
 4420.00    1.05790   1.06236  168.546
 4421.00    1.04722   1.06198   -1.000
 4422.00    1.03829   1.05840   -1.000
 4423.00    1.04407   1.05642  169.549
 4424.00    1.04301   1.05462  170.262
 4425.00    1.03490   1.05158   -1.000
 4426.00    1.02276   1.04944   -1.000
 4427.00    1.02436   1.05123   -1.000
 4428.00    1.03389   1.05653   -1.000
 4429.00    1.03386   1.06177   -1.000
 4430.00    1.03543   1.06491   -1.000
 4431.00    1.04206   1.06566   -1.000
 4432.00    1.05102   1.06238  173.980
 4433.00    1.04401   1.05375  182.690
 4434.00    1.02033   1.04343   -1.000
 4435.00    1.00631   1.04050   -1.000
 4436.00    1.02483   1.05181   -1.000
 4437.00    1.05633   1.07218  158.686
 4438.00    1.07755   1.08858  158.539
 4439.00    1.08094   1.09053  163.870
 4440.00    1.07579   1.07665  171.923
 4441.00    1.05196   1.05422  179.146
 4442.00    1.01862   1.03502   -1.000
 4443.00    1.00912   1.03017   -1.000
 4444.00    1.02191   1.04182   -1.000
 4445.00    1.04630   1.06138  162.001
 4446.00    1.06254   1.07662  162.228
 4447.00    1.06302   1.08312   -1.000
 4448.00    1.06808   1.08399  164.440
 4449.00    1.06945   1.08258  166.052
 4450.00    1.06009   1.08149   -1.000
 4451.00    1.06276   1.08152   -1.000
 4452.00    1.06593   1.07941  172.321
 4453.00    1.05516   1.07059   -1.000
 4454.00    1.03500   1.05792   -1.000
 4455.00    1.01975   1.05096   -1.000
 4456.00    1.03218   1.05435   -1.000
 4457.00    1.04652   1.06254   -1.000
 4458.00    1.04832   1.06761   -1.000
 4459.00    1.04514   1.06794   -1.000
 4460.00    1.03808   1.06644   -1.000
 4461.00    1.03698   1.06714   -1.000
 4462.00    1.04479   1.07165   -1.000
 4463.00    1.05889   1.07737   -1.000
 4464.00    1.06652   1.08069   -1.000
 4465.00    1.06290   1.07908   -1.000
 4466.00    1.05633   1.07158   -1.000
 4467.00    1.04812   1.06047  172.461
 4468.00    1.03654   1.05209   -1.000
 4469.00    1.03782   1.05264   -1.000
 4470.00    1.04993   1.06368   -1.000
 4471.00    1.06199   1.08047   -1.000
 4472.00    1.07856   1.09622   -1.000
 4473.00    1.09912   1.10668  154.035
 4474.00    1.10193   1.11098  154.411
 4475.00    1.10076   1.11174  152.954
 4476.00    1.09865   1.11211  152.090
 4477.00    1.10759   1.11175  153.598
 4478.00    1.10757   1.10510  159.579
 4479.00    1.09113   1.08926  166.936
 4480.00    1.07362   1.07100  171.483
 4481.00    1.05935   1.06184  169.186
 4482.00    1.05483   1.06870  161.723
 4483.00    1.07018   1.08789   -1.000
 4484.00    1.08983   1.10851   -1.000
 4485.00    1.10224   1.12143   -1.000
 4486.00    1.10954   1.12316  156.598
 4487.00    1.10263   1.11478  162.799
 4488.00    1.09266   1.10243  166.392
 4489.00    1.07928   1.09493   -1.000
 4490.00    1.07023   1.09676   -1.000
 4491.00    1.07999   1.10427   -1.000
 4492.00    1.09453   1.10884   -1.000
 4493.00    1.09038   1.10656   -1.000
 4494.00    1.08036   1.10174   -1.000
 4495.00    1.07250   1.09980   -1.000
 4496.00    1.07326   1.10202   -1.000
 4497.00    1.08542   1.10583   -1.000
 4498.00    1.10257   1.10698  154.467
 4499.00    1.10123   1.10199  156.512
 4500.00    1.08940   1.09429  157.291
 4501.00    1.08140   1.09312  152.919
 4502.00    1.08813   1.10307  147.566
 4503.00    1.11567   1.11884  145.119
 4504.00    1.13115   1.13050  146.323
 4505.00    1.13332   1.13315  149.466
 4506.00    1.13238   1.12867  150.823
 4507.00    1.12281   1.12261  150.861
 4508.00    1.11479   1.12035  149.621
 4509.00    1.11874   1.12298  148.586
 4510.00    1.12472   1.12660  150.003
 4511.00    1.12422   1.12717  153.097
 4512.00    1.11407   1.12465  155.811
 4513.00    1.11254   1.12042  156.665
 4514.00    1.10863   1.11588  155.778
 4515.00    1.10603   1.11266  155.712
 4516.00    1.10399   1.11087  157.756
 4517.00    1.10011   1.10865  158.607
 4518.00    1.10230   1.10495  155.677
 4519.00    1.10351   1.10214  152.574
 4520.00    1.10637   1.10169  153.271
 4521.00    1.10881   1.10074  157.130
 4522.00    1.09395   1.09699  160.277
 4523.00    1.08313   1.09304  161.526
 4524.00    1.08431   1.09183  164.342
 4525.00    1.08275   1.09110  169.551
 4526.00    1.07549   1.08673  174.313
 4527.00    1.06413   1.07832   -1.000
 4528.00    1.06274   1.07039  174.716
 4529.00    1.06258   1.06800  171.524
 4530.00    1.06301   1.07087  168.383
 4531.00    1.07310   1.07259  167.708
 4532.00    1.07422   1.06648  172.811
 4533.00    1.05893   1.05490  178.763
 4534.00    1.03983   1.04911  175.864
 4535.00    1.04379   1.05729  165.342
 4536.00    1.07066   1.07705  155.572
 4537.00    1.10134   1.09964  151.714
 4538.00    1.11905   1.11612  153.551
 4539.00    1.12195   1.12199  157.412
 4540.00    1.11815   1.11976  156.979
 4541.00    1.11498   1.11566  155.775
 4542.00    1.11473   1.11399  155.332
 4543.00    1.10376   1.11387   -1.000
 4544.00    1.15043   1.11248   70.113
 4545.00    0.77789   1.10993   -1.000
 4546.00   -0.02144   1.10621    0.000
 4547.00   -0.03811   1.09744    0.000
 4548.00    0.35244   1.08263   -1.000
 4549.00    0.78344   1.07046   -1.000
 4550.00    0.24629   1.07140   -1.000
 4551.00    1.07688   1.08237  162.856
 4552.00    1.08809   1.08884  165.504
 4553.00    1.07617   1.08421  166.942
 4554.00    1.07110   1.07630  164.156
 4555.00    1.07342   1.07655  157.932
 4556.00    1.08919   1.08849  151.547
 4557.00    1.10594   1.10567  149.123
 4558.00    1.12143   1.11969  150.159
 4559.00    1.12855   1.12847  150.000
 4560.00    1.13055   1.13307  150.096
 4561.00    1.12405   1.13140  153.825
 4562.00    1.11503   1.12226  157.675
 4563.00    1.10402   1.11127  160.263
 4564.00    1.09172   1.10717  158.208
 4565.00    1.09982   1.11308  154.047
 4566.00    1.12280   1.12421  149.979
 4567.00    1.13046   1.13329  148.653
 4568.00    1.13095   1.13547  150.502
 4569.00    1.12600   1.12933  154.475
 4570.00    1.11117   1.11706  158.506
 4571.00    1.09272   1.10524  156.995
 4572.00    1.08435   1.10343   -1.000
 4573.00    1.09645   1.11334  150.060
 4574.00    1.11984   1.12466  150.284
 4575.00    1.12733   1.12875  151.013
 4576.00    1.12571   1.12692  151.919
 4577.00    1.12626   1.12320  154.655
 4578.00    1.11786   1.11764  159.421
 4579.00    1.10683   1.10924  162.577
 4580.00    1.10108   1.10014  161.880
 4581.00    1.09956   1.09326  159.496
 4582.00    1.09349   1.08865  158.406
 4583.00    1.09347   1.08690  158.984
 4584.00    1.09670   1.09062  159.979
 4585.00    1.10252   1.09881  157.545
 4586.00    1.10976   1.10710  153.297
 4587.00    1.11635   1.11267  150.125
 4588.00    1.12354   1.11506  150.110
 4589.00    1.12353   1.11541  152.466
 4590.00    1.11897   1.11542  155.349
 4591.00    1.11059   1.11508  158.031
 4592.00    1.10740   1.11476  158.005
 4593.00    1.10491   1.11668  156.573
 4594.00    1.11391   1.12145  155.361
 4595.00    1.12335   1.12759  154.997
 4596.00    1.12633   1.13297  154.674
 4597.00    1.13006   1.13525  154.350
 4598.00    1.13031   1.13350  155.818
 4599.00    1.12975   1.12877  157.205
 4600.00    1.12119   1.12279  157.553
 4601.00    1.11032   1.11810  155.754
 4602.00    1.10761   1.11693  154.032
 4603.00    1.11047   1.11943  154.400
 4604.00    1.11888   1.12358  154.083
 4605.00    1.12879   1.12707  152.296
 4606.00    1.13477   1.13000  149.195
 4607.00    1.13967   1.13375  146.008
 4608.00    1.14503   1.13844  144.413
 4609.00    1.14882   1.14228  145.221
 4610.00    1.14686   1.14272  147.302
 4611.00    1.14349   1.14026  148.900
 4612.00    1.13701   1.13779  149.793
 4613.00    1.13625   1.13689  148.939
 4614.00    1.13898   1.13666  147.590
 4615.00    1.13808   1.13530  147.075
 4616.00    1.13891   1.13265  148.159
 4617.00    1.13787   1.12978  149.241
 4618.00    1.13594   1.12780  148.997
 4619.00    1.13752   1.12854  147.475
 4620.00    1.14119   1.13339  145.117
 4621.00    1.14453   1.14059  145.221
 4622.00    1.14987   1.14605  145.607
 4623.00    1.15032   1.14692  145.910
 4624.00    1.14348   1.14408  147.303
 4625.00    1.14262   1.14049  147.590
 4626.00    1.14029   1.13777  147.510
 4627.00    1.13956   1.13538  148.519
 4628.00    1.13316   1.13264  148.770
 4629.00    1.12806   1.13170  147.938
 4630.00    1.13095   1.13504  146.219
 4631.00    1.13754   1.14042  147.055
 4632.00    1.13931   1.14315  149.291
 4633.00    1.13731   1.14175  150.861
 4634.00    1.13642   1.13915  150.647
 4635.00    1.14158   1.13862  151.979
 4636.00    1.13757   1.13950  154.016
 4637.00    1.13681   1.14004  154.538
 4638.00    1.13371   1.14078  154.210
 4639.00    1.13359   1.14347  151.415
 4640.00    1.14023   1.14869  147.671
 4641.00    1.15429   1.15447  145.810
 4642.00    1.15570   1.15814  146.615
 4643.00    1.15928   1.15802  149.522
 4644.00    1.15366   1.15387  153.838
 4645.00    1.13645   1.14663  158.001
 4646.00    1.12238   1.13813  158.356
 4647.00    1.12282   1.13325  155.321
 4648.00    1.12946   1.13564  151.673
 4649.00    1.13893   1.14270  149.733
 4650.00    1.14443   1.14912  149.577
 4651.00    1.14030   1.15197  149.317
 4652.00    1.14104   1.15100  151.277
 4653.00    1.13560   1.14705  154.859
 4654.00    1.12712   1.14187  156.436
 4655.00    1.12415   1.13821  154.798
 4656.00    1.12653   1.13819  149.620
 4657.00    1.13586   1.14385  143.888
 4658.00    1.15398   1.15547  140.887
 4659.00    1.16543   1.16802  140.980
 4660.00    1.16701   1.17462  142.902
 4661.00    1.16639   1.17307  146.512
 4662.00    1.16083   1.16674  149.278
 4663.00    1.15800   1.15976  149.531
 4664.00    1.15622   1.15288  152.254
 4665.00    1.14881   1.14389  159.081
 4666.00    1.13365   1.13164  165.493
 4667.00    1.11230   1.12022  165.086
 4668.00    1.10520   1.11634  159.648
 4669.00    1.11574   1.12158  152.923
 4670.00    1.13326   1.13216  149.031
 4671.00    1.14441   1.14310  148.368
 4672.00    1.14862   1.15025  148.529
 4673.00    1.15235   1.15358  148.294
 4674.00    1.15630   1.15640  146.241
 4675.00    1.16456   1.16004  144.116
 4676.00    1.16529   1.16222  145.106
 4677.00    1.16195   1.15955  148.412
 4678.00    1.15472   1.15252  151.310
 4679.00    1.14592   1.14473  153.747
 4680.00    1.14174   1.13844  155.051
 4681.00    1.13183   1.13542  152.837
 4682.00    1.13773   1.13678  148.919
 4683.00    1.14599   1.14136  147.169
 4684.00    1.15439   1.14614  147.805
 4685.00    1.16298   1.14876  147.857
 4686.00    1.16086   1.14936  148.727
 4687.00    1.15814   1.14933  148.679
 4688.00    1.15801   1.14981  148.735
 4689.00    1.15550   1.15044  149.851
 4690.00    1.15578   1.15003  150.032
 4691.00    1.15011   1.14928  148.105
 4692.00    1.15885   1.14989  145.830
 4693.00    1.16871   1.15163  142.557
 4694.00    1.17064   1.15339  140.920
 4695.00    1.17424   1.15484  141.898
 4696.00    1.17770   1.15433   -1.000
 4697.00    1.16884   1.14972  150.560
 4698.00    1.16083   1.14259  152.024
 4699.00    1.15532   1.13667  150.713
 4700.00    1.15242   1.13253  152.058
 4701.00    1.15313   1.12805   -1.000
 4702.00    1.14497   1.12320   -1.000
 4703.00    1.12889   1.12140  152.160
 4704.00    1.13327   1.12499  150.135
 4705.00    1.14689   1.13017  152.542
 4706.00    1.14467   1.13113  155.604
 4707.00    1.13238   1.12684  156.907
 4708.00    1.13006   1.12220  155.781
 4709.00    1.13505   1.12298  150.972
 4710.00    1.14445   1.12973  146.966
 4711.00    1.15754   1.13761  145.787
 4712.00    1.16803   1.14134   -1.000
 4713.00    1.16384   1.13991   -1.000
 4714.00    1.15057   1.13738  149.880
 4715.00    1.15169   1.13852  146.725
 4716.00    1.16045   1.14420  143.996
 4717.00    1.16144   1.15083  143.238
 4718.00    1.16437   1.15517  142.751
 4719.00    1.16714   1.15740  142.336
 4720.00    1.16858   1.15840  143.652
 4721.00    1.16794   1.15855  144.574
 4722.00    1.16276   1.15881  143.579
 4723.00    1.16489   1.16064  142.056
 4724.00    1.16868   1.16326  142.531
 4725.00    1.16939   1.16394  146.296
 4726.00    1.16899   1.16106  151.906
 4727.00    1.15650   1.15465  154.976
 4728.00    1.14473   1.14724  154.117
 4729.00    1.14945   1.14151  152.501
 4730.00    1.15841   1.13771  151.295
 4731.00    1.16005   1.13719  149.451
 4732.00    1.15443   1.14122  148.208
 4733.00    1.15633   1.14690  147.393
 4734.00    1.15443   1.15020  146.685
 4735.00    1.15851   1.14983  148.352
 4736.00    1.15543   1.14759  148.347
 4737.00    1.15406   1.14650  146.389
 4738.00    1.16191   1.14752  146.618
 4739.00    1.16844   1.14922  147.489
 4740.00    1.16454   1.15034  147.572
 4741.00    1.16626   1.15152  146.282
 4742.00    1.16684   1.15424  144.750
 4743.00    1.17337   1.15834  145.153
 4744.00    1.17193   1.16192  145.205
 4745.00    1.17047   1.16432  144.025
 4746.00    1.16950   1.16713  142.600
 4747.00    1.17320   1.17170  142.397
 4748.00    1.17462   1.17645  142.639
 4749.00    1.17892   1.17972  142.773
 4750.00    1.17743   1.18212  143.904
 4751.00    1.17756   1.18332  145.556
 4752.00    1.17355   1.18203  146.738
 4753.00    1.16532   1.17875  147.666
 4754.00    1.16132   1.17567  147.371
 4755.00    1.16403   1.17434  148.029
 4756.00    1.16325   1.17494  149.112
 4757.00    1.16613   1.17653  149.142
 4758.00    1.16051   1.17748  147.869
 4759.00    1.15779   1.17669   -1.000
 4760.00    1.15904   1.17338  150.344
 4761.00    1.14742   1.16665   -1.000
 4762.00    1.14076   1.15779   -1.000
 4763.00    1.13521   1.15068   -1.000
 4764.00    1.13292   1.14867   -1.000
 4765.00    1.14200   1.15229  154.387
 4766.00    1.15044   1.15948  152.109
 4767.00    1.16268   1.16771  148.642
 4768.00    1.16875   1.17561  146.787
 4769.00    1.17472   1.18176  147.223
 4770.00    1.17592   1.18408  148.535
 4771.00    1.16788   1.18231  149.682
 4772.00    1.16375   1.17952  147.685
 4773.00    1.16751   1.17978  144.556
 4774.00    1.17414   1.18370  143.758
 4775.00    1.17815   1.18773  143.950
 4776.00    1.18256   1.18910  144.420
 4777.00    1.18192   1.18775  145.436
 4778.00    1.17433   1.18397  147.074
 4779.00    1.16402   1.17903  147.865
 4780.00    1.16429   1.17626  148.228
 4781.00    1.16839   1.17726  149.004
 4782.00    1.16561   1.17919  150.164
 4783.00    1.16924   1.17909  150.059
 4784.00    1.16566   1.17727  150.660
 4785.00    1.16369   1.17455  152.188
 4786.00    1.15752   1.17148  152.964
 4787.00    1.15379   1.16965  152.716
 4788.00    1.15496   1.17007  151.918
 4789.00    1.15559   1.17235   -1.000
 4790.00    1.16249   1.17657  149.262
 4791.00    1.17138   1.18314  146.704
 4792.00    1.17934   1.19067  143.423
 4793.00    1.18217   1.19736  141.125
 4794.00    1.19041   1.20211  140.833
 4795.00    1.18998   1.20332  142.452
 4796.00    1.18270   1.20074  145.407
 4797.00    1.17855   1.19544  148.056
 4798.00    1.16909   1.18997   -1.000
 4799.00    1.17188   1.18804  147.974
 4800.00    1.17397   1.19132   -1.000
 4801.00    1.18086   1.19760  143.049
 4802.00    1.18213   1.20195   -1.000
 4803.00    1.18353   1.19942  145.512
 4804.00    1.17850   1.19082  147.335
 4805.00    1.16960   1.18343  148.557
 4806.00    1.17032   1.18180  148.419
 4807.00    1.17376   1.18528  148.011
 4808.00    1.17626   1.19085  147.284
 4809.00    1.18235   1.19503  145.925
 4810.00    1.18023   1.19630  144.917
 4811.00    1.17816   1.19658   -1.000
 4812.00    1.18155   1.19856   -1.000
 4813.00    1.18844   1.20269  143.731
 4814.00    1.19151   1.20706  143.179
 4815.00    1.19615   1.20972  142.254
 4816.00    1.19591   1.21099  141.394
 4817.00    1.19370   1.21162  140.871
 4818.00    1.19651   1.21132  140.853
 4819.00    1.19451   1.20989  140.943
 4820.00    1.19307   1.20718  142.421
 4821.00    1.18891   1.20180  146.272
 4822.00    1.17626   1.19272   -1.000
 4823.00    1.16847   1.18248  148.180
 4824.00    1.16534   1.17681  145.454
 4825.00    1.16932   1.17859  143.419
 4826.00    1.18053   1.18438  144.247
 4827.00    1.18344   1.18842  145.962
 4828.00    1.18106   1.18842  146.758
 4829.00    1.17786   1.18638  146.765
 4830.00    1.17384   1.18477  148.132
 4831.00    1.17321   1.18378  148.133
 4832.00    1.17542   1.18307  145.645
 4833.00    1.18357   1.18312  143.834
 4834.00    1.18627   1.18361  143.429
 4835.00    1.17846   1.18379  143.737
 4836.00    1.17859   1.18342  144.539
 4837.00    1.18008   1.18316  146.635
 4838.00    1.17351   1.18235  149.121
 4839.00    1.16677   1.18031  149.042
 4840.00    1.16145   1.17851   -1.000
 4841.00    1.16126   1.17779   -1.000
 4842.00    1.16203   1.17655  146.729
 4843.00    1.16677   1.17436  145.181
 4844.00    1.17275   1.17282  142.963
 4845.00    1.17044   1.17260  142.569
 4846.00    1.16389   1.17147  145.610
 4847.00    1.15657   1.16648  147.579
 4848.00    1.14525   1.15933  147.300
 4849.00    1.14300   1.15451  145.253
 4850.00    1.14370   1.15237  145.091
 4851.00    1.14566   1.14973  146.008
 4852.00    1.13903   1.14374  147.499
 4853.00    1.12866   1.13162  152.075
 4854.00    1.10639   1.11240  156.032
 4855.00    1.08723   1.09056  155.355
 4856.00    1.07592   1.07111  154.143
 4857.00    1.06110   1.04851  159.311
 4858.00    1.02719   1.00770  173.942
 4859.00    0.96323   0.93791   -1.000
 4860.00    0.86628   0.85431  200.959
 4861.00    0.80477   0.80009  187.266
 4862.00    0.83342   0.80931   -1.000
 4863.00    0.92245   0.87474   -1.000
 4864.00    1.00278   0.95498   -1.000
 4865.00    1.04570   1.01803  152.848
 4866.00    1.07157   1.05920  151.591
 4867.00    1.08943   1.08706  151.124
 4868.00    1.10491   1.10621  152.755
 4869.00    1.11302   1.11462  157.183
 4870.00    1.10355   1.11181  160.603
 4871.00    1.08685   1.10493   -1.000
 4872.00    1.08425   1.10467   -1.000
 4873.00    1.10568   1.11529  151.720
 4874.00    1.12836   1.13079  150.634
 4875.00    1.13644   1.14278  149.851
 4876.00    1.13740   1.14896  149.227
 4877.00    1.13863   1.15297  147.017
 4878.00    1.14352   1.15955  145.705
 4879.00    1.14932   1.16975   -1.000
 4880.00    1.15604   1.17917   -1.000
 4881.00    1.15508   1.18171   -1.000
 4882.00    1.14939   1.17740   -1.000
 4883.00    1.14447   1.17251   -1.000
 4884.00    1.14463   1.17116   -1.000
 4885.00    1.15163   1.17311   -1.000
 4886.00    1.15193   1.17599   -1.000
 4887.00    1.15515   1.17731   -1.000
 4888.00    1.15317   1.17468   -1.000
 4889.00    1.14194   1.16717   -1.000
 4890.00    1.12600   1.15803   -1.000
 4891.00    1.12583   1.15514   -1.000
 4892.00    1.14227   1.16517   -1.000
 4893.00    1.17306   1.18439  139.389
 4894.00    1.19080   1.20332  136.989
 4895.00    1.20128   1.21663  136.483
 4896.00    1.20612   1.22377  137.033
 4897.00    1.20769   1.22575  140.151
 4898.00    1.20097   1.22279   -1.000
 4899.00    1.18921   1.21606   -1.000
 4900.00    1.18308   1.20927   -1.000
 4901.00    1.17684   1.20548   -1.000
 4902.00    1.17806   1.20368   -1.000
 4903.00    1.17948   1.20266   -1.000
 4904.00    1.18051   1.20523   -1.000
 4905.00    1.19596   1.21302  140.225
 4906.00    1.20428   1.22077  141.792
 4907.00    1.20058   1.22197   -1.000
 4908.00    1.19332   1.21662   -1.000
 4909.00    1.18581   1.20829   -1.000
 4910.00    1.17707   1.20058   -1.000
 4911.00    1.17865   1.19735   -1.000
 4912.00    1.18731   1.20016  144.062
 4913.00    1.19572   1.20667  142.240
 4914.00    1.20209   1.21328  141.170
 4915.00    1.20459   1.21690  142.276
 4916.00    1.20021   1.21375  147.676
 4917.00    1.18544   1.20058  155.837
 4918.00    1.16387   1.17857  162.759
 4919.00    1.13580   1.15536   -1.000
 4920.00    1.11728   1.14055   -1.000
 4921.00    1.12340   1.13928   -1.000
 4922.00    1.14075   1.14665  150.712
 4923.00    1.14996   1.15398  150.478
 4924.00    1.15569   1.16066  148.311
 4925.00    1.16761   1.17233  144.460
 4926.00    1.18540   1.18923  142.030
 4927.00    1.20298   1.20529  140.768
 4928.00    1.21104   1.21678  139.824
 4929.00    1.21498   1.22372  139.183
 4930.00    1.21620   1.22542  140.851
 4931.00    1.20928   1.21969  144.907
 4932.00    1.19519   1.20582  149.809
 4933.00    1.17227   1.18895  149.729
 4934.00    1.15831   1.17924   -1.000
 4935.00    1.16974   1.18096  147.553
 4936.00    1.18452   1.18590  152.054
 4937.00    1.18052   1.18455  155.741
 4938.00    1.15872   1.17797   -1.000
 4939.00    1.15386   1.17554   -1.000
 4940.00    1.17011   1.18352  143.902
 4941.00    1.19035   1.19942  141.430
 4942.00    1.20378   1.21561  140.308
 4943.00    1.21414   1.22575  140.539
 4944.00    1.21144   1.22878  141.511
 4945.00    1.21099   1.22718  141.644
 4946.00    1.21075   1.22520  140.274
 4947.00    1.21043   1.22592  138.710
 4948.00    1.21224   1.22940  138.316
 4949.00    1.21422   1.23308  137.849
 4950.00    1.21570   1.23465  138.636
 4951.00    1.21607   1.23405  139.660
 4952.00    1.21626   1.23209  141.315
 4953.00    1.21234   1.22892  143.273
 4954.00    1.21235   1.22192  147.515
 4955.00    1.20053   1.20619  155.140
 4956.00    1.16673   1.18178  160.438
 4957.00    1.13977   1.16040   -1.000
 4958.00    1.14414   1.15811  147.507
 4959.00    1.17247   1.17659  142.907
 4960.00    1.19946   1.20165  142.089
 4961.00    1.21261   1.21997  142.854
 4962.00    1.21499   1.22798  144.065
 4963.00    1.20825   1.22839   -1.000
 4964.00    1.20114   1.22360   -1.000
 4965.00    1.19544   1.21579   -1.000
 4966.00    1.18957   1.20878   -1.000
 4967.00    1.19464   1.20585  150.086
 4968.00    1.20291   1.20670  148.904
 4969.00    1.20525   1.21010  147.292
 4970.00    1.20327   1.21542  145.693
 4971.00    1.20476   1.22134  143.980
 4972.00    1.20980   1.22624  142.709
 4973.00    1.21127   1.22929  142.307
 4974.00    1.21936   1.22988  143.399
 4975.00    1.22005   1.22830  144.973
 4976.00    1.21575   1.22516  147.000
 4977.00    1.20997   1.22082  149.358
 4978.00    1.20428   1.21643  151.210
 4979.00    1.19835   1.21150  153.644
 4980.00    1.18705   1.20220  158.807
 4981.00    1.16969   1.18755   -1.000
 4982.00    1.15135   1.17245   -1.000
 4983.00    1.14278   1.16416   -1.000
 4984.00    1.15096   1.16666  155.071
 4985.00    1.16597   1.17738  150.235
 4986.00    1.17872   1.19166  146.934
 4987.00    1.19043   1.20540  147.379
 4988.00    1.19837   1.21330  149.553
 4989.00    1.19315   1.21178   -1.000
 4990.00    1.18782   1.20427  150.799
 4991.00    1.17904   1.19798   -1.000
 4992.00    1.18521   1.19732  148.930
 4993.00    1.18899   1.20132  148.804
 4994.00    1.18857   1.20734   -1.000
 4995.00    1.19370   1.21378   -1.000
 4996.00    1.19973   1.21789  148.509
 4997.00    1.19728   1.21598   -1.000
 4998.00    1.18910   1.20638  153.606
 4999.00    1.18114   1.19226  155.308
 5000.00    1.17680   1.18160  155.196
 5001.00    1.17418   1.18048  153.724
 5002.00    1.17856   1.18568  153.060
 5003.00    1.18455   1.18962  155.536
 5004.00    1.18338   1.18637  159.243
 5005.00    1.16850   1.17630  159.521
 5006.00    1.15713   1.16767  155.370
 5007.00    1.16231   1.16944  150.928
 5008.00    1.17932   1.18060  149.785
 5009.00    1.19513   1.19092  152.122
 5010.00    1.19341   1.19277  156.905
 5011.00    1.17497   1.18535  162.611
 5012.00    1.15342   1.17316   -1.000
 5013.00    1.13981   1.16297   -1.000
 5014.00    1.14016   1.15986   -1.000
 5015.00    1.15208   1.16327  157.813
 5016.00    1.16122   1.16641  157.298
 5017.00    1.16409   1.16408  157.149
 5018.00    1.16532   1.16017  155.360
 5019.00    1.16795   1.16369  154.319
 5020.00    1.17977   1.17528  155.024
 5021.00    1.18786   1.18676  155.219
 5022.00    1.19289   1.19417  154.209
 5023.00    1.19067   1.20026  152.618
 5024.00    1.19221   1.20736  151.806
 5025.00    1.19516   1.21323   -1.000
 5026.00    1.19109   1.21479   -1.000
 5027.00    1.18964   1.21300   -1.000
 5028.00    1.19556   1.21170  148.618
 5029.00    1.19985   1.21250  146.484
 5030.00    1.20511   1.21499  144.169
 5031.00    1.21033   1.21921  142.742
 5032.00    1.21162   1.22396  143.515
 5033.00    1.21582   1.22511  148.391
 5034.00    1.20799   1.21960  153.960
 5035.00    1.19203   1.20989  156.179
 5036.00    1.18051   1.20205   -1.000
 5037.00    1.18025   1.19819   -1.000
 5038.00    1.17405   1.19257   -1.000
 5039.00    1.15791   1.17973   -1.000
 5040.00    1.14082   1.16338   -1.000
 5041.00    1.12906   1.15500   -1.000
 5042.00    1.14608   1.16308  152.135
 5043.00    1.17898   1.18379  146.380
 5044.00    1.20413   1.20710  143.076
 5045.00    1.22134   1.22535  138.631
 5046.00    1.20521   1.23484   -1.000
 5047.00    0.95353   1.23396   -1.000
 5048.00    0.41291   1.22366   -1.000
 5049.00    0.08845   1.20853   -1.000
 5050.00    0.75791   1.19492   -1.000
 5051.00    1.21216   1.18812   -1.000
 5052.00    1.18729   1.19226  146.421
 5053.00    1.20896   1.20672  143.938
 5054.00    1.22402   1.22365  142.715
 5055.00    1.23004   1.23498  142.369
 5056.00    1.23000   1.23993  142.655
 5057.00    1.23216   1.24169  142.882
 5058.00    1.23334   1.24284  142.703
 5059.00    1.22809   1.24426  141.824
 5060.00    1.22322   1.24574   -1.000
 5061.00    1.22265   1.24616   -1.000
 5062.00    1.22276   1.24300   -1.000
 5063.00    1.21558   1.23444   -1.000
 5064.00    1.20060   1.22282   -1.000
 5065.00    1.19223   1.21399   -1.000
 5066.00    1.19669   1.21145  150.772
 5067.00    1.20745   1.21286  150.326
 5068.00    1.20924   1.21479  149.568
 5069.00    1.21224   1.21688  148.838
 5070.00    1.21842   1.21921  150.122
 5071.00    1.21774   1.22000  150.929
 5072.00    1.21378   1.21835  149.044
 5073.00    1.21576   1.21608  148.024
 5074.00    1.21577   1.21505  147.870
 5075.00    1.20886   1.21501  147.948
 5076.00    1.21303   1.21395  149.901
 5077.00    1.20780   1.20865  155.522
 5078.00    1.18823   1.19795  162.342
 5079.00    1.16629   1.18656   -1.000
 5080.00    1.16347   1.18182   -1.000
 5081.00    1.16991   1.18521  156.439
 5082.00    1.18616   1.19163  154.272
 5083.00    1.19262   1.19826  151.353
 5084.00    1.20382   1.20665  148.961
 5085.00    1.21835   1.21629  148.061
 5086.00    1.22253   1.22359  147.819
 5087.00    1.22737   1.22709  147.009
 5088.00    1.22933   1.22894  145.965
 5089.00    1.23154   1.23145  145.176
 5090.00    1.23354   1.23470  144.305
 5091.00    1.23054   1.23798  142.648
 5092.00    1.23396   1.24164  141.711
 5093.00    1.23987   1.24512  143.320
 5094.00    1.24293   1.24606  146.401
 5095.00    1.23463   1.24222  149.621
 5096.00    1.22246   1.23335  153.209
 5097.00    1.21235   1.22191  156.050
 5098.00    1.20173   1.21215  155.864
 5099.00    1.20176   1.20897  151.776
 5100.00    1.21160   1.21439  147.748
 5101.00    1.22055   1.22412  146.852
 5102.00    1.22628   1.23205  147.940
 5103.00    1.22821   1.23513  149.928
 5104.00    1.22693   1.23348  151.814
 5105.00    1.22123   1.22721  153.678
 5106.00    1.20563   1.21674  155.325
 5107.00    1.18953   1.20586  154.900
 5108.00    1.18618   1.20000  153.861
 5109.00    1.18735   1.20048  152.601
 5110.00    1.18983   1.20617  150.402
 5111.00    1.20241   1.21608  148.574
 5112.00    1.22059   1.22791  146.826
 5113.00    1.23213   1.23783  145.593
 5114.00    1.23736   1.24410  144.730
 5115.00    1.23600   1.24791  143.210
 5116.00    1.23830   1.25113  142.244
 5117.00    1.24309   1.25376  142.925
 5118.00    1.24627   1.25426  144.899
 5119.00    1.24309   1.25160  147.124
 5120.00    1.23528   1.24575  149.748
 5121.00    1.22638   1.23698  153.760
 5122.00    1.21327   1.22620  157.955
 5123.00    1.19237   1.21602   -1.000
 5124.00    1.18724   1.21002   -1.000
 5125.00    1.19576   1.20908  156.368
 5126.00    1.19681   1.20989  155.584
 5127.00    1.19845   1.20927  155.809
 5128.00    1.19228   1.20800   -1.000
 5129.00    1.19942   1.20895  153.190
 5130.00    1.20672   1.21356  150.737
 5131.00    1.21523   1.22043  149.541
 5132.00    1.22136   1.22680  148.119
 5133.00    1.21994   1.23154  146.946
 5134.00    1.22506   1.23448  147.023
 5135.00    1.23041   1.23460  149.940
 5136.00    1.22331   1.23028  153.468
 5137.00    1.20911   1.22148  155.548
 5138.00    1.19284   1.21147   -1.000
 5139.00    1.18678   1.20557   -1.000
 5140.00    1.19018   1.20588  155.783
 5141.00    1.19554   1.20931  157.901
 5142.00    1.19571   1.21222  156.574
 5143.00    1.19608   1.21540   -1.000
 5144.00    1.20323   1.22053  153.994
 5145.00    1.21208   1.22521  155.377
 5146.00    1.21692   1.22663  155.379
 5147.00    1.21400   1.22592  153.514
 5148.00    1.21516   1.22470  153.091
 5149.00    1.21964   1.22198  155.246
 5150.00    1.20730   1.21629  157.872
 5151.00    1.19280   1.20925   -1.000
 5152.00    1.18836   1.20505   -1.000
 5153.00    1.19407   1.20619  154.093
 5154.00    1.21005   1.21210  150.129
 5155.00    1.22404   1.22205  146.458
 5156.00    1.24007   1.23418  144.002
 5157.00    1.24627   1.24483  143.163
 5158.00    1.24990   1.25128  143.259
 5159.00    1.25444   1.25343  143.812
 5160.00    1.25025   1.25209  144.771
 5161.00    1.24165   1.24820  146.533
 5162.00    1.23585   1.24279  149.314
 5163.00    1.22769   1.23426  156.106
 5164.00    1.21600   1.21594  169.864
 5165.00    1.18248   1.18081  186.982
 5166.00    1.13066   1.13320  196.782
 5167.00    1.08936   1.09219  190.899
 5168.00    1.08521   1.07792  180.832
 5169.00    1.11529   1.08942   -1.000
 5170.00    1.13572   1.10484   -1.000
 5171.00    1.12896   1.10514   -1.000
 5172.00    1.10590   1.09782  191.644
 5173.00    1.10866   1.10689  171.069
 5174.00    1.15532   1.14100  158.339
 5175.00    1.21122   1.18453   -1.000
 5176.00    1.24019   1.21702  151.979
 5177.00    1.25012   1.23327  152.002
 5178.00    1.25367   1.23877  154.160
 5179.00    1.24956   1.23652  160.582
 5180.00    1.23640   1.22306  173.530
 5181.00    1.21099   1.19342  193.258
 5182.00    1.16586   1.15123  204.233
 5183.00    1.11956   1.11583  191.368
 5184.00    1.11843   1.10956  170.160
 5185.00    1.16348   1.13620   -1.000
 5186.00    1.20958   1.17410   -1.000
 5187.00    1.22275   1.20018  152.062
 5188.00    1.21895   1.21031  151.805
 5189.00    1.21823   1.21105  154.038
 5190.00    1.20953   1.20652  159.024
 5191.00    1.19300   1.19766  162.516
 5192.00    1.18051   1.18916  160.751
 5193.00    1.18272   1.18735  157.969
 5194.00    1.19465   1.19257  155.661
 5195.00    1.20846   1.20001  153.251
 5196.00    1.22595   1.20718  150.194
 5197.00    1.24022   1.21457   -1.000
 5198.00    1.24650   1.22245   -1.000
 5199.00    1.25105   1.22974  147.010
 5200.00    1.25017   1.23389  148.497
 5201.00    1.24228   1.23222  151.384
 5202.00    1.23143   1.22304  155.092
 5203.00    1.21657   1.20707  160.044
 5204.00    1.18963   1.18840  164.282
 5205.00    1.17481   1.17382  164.688
 5206.00    1.17507   1.16754  165.611
 5207.00    1.18252   1.16762  166.073
 5208.00    1.18801   1.17030  162.976
 5209.00    1.19290   1.17693  157.301
 5210.00    1.20543   1.19144  150.935
 5211.00    1.22634   1.21192  145.486
 5212.00    1.24997   1.23006  143.343
 5213.00    1.25817   1.23895  145.465
 5214.00    1.25434   1.23638  148.746
 5215.00    1.23455   1.22725  149.971
 5216.00    1.22255   1.22072  148.236
 5217.00    1.23116   1.22352  145.080
 5218.00    1.24847   1.23487  143.111
 5219.00    1.25972   1.24814  142.152
 5220.00    1.26534   1.25796  141.993
 5221.00    1.26999   1.26234  144.367
 5222.00    1.26880   1.26038  149.173
 5223.00    1.25454   1.24987  155.565
 5224.00    1.22933   1.22897  162.447
 5225.00    1.19949   1.20070  165.455
 5226.00    1.17033   1.17669  160.533
 5227.00    1.17073   1.17110  151.698
 5228.00    1.19985   1.18727  146.206
 5229.00    1.23271   1.21249  144.172
 5230.00    1.25243   1.23020  144.581
 5231.00    1.24817   1.23253  147.637
 5232.00    1.23279   1.22363  149.756
 5233.00    1.22422   1.21399  148.736
 5234.00    1.22830   1.21335  145.130
 5235.00    1.23992   1.22386  141.966
 5236.00    1.25726   1.23928  140.715
 5237.00    1.26984   1.25215  140.761
 5238.00    1.27168   1.25897  141.123
 5239.00    1.27362   1.26109  140.731
 5240.00    1.27494   1.26138  140.041
 5241.00    1.27080   1.26137  140.235
 5242.00    1.27195   1.26154  139.924
 5243.00    1.26947   1.26222  140.209
 5244.00    1.27233   1.26253  143.475
 5245.00    1.26562   1.25970  147.884
 5246.00    1.25039   1.25199  150.737
 5247.00    1.23646   1.24225  150.925
 5248.00    1.23560   1.23503  151.326
 5249.00    1.23031   1.23139  152.054
 5250.00    1.22593   1.23026  150.991
 5251.00    1.23418   1.23178  148.918
 5252.00    1.24333   1.23528  147.738
 5253.00    1.24577   1.23825  147.661
 5254.00    1.24542   1.24009  146.113
 5255.00    1.25411   1.24355  142.463
 5256.00    1.26495   1.25108  139.030
 5257.00    1.28124   1.26096  138.385
 5258.00    1.28403   1.26751  140.248
 5259.00    1.27741   1.26617  144.604
 5260.00    1.26387   1.25547  151.007
 5261.00    1.24430   1.23731  157.925
 5262.00    1.21823   1.21618  162.893
 5263.00    1.19930   1.19702  165.621
 5264.00    1.18829   1.18332  165.319
 5265.00    1.18542   1.17743  162.235
 5266.00    1.19300   1.17780  160.444
 5267.00    1.20175   1.17725   -1.000
 5268.00    1.18853   1.16829  170.025
 5269.00    1.16375   1.15460  165.290
 5270.00    1.16078   1.15184  155.493
 5271.00    1.18707   1.16880  149.892
 5272.00    1.22035   1.19573   -1.000
 5273.00    1.23554   1.21569  149.009
 5274.00    1.23875   1.22338  148.180
 5275.00    1.24305   1.22647  144.778
 5276.00    1.24996   1.23354  140.100
 5277.00    1.26579   1.24619  138.232
 5278.00    1.28112   1.25841   -1.000
 5279.00    1.27940   1.26277  143.278
 5280.00    1.26956   1.25725  146.831
 5281.00    1.25643   1.24567  149.100
 5282.00    1.24506   1.23427  149.041
 5283.00    1.23584   1.22904  145.521
 5284.00    1.24550   1.23438  140.958
 5285.00    1.26098   1.24912  137.117
 5286.00    1.26812   1.26631  136.596
 5287.00    1.28841   1.27841  137.286
 5288.00    1.29241   1.28392  137.072
 5289.00    1.29404   1.28557  136.314
 5290.00    1.29802   1.28508  136.254
 5291.00    1.29459   1.28325  137.210
 5292.00    1.29031   1.28118  138.633
 5293.00    1.28383   1.27915  140.850
 5294.00    1.27787   1.27534  145.086
 5295.00    1.26864   1.26711  150.479
 5296.00    1.25510   1.25455  153.496
 5297.00    1.24521   1.24243  151.690
 5298.00    1.23982   1.23694  147.864
 5299.00    1.25171   1.23997  145.512
 5300.00    1.25828   1.24740  144.530
 5301.00    1.25955   1.25442  142.292
 5302.00    1.26225   1.26074  138.552
 5303.00    1.27196   1.26782  136.486
 5304.00    1.28541   1.27458  136.570
 5305.00    1.29164   1.27819  137.979
 5306.00    1.28745   1.27773  138.775
 5307.00    1.28389   1.27590  137.636
 5308.00    1.28573   1.27614  136.265
 5309.00    1.29540   1.27923  135.617
 5310.00    1.30014   1.28292  135.929
 5311.00    1.29795   1.28449  136.700
 5312.00    1.29907   1.28322  137.351
 5313.00    1.29888   1.27916  138.446
 5314.00    1.29217   1.27188  139.815
 5315.00    1.28060   1.26243  140.823
 5316.00    1.27266   1.25489  140.588
 5317.00    1.27122   1.25401  139.562
 5318.00    1.27607   1.26037  139.206
 5319.00    1.28499   1.26892  139.875
 5320.00    1.28611   1.27382  141.012
 5321.00    1.28133   1.27205  142.867
 5322.00    1.27558   1.26386  145.209
 5323.00    1.26349   1.25263  146.210
 5324.00    1.25408   1.24262  146.819
 5325.00    1.25346   1.23313   -1.000
 5326.00    1.24158   1.21806   -1.000
 5327.00    1.20921   1.19707  164.000
 5328.00    1.19137   1.18288  156.279
 5329.00    1.20554   1.18965  147.587
 5330.00    1.24275   1.21529   -1.000
 5331.00    1.26856   1.24217   -1.000
 5332.00    1.27549   1.25802  140.983
 5333.00    1.27697   1.26402  139.520
 5334.00    1.28515   1.26543  139.270
 5335.00    1.28843   1.26471   -1.000
 5336.00    1.28211   1.26260  141.287
 5337.00    1.27859   1.25923  143.263
 5338.00    1.27182   1.25387  146.821
 5339.00    1.26060   1.24625  148.584
 5340.00    1.24964   1.23991  146.565
 5341.00    1.25139   1.24065  142.691
 5342.00    1.27067   1.24942   -1.000
 5343.00    1.28801   1.25954   -1.000
 5344.00    1.29175   1.26437   -1.000
 5345.00    1.28137   1.26311  142.890
 5346.00    1.27607   1.25888  143.690
 5347.00    1.27474   1.25482   -1.000
 5348.00    1.27446   1.25252   -1.000
 5349.00    1.27227   1.25326  141.987
 5350.00    1.27965   1.25844   -1.000
 5351.00    1.29056   1.26666   -1.000
 5352.00    1.29311   1.27427  137.058
 5353.00    1.29505   1.27963  135.794
 5354.00    1.30132   1.28378  134.155
 5355.00    1.30992   1.28804   -1.000
 5356.00    1.31387   1.29188   -1.000
 5357.00    1.31265   1.29409   -1.000
 5358.00    1.31309   1.29431   -1.000
 5359.00    1.30899   1.29246  136.402
 5360.00    1.30096   1.28823  138.683
 5361.00    1.29656   1.28180  140.484
 5362.00    1.28437   1.27430  141.367
 5363.00    1.27290   1.26744  142.188
 5364.00    1.27345   1.26268  142.788
 5365.00    1.27396   1.26086  142.345
 5366.00    1.27838   1.26123  142.665
 5367.00    1.27937   1.26061  144.635
 5368.00    1.27330   1.25489  148.551
 5369.00    1.25761   1.24258  152.313
 5370.00    1.23878   1.22805  151.246
 5371.00    1.23643   1.22086  145.020
 5372.00    1.25032   1.22838   -1.000
 5373.00    1.27726   1.24776   -1.000
 5374.00    1.30492   1.26799   -1.000
 5375.00    1.31346   1.28095   -1.000
 5376.00    1.31105   1.28613   -1.000
 5377.00    1.30947   1.28746   -1.000
 5378.00    1.31199   1.28719   -1.000
 5379.00    1.30281   1.28471  138.828
 5380.00    1.29403   1.27979  140.053
 5381.00    1.29068   1.27407  140.531
 5382.00    1.28235   1.27007  140.268
 5383.00    1.28696   1.26958  139.391
 5384.00    1.29404   1.27292   -1.000
 5385.00    1.29843   1.27903   -1.000
 5386.00    1.30553   1.28512   -1.000
 5387.00    1.30644   1.28798  140.475
 5388.00    1.30184   1.28621  142.569
 5389.00    1.29579   1.28077  143.923
 5390.00    1.29329   1.27388   -1.000
 5391.00    1.28976   1.26765   -1.000
 5392.00    1.28389   1.26284   -1.000
 5393.00    1.27688   1.25914  146.392
 5394.00    1.27221   1.25470  148.605
 5395.00    1.26536   1.24693  151.093
 5396.00    1.25321   1.23684  149.994
 5397.00    1.24912   1.23153  145.251
 5398.00    1.26246   1.23718   -1.000
 5399.00    1.28152   1.25058   -1.000
 5400.00    1.29235   1.26300   -1.000
 5401.00    1.29127   1.26803   -1.000
 5402.00    1.28411   1.26359   -1.000
 5403.00    1.27025   1.25030   -1.000
 5404.00    1.25022   1.23292  154.038
 5405.00    1.23808   1.22073  151.754
 5406.00    1.24241   1.22089   -1.000
 5407.00    1.26076   1.23053   -1.000
 5408.00    1.27017   1.23954   -1.000
 5409.00    1.26176   1.24273  147.722
 5410.00    1.26283   1.24448  143.677
 5411.00    1.27595   1.25086   -1.000
 5412.00    1.29046   1.26036   -1.000
 5413.00    1.29822   1.26678   -1.000
 5414.00    1.29367   1.26874   -1.000
 5415.00    1.28880   1.26992  138.676
 5416.00    1.29210   1.27322   -1.000
 5417.00    1.29583   1.27764  138.977
 5418.00    1.29475   1.28065  140.299
 5419.00    1.29557   1.28168  140.787
 5420.00    1.29959   1.28139  140.115
 5421.00    1.30324   1.27951   -1.000
 5422.00    1.29846   1.27563   -1.000
 5423.00    1.28604   1.27083  142.740
 5424.00    1.28108   1.26811  140.810
 5425.00    1.28707   1.27041  138.979
 5426.00    1.29432   1.27544  140.372
 5427.00    1.29412   1.27579  144.657
 5428.00    1.27631   1.26741  148.387
 5429.00    1.25676   1.25596  147.653
 5430.00    1.25889   1.25088  145.364
 5431.00    1.26761   1.25306  145.980
 5432.00    1.27504   1.25484   -1.000
 5433.00    1.26671   1.25110  149.311
 5434.00    1.25566   1.24592  148.049
 5435.00    1.26032   1.24780  144.672
 5436.00    1.27633   1.25899  140.818
 5437.00    1.29329   1.27414  138.166
 5438.00    1.31012   1.28701   -1.000
 5439.00    1.31847   1.29497   -1.000
 5440.00    1.31690   1.29913  135.481
 5441.00    1.31844   1.30107  135.802
 5442.00    1.31546   1.30033  137.833
 5443.00    1.30504   1.29437  142.131
 5444.00    1.28691   1.28063  147.923
 5445.00    1.26253   1.26093  151.370
 5446.00    1.24716   1.24370  148.939
 5447.00    1.24822   1.23892  144.022
 5448.00    1.26935   1.24866  140.661
 5449.00    1.29547   1.26541   -1.000
 5450.00    1.30993   1.27936   -1.000
 5451.00    1.31340   1.28511   -1.000
 5452.00    1.30902   1.28192   -1.000
 5453.00    1.29247   1.27079   -1.000
 5454.00    1.27146   1.25528  151.556
 5455.00    1.25963   1.24378  148.232
 5456.00    1.25929   1.24524  143.128
 5457.00    1.28768   1.25988   -1.000
 5458.00    1.31408   1.27819   -1.000
 5459.00    1.31703   1.28989   -1.000
 5460.00    1.31526   1.29209   -1.000
 5461.00    1.30794   1.28742   -1.000
 5462.00    1.29981   1.28022  146.387
 5463.00    1.29300   1.27532  144.386
 5464.00    1.29866   1.27578   -1.000
 5465.00    1.30358   1.28040   -1.000
 5466.00    1.30800   1.28566   -1.000
 5467.00    1.31499   1.28955   -1.000
 5468.00    1.31821   1.29211   -1.000
 5469.00    1.31089   1.29352  143.415
 5470.00    1.30997   1.29315  143.894
 5471.00    1.31422   1.29047   -1.000
 5472.00    1.31106   1.28619   -1.000
 5473.00    1.30403   1.28041   -1.000
 5474.00    1.29215   1.27185   -1.000
 5475.00    1.27663   1.26056  153.382
 5476.00    1.26420   1.25117  150.904
 5477.00    1.26741   1.25057  146.447
 5478.00    1.28408   1.26012   -1.000
 5479.00    1.29652   1.27211   -1.000
 5480.00    1.30172   1.27857   -1.000
 5481.00    1.30000   1.27935   -1.000
 5482.00    1.29952   1.27954  143.811
 5483.00    1.29994   1.28296  141.238
 5484.00    1.30058   1.28876  140.751
 5485.00    1.30031   1.29317  142.479
 5486.00    1.30091   1.29372  144.290
 5487.00    1.30276   1.29107  144.832
 5488.00    1.30195   1.28784  144.554
 5489.00    1.30407   1.28634  143.442
 5490.00    1.30592   1.28734  142.522
 5491.00    1.30616   1.28995  142.237
 5492.00    1.30724   1.29238  142.559
 5493.00    1.30844   1.29304  142.566
 5494.00    1.31117   1.29117   -1.000
 5495.00    1.30707   1.28648   -1.000
 5496.00    1.29793   1.27998  144.500
 5497.00    1.29233   1.27491  143.365
 5498.00    1.29619   1.27420   -1.000
 5499.00    1.29891   1.27580   -1.000
 5500.00    1.29494   1.27503   -1.000
 5501.00    1.28945   1.27172  145.618
 5502.00    1.28957   1.27017   -1.000
 5503.00    1.29727   1.27222   -1.000
 5504.00    1.30585   1.27365   -1.000
 5505.00    1.29357   1.27025   -1.000
 5506.00    1.28153   1.26489  145.765
 5507.00    1.28389   1.26409   -1.000
 5508.00    1.29270   1.26995   -1.000
 5509.00    1.30515   1.27765   -1.000
 5510.00    1.30329   1.28070   -1.000
 5511.00    1.29788   1.27807   -1.000
 5512.00    1.28802   1.27342  150.701
 5513.00    1.28765   1.27052  148.448
 5514.00    1.29360   1.27133   -1.000
 5515.00    1.30684   1.27575   -1.000
 5516.00    1.31803   1.28259   -1.000
 5517.00    1.32199   1.29012   -1.000
 5518.00    1.32392   1.29642   -1.000
 5519.00    1.32496   1.29992   -1.000
 5520.00    1.32424   1.30067   -1.000
 5521.00    1.32379   1.30027   -1.000
 5522.00    1.32176   1.30017   -1.000
 5523.00    1.31786   1.29943  141.585
 5524.00    1.31506   1.29521   -1.000
 5525.00    1.30900   1.28521   -1.000
 5526.00    1.29295   1.27057   -1.000
 5527.00    1.27616   1.25739   -1.000
 5528.00    1.27337   1.25306   -1.000
 5529.00    1.28226   1.26046   -1.000
 5530.00    1.29781   1.27451   -1.000
 5531.00    1.30747   1.28603   -1.000
 5532.00    1.31060   1.28945   -1.000
 5533.00    1.30854   1.28617   -1.000
 5534.00    1.29994   1.28189  143.377
 5535.00    1.29937   1.28162  142.349
 5536.00    1.30378   1.28606  142.008
 5537.00    1.30976   1.29216  141.165
 5538.00    1.31860   1.29727   -1.000
 5539.00    1.32232   1.30075   -1.000
 5540.00    1.32454   1.30266   -1.000
 5541.00    1.32510   1.30275   -1.000
 5542.00    1.32158   1.30087   -1.000
 5543.00    1.31683   1.29809   -1.000
 5544.00    1.31306   1.29636  141.849
 5545.00    1.31634   1.29660   -1.000
 5546.00    1.32188   1.29834   -1.000
 5547.00    1.32462   1.30125   -1.000
 5548.00    1.32629   1.30508   -1.000
 5549.00    1.32463   1.30841  138.029
 5550.00    1.32613   1.30955  138.970
 5551.00    1.32899   1.30855   -1.000
 5552.00    1.32831   1.30672   -1.000
 5553.00    1.32253   1.30514  142.103
 5554.00    1.31810   1.30408  141.762
 5555.00    1.31758   1.30372  141.350
 5556.00    1.32229   1.30407  141.145
 5557.00    1.32519   1.30481   -1.000
 5558.00    1.32534   1.30557   -1.000
 5559.00    1.32498   1.30618  141.392
 5560.00    1.32616   1.30612   -1.000
 5561.00    1.32408   1.30453   -1.000
 5562.00    1.31507   1.30176  144.544
 5563.00    1.31296   1.29933  144.877
 5564.00    1.31323   1.29797  145.131
 5565.00    1.31546   1.29683  145.152
 5566.00    1.31184   1.29498  144.808
 5567.00    1.30891   1.29249  144.691
 5568.00    1.30796   1.28994  145.043
 5569.00    1.30241   1.28787  144.914
 5570.00    1.30151   1.28612  145.051
 5571.00    1.30813   1.28365   -1.000
 5572.00    1.32183   1.28133   -1.000
 5573.00    1.38273   1.28179   -1.000
 5574.00    1.55930   1.28535   -1.000
 5575.00    1.84653   1.29012   -1.000
 5576.00    2.01095   1.29450   -1.000
 5577.00    1.90384   1.29825   -1.000
 5578.00    1.62731   1.30155   -1.000
 5579.00    1.39645   1.30374   -1.000
 5580.00    1.33655   1.30384   -1.000
 5581.00    1.32618   1.30233   -1.000
 5582.00    1.31915   1.30098  142.993
 5583.00    1.31770   1.29969  144.518
 5584.00    1.31213   1.29540  148.074
 5585.00    1.30144   1.28537  151.747
 5586.00    1.28348   1.27137  154.530
 5587.00    1.26909   1.25918  154.723
 5588.00    1.26538   1.25390  152.396
 5589.00    1.27058   1.25688  149.734
 5590.00    1.28302   1.26556  148.122
 5591.00    1.29514   1.27507   -1.000
 5592.00    1.30270   1.28095   -1.000
 5593.00    1.29946   1.28281  147.011
 5594.00    1.29637   1.28412  145.025
 5595.00    1.30258   1.28734  144.580
 5596.00    1.30892   1.28996  146.481
 5597.00    1.30588   1.28823  148.880
 5598.00    1.29921   1.28333  149.919
 5599.00    1.29746   1.27847  149.932
 5600.00    1.29816   1.27417   -1.000
 5601.00    1.29282   1.27094   -1.000
 5602.00    1.28851   1.27201  147.500
 5603.00    1.29657   1.27977  143.508
 5604.00    1.31525   1.29231   -1.000
 5605.00    1.32990   1.30476   -1.000
 5606.00    1.33620   1.31328   -1.000
 5607.00    1.33759   1.31740   -1.000
 5608.00    1.33461   1.31887  139.918
 5609.00    1.33497   1.31960  139.658
 5610.00    1.33593   1.32031  139.488
 5611.00    1.33704   1.31959  140.843
 5612.00    1.33419   1.31446   -1.000
 5613.00    1.31961   1.30311  149.273
 5614.00    1.30015   1.28839  151.304
 5615.00    1.28800   1.27835  149.007
 5616.00    1.29234   1.27944  145.657
 5617.00    1.30563   1.28925  144.249
 5618.00    1.31895   1.29997  143.961
 5619.00    1.32609   1.30651  143.246
 5620.00    1.32846   1.30910  142.886
 5621.00    1.33110   1.30951   -1.000
 5622.00    1.32757   1.30781   -1.000
 5623.00    1.31864   1.30386  149.021
 5624.00    1.30997   1.29977  147.560
 5625.00    1.30854   1.29869  145.016
 5626.00    1.31644   1.30162  143.081
 5627.00    1.32631   1.30647  141.619
 5628.00    1.33472   1.31085   -1.000
 5629.00    1.33954   1.31400   -1.000
 5630.00    1.34157   1.31576   -1.000
 5631.00    1.33652   1.31608   -1.000
 5632.00    1.33581   1.31520   -1.000
 5633.00    1.33669   1.31385   -1.000
 5634.00    1.33254   1.31253   -1.000
 5635.00    1.32860   1.31072  144.609
 5636.00    1.32575   1.30813  145.316
 5637.00    1.32385   1.30561  145.193
 5638.00    1.32544   1.30389   -1.000
 5639.00    1.32237   1.30258   -1.000
 5640.00    1.32114   1.30124   -1.000
 5641.00    1.32127   1.30052   -1.000
 5642.00    1.32302   1.30143   -1.000
 5643.00    1.32906   1.30365   -1.000
 5644.00    1.33400   1.30583   -1.000
 5645.00    1.33544   1.30727   -1.000
 5646.00    1.33297   1.30808   -1.000
 5647.00    1.33337   1.30854   -1.000
 5648.00    1.33567   1.30887   -1.000
 5649.00    1.33659   1.30915   -1.000
 5650.00    1.33775   1.30975   -1.000
 5651.00    1.33652   1.31094   -1.000
 5652.00    1.33215   1.31213   -1.000
 5653.00    1.32988   1.31222  143.178
 5654.00    1.33054   1.30991   -1.000
 5655.00    1.32689   1.30340   -1.000
 5656.00    1.31768   1.29194   -1.000
 5657.00    1.30176   1.27920   -1.000
 5658.00    1.28807   1.27233  150.470
 5659.00    1.29161   1.27468  147.865
 5660.00    1.30537   1.28220   -1.000
 5661.00    1.31681   1.28877   -1.000
 5662.00    1.31796   1.29333   -1.000
 5663.00    1.32384   1.29899   -1.000
 5664.00    1.33282   1.30541   -1.000
 5665.00    1.33202   1.30814   -1.000
 5666.00    1.33065   1.30535   -1.000
 5667.00    1.32797   1.30026   -1.000
 5668.00    1.32544   1.29739   -1.000
 5669.00    1.32634   1.29847   -1.000
 5670.00    1.32721   1.30219   -1.000
 5671.00    1.33432   1.30659   -1.000
 5672.00    1.34311   1.31048   -1.000
 5673.00    1.34809   1.31326   -1.000
 5674.00    1.34748   1.31487   -1.000
 5675.00    1.34285   1.31587   -1.000
 5676.00    1.34388   1.31672   -1.000
 5677.00    1.34323   1.31719   -1.000
 5678.00    1.33786   1.31663   -1.000
 5679.00    1.33974   1.31457   -1.000
 5680.00    1.33990   1.31069   -1.000
 5681.00    1.33461   1.30509   -1.000
 5682.00    1.32834   1.29907   -1.000
 5683.00    1.32525   1.29516   -1.000
 5684.00    1.32506   1.29512   -1.000
 5685.00    1.32856   1.29780   -1.000
 5686.00    1.32975   1.30013   -1.000
 5687.00    1.32798   1.30040   -1.000
 5688.00    1.32874   1.29964   -1.000
 5689.00    1.33424   1.30012   -1.000
 5690.00    1.33950   1.30317   -1.000
 5691.00    1.34579   1.30801   -1.000
 5692.00    1.34779   1.31261   -1.000
 5693.00    1.35026   1.31548   -1.000
 5694.00    1.34829   1.31660   -1.000
 5695.00    1.34525   1.31665   -1.000
 5696.00    1.34233   1.31592   -1.000
 5697.00    1.33685   1.31413   -1.000
 5698.00    1.33211   1.31098   -1.000
 5699.00    1.32717   1.30682   -1.000
 5700.00    1.32040   1.30281   -1.000
 5701.00    1.31925   1.30048   -1.000
 5702.00    1.31463   1.30095  144.693
 5703.00    1.31613   1.30352  144.853
 5704.00    1.32310   1.30566  146.271
 5705.00    1.32322   1.30504   -1.000
 5706.00    1.31610   1.30090  151.349
 5707.00    1.30649   1.29389  153.215
 5708.00    1.29831   1.28595  153.585
 5709.00    1.29025   1.27989  152.748
 5710.00    1.29045   1.27835  150.588
 5711.00    1.30002   1.28239  147.142
 5712.00    1.31583   1.29044   -1.000
 5713.00    1.33097   1.29918   -1.000
 5714.00    1.33709   1.30589   -1.000
 5715.00    1.33969   1.31020   -1.000
 5716.00    1.34129   1.31327   -1.000
 5717.00    1.34070   1.31580   -1.000
 5718.00    1.34018   1.31798   -1.000
 5719.00    1.34386   1.32003   -1.000
 5720.00    1.34892   1.32188   -1.000
 5721.00    1.35050   1.32316   -1.000
 5722.00    1.35124   1.32391   -1.000
 5723.00    1.35018   1.32423   -1.000
 5724.00    1.34924   1.32342   -1.000
 5725.00    1.34691   1.32061   -1.000
 5726.00    1.34261   1.31654   -1.000
 5727.00    1.34046   1.31346   -1.000
 5728.00    1.34220   1.31274   -1.000
 5729.00    1.34104   1.31384   -1.000
 5730.00    1.34042   1.31540   -1.000
 5731.00    1.34261   1.31675   -1.000
 5732.00    1.34260   1.31833   -1.000
 5733.00    1.34556   1.32080   -1.000
 5734.00    1.34713   1.32350   -1.000
 5735.00    1.34779   1.32508   -1.000
 5736.00    1.35070   1.32544   -1.000
 5737.00    1.34862   1.32528   -1.000
 5738.00    1.34449   1.32495   -1.000
 5739.00    1.34244   1.32479   -1.000
 5740.00    1.34204   1.32482  140.795
 5741.00    1.34164   1.32462  140.451
 5742.00    1.34501   1.32425   -1.000
 5743.00    1.34454   1.32449   -1.000
 5744.00    1.34489   1.32556   -1.000
 5745.00    1.34705   1.32637   -1.000
 5746.00    1.34541   1.32583   -1.000
 5747.00    1.34072   1.32448  141.079
 5748.00    1.34028   1.32401  140.241
 5749.00    1.34512   1.32478   -1.000
 5750.00    1.34608   1.32503   -1.000
 5751.00    1.34184   1.32289   -1.000
 5752.00    1.33267   1.31866  144.418
 5753.00    1.32785   1.31512  143.673
 5754.00    1.32713   1.31539  141.406
 5755.00    1.33288   1.31985  139.010
 5756.00    1.34572   1.32606   -1.000
 5757.00    1.35105   1.33121   -1.000
 5758.00    1.35079   1.33338   -1.000
 5759.00    1.34872   1.33174   -1.000
 5760.00    1.34397   1.32711  144.294
 5761.00    1.33554   1.32200  144.168
 5762.00    1.33270   1.31965  142.076
 5763.00    1.33655   1.32203  139.709
 5764.00    1.33999   1.32775  138.490
 5765.00    1.34720   1.33298  138.265
 5766.00    1.35321   1.33532   -1.000
 5767.00    1.35628   1.33543   -1.000
 5768.00    1.35355   1.33474   -1.000
 5769.00    1.34910   1.33391  138.985
 5770.00    1.34714   1.33296  139.820
 5771.00    1.34375   1.33181  140.531
 5772.00    1.34396   1.33029  140.772
 5773.00    1.34249   1.32808  140.787
 5774.00    1.34235   1.32540  140.315
 5775.00    1.33967   1.32330  139.753
 5776.00    1.33611   1.32233  139.864
 5777.00    1.32563   1.32129  140.853
 5778.00    1.30748   1.31879  143.425
 5779.00    1.29683   1.31481  146.347
 5780.00    1.30234   1.31034  147.415
 5781.00    1.31533   1.30675  146.862
 5782.00    1.32357   1.30521  146.298
 5783.00    1.32899   1.30582   -1.000
 5784.00    1.33245   1.30763   -1.000
 5785.00    1.33459   1.30977   -1.000
 5786.00    1.33949   1.31205   -1.000
 5787.00    1.33968   1.31454   -1.000
 5788.00    1.34537   1.31701   -1.000
 5789.00    1.35013   1.31890   -1.000
 5790.00    1.34668   1.31989   -1.000
 5791.00    1.34176   1.32095   -1.000
 5792.00    1.34144   1.32348   -1.000
 5793.00    1.34652   1.32754   -1.000
 5794.00    1.34283   1.33150  138.601
 5795.00    1.33891   1.33333  139.532
 5796.00    1.34031   1.33242  139.926
 5797.00    1.34538   1.33049  138.752
 5798.00    1.34964   1.33021   -1.000
 5799.00    1.35508   1.33246   -1.000
 5800.00    1.35942   1.33574   -1.000
 5801.00    1.36153   1.33808   -1.000
 5802.00    1.36412   1.33847   -1.000
 5803.00    1.35774   1.33718   -1.000
 5804.00    1.35286   1.33566   -1.000
 5805.00    1.35193   1.33540   -1.000
 5806.00    1.35375   1.33661   -1.000
 5807.00    1.35728   1.33842   -1.000
 5808.00    1.35692   1.33976   -1.000
 5809.00    1.35901   1.34044   -1.000
 5810.00    1.36425   1.34101   -1.000
 5811.00    1.36759   1.34158   -1.000
 5812.00    1.36889   1.34149   -1.000
 5813.00    1.36950   1.34012   -1.000
 5814.00    1.36573   1.33774   -1.000
 5815.00    1.36162   1.33566   -1.000
 5816.00    1.36218   1.33540   -1.000
 5817.00    1.36646   1.33730   -1.000
 5818.00    1.37087   1.34003   -1.000
 5819.00    1.37372   1.34212   -1.000
 5820.00    1.37247   1.34334   -1.000
 5821.00    1.37025   1.34413   -1.000
 5822.00    1.37176   1.34458   -1.000
 5823.00    1.37104   1.34455   -1.000
 5824.00    1.37244   1.34427   -1.000
 5825.00    1.37706   1.34437   -1.000
 5826.00    1.37722   1.34520   -1.000
 5827.00    1.37549   1.34661   -1.000
 5828.00    1.37388   1.34809   -1.000
 5829.00    1.37494   1.34895   -1.000
 5830.00    1.37948   1.34878   -1.000
 5831.00    1.37938   1.34786   -1.000
 5832.00    1.37679   1.34663   -1.000
 5833.00    1.37438   1.34525   -1.000
 5834.00    1.37209   1.34415   -1.000
 5835.00    1.37637   1.34397   -1.000
 5836.00    1.37779   1.34481   -1.000
 5837.00    1.37514   1.34628   -1.000
 5838.00    1.37796   1.34796   -1.000
 5839.00    1.38283   1.34943   -1.000
 5840.00    1.38189   1.35018   -1.000
 5841.00    1.37560   1.34986   -1.000
 5842.00    1.37288   1.34841   -1.000
 5843.00    1.37424   1.34606   -1.000
 5844.00    1.37516   1.34351   -1.000
 5845.00    1.37733   1.34147   -1.000
 5846.00    1.36893   1.34014   -1.000
 5847.00    1.36728   1.33939   -1.000
 5848.00    1.36824   1.33877   -1.000
 5849.00    1.37126   1.33757   -1.000
 5850.00    1.37118   1.33496   -1.000
 5851.00    1.36489   1.33042   -1.000
 5852.00    1.35406   1.32481   -1.000
 5853.00    1.34607   1.32040   -1.000
 5854.00    1.34679   1.31800   -1.000
 5855.00    1.34720   1.31549   -1.000
 5856.00    1.34736   1.31107   -1.000
 5857.00    1.34815   1.30693   -1.000
 5858.00    1.34912   1.30700   -1.000
 5859.00    1.35417   1.31202   -1.000
 5860.00    1.36273   1.31886   -1.000
 5861.00    1.36426   1.32432   -1.000
 5862.00    1.36668   1.32756   -1.000
 5863.00    1.37382   1.32891   -1.000
 5864.00    1.37491   1.32841   -1.000
 5865.00    1.37144   1.32641   -1.000
 5866.00    1.37167   1.32458   -1.000
 5867.00    1.37390   1.32503   -1.000
 5868.00    1.37478   1.32816   -1.000
 5869.00    1.37960   1.33221   -1.000
 5870.00    1.38331   1.33496   -1.000
 5871.00    1.38083   1.33539   -1.000
 5872.00    1.37872   1.33389   -1.000
 5873.00    1.38064   1.33140   -1.000
 5874.00    1.38286   1.32867   -1.000
 5875.00    1.38065   1.32639   -1.000
 5876.00    1.37492   1.32495   -1.000
 5877.00    1.37154   1.32360   -1.000
 5878.00    1.37190   1.32135   -1.000
 5879.00    1.37032   1.31853   -1.000
 5880.00    1.36672   1.31620   -1.000
 5881.00    1.36541   1.31438   -1.000
 5882.00    1.36468   1.31213   -1.000
 5883.00    1.36041   1.30872   -1.000
 5884.00    1.35509   1.30404   -1.000
 5885.00    1.33744   1.29701   -1.000
 5886.00    1.29684   1.28355  152.769
 5887.00    1.24244   1.25850   -1.000
 5888.00    1.20530   1.22413   -1.000
 5889.00    1.20660   1.19508  170.759
 5890.00    1.23305   1.18749   -1.000
 5891.00    1.25534   1.20189   -1.000
 5892.00    1.25537   1.22175   -1.000
 5893.00    1.22567   1.22930  161.243
 5894.00    1.19763   1.22084   -1.000
 5895.00    1.19838   1.20864  161.736
 5896.00    1.23662   1.20849   -1.000
 5897.00    1.28948   1.22432   -1.000
 5898.00    1.32689   1.24707   -1.000
 5899.00    1.34848   1.26717   -1.000
 5900.00    1.35592   1.28201   -1.000
 5901.00    1.35942   1.29276   -1.000
 5902.00    1.36455   1.30051   -1.000
 5903.00    1.36601   1.30576   -1.000
 5904.00    1.36987   1.30900   -1.000
 5905.00    1.37103   1.31100   -1.000
 5906.00    1.37084   1.31241   -1.000
 5907.00    1.37016   1.31363   -1.000
 5908.00    1.36827   1.31490   -1.000
 5909.00    1.36774   1.31598   -1.000
 5910.00    1.36408   1.31611   -1.000
 5911.00    1.36670   1.31454   -1.000
 5912.00    1.36824   1.31099   -1.000
 5913.00    1.36779   1.30619   -1.000
 5914.00    1.36169   1.30193   -1.000
 5915.00    1.35710   1.29997   -1.000
 5916.00    1.35438   1.30059   -1.000
 5917.00    1.35508   1.30289   -1.000
 5918.00    1.35483   1.30576   -1.000
 5919.00    1.35875   1.30837   -1.000
 5920.00    1.36602   1.31023   -1.000
 5921.00    1.36470   1.31138   -1.000
 5922.00    1.36152   1.31217   -1.000
 5923.00    1.36636   1.31333   -1.000
 5924.00    1.37227   1.31549   -1.000
 5925.00    1.37527   1.31818   -1.000
 5926.00    1.37553   1.32010   -1.000
 5927.00    1.37424   1.32012   -1.000
 5928.00    1.36888   1.31817   -1.000
 5929.00    1.36353   1.31588   -1.000
 5930.00    1.36463   1.31529   -1.000
 5931.00    1.36899   1.31655   -1.000
 5932.00    1.37218   1.31800   -1.000
 5933.00    1.37201   1.31812   -1.000
 5934.00    1.36877   1.31708   -1.000
 5935.00    1.36660   1.31643   -1.000
 5936.00    1.36579   1.31728   -1.000
 5937.00    1.36397   1.31864   -1.000
 5938.00    1.36295   1.31843   -1.000
 5939.00    1.36227   1.31598   -1.000
 5940.00    1.35953   1.31269   -1.000
 5941.00    1.35916   1.31033   -1.000
 5942.00    1.36256   1.30980   -1.000
 5943.00    1.36259   1.31120   -1.000
 5944.00    1.36375   1.31361   -1.000
 5945.00    1.36683   1.31533   -1.000
 5946.00    1.36249   1.31530   -1.000
 5947.00    1.35790   1.31410   -1.000
 5948.00    1.35469   1.31351   -1.000
 5949.00    1.35579   1.31458   -1.000
 5950.00    1.36312   1.31635   -1.000
 5951.00    1.36839   1.31748   -1.000
 5952.00    1.36771   1.31787   -1.000
 5953.00    1.36467   1.31768   -1.000
 5954.00    1.36237   1.31657   -1.000
 5955.00    1.35700   1.31462   -1.000
 5956.00    1.35057   1.31299   -1.000
 5957.00    1.34968   1.31321   -1.000
 5958.00    1.35513   1.31577   -1.000
 5959.00    1.36361   1.31973   -1.000
 5960.00    1.36993   1.32361   -1.000
 5961.00    1.37220   1.32630   -1.000
 5962.00    1.37503   1.32726   -1.000
 5963.00    1.37231   1.32639   -1.000
 5964.00    1.36596   1.32423   -1.000
 5965.00    1.36210   1.32191   -1.000
 5966.00    1.36196   1.32068   -1.000
 5967.00    1.36289   1.32102   -1.000
 5968.00    1.36677   1.32246   -1.000
 5969.00    1.36863   1.32428   -1.000
 5970.00    1.36751   1.32588   -1.000
 5971.00    1.36760   1.32676   -1.000
 5972.00    1.36646   1.32669   -1.000
 5973.00    1.36446   1.32587   -1.000
 5974.00    1.36216   1.32421   -1.000
 5975.00    1.35700   1.32168   -1.000
 5976.00    1.35609   1.31919   -1.000
 5977.00    1.36094   1.31815   -1.000
 5978.00    1.35967   1.31926   -1.000
 5979.00    1.35714   1.32181   -1.000
 5980.00    1.35989   1.32400   -1.000
 5981.00    1.35997   1.32416   -1.000
 5982.00    1.35866   1.32197   -1.000
 5983.00    1.35272   1.31888   -1.000
 5984.00    1.34851   1.31711   -1.000
 5985.00    1.35080   1.31780   -1.000
 5986.00    1.35392   1.32019   -1.000
 5987.00    1.35562   1.32280   -1.000
 5988.00    1.35771   1.32458   -1.000
 5989.00    1.35700   1.32512   -1.000
 5990.00    1.35508   1.32501   -1.000
 5991.00    1.35564   1.32582   -1.000
 5992.00    1.35767   1.32861   -1.000
 5993.00    1.35860   1.33249   -1.000
 5994.00    1.35878   1.33523   -1.000
 5995.00    1.36036   1.33541   -1.000
 5996.00    1.35889   1.33367   -1.000
 5997.00    1.35568   1.33183   -1.000
 5998.00    1.35530   1.33108   -1.000
 5999.00    1.35702   1.33099   -1.000
 6000.00    1.35763   1.33048   -1.000
 6001.00    1.35507   1.32921   -1.000
 6002.00    1.35306   1.32777   -1.000
 6003.00    1.35285   1.32671   -1.000
 6004.00    1.35080   1.32565   -1.000
 6005.00    1.34577   1.32357   -1.000
 6006.00    1.34479   1.32049   -1.000
 6007.00    1.34180   1.31810   -1.000
 6008.00    1.33782   1.31845   -1.000
 6009.00    1.33982   1.32163   -1.000
 6010.00    1.34442   1.32536   -1.000
 6011.00    1.34889   1.32741   -1.000
 6012.00    1.34846   1.32781   -1.000
 6013.00    1.34721   1.32798   -1.000
 6014.00    1.35098   1.32853   -1.000
 6015.00    1.34960   1.32876   -1.000
 6016.00    1.34666   1.32807   -1.000
 6017.00    1.34669   1.32669   -1.000
 6018.00    1.34923   1.32499   -1.000
 6019.00    1.34661   1.32329   -1.000
 6020.00    1.34317   1.32210   -1.000
 6021.00    1.34339   1.32164   -1.000
 6022.00    1.34115   1.32195   -1.000
 6023.00    1.34281   1.32339   -1.000
 6024.00    1.34004   1.32618  143.360
 6025.00    1.34070   1.32958  142.807
 6026.00    1.34798   1.33256  141.948
 6027.00    1.35146   1.33473   -1.000
 6028.00    1.35518   1.33622   -1.000
 6029.00    1.35740   1.33714   -1.000
 6030.00    1.35761   1.33779   -1.000
 6031.00    1.35715   1.33850   -1.000
 6032.00    1.35762   1.33944   -1.000
 6033.00    1.36066   1.34078   -1.000
 6034.00    1.35958   1.34242   -1.000
 6035.00    1.35369   1.34348  140.293
 6036.00    1.35428   1.34282  140.750
 6037.00    1.35247   1.34032  141.415
 6038.00    1.35018   1.33698  141.699
 6039.00    1.35214   1.33409   -1.000
 6040.00    1.35280   1.33234   -1.000
 6041.00    1.35174   1.33125   -1.000
 6042.00    1.35248   1.33055   -1.000
 6043.00    1.35211   1.33190   -1.000
 6044.00    1.35478   1.33620   -1.000
 6045.00    1.35538   1.34119  139.632
 6046.00    1.35323   1.34433  139.523
 6047.00    1.35203   1.34531  139.842
 6048.00    1.34904   1.34484  140.294
 6049.00    1.35022   1.34362  140.511
 6050.00    1.35572   1.34234  140.678
 6051.00    1.35452   1.34139  141.086
 6052.00    1.35271   1.34062  141.637
 6053.00    1.35135   1.33967  142.189
 6054.00    1.35267   1.33831  142.882
 6055.00    1.35223   1.33675  143.003
 6056.00    1.34678   1.33550  142.495
 6057.00    1.34916   1.33483  141.704
 6058.00    1.35386   1.33487   -1.000
 6059.00    1.35451   1.33557   -1.000
 6060.00    1.35247   1.33603   -1.000
 6061.00    1.34508   1.33463  145.173
 6062.00    1.32177   1.33032  144.982
 6063.00    1.31385   1.32399  164.993
 6064.00    1.30148   1.31859   93.238
 6065.00    1.03806   1.31733   -1.000
 6066.00    0.69473   1.32126   -1.000
 6067.00    0.96554   1.32829   -1.000
 6068.00    1.34864   1.33503  140.313
 6069.00    1.33192   1.33963  136.970
 6070.00    1.32525   1.34226  137.227
 6071.00    1.30396   1.34379   -1.000
 6072.00    1.31641   1.34475   -1.000
 6073.00    1.35845   1.34505  140.462
 6074.00    1.35069   1.34429  141.077
 6075.00    1.35058   1.34240  141.860
 6076.00    1.34698   1.33987  142.793
 6077.00    1.34467   1.33757  143.840
 6078.00    1.34453   1.33600  144.374
 6079.00    1.34261   1.33494  144.402
 6080.00    1.34182   1.33380  144.663
 6081.00    1.34117   1.33230  144.936
 6082.00    1.33972   1.33098  144.842
 6083.00    1.33605   1.33059  144.715
 6084.00    1.33513   1.33133  144.451
 6085.00    1.33778   1.33282  143.940
 6086.00    1.34090   1.33469  143.689
 6087.00    1.34210   1.33636  144.292
 6088.00    1.33797   1.33696  145.109
 6089.00    1.33719   1.33596  145.418
 6090.00    1.33827   1.33404  144.940
 6091.00    1.33769   1.33280  144.020
 6092.00    1.34002   1.33332  143.293
 6093.00    1.34277   1.33538  142.542
 6094.00    1.34384   1.33802  142.211
 6095.00    1.34455   1.34051  142.444
 6096.00    1.34562   1.34263  142.715
 6097.00    1.34119   1.34402  142.746
 6098.00    1.33752   1.34363  143.426
 6099.00    1.33539   1.33996  146.022
 6100.00    1.33191   1.33232  149.277
 6101.00    1.31841   1.32243  150.143
 6102.00    1.30804   1.31491  148.044
 6103.00    1.31243   1.31400  145.335
 6104.00    1.32231   1.31947  143.889
 6105.00    1.33016   1.32733  143.951
 6106.00    1.33482   1.33407  144.498
 6107.00    1.33367   1.33883  144.659
 6108.00    1.33014   1.34196  144.463
 6109.00    1.33214   1.34355  144.001
 6110.00    1.33521   1.34355  143.582
 6111.00    1.34074   1.34265  143.316
 6112.00    1.34099   1.34201  142.644
 6113.00    1.33881   1.34219  142.709
 6114.00    1.33794   1.34277  143.496
 6115.00    1.33289   1.34315  144.172
 6116.00    1.33053   1.34283  144.501
 6117.00    1.33004   1.34044  145.819
 6118.00    1.33106   1.33400  147.972
 6119.00    1.32159   1.32364  149.651
 6120.00    1.31414   1.31227  150.511
 6121.00    1.30800   1.30419  149.477
 6122.00    1.30173   1.30371  147.046
 6123.00    1.30700   1.31121  145.971
 6124.00    1.31576   1.32171  146.441
 6125.00    1.32193   1.32976  146.935
 6126.00    1.32568   1.33337  146.592
 6127.00    1.32507   1.33362  145.917
 6128.00    1.32207   1.33364  144.568
 6129.00    1.32358   1.33629  143.628
 6130.00    1.32850   1.34117  143.658
 6131.00    1.33174   1.34518  144.411
 6132.00    1.32815   1.34538  146.642
 6133.00    1.32194   1.33966  150.550
 6134.00    1.30813   1.32702  154.825
 6135.00    1.28746   1.31014  157.251
 6136.00    1.27239   1.29659   -1.000
 6137.00    1.26927   1.29323  151.155
 6138.00    1.28176   1.29900  147.939
 6139.00    1.29755   1.30630  147.297
 6140.00    1.29842   1.30996  147.684
 6141.00    1.29703   1.31218  147.192
 6142.00    1.30063   1.31733  145.439
 6143.00    1.31028   1.32527  144.313
 6144.00    1.32339   1.33214  144.592
 6145.00    1.32591   1.33506  145.424
 6146.00    1.32081   1.33409  146.418
 6147.00    1.31723   1.33091  147.405
 6148.00    1.31758   1.32762  147.896
 6149.00    1.31986   1.32604  147.606
 6150.00    1.31930   1.32683  146.821
 6151.00    1.31640   1.32918  146.104
 6152.00    1.31656   1.33142  146.591
 6153.00    1.31893   1.33208  147.754
 6154.00    1.31921   1.33076  148.181
 6155.00    1.31987   1.32832  148.448
 6156.00    1.31942   1.32572  149.518
 6157.00    1.31622   1.32285  151.710
 6158.00    1.31234   1.31786  155.417
 6159.00    1.30343   1.30799  160.211
 6160.00    1.28714   1.29294  163.542
 6161.00    1.27244   1.27799  163.171
 6162.00    1.26499   1.27074  159.559
 6163.00    1.26833   1.27402  155.827
 6164.00    1.28158   1.28352  154.348
 6165.00    1.29234   1.29272  154.251
 6166.00    1.29595   1.29789  155.402
 6167.00    1.29390   1.29855  157.385
 6168.00    1.28836   1.29632  157.761
 6169.00    1.28366   1.29450  155.557
 6170.00    1.28739   1.29622  152.757
 6171.00    1.29526   1.30159  151.673
 6172.00    1.30021   1.30797  152.000
 6173.00    1.30173   1.31328  151.879
 6174.00    1.30339   1.31730  151.501
 6175.00    1.30923   1.32019  151.175
 6176.00    1.31115   1.32193  150.607
 6177.00    1.30732   1.32280  149.916
 6178.00    1.30454   1.32314  149.425
 6179.00    1.30683   1.32337  148.856
 6180.00    1.31163   1.32411  148.275
 6181.00    1.31250   1.32547  148.218
 6182.00    1.31392   1.32677  148.670
 6183.00    1.31628   1.32747  149.488
 6184.00    1.31451   1.32730  150.935
 6185.00    1.31102   1.32580  152.585
 6186.00    1.30738   1.32265  154.095
 6187.00    1.30177   1.31779  155.401
 6188.00    1.30051   1.31079  156.882
 6189.00    1.29593   1.30194  158.593
 6190.00    1.28309   1.29414  158.293
 6191.00    1.27658   1.29185  155.345
 6192.00    1.28371   1.29699  151.888
 6193.00    1.29589   1.30663  150.222
 6194.00    1.30445   1.31589  149.715
 6195.00    1.30740   1.32192  150.054
 6196.00    1.30988   1.32435  151.474
 6197.00    1.30724   1.32352  153.072
 6198.00    1.29863   1.32064   -1.000
 6199.00    1.29555   1.31849   -1.000
 6200.00    1.29494   1.31942   -1.000
 6201.00    1.29307   1.32304   -1.000
 6202.00    1.29959   1.32728   -1.000
 6203.00    1.30596   1.33052   -1.000
 6204.00    1.31158   1.33243  149.323
 6205.00    1.31455   1.33351  149.601
 6206.00    1.31348   1.33423  149.978
 6207.00    1.31396   1.33455  150.189
 6208.00    1.31650   1.33408  151.243
 6209.00    1.31279   1.33242  152.601
 6210.00    1.30611   1.32930   -1.000
 6211.00    1.30238   1.32448   -1.000
 6212.00    1.29645   1.31834   -1.000
 6213.00    1.29003   1.31254   -1.000
 6214.00    1.29009   1.30894   -1.000
 6215.00    1.29478   1.30766  156.403
 6216.00    1.29735   1.30706  156.660
 6217.00    1.29497   1.30570  157.240
 6218.00    1.28977   1.30386  156.203
 6219.00    1.29081   1.30307  155.948
 6220.00    1.29784   1.30445  161.615
 6221.00    1.30437   1.30737  167.039
 6222.00    1.30647   1.31005  158.750
 6223.00    1.30503   1.31167  154.460
 6224.00    1.30775   1.31274  154.916
 6225.00    1.30725   1.31344  155.291
 6226.00    1.30550   1.31265  156.798
 6227.00    1.29918   1.30861  159.251
 6228.00    1.28972   1.30081  161.662
 6229.00    1.27956   1.29154  162.459
 6230.00    1.27429   1.28527  160.799
 6231.00    1.27787   1.28555  158.049
 6232.00    1.28922   1.29218  155.192
 6233.00    1.30493   1.30156  153.505
 6234.00    1.31397   1.30927  153.711
 6235.00    1.31786   1.31262  155.110
 6236.00    1.31659   1.31147  156.713
 6237.00    1.31146   1.30775  158.336
 6238.00    1.30697   1.30386  159.585
 6239.00    1.30083   1.30147  159.833
 6240.00    1.29476   1.30061  160.264
 6241.00    1.29189   1.29981  161.511
 6242.00    1.28611   1.29750  162.032
 6243.00    1.28214   1.29356  161.419
 6244.00    1.28248   1.28958  160.069
 6245.00    1.27893   1.28791  158.240
 6246.00    1.27741   1.29030  156.350
 6247.00    1.28260   1.29623  155.402
 6248.00    1.28783   1.30262  156.068
 6249.00    1.28920   1.30572  158.274
 6250.00    1.28710   1.30348  160.896
 6251.00    1.27934   1.29709  162.386
 6252.00    1.26821   1.29034   -1.000
 6253.00    1.26288   1.28656   -1.000
 6254.00    1.26512   1.28615   -1.000
 6255.00    1.27241   1.28723  165.523
 6256.00    1.27644   1.28818  166.014
 6257.00    1.27661   1.28936  164.327
 6258.00    1.27755   1.29221  161.729
 6259.00    1.27802   1.29705   -1.000
 6260.00    1.28324   1.30268   -1.000
 6261.00    1.28998   1.30775  155.400
 6262.00    1.28940   1.31142   -1.000
 6263.00    1.28753   1.31320   -1.000
 6264.00    1.28735   1.31352   -1.000
 6265.00    1.28419   1.31374   -1.000
 6266.00    1.28369   1.31459   -1.000
 6267.00    1.28705   1.31522   -1.000
 6268.00    1.28731   1.31461   -1.000
 6269.00    1.28512   1.31306   -1.000
 6270.00    1.28521   1.31152   -1.000
 6271.00    1.28855   1.31001   -1.000
 6272.00    1.28631   1.30729   -1.000
 6273.00    1.27720   1.30185   -1.000
 6274.00    1.26324   1.29337   -1.000
 6275.00    1.24509   1.28319   -1.000
 6276.00    1.22854   1.27368   -1.000
 6277.00    1.21748   1.26705   -1.000
 6278.00    1.21426   1.26429   -1.000
 6279.00    1.21406   1.26527   -1.000
 6280.00    1.21233   1.26976   -1.000
 6281.00    1.21412   1.27742   -1.000
 6282.00    1.22438   1.28699   -1.000
 6283.00    1.24049   1.29643   -1.000
 6284.00    1.25755   1.30396   -1.000
 6285.00    1.27398   1.30899   -1.000
 6286.00    1.28332   1.31189   -1.000
 6287.00    1.28553   1.31285   -1.000
 6288.00    1.28596   1.31176   -1.000
 6289.00    1.28439   1.30921   -1.000
 6290.00    1.28160   1.30655   -1.000
 6291.00    1.28007   1.30474   -1.000
 6292.00    1.28227   1.30355  158.491
 6293.00    1.28929   1.30202  159.203
 6294.00    1.30091   1.29940  160.433
 6295.00    1.32552   1.29571   -1.000
 6296.00    1.37106   1.29205   -1.000
 6297.00    1.43991   1.28987   -1.000
 6298.00    1.52187   1.28954   -1.000
 6299.00    1.55724   1.28999   -1.000
 6300.00    1.50066   1.29034   -1.000
 6301.00    1.39288   1.29145   -1.000
 6302.00    1.31662   1.29466   -1.000
 6303.00    1.29237   1.29957  157.768
 6304.00    1.29339   1.30434  156.146
 6305.00    1.30013   1.30784  154.810
 6306.00    1.30377   1.31047  153.904
 6307.00    1.30094   1.31284  154.157
 6308.00    1.29480   1.31488  155.061
 6309.00    1.29224   1.31622   -1.000
 6310.00    1.29085   1.31652   -1.000
 6311.00    1.29176   1.31562   -1.000
 6312.00    1.28799   1.31376   -1.000
 6313.00    1.28245   1.31138   -1.000
 6314.00    1.27840   1.30897   -1.000
 6315.00    1.27167   1.30677   -1.000
 6316.00    1.27207   1.30472   -1.000
 6317.00    1.27418   1.30348   -1.000
 6318.00    1.27475   1.30458   -1.000
 6319.00    1.28146   1.30839   -1.000
 6320.00    1.28967   1.31317   -1.000
 6321.00    1.29242   1.31727   -1.000
 6322.00    1.29417   1.32071   -1.000
 6323.00    1.29868   1.32397   -1.000
 6324.00    1.30806   1.32669  152.442
 6325.00    1.31418   1.32813  152.077
 6326.00    1.31545   1.32826  151.666
 6327.00    1.31849   1.32778  151.867
 6328.00    1.31893   1.32737  151.962
 6329.00    1.31792   1.32758  151.772
 6330.00    1.31738   1.32849  151.306
 6331.00    1.31302   1.32918  151.381
 6332.00    1.31017   1.32784  151.823
 6333.00    1.30429   1.32335  153.607
 6334.00    1.29007   1.31697   -1.000
 6335.00    1.27956   1.31218   -1.000
 6336.00    1.28491   1.31189   -1.000
 6337.00    1.29457   1.31578  152.181
 6338.00    1.30158   1.32122  150.916
 6339.00    1.30975   1.32586  150.244
 6340.00    1.31473   1.32864  149.881
 6341.00    1.31236   1.32931  150.617
 6342.00    1.31253   1.32802  151.550
 6343.00    1.31338   1.32553  151.390
 6344.00    1.31513   1.32319  150.756
 6345.00    1.31920   1.32220  149.804
 6346.00    1.32426   1.32321  148.955
 6347.00    1.32532   1.32636  148.694
 6348.00    1.32534   1.33095  148.601
 6349.00    1.32479   1.33537  148.455
 6350.00    1.32445   1.33787  148.855
 6351.00    1.32679   1.33772  149.548
 6352.00    1.32702   1.33545  150.701
 6353.00    1.32241   1.33231  152.320
 6354.00    1.31931   1.32958  153.035
 6355.00    1.31832   1.32773  153.194
 6356.00    1.31375   1.32615  154.263
 6357.00    1.31527   1.32413  155.619
 6358.00    1.31914   1.32193  155.615
 6359.00    1.33348   1.32029  154.970
 6360.00    1.35630   1.31925   -1.000
 6361.00    1.38160   1.31848   -1.000
 6362.00    1.40211   1.31844   -1.000
 6363.00    1.39983   1.31986   -1.000
 6364.00    1.37335   1.32256   -1.000
 6365.00    1.34561   1.32551   -1.000
 6366.00    1.33295   1.32787  149.771
 6367.00    1.32688   1.32914  149.047
 6368.00    1.32265   1.32884  148.925
 6369.00    1.31959   1.32712  148.783
 6370.00    1.32177   1.32533  148.197
 6371.00    1.32559   1.32517  148.052
 6372.00    1.32771   1.32724  148.383
 6373.00    1.32535   1.33031  148.567
 6374.00    1.32297   1.33250  149.009
 6375.00    1.32086   1.33302  149.670
 6376.00    1.31839   1.33223  150.563
 6377.00    1.31696   1.33066  151.403
 6378.00    1.31438   1.32864  151.733
 6379.00    1.31074   1.32647  151.895
 6380.00    1.30882   1.32471  152.053
 6381.00    1.30809   1.32392  151.822
 6382.00    1.30621   1.32425  151.900
 6383.00    1.30496   1.32528  152.519
 6384.00    1.30484   1.32658  152.620
 6385.00    1.30288   1.32800  152.735
 6386.00    1.30050   1.32933   -1.000
 6387.00    1.29348   1.33012   -1.000
 6388.00    1.28764   1.32985   -1.000
 6389.00    1.28239   1.32802   -1.000
 6390.00    1.27315   1.32405   -1.000
 6391.00    1.26440   1.31826   -1.000
 6392.00    1.25285   1.31297   -1.000
 6393.00    1.24560   1.31146   -1.000
 6394.00    1.24693   1.31480   -1.000
 6395.00    1.25040   1.32028   -1.000
 6396.00    1.24872   1.32351   -1.000
 6397.00    1.24072   1.32183   -1.000
 6398.00    1.22770   1.31643   -1.000
 6399.00    1.21496   1.31172   -1.000
 6400.00    1.20951   1.31197   -1.000
 6401.00    1.21342   1.31772   -1.000
 6402.00    1.21936   1.32564   -1.000
 6403.00    1.22225   1.33168   -1.000
 6404.00    1.22090   1.33365   -1.000
 6405.00    1.21028   1.33153   -1.000
 6406.00    1.19795   1.32701   -1.000
 6407.00    1.19029   1.32270   -1.000
 6408.00    1.18478   1.32084   -1.000
 6409.00    1.17654   1.32147   -1.000
 6410.00    1.16660   1.32265   -1.000
 6411.00    1.15989   1.32323   -1.000
 6412.00    1.15614   1.32379   -1.000
 6413.00    1.15415   1.32484   -1.000
 6414.00    1.15139   1.32611   -1.000
 6415.00    1.14360   1.32734   -1.000
 6416.00    1.13385   1.32804   -1.000
 6417.00    1.12694   1.32703   -1.000
 6418.00    1.11562   1.32354   -1.000
 6419.00    1.10271   1.31886   -1.000
 6420.00    1.09093   1.31609   -1.000
 6421.00    1.08026   1.31775   -1.000
 6422.00    1.07504   1.32344   -1.000
 6423.00    1.07344   1.33045   -1.000
 6424.00    1.07125   1.33617   -1.000
 6425.00    1.06533   1.33956   -1.000
 6426.00    1.05400   1.34024   -1.000
 6427.00    1.04294   1.33754   -1.000
 6428.00    1.03093   1.33141   -1.000
