###################################################################
## OUTPUT of StarlightChains_v04.for    [Cid@UFSC - 01/Apr/2007] ##
###################################################################

## Some input info
NGC5927_a_1.cxt                          [arq_obs]
Base.BC03.S                              [arq_base]
NGC5927_a_1.msk                          [arq_masks]
StCv04.C11.config                        [arq_config]
  150                                    [N_base]
    0                                    [N_YAV_components = # of components with extra extinction!]
    0                                    [i_FitPowerLaw (1/0 = Yes/No)]
-9.99                                    [alpha_PowerLaw]
CCM                                      [red_law_option]
 1.458241                                [q_norm = A(l_norm)/A(V)]

## (Re)Sampling Parameters
 3359.00                                 [l_ini (A)]
 6428.00                                 [l_fin (A)]
    1.00                                 [dl    (A)]     (OBS: dl_cushion =    50.00 A)

## Normalization info
 4020.00                                 [l_norm (A) - for base]
 4010.00                                 [llow_norm (A) - window for f_obs]
 4060.00                                 [lupp_norm (A) - window for f_obs]
6.245917E-15                             [fobs_norm (in input units)]

## S/N
 4730.00                                 [llow_SN (A) - window for S/N]
 4780.00                                 [lupp_SN (A) - window for S/N]
  32.311                                 [S/N in S/N window]
  18.790                                 [S/N in norm. window]
  40.662                                 [S/N_err in S/N window]
  23.646                                 [S/N_err in norm. window]
  1.0000                                 [fscale_chi2]

## etc...
  2147483633                             [idum_orig]
  3068                                   [NOl_eff]
  1725                                   [Nl_eff]
  1343    NSIGMA                         [Ntot_cliped & clip_method]
  2114280                                [Nglobal_steps]
   7                                     [N_chains]
  33                                     [NEX0s_base = N_base in EX0s-fits]
 0   0   1      209   2.0   5.155E+02    [Clip-Bug, RC-Crash & Burn-In warning-flags, n_censored_weights, wei_nsig_threshold & wei_limit]
    67     66.410     66.406      0.004  [idt_all, wdt_TotTime, wdt_UsrTime & wdt_SysTime (sec)]

## Synthesis Results - Best model ##

 1.66411E+00                             [chi2/Nl_eff]
     1.81924                             [adev (%)]

   100.79259                             [sum-of-x (%)]
 3.40123E-14                             [Flux_tot (units of input spectrum!)]
 2.18628E-09                             [Mini_tot (???)]
 1.09506E-09                             [Mcor_tot (???)]

   9.59                                  [v0_min  (km/s)]
  54.04                                  [vd_min  (km/s)]
 1.2560                                  [AV_min  (mag)]
 0.0000                                  [YAV_min (mag)]

# j     x_j(%)      Mini_j(%)     Mcor_j(%)     age_j(yr)     Z_j      (L/M)_j    YAV?  Mstars   component_j        a/Fe...       SSP_chi2r SSP_adev(%)   SSP_AV   SSP_x(%)
  1      3.5138     6.6464E-03    1.3270E-02    1.000000E+06  0.00010  8.160E-03    0   1.0000   age020_m22            0.0000     1.4313E+03    36.1554   4.0000    86.9106
  2     15.9279     5.1659E-03    1.0314E-02    3.160000E+06  0.00010  4.759E-02    0   1.0000   age045_m22            0.0000     2.6503E+02     8.0409   3.5204    96.9161
  3      2.2346     1.7853E-03    3.4153E-03    5.010000E+06  0.00010  1.932E-02    0   0.9582   age055_m22            0.0000     3.5523E+02    13.5514   3.8602    86.1373
  4      0.0006     8.8551E-07    1.6436E-06    6.610000E+06  0.00010  9.973E-03    0   0.9297   age061_m22            0.0000     1.3594E+03    35.9978   4.0000    89.0529
  5      0.0000     0.0000E+00    0.0000E+00    8.710000E+06  0.00010  7.690E-03    0   0.9030   age067_m22            0.0000     1.3269E+03    35.7104   4.0000    89.4803
  6      0.0000     0.0000E+00    0.0000E+00    1.000000E+07  0.00010  6.375E-03    0   0.8902   age070_m22            0.0000     1.3161E+03    35.8632   4.0000    89.6471
  7      0.0000     0.0000E+00    0.0000E+00    1.445000E+07  0.00010  4.874E-03    0   0.8589   age078_m22            0.0000     1.0646E+03    31.6127   4.0000    92.3561
  8      0.0000     0.0000E+00    0.0000E+00    2.512000E+07  0.00010  4.103E-03    0   0.8174   age090_m22            0.0000     6.7124E+02    22.3410   4.0000    96.9012
  9      0.0000     0.0000E+00    0.0000E+00    4.000000E+07  0.00010  3.654E-03    0   0.7830   age104_m22            0.0000     5.4909E+02    16.0144   4.0000    98.9791
 10      0.0000     0.0000E+00    0.0000E+00    5.500000E+07  0.00010  3.093E-03    0   0.7597   age110_m22            0.0000     5.1632E+02    14.0699   4.0000    99.4548
 11      0.0000     0.0000E+00    0.0000E+00    1.015200E+08  0.00010  2.431E-03    0   0.7138   age116_m22            0.0000     4.9086E+02     8.4815   4.0000    98.8086
 12      0.0000     0.0000E+00    0.0000E+00    1.609000E+08  0.00010  1.319E-03    0   0.6775   age120_m22            0.0000     4.6808E+02     7.7232   3.6378    99.7296
 13      0.0000     0.0000E+00    0.0000E+00    2.861200E+08  0.00010  1.075E-03    0   0.6412   age125_m22            0.0000     7.2023E+02     9.0214   3.6766   101.7897
 14      0.0000     0.0000E+00    0.0000E+00    5.088000E+08  0.00010  7.183E-04    0   0.6083   age130_m22            0.0000     7.9594E+02     9.9160   3.4213   103.2266
 15      0.0000     0.0000E+00    0.0000E+00    9.047900E+08  0.00010  4.524E-04    0   0.5785   age135_m22            0.0000     7.9363E+02    10.1454   3.2136   104.3792
 16      0.0000     0.0000E+00    0.0000E+00    1.278050E+09  0.00010  3.018E-04    0   0.5588   age138_m22            0.0000     5.2146E+02     8.3941   2.6799   103.5870
 17      0.0000     0.0000E+00    0.0000E+00    1.434000E+09  0.00010  2.691E-04    0   0.5532   age139_m22            0.0000     4.6790E+02     8.0629   2.5232   103.2177
 18      0.0000     0.0000E+00    0.0000E+00    2.500000E+09  0.00010  1.582E-04    0   0.5296   age150_m22            0.0000     4.4282E+02     7.8520   2.4273   104.0056
 19      0.0000     0.0000E+00    0.0000E+00    4.250000E+09  0.00010  1.007E-04    0   0.5110   age158_m22            0.0000     3.3700E+02     7.0722   2.2802   103.0543
 20      0.0000     0.0000E+00    0.0000E+00    6.250000E+09  0.00010  6.869E-05    0   0.4985   age166_m22            0.0000     2.5213E+02     6.4929   2.2327   100.9877
 21      0.0000     0.0000E+00    0.0000E+00    7.500000E+09  0.00010  5.873E-05    0   0.4931   age171_m22            0.0000     2.4487E+02     6.5294   2.2268   100.5666
 22      0.0000     0.0000E+00    0.0000E+00    1.000000E+10  0.00010  4.481E-05    0   0.4854   age181_m22            0.0000     2.3908E+02     6.4534   2.1856   100.2821
 23      0.0000     0.0000E+00    0.0000E+00    1.300000E+10  0.00010  3.489E-05    0   0.4791   age193_m22            0.0000     2.2600E+02     6.2961   2.1249    99.8763
 24      0.0000     0.0000E+00    0.0000E+00    1.500000E+10  0.00010  3.035E-05    0   0.4766   age201_m22            0.0000     2.1812E+02     6.2060   2.0842    99.7802
 25      0.0000     0.0000E+00    0.0000E+00    1.800000E+10  0.00010  2.510E-05    0   0.4735   age213_m22            0.0000     2.0091E+02     6.0260   2.0162    99.3414
 26      1.7713     3.2325E-03    6.4536E-03    1.000000E+06  0.00040  8.458E-03    0   1.0000   age020_m32            0.0000     1.4271E+03    36.5792   4.0000    87.3926
 27      0.0010     3.8978E-07    7.7820E-07    3.160000E+06  0.00040  3.973E-02    0   1.0000   age045_m32            0.0000     6.2052E+02    20.0382   4.0000    96.6258
 28      0.0000     0.0000E+00    0.0000E+00    5.010000E+06  0.00040  1.935E-02    0   0.9532   age055_m32            0.0000     8.7967E+02    26.0642   4.0000    92.0274
 29      0.0000     0.0000E+00    0.0000E+00    6.610000E+06  0.00040  1.204E-02    0   0.9243   age061_m32            0.0000     1.1729E+03    32.7930   4.0000    90.9107
 30      0.1113     1.8205E-04    3.2715E-04    8.710000E+06  0.00040  9.433E-03    0   0.9001   age067_m32            0.0000     1.1165E+03    32.0285   4.0000    91.7421
 31      0.0000     0.0000E+00    0.0000E+00    1.000000E+07  0.00040  8.053E-03    0   0.8877   age070_m32            0.0000     1.0717E+03    31.1978   4.0000    92.1502
 32      0.0000     0.0000E+00    0.0000E+00    1.445000E+07  0.00040  7.027E-03    0   0.8578   age078_m32            0.0000     6.2272E+02    19.4028   4.0000    95.2503
 33      0.0000     0.0000E+00    0.0000E+00    2.512000E+07  0.00040  4.707E-03    0   0.8166   age090_m32            0.0000     4.4860E+02    12.6467   4.0000    96.8286
 34      0.0000     0.0000E+00    0.0000E+00    4.000000E+07  0.00040  3.714E-03    0   0.7827   age104_m32            0.0000     4.1799E+02     9.1380   4.0000    97.7376
 35      0.0000     0.0000E+00    0.0000E+00    5.500000E+07  0.00040  2.982E-03    0   0.7593   age110_m32            0.0000     4.2929E+02     8.5603   4.0000    97.9516
 36      0.0000     0.0000E+00    0.0000E+00    1.015200E+08  0.00040  2.188E-03    0   0.7143   age116_m32            0.0000     5.4668E+02     8.0513   3.9032    99.1439
 37      0.0000     0.0000E+00    0.0000E+00    1.609000E+08  0.00040  1.690E-03    0   0.6856   age120_m32            0.0000     6.4739E+02     8.4172   3.6813   101.1548
 38      0.0000     0.0000E+00    0.0000E+00    2.861200E+08  0.00040  1.152E-03    0   0.6509   age125_m32            0.0000     7.3307E+02     9.2856   3.4213   102.7439
 39      0.0000     0.0000E+00    0.0000E+00    5.088000E+08  0.00040  7.331E-04    0   0.6182   age130_m32            0.0000     7.5692E+02     9.7449   3.2396   103.4782
 40      0.0000     0.0000E+00    0.0000E+00    9.047900E+08  0.00040  3.960E-04    0   0.5890   age135_m32            0.0000     5.2667E+02     8.6648   2.7561   103.0165
 41      0.0000     0.0000E+00    0.0000E+00    1.278050E+09  0.00040  2.854E-04    0   0.5687   age138_m32            0.0000     4.7145E+02     8.0227   2.4871   104.9352
 42      0.0000     0.0000E+00    0.0000E+00    1.434000E+09  0.00040  2.531E-04    0   0.5632   age139_m32            0.0000     4.6261E+02     7.9668   2.4273   104.8876
 43      0.0000     0.0000E+00    0.0000E+00    2.500000E+09  0.00040  1.488E-04    0   0.5386   age150_m32            0.0000     3.7367E+02     7.3653   2.1664   103.5234
 44      0.0000     0.0000E+00    0.0000E+00    4.250000E+09  0.00040  9.082E-05    0   0.5199   age158_m32            0.0000     2.3374E+02     6.1617   2.0783   101.2914
 45      0.0000     0.0000E+00    0.0000E+00    6.250000E+09  0.00040  6.362E-05    0   0.5076   age166_m32            0.0000     1.6177E+02     5.6757   2.0540    98.9105
 46      0.0000     0.0000E+00    0.0000E+00    7.500000E+09  0.00040  5.289E-05    0   0.5027   age171_m32            0.0000     1.4610E+02     5.5159   2.0148    97.8897
 47      0.0000     0.0000E+00    0.0000E+00    1.000000E+10  0.00040  3.972E-05    0   0.4948   age181_m32            0.0000     1.3223E+02     5.3202   1.9454    96.6851
 48      0.0000     0.0000E+00    0.0000E+00    1.300000E+10  0.00040  3.283E-05    0   0.4870   age193_m32            0.0000     1.5987E+02     5.3684   1.8920    98.9590
 49      0.0000     0.0000E+00    0.0000E+00    1.500000E+10  0.00040  2.925E-05    0   0.4854   age201_m32            0.0000     1.8225E+02     5.5184   1.8677   100.2822
 50      0.0000     0.0000E+00    0.0000E+00    1.800000E+10  0.00040  2.469E-05    0   0.4819   age213_m32            0.0000     1.8931E+02     5.5242   1.8243   100.7123
 51      0.2152     2.9813E-04    5.9521E-04    1.000000E+06  0.00400  1.114E-02    0   1.0000   age020_m42            0.0000     1.3348E+03    34.9373   4.0000    87.9312
 52      0.6748     2.5573E-04    5.1051E-04    3.160000E+06  0.00400  4.073E-02    0   0.9999   age045_m42            0.0000     4.0480E+02    12.8279   4.0000    97.3235
 53      0.0000     0.0000E+00    0.0000E+00    5.010000E+06  0.00400  2.534E-02    0   0.9488   age055_m42            0.0000     7.0712E+02    22.3889   4.0000    93.9879
 54      1.5788     9.4341E-04    1.7366E-03    6.610000E+06  0.00400  2.583E-02    0   0.9220   age061_m42            0.0000     3.7819E+02     9.3268   4.0000    96.4277
 55      0.0917     8.2972E-05    1.4881E-04    8.710000E+06  0.00400  1.706E-02    0   0.8983   age067_m42            0.0000     3.3534E+02     8.4420   4.0000    93.8710
 56      0.0439     5.3329E-05    9.4355E-05    1.000000E+07  0.00400  1.271E-02    0   0.8862   age070_m42            0.0000     3.5230E+02     9.3479   4.0000    92.7117
 57      0.0000     0.0000E+00    0.0000E+00    1.445000E+07  0.00400  7.666E-03    0   0.8571   age078_m42            0.0000     4.9452E+02    13.8181   4.0000    93.0229
 58      0.0000     0.0000E+00    0.0000E+00    2.512000E+07  0.00400  5.070E-03    0   0.8174   age090_m42            0.0000     3.1320E+02     9.9952   4.0000    93.1070
 59      0.0000     0.0000E+00    0.0000E+00    4.000000E+07  0.00400  3.505E-03    0   0.7851   age104_m42            0.0000     2.7452E+02     8.2755   3.6671    95.6316
 60      0.0000     0.0000E+00    0.0000E+00    5.500000E+07  0.00400  3.059E-03    0   0.7629   age110_m42            0.0000     3.5613E+02     6.8048   3.6967    98.6959
 61      0.0000     0.0000E+00    0.0000E+00    1.015200E+08  0.00400  2.268E-03    0   0.7207   age116_m42            0.0000     5.7340E+02     7.6654   3.5779   102.3792
 62      0.0000     0.0000E+00    0.0000E+00    1.609000E+08  0.00400  1.720E-03    0   0.6930   age120_m42            0.0000     5.9096E+02     7.9218   3.4213   103.9819
 63      0.0000     0.0000E+00    0.0000E+00    2.861200E+08  0.00400  1.079E-03    0   0.6613   age125_m42            0.0000     5.7819E+02     8.2468   3.0407   104.4408
 64      0.0000     0.0000E+00    0.0000E+00    5.088000E+08  0.00400  6.261E-04    0   0.6313   age130_m42            0.0000     6.1917E+02     8.8313   2.8411   107.1222
 65      0.0000     0.0000E+00    0.0000E+00    9.047900E+08  0.00400  3.535E-04    0   0.6024   age135_m42            0.0000     4.2855E+02     7.6528   2.4309   108.1048
 66      0.0000     0.0000E+00    0.0000E+00    1.278050E+09  0.00400  2.677E-04    0   0.5837   age138_m42            0.0000     1.7230E+02     5.8691   1.7006   106.8062
 67      0.0000     0.0000E+00    0.0000E+00    1.434000E+09  0.00400  1.910E-04    0   0.5716   age139_m42            0.0000     2.3446E+02     6.2362   1.8787   107.4038
 68      0.0000     0.0000E+00    0.0000E+00    2.500000E+09  0.00400  9.818E-05    0   0.5463   age150_m42            0.0000     8.7969E+01     4.2667   1.6097   103.5948
 69      0.0000     0.0000E+00    0.0000E+00    4.250000E+09  0.00400  5.491E-05    0   0.5269   age158_m42            0.0000     4.3560E+01     3.2593   1.4922   101.2658
 70      0.0000     0.0000E+00    0.0000E+00    6.250000E+09  0.00400  3.857E-05    0   0.5151   age166_m42            0.0000     2.8410E+01     3.1465   1.3584   100.1603
 71      0.0000     0.0000E+00    0.0000E+00    7.500000E+09  0.00400  3.243E-05    0   0.5110   age171_m42            0.0000     2.4188E+01     3.2758   1.2729    99.6799
 72      0.0000     0.0000E+00    0.0000E+00    1.000000E+10  0.00400  2.424E-05    0   0.5028   age181_m42            0.0000     2.1467E+01     3.5001   1.1853    99.1236
 73      0.0000     0.0000E+00    0.0000E+00    1.300000E+10  0.00400  1.883E-05    0   0.4927   age193_m42            0.0000     2.0983E+01     3.6374   1.1419    98.8646
 74      2.0333     1.8625E+00    1.8292E+00    1.500000E+10  0.00400  1.685E-05    0   0.4919   age201_m42            0.0000     2.0126E+01     3.5347   1.1478    98.8817
 75      0.5442     5.7845E-01    5.6289E-01    1.800000E+10  0.00400  1.452E-05    0   0.4874   age213_m42            0.0000     1.9024E+01     3.3567   1.1665    99.1388
 76      0.0000     0.0000E+00    0.0000E+00    1.000000E+06  0.00800  1.286E-02    0   1.0000   age020_m52            0.0000     1.2500E+03    34.3786   4.0000    89.4154
 77      0.0000     0.0000E+00    0.0000E+00    3.160000E+06  0.00800  3.147E-02    0   0.9966   age045_m52            0.0000     1.1674E+03    32.7231   4.0000    90.7248
 78      0.0000     0.0000E+00    0.0000E+00    5.010000E+06  0.00800  2.664E-02    0   0.9443   age055_m52            0.0000     8.2236E+02    25.1145   4.0000    93.6054
 79      0.0000     0.0000E+00    0.0000E+00    6.610000E+06  0.00800  2.151E-02    0   0.9177   age061_m52            0.0000     2.4482E+02     9.5857   3.7273    93.3325
 80      0.0000     0.0000E+00    0.0000E+00    8.710000E+06  0.00800  1.628E-02    0   0.8948   age067_m52            0.0000     3.2106E+02     8.7302   4.0000    94.0530
 81      0.0000     0.0000E+00    0.0000E+00    1.000000E+07  0.00800  1.215E-02    0   0.8827   age070_m52            0.0000     4.4341E+02    11.9742   4.0000    94.9858
 82      0.0000     0.0000E+00    0.0000E+00    1.445000E+07  0.00800  8.739E-03    0   0.8552   age078_m52            0.0000     4.6981E+02    12.9568   4.0000    96.1982
 83      0.0000     0.0000E+00    0.0000E+00    2.512000E+07  0.00800  5.676E-03    0   0.8162   age090_m52            0.0000     3.9131E+02     8.1702   4.0000    96.5607
 84      0.0000     0.0000E+00    0.0000E+00    4.000000E+07  0.00800  3.939E-03    0   0.7841   age104_m52            0.0000     4.0058E+02     7.7939   3.9128    97.5198
 85      0.0000     0.0000E+00    0.0000E+00    5.500000E+07  0.00800  3.155E-03    0   0.7627   age110_m52            0.0000     4.3581E+02     7.4540   3.8652    98.9688
 86      0.0000     0.0000E+00    0.0000E+00    1.015200E+08  0.00800  2.206E-03    0   0.7226   age116_m52            0.0000     5.1141E+02     7.3965   3.6460   102.5756
 87      0.0000     0.0000E+00    0.0000E+00    1.609000E+08  0.00800  1.596E-03    0   0.6963   age120_m52            0.0000     5.4456E+02     7.5676   3.4094   104.2338
 88      0.0000     0.0000E+00    0.0000E+00    2.861200E+08  0.00800  1.002E-03    0   0.6665   age125_m52            0.0000     6.4581E+02     8.8736   3.0732   106.5256
 89      0.0000     0.0000E+00    0.0000E+00    5.088000E+08  0.00800  5.759E-04    0   0.6377   age130_m52            0.0000     6.4343E+02     9.5166   2.6954   110.4825
 90      0.0000     0.0000E+00    0.0000E+00    9.047900E+08  0.00800  2.972E-04    0   0.6086   age135_m52            0.0000     3.8981E+02     8.9063   2.1130   109.9030
 91      0.0000     0.0000E+00    0.0000E+00    1.278050E+09  0.00800  2.242E-04    0   0.5907   age138_m52            0.0000     1.5024E+02     6.5678   1.4987   109.4926
 92      0.0000     0.0000E+00    0.0000E+00    1.434000E+09  0.00800  1.645E-04    0   0.5787   age139_m52            0.0000     1.4668E+02     5.9831   1.6616   109.0242
 93      0.0000     0.0000E+00    0.0000E+00    2.500000E+09  0.00800  7.723E-05    0   0.5519   age150_m52            0.0000     5.4738E+01     4.5340   1.3319   105.9810
 94      0.0000     0.0000E+00    0.0000E+00    4.250000E+09  0.00800  4.151E-05    0   0.5320   age158_m52            0.0000     3.4852E+01     4.0840   1.2661   103.6413
 95      0.0018     9.2319E-04    9.5788E-04    6.250000E+09  0.00800  3.010E-05    0   0.5197   age166_m52            0.0000     2.5756E+01     4.3210   1.0597   102.4400
 96      0.0000     0.0000E+00    0.0000E+00    7.500000E+09  0.00800  2.467E-05    0   0.5139   age171_m52            0.0000     2.6416E+01     4.5090   1.0126   102.0901
 97      1.7546     1.4544E+00    1.4676E+00    1.000000E+10  0.00800  1.862E-05    0   0.5054   age181_m52            0.0000     3.3666E+01     5.2285   0.8660   101.7947
 98     16.2320     1.7483E+01    1.7411E+01    1.300000E+10  0.00800  1.433E-05    0   0.4988   age193_m52            0.0000     4.4568E+01     5.8324   0.7613   102.5284
 99     11.6101     1.4405E+01    1.4196E+01    1.500000E+10  0.00800  1.244E-05    0   0.4936   age201_m52            0.0000     5.0335E+01     6.0484   0.7303   103.0062
100      7.0408     1.0156E+01    9.9115E+00    1.800000E+10  0.00800  1.070E-05    0   0.4888   age213_m52            0.0000     5.5769E+01     6.3075   0.6900   102.8949
101      0.0000     0.0000E+00    0.0000E+00    1.000000E+06  0.02000  1.989E-02    0   1.0000   age020_m62            0.0000     1.2811E+03    34.0803   4.0000    88.6877
102      0.0000     0.0000E+00    0.0000E+00    3.160000E+06  0.02000  3.772E-02    0   0.9858   age045_m62            0.0000     1.1325E+03    31.2277   4.0000    90.6399
103      0.0000     0.0000E+00    0.0000E+00    5.010000E+06  0.02000  3.227E-02    0   0.9342   age055_m62            0.0000     6.0456E+02    18.9605   4.0000    95.9712
104      0.0000     0.0000E+00    0.0000E+00    6.610000E+06  0.02000  2.387E-02    0   0.9090   age061_m62            0.0000     5.1162E+02    13.6851   4.0000    94.3796
105      0.0000     0.0000E+00    0.0000E+00    8.710000E+06  0.02000  1.102E-02    0   0.8861   age067_m62            0.0000     5.4824E+02    14.1117   4.0000    88.6355
106      0.0000     0.0000E+00    0.0000E+00    1.000000E+07  0.02000  1.011E-02    0   0.8751   age070_m62            0.0000     4.4070E+02    12.0099   4.0000    90.7531
107      0.0000     0.0000E+00    0.0000E+00    1.445000E+07  0.02000  7.331E-03    0   0.8472   age078_m62            0.0000     3.7689E+02    10.3580   4.0000    91.9979
108      0.0000     0.0000E+00    0.0000E+00    2.512000E+07  0.02000  4.206E-03    0   0.8099   age090_m62            0.0000     3.6914E+02    10.7974   4.0000    90.8139
109      0.0000     0.0000E+00    0.0000E+00    4.000000E+07  0.02000  3.373E-03    0   0.7799   age104_m62            0.0000     3.3762E+02     8.1176   3.8699    96.6627
110      0.0000     0.0000E+00    0.0000E+00    5.500000E+07  0.02000  2.747E-03    0   0.7595   age110_m62            0.0000     3.9894E+02     7.3105   3.7812    99.2410
111      0.0000     0.0000E+00    0.0000E+00    1.015200E+08  0.02000  1.878E-03    0   0.7221   age116_m62            0.0000     5.5655E+02     7.5911   3.6172   102.9354
112      0.0000     0.0000E+00    0.0000E+00    1.609000E+08  0.02000  1.378E-03    0   0.6978   age120_m62            0.0000     6.5761E+02     8.2442   3.4405   105.0143
113      0.0000     0.0000E+00    0.0000E+00    2.861200E+08  0.02000  8.869E-04    0   0.6700   age125_m62            0.0000     8.0786E+02     9.7590   3.0399   108.7012
114      0.0000     0.0000E+00    0.0000E+00    5.088000E+08  0.02000  4.834E-04    0   0.6430   age130_m62            0.0000     6.8937E+02    10.2224   2.5492   111.6124
115      0.0000     0.0000E+00    0.0000E+00    9.047900E+08  0.02000  2.312E-04    0   0.6152   age135_m62            0.0000     3.4162E+02     8.4440   1.9202   111.9578
116      0.0000     0.0000E+00    0.0000E+00    1.278050E+09  0.02000  1.387E-04    0   0.5927   age138_m62            0.0000     1.4884E+02     6.1914   1.5352   108.7643
117      0.0000     0.0000E+00    0.0000E+00    1.434000E+09  0.02000  1.168E-04    0   0.5865   age139_m62            0.0000     1.1891E+02     5.7109   1.5123   107.3771
118      0.0000     0.0000E+00    0.0000E+00    2.500000E+09  0.02000  5.505E-05    0   0.5610   age150_m62            0.0000     4.8327E+01     5.1563   1.1292   104.9698
119      0.0000     0.0000E+00    0.0000E+00    4.250000E+09  0.02000  3.070E-05    0   0.5407   age158_m62            0.0000     5.5912E+01     6.5169   0.7966   105.0846
120      0.0000     0.0000E+00    0.0000E+00    6.250000E+09  0.02000  2.104E-05    0   0.5277   age166_m62            0.0000     7.1125E+01     7.2495   0.6476   105.6143
121      1.4830     1.2932E+00    1.3485E+00    7.500000E+09  0.02000  1.770E-05    0   0.5223   age171_m62            0.0000     8.2170E+01     7.7602   0.5462   106.0597
122      9.3566     1.1135E+01    1.1384E+01    1.000000E+10  0.02000  1.297E-05    0   0.5121   age181_m62            0.0000     1.0899E+02     8.7930   0.3610   106.7069
123      7.5067     1.1956E+01    1.2047E+01    1.300000E+10  0.02000  9.691E-06    0   0.5047   age193_m62            0.0000     1.2963E+02     9.4878   0.2590   107.1693
124      8.0973     1.4950E+01    1.4921E+01    1.500000E+10  0.02000  8.360E-06    0   0.4999   age201_m62            0.0000     1.4942E+02    10.1223   0.1699   107.5519
125      4.0333     9.0078E+00    8.8949E+00    1.800000E+10  0.02000  6.911E-06    0   0.4946   age213_m62            0.0000     1.7549E+02    10.9421   0.0699   108.0526
126      0.0000     0.0000E+00    0.0000E+00    1.000000E+06  0.05000  2.651E-02    0   0.9998   age020_m72            0.0000     1.2575E+03    33.8060   4.0000    89.6658
127      0.0000     0.0000E+00    0.0000E+00    3.160000E+06  0.05000  4.817E-02    0   0.9577   age045_m72            0.0000     9.5308E+02    27.4307   4.0000    93.7654
128      0.0000     0.0000E+00    0.0000E+00    5.010000E+06  0.05000  3.101E-02    0   0.9147   age055_m72            0.0000     6.6515E+02    19.4529   4.0000    95.1253
129      0.0000     0.0000E+00    0.0000E+00    6.610000E+06  0.05000  1.472E-02    0   0.8877   age061_m72            0.0000     5.5251E+02    12.5464   4.0000    91.4277
130      0.0000     0.0000E+00    0.0000E+00    8.710000E+06  0.05000  1.050E-02    0   0.8638   age067_m72            0.0000     6.7058E+02    18.6693   4.0000    93.7931
131      0.0000     0.0000E+00    0.0000E+00    1.000000E+07  0.05000  8.954E-03    0   0.8524   age070_m72            0.0000     7.9423E+02    24.3320   4.0000    94.9248
132      0.0000     0.0000E+00    0.0000E+00    1.445000E+07  0.05000  6.392E-03    0   0.8262   age078_m72            0.0000     7.1753E+02    22.8972   4.0000    95.7663
133      0.0000     0.0000E+00    0.0000E+00    2.512000E+07  0.05000  4.207E-03    0   0.7902   age090_m72            0.0000     4.4915E+02    14.0973   4.0000    97.8851
134      0.0000     0.0000E+00    0.0000E+00    4.000000E+07  0.05000  3.198E-03    0   0.7618   age104_m72            0.0000     4.4874E+02     6.8092   4.0000    99.7831
135      0.0000     0.0000E+00    0.0000E+00    5.500000E+07  0.05000  2.593E-03    0   0.7432   age110_m72            0.0000     5.0915E+02     7.0254   3.8995   101.1063
136      0.0000     0.0000E+00    0.0000E+00    1.015200E+08  0.05000  1.716E-03    0   0.7092   age116_m72            0.0000     6.1568E+02     7.6927   3.6938   103.0369
137      0.0000     0.0000E+00    0.0000E+00    1.609000E+08  0.05000  1.218E-03    0   0.6876   age120_m72            0.0000     7.1144E+02     8.4997   3.3998   105.5298
138      0.0000     0.0000E+00    0.0000E+00    2.861200E+08  0.05000  7.047E-04    0   0.6618   age125_m72            0.0000     7.5560E+02     9.8154   2.8027   109.6155
139      0.0000     0.0000E+00    0.0000E+00    5.088000E+08  0.05000  3.590E-04    0   0.6356   age130_m72            0.0000     5.5514E+02    10.0716   2.1633   112.9640
140      0.0000     0.0000E+00    0.0000E+00    9.047900E+08  0.05000  1.484E-04    0   0.6088   age135_m72            0.0000     1.6767E+02     7.4931   1.3982   108.0343
141      0.0000     0.0000E+00    0.0000E+00    1.278050E+09  0.05000  9.435E-05    0   0.5924   age138_m72            0.0000     9.1251E+01     7.1954   0.9705   105.9364
142      0.0000     0.0000E+00    0.0000E+00    1.434000E+09  0.05000  7.827E-05    0   0.5847   age139_m72            0.0000     7.6678E+01     6.6972   0.9971   105.3678
143      0.0000     0.0000E+00    0.0000E+00    2.500000E+09  0.05000  3.759E-05    0   0.5583   age150_m72            0.0000     7.1516E+01     7.2464   0.6634   104.8745
144      2.0702     1.7347E+00    1.8612E+00    4.250000E+09  0.05000  1.842E-05    0   0.5374   age158_m72            0.0000     1.0052E+02     8.4835   0.3170   104.5521
145      1.7299     2.2121E+00    2.3151E+00    6.250000E+09  0.05000  1.207E-05    0   0.5242   age166_m72            0.0000     1.4126E+02    10.1951   0.0227   104.7371
146      1.1341     1.7517E+00    1.8126E+00    7.500000E+09  0.05000  9.993E-06    0   0.5183   age171_m72            0.0000     1.4786E+02    10.4891  -0.0321   104.7959
147      0.0000     1.8431E-06    1.8697E-06    1.000000E+10  0.05000  7.291E-06    0   0.5081   age181_m72            0.0000     1.8729E+02    11.9934  -0.2130   105.2052
148      0.0000     0.0000E+00    0.0000E+00    1.300000E+10  0.05000  5.316E-06    0   0.5018   age193_m72            0.0000     2.5487E+02    14.2083  -0.4908   106.0095
149      0.0000     1.0783E-05    1.0704E-05    1.500000E+10  0.05000  4.497E-06    0   0.4972   age201_m72            0.0000     2.9368E+02    15.3564  -0.6157   106.7577
150      0.0000     0.0000E+00    0.0000E+00    1.800000E+10  0.05000  3.739E-06    0   0.4924   age213_m72            0.0000     3.4598E+02    16.8066  -0.7926   107.6760


## Synthesis Results - Average & Chains ##

# j      x_j: min, <> & last-chain-values for 1 ...  7 chains
  1      3.5138      2.8893      2.9271      3.0538      2.9173      2.8242      2.9452      3.1217      3.2435
  2     15.9279     10.8102     11.5703     11.2291     11.9510     11.1405     10.9484     11.9355     12.1061
  3      2.2346      1.7268      2.2480      1.7222      1.9402      1.7314      1.8323      1.7245      1.7460
  4      0.0006      0.1158      0.2152      0.0488      0.0000      0.0373      0.0771      0.0000      0.2282
  5      0.0000      0.0344      0.0000      0.0000      0.0558      0.0348      0.0000      0.0185      0.0000
  6      0.0000      0.0314      0.0000      0.0000      0.1731      0.0719      0.0000      0.0000      0.0000
  7      0.0000      0.0782      0.0000      0.0000      0.0000      0.0514      0.0000      0.0000      0.0000
  8      0.0000      0.0305      0.0000      0.0019      0.0000      0.0000      0.0000      0.0005      0.0653
  9      0.0000      0.0459      0.1676      0.0000      0.0000      0.0000      0.0000      0.0268      0.0000
 10      0.0000      0.0185      0.0000      0.0482      0.0000      0.0401      0.0675      0.0000      0.0000
 11      0.0000      0.0123      0.0389      0.0450      0.0000      0.0000      0.0000      0.1029      0.0000
 12      0.0000      0.0054      0.0000      0.0000      0.0000      0.0000      0.0000      0.0000      0.0000
 13      0.0000      0.0028      0.0000      0.0000      0.0000      0.0000      0.0000      0.0000      0.0000
 14      0.0000      0.0021      0.0000      0.0000      0.0000      0.0000      0.0000      0.0000      0.0000
 15      0.0000      0.0013      0.0000      0.0123      0.0000      0.0000      0.0000      0.0000      0.0000
 16      0.0000      0.0026      0.0000      0.0000      0.0000      0.0000      0.0131      0.0000      0.0000
 17      0.0000      0.0033      0.0340      0.0000      0.1155      0.0000      0.0000      0.0000      0.0000
 18      0.0000      0.0043      0.0000      0.0000      0.0000      0.0181      0.0000      0.0000      0.0000
 19      0.0000      0.0076      0.0000      0.0000      0.0000      0.0000      0.0000      0.0000      0.0468
 20      0.0000      0.0154      0.0000      0.0000      0.0122      0.0000      0.0000      0.0000      0.0000
 21      0.0000      0.0276      0.0000      0.0000      0.0000      0.0000      0.0087      0.0051      0.0000
 22      0.0000      0.0170      0.0000      0.0094      0.0000      0.0000      0.0000      0.0000      0.0000
 23      0.0000      0.0321      0.0638      0.0000      0.0000      0.0000      0.0000      0.0000      0.0000
 24      0.0000      0.0233      0.0476      0.0000      0.0000      0.0000      0.0001      0.0000      0.0733
 25      0.0000      0.0383      0.0142      0.0523      0.0000      0.0000      0.0000      0.0460      0.0000
 26      1.7713      1.3555      1.5115      1.3922      1.2951      1.4727      1.4344      1.3127      1.2872
 27      0.0010      0.3292      0.0000      0.5797      0.2871      0.2616      0.3744      0.3940      0.2397
 28      0.0000      0.1193      0.1189      0.0000      0.0000      0.0000      0.2245      0.0000      0.1160
 29      0.0000      0.1925      0.0000      0.5444      0.3471      0.1546      0.1982      0.0000      0.0000
 30      0.1113      0.1817      0.0000      0.0000      0.1859      0.1848      0.5926      0.3320      0.3138
 31      0.0000      0.0661      0.0647      0.1445      0.0640      0.0000      0.0000      0.1232      0.0000
 32      0.0000      0.0170      0.0000      0.0000      0.0000      0.0000      0.0697      0.0000      0.0000
 33      0.0000      0.0230      0.0000      0.0000      0.0000      0.0000      0.0000      0.0263      0.1257
 34      0.0000      0.0212      0.0000      0.0000      0.0000      0.0000      0.0000      0.0000      0.0000
 35      0.0000      0.0189      0.0234      0.0000      0.0000      0.0000      0.0000      0.0000      0.0000
 36      0.0000      0.0092      0.0000      0.0000      0.0000      0.0000      0.0000      0.0000      0.0000
 37      0.0000      0.0045      0.0511      0.0000      0.0000      0.0000      0.0000      0.0000      0.0000
 38      0.0000      0.0023      0.0000      0.0000      0.0000      0.0000      0.0000      0.0000      0.0000
 39      0.0000      0.0018      0.0000      0.0000      0.0000      0.0000      0.0000      0.0000      0.0000
 40      0.0000      0.0024      0.0000      0.0000      0.0000      0.0000      0.0000      0.0000      0.0000
 41      0.0000      0.0062      0.0000      0.0000      0.0000      0.0000      0.0000      0.0000      0.0000
 42      0.0000      0.0066      0.0000      0.0000      0.0000      0.0000      0.0000      0.0000      0.0000
 43      0.0000      0.0087      0.0000      0.0000      0.0000      0.0000      0.0855      0.0000      0.0000
 44      0.0000      0.0274      0.0000      0.0000      0.0000      0.1380      0.0000      0.0000      0.0396
 45      0.0000      0.2006      0.1326      0.3571      0.2268      0.0000      0.0931      0.0828      0.1816
 46      0.0000      0.2990      0.0000      0.0000      0.0000      0.1712      0.1321      0.0562      0.3793
 47      0.0000      0.0985      0.3772      0.2233      0.0000      0.0000      0.0000      0.1231      0.0000
 48      0.0000      0.0495      0.0000      0.0239      0.0413      0.0000      0.0000      0.0000      0.0000
 49      0.0000      0.0411      0.0000      0.0000      0.0222      0.0000      0.0000      0.0000      0.0000
 50      0.0000      0.0478      0.0000      0.0507      0.0000      0.0000      0.0000      0.1911      0.0000
 51      0.2152      0.1957      0.2529      0.0000      0.2144      0.2746      0.1575      0.3791      0.3294
 52      0.6748      0.7384      0.6908      0.6346      0.7872      1.2477      0.9267      0.5162      0.7653
 53      0.0000      0.0727      0.0167      0.2251      0.1196      0.0000      0.1005      0.0000      0.1763
 54      1.5788      2.6069      2.4771      2.7510      2.5814      2.4811      2.8098      2.7585      2.6503
 55      0.0917      0.9231      1.0255      0.9749      0.8595      1.0078      0.8803      0.7327      0.9381
 56      0.0439      0.9003      0.8859      0.8550      0.9172      1.2622      0.9237      1.0609      0.3568
 57      0.0000      0.0429      0.0339      0.1431      0.1952      0.0000      0.0000      0.0000      0.0000
 58      0.0000      0.0207      0.0696      0.0502      0.0000      0.0000      0.0000      0.0000      0.0978
 59      0.0000      0.0133      0.0000      0.0000      0.0000      0.0000      0.0000      0.0000      0.0000
 60      0.0000      0.0072      0.0000      0.0000      0.0000      0.0000      0.0000      0.0000      0.0000
 61      0.0000      0.0023      0.0000      0.0000      0.0778      0.0000      0.0000      0.0000      0.0000
 62      0.0000      0.0047      0.0000      0.0000      0.0000      0.0000      0.0082      0.0000      0.0000
 63      0.0000      0.0035      0.0000      0.0000      0.0000      0.0000      0.0000      0.0000      0.0000
 64      0.0000      0.0031      0.0000      0.0000      0.0000      0.0000      0.0289      0.0000      0.0000
 65      0.0000      0.0061      0.0000      0.0000      0.0000      0.0000      0.0000      0.0000      0.0000
 66      0.0000      0.0121      0.0000      0.0000      0.0000      0.0000      0.0000      0.0000      0.0000
 67      0.0000      0.0123      0.0000      0.0000      0.0938      0.1098      0.0000      0.0000      0.0000
 68      0.0000      0.0325      0.0000      0.0000      0.0033      0.0000      0.0000      0.0000      0.0000
 69      0.0000      0.0843      0.0000      0.1038      0.0000      0.0000      0.3206      0.0000      0.1925
 70      0.0000      0.1348      0.0000      0.1318      0.0000      0.4513      0.3166      0.0000      0.0710
 71      0.0000      0.2090      0.0000      0.3420      0.0000      0.1712      0.0000      0.5743      0.0891
 72      0.0000      0.2097      0.0000      0.2277      0.6519      0.2642      0.0434      0.4276      0.1753
 73      0.0000      0.3218      0.7734      0.0440      0.1123      0.0004      1.1968      0.5557      0.0443
 74      2.0333      0.3535      0.1140      1.1223      0.6081      0.3500      0.3991      0.2118      0.5161
 75      0.5442      0.2909      1.1150      0.3271      0.0000      0.7636      0.0000      0.3883      0.3127
 76      0.0000      0.0190      0.0000      0.0732      0.1257      0.0978      0.0356      0.0000      0.0000
 77      0.0000      0.0133      0.0000      0.0000      0.0000      0.0000      0.0000      0.0000      0.0133
 78      0.0000      0.0183      0.0000      0.0362      0.0000      0.0000      0.0000      0.0000      0.0000
 79      0.0000      0.0233      0.1043      0.0799      0.0000      0.0000      0.0000      0.0000      0.0000
 80      0.0000      0.0123      0.0000      0.0000      0.0000      0.0000      0.0000      0.0000      0.0000
 81      0.0000      0.0498      0.0000      0.0187      0.0000      0.0000      0.0000      0.0000      0.0000
 82      0.0000      0.0425      0.0000      0.0001      0.0000      0.0000      0.0000      0.0000      0.0000
 83      0.0000      0.0072      0.0000      0.0033      0.0000      0.0028      0.0000      0.0000      0.0000
 84      0.0000      0.0057      0.0000      0.0000      0.0000      0.0000      0.0000      0.0000      0.0000
 85      0.0000      0.0095      0.0431      0.0000      0.0000      0.0000      0.0000      0.0000      0.0000
 86      0.0000      0.0073      0.0000      0.0000      0.0000      0.0000      0.0000      0.0000      0.0000
 87      0.0000      0.0047      0.0000      0.0000      0.0000      0.0000      0.0000      0.0000      0.0000
 88      0.0000      0.0026      0.0000      0.0093      0.0000      0.0000      0.0000      0.0000      0.0000
 89      0.0000      0.0028      0.0000      0.0000      0.0000      0.0000      0.0000      0.0000      0.0000
 90      0.0000      0.0028      0.0000      0.0000      0.0000      0.0000      0.0000      0.0000      0.0000
 91      0.0000      0.0092      0.0000      0.0000      0.0000      0.0000      0.0000      0.0000      0.0000
 92      0.0000      0.0104      0.0000      0.0000      0.0000      0.0000      0.0000      0.0000      0.0000
 93      0.0000      0.0545      0.0000      0.0000      0.0512      0.0248      0.0000      0.0515      0.0000
 94      0.0000      0.1125      0.0000      0.1167      0.0000      0.0000      0.0675      0.0000      0.0000
 95      0.0018      0.2469      0.3518      0.0000      0.4931      0.3642      0.8699      0.9518      0.2872
 96      0.0000      0.2913      0.3355      0.0000      0.0000      0.0424      0.0000      0.6199      0.4745
 97      1.7546      4.4266      4.1281      3.7914      4.3188      3.7663      4.5270      2.7808      4.4456
 98     16.2320     14.9413     15.0265     16.1260     14.7883     16.1778     15.2162     15.4215     14.9639
 99     11.6101     10.0433     10.4792     10.5256     10.5804      9.9853     10.6587     10.1462     10.5853
100      7.0408      6.0448      6.1344      6.0251      6.6806      6.6911      5.9411      6.1028      6.8217
101      0.0000      0.0177      0.0000      0.0000      0.0000      0.0732      0.0000      0.0000      0.0000
102      0.0000      0.0356      0.0000      0.0000      0.0088      0.0000      0.0000      0.1484      0.0000
103      0.0000      0.0731      0.0000      0.0000      0.0000      0.0000      0.0292      0.1497      0.0000
104      0.0000      0.0393      0.0000      0.0330      0.0000      0.0000      0.0000      0.0000      0.0000
105      0.0000      0.0943      0.0000      0.0000      0.0788      0.0000      0.0000      0.0433      0.0218
106      0.0000      0.0244      0.0000      0.0000      0.0000      0.0000      0.0000      0.0000      0.0000
107      0.0000      0.0165      0.0000      0.0000      0.0000      0.0000      0.0000      0.0225      0.0000
108      0.0000      0.0087      0.0000      0.0000      0.0000      0.0000      0.0000      0.0000      0.0000
109      0.0000      0.0056      0.0000      0.0000      0.0000      0.0000      0.0000      0.0000      0.0000
110      0.0000      0.0030      0.0000      0.0000      0.0000      0.0188      0.0000      0.0000      0.0000
111      0.0000      0.0037      0.0000      0.0000      0.0000      0.0000      0.0000      0.0000      0.0000
112      0.0000      0.0025      0.0000      0.0000      0.0198      0.0000      0.0000      0.0000      0.0000
113      0.0000      0.0008      0.0000      0.0000      0.0000      0.0000      0.0000      0.0000      0.0000
114      0.0000      0.0025      0.0000      0.0000      0.0000      0.0000      0.0000      0.0000      0.0014
115      0.0000      0.0054      0.0000      0.0000      0.0000      0.0000      0.0000      0.0000      0.0000
116      0.0000      0.0083      0.0000      0.0000      0.0000      0.0108      0.0986      0.0000      0.0009
117      0.0000      0.0108      0.0000      0.0000      0.0000      0.0000      0.0058      0.0000      0.0000
118      0.0000      0.0525      0.0207      0.0000      0.0000      0.1216      0.0359      0.0000      0.0919
119      0.0000      0.0766      0.0498      0.0000      0.0995      0.3270      0.0000      0.0959      0.0758
120      0.0000      0.1526      0.5552      0.1942      0.5300      0.0000      0.0663      0.0000      0.0713
121      1.4830      3.1980      3.2577      3.1504      2.7419      2.9352      2.8464      2.6260      2.1031
122      9.3566      9.1444      8.6666      9.1195      9.4198      8.9571      8.2106      9.1789      9.2342
123      7.5067      7.4298      7.5152      7.2829      7.4952      7.5422      8.2194      7.5916      7.3990
124      8.0973      7.4670      7.3792      7.4277      7.5256      7.6851      7.6744      7.8938      7.2972
125      4.0333      4.1869      4.5229      4.2764      4.0855      4.1757      4.0610      4.4167      4.3000
126      0.0000      0.0659      0.0000      0.1177      0.0000      0.0591      0.0000      0.0000      0.0000
127      0.0000      0.0315      0.1802      0.0000      0.0276      0.0000      0.0000      0.0000      0.0023
128      0.0000      0.0463      0.0000      0.0000      0.0000      0.0457      0.0000      0.1126      0.0000
129      0.0000      0.1188      0.2767      0.0000      0.0000      0.1906      0.0000      0.0000      0.0669
130      0.0000      0.0098      0.0000      0.0000      0.0000      0.0702      0.0000      0.0000      0.0000
131      0.0000      0.0179      0.0000      0.0000      0.0000      0.0000      0.0000      0.0000      0.0000
132      0.0000      0.0074      0.0000      0.0000      0.0000      0.0000      0.0000      0.0058      0.0000
133      0.0000      0.0085      0.0000      0.0000      0.0000      0.0000      0.0000      0.0000      0.0000
134      0.0000      0.0038      0.0000      0.0000      0.0000      0.0000      0.0000      0.0000      0.0000
135      0.0000      0.0027      0.0000      0.0000      0.0000      0.0000      0.0000      0.0000      0.0000
136      0.0000      0.0025      0.0000      0.0000      0.0000      0.0000      0.0000      0.0000      0.0000
137      0.0000      0.0042      0.0000      0.0000      0.0000      0.0000      0.0000      0.0000      0.0000
138      0.0000      0.0017      0.0000      0.0000      0.0000      0.0000      0.0000      0.0000      0.0000
139      0.0000      0.0027      0.0000      0.0000      0.0000      0.0000      0.0000      0.0000      0.0000
140      0.0000      0.0095      0.0000      0.0000      0.0000      0.0000      0.0000      0.0000      0.0000
141      0.0000      0.0135      0.0000      0.0000      0.0000      0.0000      0.0000      0.0180      0.0000
142      0.0000      0.0238      0.0000      0.0000      0.0000      0.0000      0.1146      0.0000      0.0021
143      0.0000      0.1020      0.0000      0.2444      0.0000      0.0105      0.2064      0.0845      0.2985
144      2.0702      1.0620      1.0441      0.7073      0.9744      1.1210      1.1027      1.0392      1.0502
145      1.7299      0.9498      0.6018      0.6793      1.1342      0.9117      0.9108      1.0373      1.0019
146      1.1341      1.4022      1.5336      1.4644      1.2650      1.1740      1.2365      1.7470      1.5041
147      0.0000      0.6002      0.8025      0.5278      0.5117      0.4544      0.4210      0.3292      0.6961
148      0.0000      0.7551      0.5321      0.7500      0.4625      0.7204      0.6730      0.6180      0.7088
149      0.0000      0.5195      0.0000      0.5150      0.6140      0.3875      0.3859      0.0187      0.4017
150      0.0000      0.3515      0.1814      0.0082      0.0000      0.0000      0.0000      0.3602      0.0000

# j      m_j: min, <> & last-chain-values for 1 ...  7 chains
  1  1.3270E-02  1.0615E-02  1.0903E-02  1.1312E-02  1.0847E-02  1.0479E-02  1.1000E-02  1.1569E-02  1.2019E-02
  2  1.0314E-02  6.8097E-03  7.3897E-03  7.1320E-03  7.6194E-03  7.0873E-03  7.0115E-03  7.5842E-03  7.6921E-03
  3  3.4153E-03  2.5675E-03  3.3888E-03  2.5818E-03  2.9197E-03  2.5998E-03  2.7696E-03  2.5864E-03  2.6185E-03
  4  1.6436E-06  3.2361E-04  6.0964E-04  1.3763E-04  0.0000E+00  1.0527E-04  2.1895E-04  0.0000E+00  6.4335E-04
  5  0.0000E+00  1.2113E-04  0.0000E+00  0.0000E+00  1.9864E-04  1.2389E-04  0.0000E+00  6.5707E-05  0.0000E+00
  6  0.0000E+00  1.3125E-04  0.0000E+00  0.0000E+00  7.3331E-04  3.0399E-04  0.0000E+00  0.0000E+00  0.0000E+00
  7  0.0000E+00  4.1296E-04  0.0000E+00  0.0000E+00  0.0000E+00  2.7424E-04  0.0000E+00  0.0000E+00  0.0000E+00
  8  0.0000E+00  1.8228E-04  0.0000E+00  1.1192E-05  0.0000E+00  0.0000E+00  0.0000E+00  2.8768E-06  3.9361E-04
  9  0.0000E+00  2.9489E-04  1.0916E-03  0.0000E+00  0.0000E+00  0.0000E+00  0.0000E+00  1.7339E-04  0.0000E+00
 10  0.0000E+00  1.3601E-04  0.0000E+00  3.5784E-04  0.0000E+00  2.9782E-04  5.0494E-04  0.0000E+00  0.0000E+00
 11  0.0000E+00  1.0813E-04  3.4732E-04  3.9949E-04  0.0000E+00  0.0000E+00  0.0000E+00  9.1362E-04  0.0000E+00
 12  0.0000E+00  8.2706E-05  0.0000E+00  0.0000E+00  0.0000E+00  0.0000E+00  0.0000E+00  0.0000E+00  0.0000E+00
 13  0.0000E+00  5.0451E-05  0.0000E+00  0.0000E+00  0.0000E+00  0.0000E+00  0.0000E+00  0.0000E+00  0.0000E+00
 14  0.0000E+00  5.3046E-05  0.0000E+00  0.0000E+00  0.0000E+00  0.0000E+00  0.0000E+00  0.0000E+00  0.0000E+00
 15  0.0000E+00  5.0977E-05  0.0000E+00  4.7703E-04  0.0000E+00  0.0000E+00  0.0000E+00  0.0000E+00  0.0000E+00
 16  0.0000E+00  1.4197E-04  0.0000E+00  0.0000E+00  0.0000E+00  0.0000E+00  7.4030E-04  0.0000E+00  0.0000E+00
 17  0.0000E+00  2.0164E-04  2.1266E-03  0.0000E+00  7.2052E-03  0.0000E+00  0.0000E+00  0.0000E+00  0.0000E+00
 18  0.0000E+00  4.2864E-04  0.0000E+00  0.0000E+00  0.0000E+00  1.8311E-03  0.0000E+00  0.0000E+00  0.0000E+00
 19  0.0000E+00  1.1518E-03  0.0000E+00  0.0000E+00  0.0000E+00  0.0000E+00  0.0000E+00  0.0000E+00  7.1787E-03
 20  0.0000E+00  3.3415E-03  0.0000E+00  0.0000E+00  2.6913E-03  0.0000E+00  0.0000E+00  0.0000E+00  0.0000E+00
 21  0.0000E+00  6.9451E-03  0.0000E+00  0.0000E+00  0.0000E+00  0.0000E+00  2.2337E-03  1.2947E-03  0.0000E+00
 22  0.0000E+00  5.5239E-03  0.0000E+00  3.0786E-03  0.0000E+00  0.0000E+00  0.0000E+00  0.0000E+00  0.0000E+00
 23  0.0000E+00  1.3197E-02  2.6616E-02  0.0000E+00  0.0000E+00  0.0000E+00  0.0000E+00  0.0000E+00  0.0000E+00
 24  0.0000E+00  1.0985E-02  2.2735E-02  0.0000E+00  0.0000E+00  0.0000E+00  5.9936E-05  0.0000E+00  3.4807E-02
 25  0.0000E+00  2.1646E-02  8.1495E-03  2.9804E-02  0.0000E+00  0.0000E+00  0.0000E+00  2.6239E-02  0.0000E+00
 26  6.4536E-03  4.8044E-03  5.4316E-03  4.9751E-03  4.6460E-03  5.2714E-03  5.1688E-03  4.6932E-03  4.6020E-03
 27  7.7820E-07  2.4838E-04  0.0000E+00  4.4106E-04  2.1922E-04  1.9932E-04  2.8719E-04  2.9991E-04  1.8241E-04
 28  0.0000E+00  1.7613E-04  1.7800E-04  0.0000E+00  0.0000E+00  0.0000E+00  3.3699E-04  0.0000E+00  1.7286E-04
 29  0.0000E+00  4.4308E-04  0.0000E+00  1.2633E-03  8.0843E-04  3.5941E-04  4.6378E-04  0.0000E+00  0.0000E+00
 30  3.2715E-04  5.1979E-04  0.0000E+00  0.0000E+00  5.3820E-04  5.3394E-04  1.7233E-03  9.5787E-04  9.0542E-04
 31  0.0000E+00  2.1834E-04  2.1680E-04  4.8147E-04  2.1418E-04  0.0000E+00  0.0000E+00  4.1081E-04  0.0000E+00
 32  0.0000E+00  6.2123E-05  0.0000E+00  0.0000E+00  0.0000E+00  0.0000E+00  2.5919E-04  0.0000E+00  0.0000E+00
 33  0.0000E+00  1.1941E-04  0.0000E+00  0.0000E+00  0.0000E+00  0.0000E+00  0.0000E+00  1.3812E-04  6.5967E-04
 34  0.0000E+00  1.3369E-04  0.0000E+00  0.0000E+00  0.0000E+00  0.0000E+00  0.0000E+00  0.0000E+00  0.0000E+00
 35  0.0000E+00  1.4462E-04  1.8102E-04  0.0000E+00  0.0000E+00  0.0000E+00  0.0000E+00  0.0000E+00  0.0000E+00
 36  0.0000E+00  9.0503E-05  0.0000E+00  0.0000E+00  0.0000E+00  0.0000E+00  0.0000E+00  0.0000E+00  0.0000E+00
 37  0.0000E+00  5.5162E-05  6.3053E-04  0.0000E+00  0.0000E+00  0.0000E+00  0.0000E+00  0.0000E+00  0.0000E+00
 38  0.0000E+00  3.8464E-05  0.0000E+00  0.0000E+00  0.0000E+00  0.0000E+00  0.0000E+00  0.0000E+00  0.0000E+00
 39  0.0000E+00  4.4513E-05  0.0000E+00  0.0000E+00  0.0000E+00  0.0000E+00  0.0000E+00  0.0000E+00  0.0000E+00
 40  0.0000E+00  1.0842E-04  0.0000E+00  0.0000E+00  0.0000E+00  0.0000E+00  0.0000E+00  0.0000E+00  0.0000E+00
 41  0.0000E+00  3.7113E-04  0.0000E+00  0.0000E+00  0.0000E+00  0.0000E+00  0.0000E+00  0.0000E+00  0.0000E+00
 42  0.0000E+00  4.4202E-04  0.0000E+00  0.0000E+00  0.0000E+00  0.0000E+00  0.0000E+00  0.0000E+00  0.0000E+00
 43  0.0000E+00  9.4031E-04  0.0000E+00  0.0000E+00  0.0000E+00  0.0000E+00  9.4324E-03  0.0000E+00  0.0000E+00
 44  0.0000E+00  4.6972E-03  0.0000E+00  0.0000E+00  0.0000E+00  2.3918E-02  0.0000E+00  0.0000E+00  6.8570E-03
 45  0.0000E+00  4.7990E-02  3.2160E-02  8.6117E-02  5.4907E-02  0.0000E+00  2.2641E-02  1.9987E-02  4.3824E-02
 46  0.0000E+00  8.5198E-02  0.0000E+00  0.0000E+00  0.0000E+00  4.9273E-02  3.8252E-02  1.6164E-02  1.0900E-01
 47  0.0000E+00  3.6795E-02  1.4283E-01  8.4065E-02  0.0000E+00  0.0000E+00  0.0000E+00  4.6386E-02  0.0000E+00
 48  0.0000E+00  2.2002E-02  0.0000E+00  1.0722E-02  1.8608E-02  0.0000E+00  0.0000E+00  0.0000E+00  0.0000E+00
 49  0.0000E+00  2.0433E-02  0.0000E+00  0.0000E+00  1.1198E-02  0.0000E+00  0.0000E+00  0.0000E+00  0.0000E+00
 50  0.0000E+00  2.7993E-02  0.0000E+00  2.9924E-02  0.0000E+00  0.0000E+00  0.0000E+00  1.1276E-01  0.0000E+00
 51  5.9521E-04  5.2661E-04  6.9005E-04  0.0000E+00  5.8400E-04  7.4617E-04  4.3079E-04  1.0292E-03  8.9414E-04
 52  5.1051E-04  5.4342E-04  5.1543E-04  4.7091E-04  5.8635E-04  9.2732E-04  6.9337E-04  3.8325E-04  5.6810E-04
 53  0.0000E+00  8.1625E-05  1.8982E-05  2.5481E-04  1.3591E-04  0.0000E+00  1.1469E-04  0.0000E+00  1.9959E-04
 54  1.7366E-03  2.7896E-03  2.6875E-03  2.9682E-03  2.7958E-03  2.6813E-03  3.0568E-03  2.9776E-03  2.8606E-03
 55  1.4881E-04  1.4572E-03  1.6413E-03  1.5516E-03  1.3732E-03  1.6065E-03  1.4127E-03  1.1667E-03  1.4937E-03
 56  9.4355E-05  1.8819E-03  1.8774E-03  1.8020E-03  1.9403E-03  2.6644E-03  1.9628E-03  2.2370E-03  7.5226E-04
 57  0.0000E+00  1.4394E-04  1.1535E-04  4.8355E-04  6.6208E-04  0.0000E+00  0.0000E+00  0.0000E+00  0.0000E+00
 58  0.0000E+00  1.0029E-04  3.4088E-04  2.4469E-04  0.0000E+00  0.0000E+00  0.0000E+00  0.0000E+00  4.7677E-04
 59  0.0000E+00  8.9298E-05  0.0000E+00  0.0000E+00  0.0000E+00  0.0000E+00  0.0000E+00  0.0000E+00  0.0000E+00
 60  0.0000E+00  5.3914E-05  0.0000E+00  0.0000E+00  0.0000E+00  0.0000E+00  0.0000E+00  0.0000E+00  0.0000E+00
 61  0.0000E+00  2.1785E-05  0.0000E+00  0.0000E+00  7.5040E-04  0.0000E+00  0.0000E+00  0.0000E+00  0.0000E+00
 62  0.0000E+00  5.6903E-05  0.0000E+00  0.0000E+00  0.0000E+00  0.0000E+00  1.0031E-04  0.0000E+00  0.0000E+00
 63  0.0000E+00  6.3635E-05  0.0000E+00  0.0000E+00  0.0000E+00  0.0000E+00  0.0000E+00  0.0000E+00  0.0000E+00
 64  0.0000E+00  9.3811E-05  0.0000E+00  0.0000E+00  0.0000E+00  0.0000E+00  8.8927E-04  0.0000E+00  0.0000E+00
 65  0.0000E+00  3.1037E-04  0.0000E+00  0.0000E+00  0.0000E+00  0.0000E+00  0.0000E+00  0.0000E+00  0.0000E+00
 66  0.0000E+00  7.9159E-04  0.0000E+00  0.0000E+00  0.0000E+00  0.0000E+00  0.0000E+00  0.0000E+00  0.0000E+00
 67  0.0000E+00  1.1018E-03  0.0000E+00  0.0000E+00  8.5156E-03  9.9513E-03  0.0000E+00  0.0000E+00  0.0000E+00
 68  0.0000E+00  5.4238E-03  0.0000E+00  0.0000E+00  5.6330E-04  0.0000E+00  0.0000E+00  0.0000E+00  0.0000E+00
 69  0.0000E+00  2.4247E-02  0.0000E+00  3.0097E-02  0.0000E+00  0.0000E+00  9.3762E-02  0.0000E+00  5.5870E-02
 70  0.0000E+00  5.3977E-02  0.0000E+00  5.3208E-02  0.0000E+00  1.8248E-01  1.2888E-01  0.0000E+00  2.8659E-02
 71  0.0000E+00  9.8737E-02  0.0000E+00  1.6288E-01  0.0000E+00  8.1675E-02  0.0000E+00  2.7365E-01  4.2442E-02
 72  0.0000E+00  1.3043E-01  0.0000E+00  1.4274E-01  4.1026E-01  1.6592E-01  2.7417E-02  2.6823E-01  1.0993E-01
 73  0.0000E+00  2.5245E-01  6.1505E-01  3.4819E-02  8.9151E-02  3.2153E-04  9.5437E-01  4.3970E-01  3.5049E-02
 74  1.8292E+00  3.0934E-01  1.0115E-01  9.9031E-01  5.3858E-01  3.0932E-01  3.5513E-01  1.8695E-01  4.5562E-01
 75  5.6289E-01  2.9277E-01  1.1376E+00  3.3193E-01  0.0000E+00  7.7598E-01  0.0000E+00  3.9415E-01  3.1743E-01
 76  0.0000E+00  4.4354E-05  0.0000E+00  1.7201E-04  2.9655E-04  2.3024E-04  8.4443E-05  0.0000E+00  0.0000E+00
 77  0.0000E+00  1.2637E-05  0.0000E+00  0.0000E+00  0.0000E+00  0.0000E+00  0.0000E+00  0.0000E+00  1.2760E-05
 78  0.0000E+00  1.9452E-05  0.0000E+00  3.8791E-05  0.0000E+00  0.0000E+00  0.0000E+00  0.0000E+00  0.0000E+00
 79  0.0000E+00  2.9781E-05  1.3523E-04  1.0309E-04  0.0000E+00  0.0000E+00  0.0000E+00  0.0000E+00  0.0000E+00
 80  0.0000E+00  2.0349E-05  0.0000E+00  0.0000E+00  0.0000E+00  0.0000E+00  0.0000E+00  0.0000E+00  0.0000E+00
 81  0.0000E+00  1.0856E-04  0.0000E+00  4.1126E-05  0.0000E+00  0.0000E+00  0.0000E+00  0.0000E+00  0.0000E+00
 82  0.0000E+00  1.2476E-04  0.0000E+00  3.4441E-07  0.0000E+00  0.0000E+00  0.0000E+00  0.0000E+00  0.0000E+00
 83  0.0000E+00  3.1170E-05  0.0000E+00  1.4149E-05  0.0000E+00  1.2075E-05  0.0000E+00  0.0000E+00  0.0000E+00
 84  0.0000E+00  3.4279E-05  0.0000E+00  0.0000E+00  0.0000E+00  0.0000E+00  0.0000E+00  0.0000E+00  0.0000E+00
 85  0.0000E+00  6.9127E-05  3.1667E-04  0.0000E+00  0.0000E+00  0.0000E+00  0.0000E+00  0.0000E+00  0.0000E+00
 86  0.0000E+00  7.1210E-05  0.0000E+00  0.0000E+00  0.0000E+00  0.0000E+00  0.0000E+00  0.0000E+00  0.0000E+00
 87  0.0000E+00  6.1577E-05  0.0000E+00  0.0000E+00  0.0000E+00  0.0000E+00  0.0000E+00  0.0000E+00  0.0000E+00
 88  0.0000E+00  5.2522E-05  0.0000E+00  1.8774E-04  0.0000E+00  0.0000E+00  0.0000E+00  0.0000E+00  0.0000E+00
 89  0.0000E+00  9.1700E-05  0.0000E+00  0.0000E+00  0.0000E+00  0.0000E+00  0.0000E+00  0.0000E+00  0.0000E+00
 90  0.0000E+00  1.6897E-04  0.0000E+00  0.0000E+00  0.0000E+00  0.0000E+00  0.0000E+00  0.0000E+00  0.0000E+00
 91  0.0000E+00  7.2916E-04  0.0000E+00  0.0000E+00  0.0000E+00  0.0000E+00  0.0000E+00  0.0000E+00  0.0000E+00
 92  0.0000E+00  1.1013E-03  0.0000E+00  0.0000E+00  0.0000E+00  0.0000E+00  0.0000E+00  0.0000E+00  0.0000E+00
 93  0.0000E+00  1.1683E-02  0.0000E+00  0.0000E+00  1.1092E-02  5.3648E-03  0.0000E+00  1.1127E-02  0.0000E+00
 94  0.0000E+00  4.3234E-02  0.0000E+00  4.5219E-02  0.0000E+00  0.0000E+00  2.6369E-02  0.0000E+00  0.0000E+00
 95  9.5788E-04  1.2778E-01  1.8465E-01  0.0000E+00  2.5834E-01  1.9039E-01  4.5774E-01  4.9696E-01  1.4994E-01
 96  0.0000E+00  1.8191E-01  2.1240E-01  0.0000E+00  0.0000E+00  2.6738E-02  0.0000E+00  3.9047E-01  2.9890E-01
 97  1.4676E+00  3.6020E+00  3.4057E+00  3.1106E+00  3.5567E+00  3.0950E+00  3.7449E+00  2.2825E+00  3.6487E+00
 98  1.7411E+01  1.5591E+01  1.5898E+01  1.6966E+01  1.5618E+01  1.7049E+01  1.6142E+01  1.6233E+01  1.5750E+01
 99  1.4196E+01  1.1947E+01  1.2638E+01  1.2624E+01  1.2738E+01  1.1995E+01  1.2889E+01  1.2174E+01  1.2700E+01
100  9.9115E+00  8.2783E+00  8.5177E+00  8.3194E+00  9.2596E+00  9.2541E+00  8.2717E+00  8.4306E+00  9.4232E+00
101  0.0000E+00  2.6648E-05  0.0000E+00  0.0000E+00  0.0000E+00  1.1139E-04  0.0000E+00  0.0000E+00  0.0000E+00
102  0.0000E+00  2.7911E-05  0.0000E+00  0.0000E+00  6.9736E-06  0.0000E+00  0.0000E+00  1.1731E-04  0.0000E+00
103  0.0000E+00  6.3428E-05  0.0000E+00  0.0000E+00  0.0000E+00  0.0000E+00  2.5802E-05  1.3104E-04  0.0000E+00
104  0.0000E+00  4.4810E-05  0.0000E+00  3.8011E-05  0.0000E+00  0.0000E+00  0.0000E+00  0.0000E+00  0.0000E+00
105  0.0000E+00  2.2728E-04  0.0000E+00  0.0000E+00  1.9228E-04  0.0000E+00  0.0000E+00  1.0533E-04  5.3113E-05
106  0.0000E+00  6.3194E-05  0.0000E+00  0.0000E+00  0.0000E+00  0.0000E+00  0.0000E+00  0.0000E+00  0.0000E+00
107  0.0000E+00  5.7175E-05  0.0000E+00  0.0000E+00  0.0000E+00  0.0000E+00  0.0000E+00  7.8484E-05  0.0000E+00
108  0.0000E+00  5.0371E-05  0.0000E+00  0.0000E+00  0.0000E+00  0.0000E+00  0.0000E+00  0.0000E+00  0.0000E+00
109  0.0000E+00  3.8839E-05  0.0000E+00  0.0000E+00  0.0000E+00  0.0000E+00  0.0000E+00  0.0000E+00  0.0000E+00
110  0.0000E+00  2.4911E-05  0.0000E+00  0.0000E+00  0.0000E+00  1.5709E-04  0.0000E+00  0.0000E+00  0.0000E+00
111  0.0000E+00  4.2681E-05  0.0000E+00  0.0000E+00  0.0000E+00  0.0000E+00  0.0000E+00  0.0000E+00  0.0000E+00
112  0.0000E+00  3.7733E-05  0.0000E+00  0.0000E+00  3.0475E-04  0.0000E+00  0.0000E+00  0.0000E+00  0.0000E+00
113  0.0000E+00  1.8152E-05  0.0000E+00  0.0000E+00  0.0000E+00  0.0000E+00  0.0000E+00  0.0000E+00  0.0000E+00
114  0.0000E+00  9.9469E-05  0.0000E+00  0.0000E+00  0.0000E+00  0.0000E+00  0.0000E+00  0.0000E+00  5.5352E-05
115  0.0000E+00  4.3464E-04  0.0000E+00  0.0000E+00  0.0000E+00  0.0000E+00  0.0000E+00  0.0000E+00  0.0000E+00
116  0.0000E+00  1.0680E-03  0.0000E+00  0.0000E+00  0.0000E+00  1.3986E-03  1.2839E-02  0.0000E+00  1.1986E-04
117  0.0000E+00  1.6324E-03  0.0000E+00  0.0000E+00  0.0000E+00  0.0000E+00  8.8190E-04  0.0000E+00  0.0000E+00
118  0.0000E+00  1.6042E-02  6.4244E-03  0.0000E+00  0.0000E+00  3.7528E-02  1.1151E-02  0.0000E+00  2.8311E-02
119  0.0000E+00  4.0430E-02  2.6633E-02  0.0000E+00  5.3154E-02  1.7435E-01  0.0000E+00  5.1103E-02  4.0384E-02
120  0.0000E+00  1.1475E-01  4.2326E-01  1.4723E-01  4.0335E-01  0.0000E+00  5.0660E-02  0.0000E+00  5.4077E-02
121  1.3485E+00  2.8291E+00  2.9219E+00  2.8100E+00  2.4549E+00  2.6222E+00  2.5599E+00  2.3433E+00  1.8765E+00
122  1.1384E+01  1.0824E+01  1.0401E+01  1.0883E+01  1.1285E+01  1.0707E+01  9.8802E+00  1.0959E+01  1.1025E+01
123  1.2047E+01  1.1600E+01  1.1896E+01  1.1464E+01  1.1843E+01  1.1892E+01  1.3046E+01  1.1956E+01  1.1652E+01
124  1.4921E+01  1.3386E+01  1.3412E+01  1.3425E+01  1.3654E+01  1.3913E+01  1.3986E+01  1.4274E+01  1.3194E+01
125  8.8949E+00  8.9829E+00  9.8385E+00  9.2508E+00  8.8713E+00  9.0475E+00  8.8577E+00  9.5587E+00  9.3055E+00
126  0.0000E+00  7.4547E-05  0.0000E+00  1.3419E-04  0.0000E+00  6.7476E-05  0.0000E+00  0.0000E+00  0.0000E+00
127  0.0000E+00  1.8756E-05  1.0889E-04  0.0000E+00  1.6646E-05  0.0000E+00  0.0000E+00  0.0000E+00  1.3550E-06
128  0.0000E+00  4.0944E-05  0.0000E+00  0.0000E+00  0.0000E+00  4.0821E-05  0.0000E+00  1.0047E-04  0.0000E+00
129  0.0000E+00  2.1473E-04  5.0713E-04  0.0000E+00  0.0000E+00  3.4798E-04  0.0000E+00  0.0000E+00  1.2193E-04
130  0.0000E+00  2.4188E-05  0.0000E+00  0.0000E+00  0.0000E+00  1.7478E-04  0.0000E+00  0.0000E+00  0.0000E+00
131  0.0000E+00  5.0990E-05  0.0000E+00  0.0000E+00  0.0000E+00  0.0000E+00  0.0000E+00  0.0000E+00  0.0000E+00
132  0.0000E+00  2.8728E-05  0.0000E+00  0.0000E+00  0.0000E+00  0.0000E+00  0.0000E+00  2.2710E-05  0.0000E+00
133  0.0000E+00  4.7654E-05  0.0000E+00  0.0000E+00  0.0000E+00  0.0000E+00  0.0000E+00  0.0000E+00  0.0000E+00
134  0.0000E+00  2.7215E-05  0.0000E+00  0.0000E+00  0.0000E+00  0.0000E+00  0.0000E+00  0.0000E+00  0.0000E+00
135  0.0000E+00  2.3008E-05  0.0000E+00  0.0000E+00  0.0000E+00  0.0000E+00  0.0000E+00  0.0000E+00  0.0000E+00
136  0.0000E+00  3.1264E-05  0.0000E+00  0.0000E+00  0.0000E+00  0.0000E+00  0.0000E+00  0.0000E+00  0.0000E+00
137  0.0000E+00  7.0805E-05  0.0000E+00  0.0000E+00  0.0000E+00  0.0000E+00  0.0000E+00  0.0000E+00  0.0000E+00
138  0.0000E+00  4.7322E-05  0.0000E+00  0.0000E+00  0.0000E+00  0.0000E+00  0.0000E+00  0.0000E+00  0.0000E+00
139  0.0000E+00  1.4532E-04  0.0000E+00  0.0000E+00  0.0000E+00  0.0000E+00  0.0000E+00  0.0000E+00  0.0000E+00
140  0.0000E+00  1.1631E-03  0.0000E+00  0.0000E+00  0.0000E+00  0.0000E+00  0.0000E+00  0.0000E+00  0.0000E+00
141  0.0000E+00  2.5416E-03  0.0000E+00  0.0000E+00  0.0000E+00  0.0000E+00  0.0000E+00  3.4170E-03  0.0000E+00
142  0.0000E+00  5.3191E-03  0.0000E+00  0.0000E+00  0.0000E+00  0.0000E+00  2.6082E-02  0.0000E+00  4.7326E-04
143  0.0000E+00  4.5435E-02  0.0000E+00  1.0970E-01  0.0000E+00  4.7101E-03  9.3451E-02  3.7960E-02  1.3406E-01
144  1.8612E+00  9.2881E-01  9.2589E-01  6.2368E-01  8.6257E-01  9.9018E-01  9.8047E-01  9.1683E-01  9.2646E-01
145  2.3151E+00  1.2366E+00  7.9435E-01  8.9173E-01  1.4946E+00  1.1987E+00  1.2056E+00  1.3624E+00  1.3157E+00
146  1.8126E+00  2.1802E+00  2.4177E+00  2.2957E+00  1.9907E+00  1.8436E+00  1.9546E+00  2.7400E+00  2.3590E+00
147  1.8697E-06  1.2539E+00  1.6998E+00  1.1118E+00  1.0821E+00  9.5868E-01  8.9417E-01  6.9377E-01  1.4669E+00
148  0.0000E+00  2.1367E+00  1.5265E+00  2.1399E+00  1.3245E+00  2.0589E+00  1.9360E+00  1.7641E+00  2.0233E+00
149  1.0704E-05  1.7219E+00  0.0000E+00  1.7211E+00  2.0598E+00  1.2970E+00  1.3003E+00  6.2643E-02  1.3429E+00
150  0.0000E+00  1.3877E+00  7.2617E-01  3.2601E-02  0.0000E+00  0.0000E+00  0.0000E+00  1.4346E+00  0.0000E+00

# AV, chi2 & Mass for <> & i_chain = 1 ...  7 solutions
AV       1.2560      1.2270      1.2435      1.2421      1.2401      1.2390      1.2417      1.2386      1.2363
chi2 1.6641E+00  1.7517E+00  1.7116E+00  1.7173E+00  1.7173E+00  1.7205E+00  1.7175E+00  1.7166E+00  1.7109E+00
Mass 1.0951E-09  1.0826E-09  1.0918E-09  1.0958E-09  1.0888E-09  1.0895E-09  1.0861E-09  1.0901E-09  1.0869E-09
   9.59                                  [v0_min (km/s) before EX0s...]
  54.04                                  [vd_min (km/s) before EX0s...]


## Synthetic spectrum (Best Model) ##l_obs f_obs f_syn wei
 3070    [Nl_obs]
 3359.00    0.00000   0.42770   -2.000
 3360.00    0.00000   0.39901   -2.000
 3361.00    0.18410   0.39895   -1.000
 3362.00    0.27073   0.42528   -1.000
 3363.00    0.28523   0.46273   -1.000
 3364.00    0.28842   0.49118   -1.000
 3365.00    0.28762   0.49722   -1.000
 3366.00    0.29495   0.48106   -1.000
 3367.00    0.29689   0.45657   -1.000
 3368.00    0.27013   0.43368   -1.000
 3369.00    0.25323   0.41912   -1.000
 3370.00    0.26700   0.41228   -1.000
 3371.00    0.28538   0.41022   -1.000
 3372.00    0.28347   0.41548   -1.000
 3373.00    0.28018   0.43331   -1.000
 3374.00    0.28734   0.46195   -1.000
 3375.00    0.29574   0.49305   -1.000
 3376.00    0.30478   0.51389   -1.000
 3377.00    0.33955   0.51312   -1.000
 3378.00    0.32869   0.49141   -1.000
 3379.00    0.30448   0.46592   -1.000
 3380.00    0.28783   0.45234   -1.000
 3381.00    0.28244   0.45750   -1.000
 3382.00    0.30577   0.47331   -1.000
 3383.00    0.30980   0.48942   -1.000
 3384.00    0.31264   0.50141   -1.000
 3385.00    0.34818   0.51115   -1.000
 3386.00    0.34196   0.51655   -1.000
 3387.00    0.31924   0.51735   -1.000
 3388.00    0.32895   0.51650   -1.000
 3389.00    0.34421   0.51464   -1.000
 3390.00    0.33805   0.50830   -1.000
 3391.00    0.37549   0.49383   -1.000
 3392.00    0.35196   0.47799   -1.000
 3393.00    0.34907   0.47314   -1.000
 3394.00    0.38688   0.48380   -1.000
 3395.00    0.41273   0.50529   -1.000
 3396.00    0.41921   0.52631   -1.000
 3397.00    0.40297   0.54419   -1.000
 3398.00    0.42168   0.55879   -1.000
 3399.00    0.44697   0.56549   -1.000
 3400.00    0.45441   0.56231   -1.000
 3401.00    0.43776   0.55168   -1.000
 3402.00    0.42656   0.53640   -1.000
 3403.00    0.43347   0.52272   -1.000
 3404.00    0.42914   0.51343   -1.000
 3405.00    0.40752   0.50624   -1.000
 3406.00    0.41974   0.49867   -1.000
 3407.00    0.43450   0.49193   -1.000
 3408.00    0.44046   0.49049   -1.000
 3409.00    0.43935   0.49521   -1.000
 3410.00    0.43991   0.50299   -1.000
 3411.00    0.41222   0.50332   -1.000
 3412.00    0.41649   0.49096   -1.000
 3413.00    0.42871   0.47313   -1.000
 3414.00    0.43580   0.46090   73.922
 3415.00    0.42222   0.46469   75.904
 3416.00    0.41125   0.48234   -1.000
 3417.00    0.43367   0.50764   -1.000
 3418.00    0.45827   0.53217   -1.000
 3419.00    0.47336   0.55151   -1.000
 3420.00    0.48331   0.55912   -1.000
 3421.00    0.50782   0.55152   64.065
 3422.00    0.49971   0.53284   63.699
 3423.00    0.47824   0.51879   63.821
 3424.00    0.48895   0.51562   65.218
 3425.00    0.49422   0.51843   66.849
 3426.00    0.47816   0.52283   66.014
 3427.00    0.49768   0.53082   64.205
 3428.00    0.51683   0.54741   63.427
 3429.00    0.52104   0.56791   -1.000
 3430.00    0.51643   0.57314   -1.000
 3431.00    0.51056   0.55818   -1.000
 3432.00    0.49098   0.53461   -1.000
 3433.00    0.48725   0.52030   -1.000
 3434.00    0.51445   0.52341   91.374
 3435.00    0.51778   0.53211   63.291
 3436.00    0.49379   0.53266   -1.000
 3437.00    0.48331   0.52022   -1.000
 3438.00    0.48399   0.49605   90.871
 3439.00    0.44568   0.46246   65.069
 3440.00    0.42671   0.42915   68.703
 3441.00    0.40903   0.40626   73.722
 3442.00    0.38903   0.40158   77.695
 3443.00    0.39968   0.41214   78.813
 3444.00    0.42660   0.42914   78.621
 3445.00    0.44624   0.44638   76.402
 3446.00    0.45478   0.46504   72.576
 3447.00    0.46993   0.48608   68.568
 3448.00    0.49526   0.50998   65.722
 3449.00    0.51293   0.53141  156.772
 3450.00    0.49975   0.53838   -1.000
 3451.00    0.49714   0.52722   -1.000
 3452.00    0.49046   0.51274   -1.000
 3453.00    0.50000   0.50838   -1.000
 3454.00    0.53807   0.51613   -1.000
 3455.00    0.53268   0.52409   -1.000
 3456.00    0.51914   0.51993  515.512
 3457.00    0.52554   0.50333   -1.000
 3458.00    0.51908   0.48104   -1.000
 3459.00    0.49958   0.46387   -1.000
 3460.00    0.48959   0.45514   -1.000
 3461.00    0.48756   0.45854   63.876
 3462.00    0.50979   0.47625   63.892
 3463.00    0.52598   0.50054   -1.000
 3464.00    0.52348   0.51064   -1.000
 3465.00    0.52939   0.50689   -1.000
 3466.00    0.53219   0.50358   -1.000
 3467.00    0.53049   0.50987   -1.000
 3468.00    0.51908   0.52614  515.512
 3469.00    0.53550   0.54208  515.512
 3470.00    0.55555   0.54751   -1.000
 3471.00    0.55858   0.53702   -1.000
 3472.00    0.53022   0.51491   -1.000
 3473.00    0.51048   0.48704   -1.000
 3474.00    0.49109   0.46006   -1.000
 3475.00    0.46120   0.44088   -1.000
 3476.00    0.45066   0.43942   93.554
 3477.00    0.46741   0.45527   65.385
 3478.00    0.50051   0.47904   65.295
 3479.00    0.52620   0.50018   -1.000
 3480.00    0.52863   0.51280   -1.000
 3481.00    0.54118   0.51432   -1.000
 3482.00    0.54102   0.50576   -1.000
 3483.00    0.52224   0.49504   -1.000
 3484.00    0.51528   0.49390   -1.000
 3485.00    0.50458   0.50861  515.512
 3486.00    0.52749   0.52806  515.512
 3487.00    0.53904   0.53656  515.512
 3488.00    0.54259   0.52426   -1.000
 3489.00    0.52596   0.49734   -1.000
 3490.00    0.50639   0.47249   -1.000
 3491.00    0.48649   0.46321   -1.000
 3492.00    0.47906   0.47043   -1.000
 3493.00    0.49193   0.48352   -1.000
 3494.00    0.51054   0.49145   -1.000
 3495.00    0.52034   0.48711   -1.000
 3496.00    0.51204   0.47793   -1.000
 3497.00    0.50029   0.48107   -1.000
 3498.00    0.48849   0.50439   -1.000
 3499.00    0.50648   0.53572   -1.000
 3500.00    0.55692   0.55481  515.512
 3501.00    0.58070   0.56273   -1.000
 3502.00    0.58749   0.57003   -1.000
 3503.00    0.59254   0.57457   -1.000
 3504.00    0.58309   0.56967   -1.000
 3505.00    0.58008   0.55697   -1.000
 3506.00    0.56431   0.54595   -1.000
 3507.00    0.56356   0.54264   -1.000
 3508.00    0.55897   0.54024   -1.000
 3509.00    0.55769   0.53066   -1.000
 3510.00    0.55731   0.51725   -1.000
 3511.00    0.54734   0.50346   -1.000
 3512.00    0.51952   0.48952   -1.000
 3513.00    0.49154   0.47671   -1.000
 3514.00    0.49313   0.47340   -1.000
 3515.00    0.50083   0.49064   -1.000
 3516.00    0.52149   0.52526  515.512
 3517.00    0.54588   0.55719   -1.000
 3518.00    0.56677   0.57044  515.512
 3519.00    0.54625   0.55948   -1.000
 3520.00    0.53695   0.53410  510.701
 3521.00    0.53843   0.50606   -1.000
 3522.00    0.51628   0.48331   -1.000
 3523.00    0.50297   0.46312   -1.000
 3524.00    0.47262   0.44459   -1.000
 3525.00    0.43755   0.43589   95.250
 3526.00    0.43648   0.44789   64.707
 3527.00    0.46984   0.47821   65.299
 3528.00    0.51036   0.51520  147.292
 3529.00    0.54735   0.54192   -1.000
 3530.00    0.55716   0.55017   -1.000
 3531.00    0.53535   0.54435   -1.000
 3532.00    0.53548   0.54030  515.512
 3533.00    0.55365   0.54614   -1.000
 3534.00    0.55077   0.55744  515.512
 3535.00    0.55589   0.56645   -1.000
 3536.00    0.56027   0.56930   -1.000
 3537.00    0.55468   0.57249   -1.000
 3538.00    0.58035   0.58106  508.021
 3539.00    0.59035   0.58714  505.646
 3540.00    0.58730   0.58424  499.455
 3541.00    0.57595   0.57520  499.780
 3542.00    0.55929   0.57127   -1.000
 3543.00    0.54966   0.57812   -1.000
 3544.00    0.55873   0.58792   -1.000
 3545.00    0.58305   0.59178   -1.000
 3546.00    0.56290   0.58687   -1.000
 3547.00    0.54572   0.58028   -1.000
 3548.00    0.54122   0.57863   -1.000
 3549.00    0.55057   0.58041   -1.000
 3550.00    0.56481   0.57959   -1.000
 3551.00    0.54419   0.57115   -1.000
 3552.00    0.51544   0.55611   -1.000
 3553.00    0.49814   0.54120   -1.000
 3554.00    0.50855   0.53512   -1.000
 3555.00    0.52437   0.53897   -1.000
 3556.00    0.52165   0.54408   -1.000
 3557.00    0.50552   0.54453   -1.000
 3558.00    0.50046   0.54033   -1.000
 3559.00    0.51237   0.53862   -1.000
 3560.00    0.49812   0.54558   -1.000
 3561.00    0.49316   0.55863   -1.000
 3562.00    0.52128   0.56717   -1.000
 3563.00    0.51712   0.55469   -1.000
 3564.00    0.49704   0.51994   -1.000
 3565.00    0.47967   0.48043  515.512
 3566.00    0.45715   0.45944   98.004
 3567.00    0.45477   0.45744   65.514
 3568.00    0.46055   0.45599   66.074
 3569.00    0.44164   0.44639   65.540
 3570.00    0.41906   0.43714   66.764
 3571.00    0.44040   0.43993   68.418
 3572.00    0.45598   0.45632   67.552
 3573.00    0.48509   0.47400   64.851
 3574.00    0.50047   0.48660  139.613
 3575.00    0.49987   0.49421   -1.000
 3576.00    0.49284   0.49538  515.512
 3577.00    0.47825   0.48623   -1.000
 3578.00    0.48316   0.46624   -1.000
 3579.00    0.46088   0.43732   -1.000
 3580.00    0.41349   0.41037  102.260
 3581.00    0.38857   0.39513   69.184
 3582.00    0.38844   0.39563   73.683
 3583.00    0.38899   0.40277   75.545
 3584.00    0.39155   0.40355   75.909
 3585.00    0.40043   0.39669   77.194
 3586.00    0.39077   0.39196   79.518
 3587.00    0.37765   0.39863   81.237
 3588.00    0.40874   0.41782   79.111
 3589.00    0.44179   0.44782   74.951
 3590.00    0.45844   0.48168   71.186
 3591.00    0.49597   0.50925   65.897
 3592.00    0.51877   0.52135  136.511
 3593.00    0.51228   0.52415   -1.000
 3594.00    0.51820   0.53111   -1.000
 3595.00    0.53212   0.54827   -1.000
 3596.00    0.54852   0.57023   -1.000
 3597.00    0.58394   0.58659  515.512
 3598.00    0.61027   0.59830   -1.000
 3599.00    0.60905   0.60794  487.646
 3600.00    0.61781   0.60748   -1.000
 3601.00    0.59958   0.58895   -1.000
 3602.00    0.58218   0.55847   -1.000
 3603.00    0.55402   0.52744   -1.000
 3604.00    0.52328   0.50731   -1.000
 3605.00    0.52441   0.50022   -1.000
 3606.00    0.52239   0.49728   -1.000
 3607.00    0.50947   0.48790   -1.000
 3608.00    0.48450   0.47282   -1.000
 3609.00    0.47291   0.46521   -1.000
 3610.00    0.47885   0.47396   -1.000
 3611.00    0.50525   0.49519   -1.000
 3612.00    0.53198   0.51469   -1.000
 3613.00    0.53422   0.52921   -1.000
 3614.00    0.53332   0.54371   -1.000
 3615.00    0.53001   0.55469   -1.000
 3616.00    0.52895   0.54754   -1.000
 3617.00    0.52030   0.51582  515.512
 3618.00    0.48630   0.47456   -1.000
 3619.00    0.46158   0.45756   -1.000
 3620.00    0.47944   0.47510   99.831
 3621.00    0.51592   0.51423  132.781
 3622.00    0.56090   0.55241   -1.000
 3623.00    0.58509   0.57765   -1.000
 3624.00    0.59106   0.59775   -1.000
 3625.00    0.60249   0.62424   -1.000
 3626.00    0.61781   0.65274   -1.000
 3627.00    0.63172   0.66853   -1.000
 3628.00    0.62069   0.65713   -1.000
 3629.00    0.59058   0.61468   -1.000
 3630.00    0.54803   0.55405   -1.000
 3631.00    0.51951   0.50754   -1.000
 3632.00    0.49530   0.49137  515.512
 3633.00    0.49061   0.50330   -1.000
 3634.00    0.51025   0.52746   -1.000
 3635.00    0.52457   0.54999   -1.000
 3636.00    0.53362   0.56643   -1.000
 3637.00    0.56049   0.58440   -1.000
 3638.00    0.59504   0.60788   -1.000
 3639.00    0.61190   0.62894   -1.000
 3640.00    0.62525   0.63827   -1.000
 3641.00    0.61878   0.63071   -1.000
 3642.00    0.58893   0.60947   -1.000
 3643.00    0.58017   0.58399   -1.000
 3644.00    0.55682   0.56047   -1.000
 3645.00    0.53187   0.54067   -1.000
 3646.00    0.53896   0.52284   -1.000
 3647.00    0.52565   0.50787   -1.000
 3648.00    0.51139   0.50504   -1.000
 3649.00    0.52714   0.51895   -1.000
 3650.00    0.55607   0.54793   -1.000
 3651.00    0.57617   0.58342   -1.000
 3652.00    0.59127   0.61679   -1.000
 3653.00    0.61406   0.63772   -1.000
 3654.00    0.63930   0.64850   -1.000
 3655.00    0.64179   0.65717   -1.000
 3656.00    0.64848   0.66918   -1.000
 3657.00    0.66058   0.68468   -1.000
 3658.00    0.66915   0.69625   -1.000
 3659.00    0.67506   0.70041   -1.000
 3660.00    0.66789   0.69681   -1.000
 3661.00    0.67024   0.68576   -1.000
 3662.00    0.67114   0.66957  437.264
 3663.00    0.64847   0.65636   -1.000
 3664.00    0.63153   0.65104   -1.000
 3665.00    0.64687   0.65202   -1.000
 3666.00    0.65377   0.65189  451.876
 3667.00    0.64136   0.64370   -1.000
 3668.00    0.62933   0.62932  455.349
 3669.00    0.61936   0.61934  462.396
 3670.00    0.60749   0.62557   -1.000
 3671.00    0.62316   0.64514   -1.000
 3672.00    0.65427   0.66362   -1.000
 3673.00    0.66513   0.67259   -1.000
 3674.00    0.67087   0.67192  444.957
 3675.00    0.66870   0.66205  444.302
 3676.00    0.63724   0.64194   -1.000
 3677.00    0.61745   0.61454  453.227
 3678.00    0.60769   0.58696   -1.000
 3679.00    0.57196   0.56889  481.814
 3680.00    0.55969   0.56839   -1.000
 3681.00    0.57562   0.58382   -1.000
 3682.00    0.60047   0.60302  491.264
 3683.00    0.61290   0.61358  477.492
 3684.00    0.60885   0.60655  469.087
 3685.00    0.58735   0.58261  473.833
 3686.00    0.56722   0.55334   -1.000
 3687.00    0.54485   0.54055  510.335
 3688.00    0.54726   0.55544   -1.000
 3689.00    0.57983   0.59412   -1.000
 3690.00    0.62562   0.63885   -1.000
 3691.00    0.66814   0.66886  460.423
 3692.00    0.66826   0.67239   -1.000
 3693.00    0.64330   0.65796   -1.000
 3694.00    0.63742   0.64362   -1.000
 3695.00    0.63724   0.63772  453.227
 3696.00    0.65084   0.64162  454.671
 3697.00    0.65520   0.65585  451.415
 3698.00    0.65809   0.67993   -1.000
 3699.00    0.68076   0.70332   -1.000
 3700.00    0.68937   0.71405   -1.000
 3701.00    0.67754   0.70276   -1.000
 3702.00    0.65982   0.66618   -1.000
 3703.00    0.62667   0.60952   -1.000
 3704.00    0.57199   0.55311   -1.000
 3705.00    0.52971   0.51409   -1.000
 3706.00    0.52412   0.50183   -1.000
 3707.00    0.52628   0.50781   -1.000
 3708.00    0.52554   0.52077   -1.000
 3709.00    0.54330   0.54053  515.512
 3710.00    0.57510   0.57060  515.512
 3711.00    0.61142   0.60765  501.093
 3712.00    0.64848   0.64707  478.331
 3713.00    0.67605   0.68086   -1.000
 3714.00    0.69887   0.69904  429.880
 3715.00    0.70484   0.69708  415.001
 3716.00    0.68018   0.67713  409.888
 3717.00    0.64352   0.63894  415.460
 3718.00    0.59767   0.58242   -1.000
 3719.00    0.53565   0.51557   -1.000
 3720.00    0.48399   0.45789   -1.000
 3721.00    0.47129   0.43498   -1.000
 3722.00    0.49695   0.45285   -1.000
 3723.00    0.53783   0.49970   -1.000
 3724.00    0.57483   0.55713   -1.000
 3725.00    0.60925   0.59878   -1.000
 3726.00    0.62316   0.60782   -1.000
 3727.00    0.61511   0.59831   -1.000
 3728.00    0.60500   0.59513   -1.000
 3729.00    0.61255   0.59934   -1.000
 3730.00    0.61704   0.59429   -1.000
 3731.00    0.58476   0.56485   -1.000
 3732.00    0.52944   0.50990   -1.000
 3733.00    0.47607   0.44953   -1.000
 3734.00    0.44497   0.40163   -1.000
 3735.00    0.43014   0.38053   -1.000
 3736.00    0.41951   0.39197   72.138
 3737.00    0.42198   0.43327   71.272
 3738.00    0.46248   0.49250   65.872
 3739.00    0.52853   0.55498  121.390
 3740.00    0.58090   0.59808   -1.000
 3741.00    0.60363   0.60810  484.848
 3742.00    0.59419   0.58673   -1.000
 3743.00    0.55460   0.55021  479.928
 3744.00    0.50671   0.51322   -1.000
 3745.00    0.48375   0.48555  515.512
 3746.00    0.47575   0.46260   -1.000
 3747.00    0.45006   0.43678   -1.000
 3748.00    0.42595   0.41311  108.965
 3749.00    0.41997   0.40675   66.151
 3750.00    0.45059   0.43232   68.520
 3751.00    0.52002   0.48704   -1.000
 3752.00    0.57942   0.55005   -1.000
 3753.00    0.62025   0.60675   -1.000
 3754.00    0.65595   0.64935   -1.000
 3755.00    0.66110   0.66150  438.528
 3756.00    0.62858   0.63423   -1.000
 3757.00    0.57725   0.58069  432.546
 3758.00    0.52439   0.53177   -1.000
 3759.00    0.51880   0.51550  515.512
 3760.00    0.54915   0.52742   -1.000
 3761.00    0.57211   0.54600   -1.000
 3762.00    0.57835   0.55637   -1.000
 3763.00    0.56777   0.55900   -1.000
 3764.00    0.57394   0.55961   -1.000
 3765.00    0.58947   0.55707   -1.000
 3766.00    0.56917   0.55016   -1.000
 3767.00    0.55819   0.54599   -1.000
 3768.00    0.58118   0.54896   -1.000
 3769.00    0.59483   0.55516   -1.000
 3770.00    0.59542   0.56439   -1.000
 3771.00    0.61224   0.58277   -1.000
 3772.00    0.63821   0.60915   -1.000
 3773.00    0.66715   0.63359   -1.000
 3774.00    0.67753   0.64664   -1.000
 3775.00    0.66772   0.65106   -1.000
 3776.00    0.67214   0.65589   -1.000
 3777.00    0.66941   0.66587  436.290
 3778.00    0.67009   0.68144   -1.000
 3779.00    0.69405   0.69891  431.260
 3780.00    0.70731   0.71467   -1.000
 3781.00    0.71315   0.72537   -1.000
 3782.00    0.72693   0.73043  402.799
 3783.00    0.73753   0.72927  400.297
 3784.00    0.73012   0.71476   -1.000
 3785.00    0.68827   0.68150  404.352
 3786.00    0.63893   0.63790  420.263
 3787.00    0.59975   0.59826  447.734
 3788.00    0.57789   0.57434  475.709
 3789.00    0.57477   0.57146  491.409
 3790.00    0.58216   0.58338  495.297
 3791.00    0.59667   0.59565  490.254
 3792.00    0.59155   0.59568  483.398
 3793.00    0.58140   0.57851  485.070
 3794.00    0.57107   0.55298   -1.000
 3795.00    0.54119   0.52771   -1.000
 3796.00    0.52004   0.50276   -1.000
 3797.00    0.51172   0.47764   -1.000
 3798.00    0.50206   0.46422   -1.000
 3799.00    0.52076   0.47917   -1.000
 3800.00    0.56232   0.52404   -1.000
 3801.00    0.58913   0.57983   -1.000
 3802.00    0.60267   0.62909   -1.000
 3803.00    0.61737   0.66086   -1.000
 3804.00    0.64036   0.67123   -1.000
 3805.00    0.64725   0.66043   -1.000
 3806.00    0.61805   0.64005   -1.000
 3807.00    0.58983   0.62919   -1.000
 3808.00    0.58530   0.63863   -1.000
 3809.00    0.59864   0.66044   -1.000
 3810.00    0.61978   0.67553   -1.000
 3811.00    0.61384   0.66808   -1.000
 3812.00    0.59603   0.63468   -1.000
 3813.00    0.57954   0.58897   -1.000
 3814.00    0.53799   0.54791   -1.000
 3815.00    0.50407   0.52682   -1.000
 3816.00    0.50135   0.52809   -1.000
 3817.00    0.50845   0.53754   -1.000
 3818.00    0.51339   0.53405   -1.000
 3819.00    0.49685   0.51151   -1.000
 3820.00    0.46279   0.49022   -1.000
 3821.00    0.45890   0.48910   -1.000
 3822.00    0.47428   0.50300   -1.000
 3823.00    0.46975   0.50610   -1.000
 3824.00    0.44356   0.48547   -1.000
 3825.00    0.41659   0.45829   -1.000
 3826.00    0.40251   0.44264   -1.000
 3827.00    0.40260   0.44271   66.842
 3828.00    0.41134   0.45250   67.219
 3829.00    0.41098   0.46283   -1.000
 3830.00    0.41302   0.46411   65.262
 3831.00    0.40777   0.45033   65.162
 3832.00    0.40088   0.42532   67.103
 3833.00    0.38670   0.40141   71.374
 3834.00    0.38371   0.39039   75.340
 3835.00    0.41100   0.39254   75.619
 3836.00    0.42019   0.40131   73.250
 3837.00    0.40838   0.40853   70.974
 3838.00    0.39555   0.41210   71.008
 3839.00    0.39955   0.41984   72.673
 3840.00    0.40962   0.44108   72.848
 3841.00    0.43924   0.47939   69.988
 3842.00    0.49242   0.52473   -1.000
 3843.00    0.52576   0.56457   -1.000
 3844.00    0.53604   0.58935   -1.000
 3845.00    0.55163   0.60034   -1.000
 3846.00    0.56191   0.60488   -1.000
 3847.00    0.55470   0.60462   -1.000
 3848.00    0.54172   0.59555   -1.000
 3849.00    0.51770   0.58157   -1.000
 3850.00    0.50810   0.57448   -1.000
 3851.00    0.52677   0.58124   -1.000
 3852.00    0.53337   0.59262   -1.000
 3853.00    0.52870   0.59481   -1.000
 3854.00    0.52930   0.58426   -1.000
 3855.00    0.51747   0.56728   -1.000
 3856.00    0.50159   0.54984   -1.000
 3857.00    0.48126   0.53096   -1.000
 3858.00    0.45768   0.51001   -1.000
 3859.00    0.43610   0.49739   -1.000
 3860.00    0.43678   0.50636   -1.000
 3861.00    0.47791   0.53920   -1.000
 3862.00    0.52334   0.57844   -1.000
 3863.00    0.54788   0.60193   -1.000
 3864.00    0.56214   0.60393   -1.000
 3865.00    0.56655   0.59516   -1.000
 3866.00    0.55428   0.58858   -1.000
 3867.00    0.53227   0.58674   -1.000
 3868.00    0.52454   0.58273   -1.000
 3869.00    0.52115   0.56999   -1.000
 3870.00    0.49874   0.54820   -1.000
 3871.00    0.47422   0.52891   -1.000
 3872.00    0.46841   0.52526   -1.000
 3873.00    0.50135   0.54545   -1.000
 3874.00    0.55568   0.58097   -1.000
 3875.00    0.58324   0.60760   -1.000
 3876.00    0.56944   0.60347   -1.000
 3877.00    0.54044   0.57553   -1.000
 3878.00    0.52033   0.55205   -1.000
 3879.00    0.51316   0.54655   -1.000
 3880.00    0.50962   0.55156   -1.000
 3881.00    0.50077   0.55641   -1.000
 3882.00    0.50578   0.56049   -1.000
 3883.00    0.54245   0.56795   -1.000
 3884.00    0.57055   0.56836  515.512
 3885.00    0.55820   0.54690   -1.000
 3886.00    0.53274   0.51170   -1.000
 3887.00    0.53336   0.48266   -1.000
 3888.00    0.55084   0.47633   -1.000
 3889.00    0.56843   0.49884   -1.000
 3890.00    0.60071   0.54505   -1.000
 3891.00    0.65662   0.59992   -1.000
 3892.00    0.69518   0.64324   -1.000
 3893.00    0.69842   0.66058   -1.000
 3894.00    0.69413   0.65853   -1.000
 3895.00    0.68599   0.65562   -1.000
 3896.00    0.69410   0.65988   -1.000
 3897.00    0.71694   0.66593   -1.000
 3898.00    0.71143   0.66526   -1.000
 3899.00    0.68861   0.65956   -1.000
 3900.00    0.68837   0.65904   -1.000
 3901.00    0.69521   0.66423   -1.000
 3902.00    0.69379   0.66512   -1.000
 3903.00    0.68953   0.65591   -1.000
 3904.00    0.67033   0.64042   -1.000
 3905.00    0.64143   0.63009   -1.000
 3906.00    0.63431   0.63640  453.853
 3907.00    0.67553   0.66402   -1.000
 3908.00    0.72726   0.70172   -1.000
 3909.00    0.74869   0.73266   -1.000
 3910.00    0.75298   0.75050  395.854
 3911.00    0.76573   0.75928  389.544
 3912.00    0.76793   0.76032  386.007
 3913.00    0.75218   0.75335  383.000
 3914.00    0.74758   0.74154  384.054
 3915.00    0.74704   0.73003   -1.000
 3916.00    0.74304   0.71956   -1.000
 3917.00    0.73834   0.70674   -1.000
 3918.00    0.72770   0.68683   -1.000
 3919.00    0.69842   0.65855   -1.000
 3920.00    0.66835   0.63058   -1.000
 3921.00    0.63554   0.61402   -1.000
 3922.00    0.61410   0.61367  471.870
 3923.00    0.62578   0.62224  474.587
 3924.00    0.63770   0.62605   -1.000
 3925.00    0.61724   0.61489  465.109
 3926.00    0.58823   0.58425  478.236
 3927.00    0.54928   0.53998   -1.000
 3928.00    0.48437   0.49119  515.512
 3929.00    0.42452   0.44601  132.179
 3930.00    0.36868   0.40560   75.199
 3931.00    0.32484   0.36567   -1.000
 3932.00    0.28659   0.32633   -1.000
 3933.00    0.25394   0.29761   -1.000
 3934.00    0.24472   0.29583   -1.000
 3935.00    0.26596   0.32394   -1.000
 3936.00    0.31170   0.36937   -1.000
 3937.00    0.37982   0.42092   -1.000
 3938.00    0.44943   0.47415   90.206
 3939.00    0.49308   0.52126   74.974
 3940.00    0.52500   0.55672   -1.000
 3941.00    0.54296   0.57583   -1.000
 3942.00    0.55566   0.57950   -1.000
 3943.00    0.57324   0.58108  515.512
 3944.00    0.57527   0.59508   -1.000
 3945.00    0.59853   0.62269   -1.000
 3946.00    0.64364   0.65206   -1.000
 3947.00    0.67937   0.67265   -1.000
 3948.00    0.69551   0.68642   -1.000
 3949.00    0.72570   0.70214   -1.000
 3950.00    0.75934   0.71837   -1.000
 3951.00    0.75779   0.72489   -1.000
 3952.00    0.75123   0.72595   -1.000
 3953.00    0.74721   0.73256   -1.000
 3954.00    0.76026   0.74038   -1.000
 3955.00    0.76235   0.73852   -1.000
 3956.00    0.74901   0.72706   -1.000
 3957.00    0.74213   0.71626   -1.000
 3958.00    0.73557   0.71075   -1.000
 3959.00    0.72216   0.69506   -1.000
 3960.00    0.67162   0.65285   -1.000
 3961.00    0.59226   0.59650  436.937
 3962.00    0.53204   0.54765   -1.000
 3963.00    0.49994   0.51520   -1.000
 3964.00    0.47981   0.48756  515.512
 3965.00    0.44283   0.44712  128.317
 3966.00    0.39056   0.39166   70.636
 3967.00    0.33652   0.33280   84.692
 3968.00    0.28774   0.29198  104.202
 3969.00    0.28316   0.28515  122.077
 3970.00    0.33261   0.31257  124.459
 3971.00    0.38579   0.36365  108.840
 3972.00    0.43240   0.42639   89.488
 3973.00    0.50143   0.49061   74.192
 3974.00    0.57098   0.55280  112.287
 3975.00    0.63427   0.60982   -1.000
 3976.00    0.69433   0.66099   -1.000
 3977.00    0.73615   0.70819   -1.000
 3978.00    0.79102   0.75150   -1.000
 3979.00    0.83082   0.78782   -1.000
 3980.00    0.83896   0.80721   -1.000
 3981.00    0.84734   0.80782   -1.000
 3982.00    0.84505   0.79895   -1.000
 3983.00    0.82681   0.79538   -1.000
 3984.00    0.82698   0.80544   -1.000
 3985.00    0.84510   0.82302   -1.000
 3986.00    0.86284   0.84091   -1.000
 3987.00    0.87783   0.85731   -1.000
 3988.00    0.89144   0.86933   -1.000
 3989.00    0.90683   0.87428   -1.000
 3990.00    0.91628   0.87776   -1.000
 3991.00    0.92340   0.88696   -1.000
 3992.00    0.93676   0.90047   -1.000
 3993.00    0.94948   0.90877   -1.000
 3994.00    0.95390   0.90350   -1.000
 3995.00    0.93270   0.88520   -1.000
 3996.00    0.89356   0.86462   -1.000
 3997.00    0.87787   0.85781   -1.000
 3998.00    0.89605   0.87175   -1.000
 3999.00    0.93873   0.89986   -1.000
 4000.00    0.98854   0.92790   -1.000
 4001.00    1.00448   0.94684   -1.000
 4002.00    1.00351   0.95038   -1.000
 4003.00    0.99837   0.93140   -1.000
 4004.00    0.95042   0.89108   -1.000
 4005.00    0.89248   0.85302   -1.000
 4006.00    0.88848   0.84663   -1.000
 4007.00    0.92871   0.87583   -1.000
 4008.00    0.96167   0.91781   -1.000
 4009.00    0.98065   0.94730   -1.000
 4010.00    0.99317   0.96105   -1.000
 4011.00    0.99527   0.96620   -1.000
 4012.00    0.99110   0.96791   -1.000
 4013.00    0.97680   0.97211  303.504
 4014.00    0.99830   0.97927   -1.000
 4015.00    1.05449   0.98318   -1.000
 4016.00    1.04370   0.98190   -1.000
 4017.00    1.00178   0.98138   -1.000
 4018.00    0.98889   0.98770  304.071
 4019.00    1.00567   0.99767  305.522
 4020.00    1.03141   1.00307   -1.000
 4021.00    1.03460   0.99902   -1.000
 4022.00    1.00699   0.98832   -1.000
 4023.00    0.99782   0.97529   -1.000
 4024.00    1.00000   0.96505   -1.000
 4025.00    1.00274   0.96756   -1.000
 4026.00    1.03243   0.98833   -1.000
 4027.00    1.06674   1.01286   -1.000
 4028.00    1.06769   1.01487   -1.000
 4029.00    1.02801   0.98052   -1.000
 4030.00    0.97320   0.92206   -1.000
 4031.00    0.92505   0.86950   -1.000
 4032.00    0.89415   0.84121   -1.000
 4033.00    0.88093   0.84095   -1.000
 4034.00    0.89142   0.86772   -1.000
 4035.00    0.94881   0.91731   -1.000
 4036.00    1.01971   0.97648   -1.000
 4037.00    1.07502   1.02740   -1.000
 4038.00    1.09384   1.05117   -1.000
 4039.00    1.07232   1.04583   -1.000
 4040.00    1.05118   1.02839   -1.000
 4041.00    1.03744   1.01351   -1.000
 4042.00    1.02518   0.99143   -1.000
 4043.00    0.99044   0.94031   -1.000
 4044.00    0.90598   0.86302   -1.000
 4045.00    0.81713   0.80051   -1.000
 4046.00    0.80552   0.79972  356.658
 4047.00    0.89222   0.86151   -1.000
 4048.00    0.99354   0.94019   -1.000
 4049.00    1.04964   0.99940   -1.000
 4050.00    1.07365   1.02719   -1.000
 4051.00    1.07713   1.02854   -1.000
 4052.00    1.05791   1.01288   -1.000
 4053.00    1.01768   0.98926   -1.000
 4054.00    0.98363   0.96704   -1.000
 4055.00    0.97397   0.94992   -1.000
 4056.00    0.97618   0.93530   -1.000
 4057.00    0.94763   0.92611   -1.000
 4058.00    0.93614   0.93391  318.777
 4059.00    0.98204   0.95706   -1.000
 4060.00    1.03445   0.97102   -1.000
 4061.00    1.03053   0.95024   -1.000
 4062.00    0.96469   0.89742   -1.000
 4063.00    0.89534   0.84934   -1.000
 4064.00    0.87631   0.83486   -1.000
 4065.00    0.90192   0.85212   -1.000
 4066.00    0.94097   0.88604   -1.000
 4067.00    0.97664   0.92205   -1.000
 4068.00    1.01686   0.94993   -1.000
 4069.00    1.03729   0.95697   -1.000
 4070.00    1.00409   0.93380   -1.000
 4071.00    0.95109   0.90019   -1.000
 4072.00    0.93737   0.89286   -1.000
 4073.00    0.97665   0.91495   -1.000
 4074.00    1.01869   0.93368   -1.000
 4075.00    1.00159   0.91794   -1.000
 4076.00    0.93254   0.87541   -1.000
 4077.00    0.87267   0.84677   -1.000
 4078.00    0.88701   0.86058   -1.000
 4079.00    0.94935   0.91526   -1.000
 4080.00    1.01748   0.97963   -1.000
 4081.00    1.06149   1.01982   -1.000
 4082.00    1.06390   1.02200   -1.000
 4083.00    1.03364   0.99951   -1.000
 4084.00    1.00951   0.97995   -1.000
 4085.00    1.01814   0.98375   -1.000
 4086.00    1.06041   1.01359   -1.000
 4087.00    1.09209   1.05391   -1.000
 4088.00    1.13070   1.08564   -1.000
 4089.00    1.15846   1.09500   -1.000
 4090.00    1.14972   1.08267   -1.000
 4091.00    1.11395   1.06321   -1.000
 4092.00    1.09336   1.04923   -1.000
 4093.00    1.08456   1.03667   -1.000
 4094.00    1.07240   1.01536   -1.000
 4095.00    1.03710   0.98281   -1.000
 4096.00    0.98634   0.94794   -1.000
 4097.00    0.96131   0.92149   -1.000
 4098.00    0.95136   0.89667   -1.000
 4099.00    0.92024   0.85738   -1.000
 4100.00    0.85511   0.80477   -1.000
 4101.00    0.81456   0.76341   -1.000
 4102.00    0.82623   0.76079   -1.000
 4103.00    0.87579   0.80505   -1.000
 4104.00    0.93991   0.87357   -1.000
 4105.00    1.00230   0.93703   -1.000
 4106.00    1.03560   0.97890   -1.000
 4107.00    1.04878   0.99739   -1.000
 4108.00    1.04516   0.99703   -1.000
 4109.00    1.01913   0.98594   -1.000
 4110.00    0.98199   0.97588  312.974
 4111.00    0.98332   0.97732  318.584
 4112.00    1.01111   0.99218   -1.000
 4113.00    1.03497   1.01559   -1.000
 4114.00    1.05493   1.03955   -1.000
 4115.00    1.06383   1.05492  302.645
 4116.00    1.06356   1.05331  298.699
 4117.00    1.06352   1.03393   -1.000
 4118.00    1.03149   1.00805   -1.000
 4119.00    0.99887   0.99141  309.250
 4120.00    1.00358   0.99095   -1.000
 4121.00    1.01714   0.99844   -1.000
 4122.00    1.01665   1.00479   -1.000
 4123.00    1.01096   1.01214  311.825
 4124.00    1.02962   1.02338  310.722
 4125.00    1.04565   1.03171   -1.000
 4126.00    1.04967   1.02749   -1.000
 4127.00    1.03525   1.01116   -1.000
 4128.00    1.00969   0.99358   -1.000
 4129.00    0.99637   0.97989   -1.000
 4130.00    0.97766   0.96208   -1.000
 4131.00    0.95068   0.93554   -1.000
 4132.00    0.93809   0.91142   -1.000
 4133.00    0.92334   0.91096   -1.000
 4134.00    0.94583   0.94103  342.446
 4135.00    0.99034   0.98656  338.136
 4136.00    1.03509   1.02886  324.234
 4137.00    1.06661   1.05852  310.076
 4138.00    1.07704   1.07553  302.157
 4139.00    1.07161   1.08018  297.448
 4140.00    1.06222   1.06325  294.193
 4141.00    1.02104   1.01553  295.960
 4142.00    0.94494   0.94887  305.927
 4143.00    0.87770   0.89978   -1.000
 4144.00    0.88404   0.89780   -1.000
 4145.00    0.93793   0.93846  355.607
 4146.00    0.99022   0.98877  338.428
 4147.00    1.02513   1.01599   -1.000
 4148.00    1.01949   1.01535  312.616
 4149.00    0.99404   1.00255  313.174
 4150.00    0.96732   0.99323   -1.000
 4151.00    0.96091   0.99041   -1.000
 4152.00    0.96706   0.98741   -1.000
 4153.00    0.96105   0.97950   -1.000
 4154.00    0.94552   0.96982   -1.000
 4155.00    0.95665   0.96657  330.823
 4156.00    0.97508   0.97595  330.837
 4157.00    0.98358   0.99679   -1.000
 4158.00    1.12179   1.02422   -1.000
 4159.00    1.34715   1.05049   -1.000
 4160.00    1.09780   1.06925   -1.000
 4161.00    0.72107   1.08197   -1.000
 4162.00    0.96043   1.09084   -1.000
 4163.00    1.13029   1.09317   -1.000
 4164.00    1.07274   1.08504   -1.000
 4165.00    1.03506   1.06708   -1.000
 4166.00    1.00467   1.04535   -1.000
 4167.00    0.98021   1.03253   -1.000
 4168.00    0.97583   1.03408   -1.000
 4169.00    0.99706   1.03861   -1.000
 4170.00    1.00645   1.02519   -1.000
 4171.00    0.97263   0.98619   -1.000
 4172.00    0.92030   0.94230   -1.000
 4173.00    0.90125   0.92083   -1.000
 4174.00    0.90538   0.93052   -1.000
 4175.00    0.92535   0.95521   -1.000
 4176.00    0.94745   0.97268   -1.000
 4177.00    0.95444   0.97976   -1.000
 4178.00    0.95571   0.98711   -1.000
 4179.00    0.96956   0.99820   -1.000
 4180.00    0.97784   1.00646   -1.000
 4181.00    0.98871   1.00701   -1.000
 4182.00    0.98836   1.00850   -1.000
 4183.00    1.00499   1.02243   -1.000
 4184.00    1.03057   1.03965  320.795
 4185.00    1.02770   1.04182   -1.000
 4186.00    1.01121   1.02344   -1.000
 4187.00    0.98280   1.00174   -1.000
 4188.00    0.97042   0.99957   -1.000
 4189.00    0.99039   1.01501   -1.000
 4190.00    1.00988   1.03202   -1.000
 4191.00    1.02734   1.04615   -1.000
 4192.00    1.04593   1.06047   -1.000
 4193.00    1.06366   1.06878  312.229
 4194.00    1.05352   1.05610  306.378
 4195.00    1.01312   1.01836  307.254
 4196.00    0.96979   0.97417  319.321
 4197.00    0.93371   0.94181  334.096
 4198.00    0.92202   0.92694  343.032
 4199.00    0.93101   0.92509  346.930
 4200.00    0.94054   0.93005   -1.000
 4201.00    0.95248   0.93765   -1.000
 4202.00    0.96925   0.95020   -1.000
 4203.00    0.99231   0.97410   -1.000
 4204.00    1.00928   1.00824  332.710
 4205.00    1.02907   1.04318   -1.000
 4206.00    1.06278   1.07274   -1.000
 4207.00    1.09835   1.09408  317.496
 4208.00    1.09586   1.10139  310.158
 4209.00    1.09204   1.09653  305.866
 4210.00    1.07860   1.09154   -1.000
 4211.00    1.07859   1.09388   -1.000
 4212.00    1.08291   1.09453   -1.000
 4213.00    1.04955   1.07527   -1.000
 4214.00    1.00772   1.03692   -1.000
 4215.00    0.97841   1.00762   -1.000
 4216.00    0.99547   1.01495   -1.000
 4217.00    1.05839   1.06133  334.986
 4218.00    1.12417   1.11683  319.153
 4219.00    1.17859   1.15518   -1.000
 4220.00    1.19420   1.16651   -1.000
 4221.00    1.18469   1.14924   -1.000
 4222.00    1.14322   1.10184   -1.000
 4223.00    1.07771   1.02457   -1.000
 4224.00    0.98437   0.92467   -1.000
 4225.00    0.86659   0.82913   -1.000
 4226.00    0.77336   0.77569  365.654
 4227.00    0.78208   0.79699   -1.000
 4228.00    0.88743   0.88825  418.773
 4229.00    1.01789   1.00201   -1.000
 4230.00    1.10156   1.08032   -1.000
 4231.00    1.13459   1.10468   -1.000
 4232.00    1.12507   1.09046   -1.000
 4233.00    1.09413   1.06092   -1.000
 4234.00    1.05780   1.03374   -1.000
 4235.00    1.03961   1.01765   -1.000
 4236.00    1.03813   1.01304   -1.000
 4237.00    1.04213   1.02049   -1.000
 4238.00    1.05279   1.04034   -1.000
 4239.00    1.06976   1.06686  318.386
 4240.00    1.09636   1.09371  311.840
 4241.00    1.12206   1.11830  306.924
 4242.00    1.14179   1.14087  301.597
 4243.00    1.16543   1.16503  298.596
 4244.00    1.18227   1.18566  295.968
 4245.00    1.18231   1.18482  290.311
 4246.00    1.15120   1.15203  287.435
 4247.00    1.10880   1.09966  294.396
 4248.00    1.06883   1.04944   -1.000
 4249.00    1.03158   1.01908  317.848
 4250.00    1.02698   1.01389   -1.000
 4251.00    1.04552   1.02891   -1.000
 4252.00    1.07017   1.04465   -1.000
 4253.00    1.07517   1.04420   -1.000
 4254.00    1.05821   1.03771   -1.000
 4255.00    1.05622   1.04964  311.700
 4256.00    1.09554   1.08115   -1.000
 4257.00    1.12795   1.09777   -1.000
 4258.00    1.10576   1.07273   -1.000
 4259.00    1.04304   1.02447   -1.000
 4260.00    0.99671   0.99641  316.139
 4261.00    1.00455   1.01895   -1.000
 4262.00    1.06684   1.08434   -1.000
 4263.00    1.15705   1.15795  315.164
 4264.00    1.20664   1.20576  296.922
 4265.00    1.21556   1.21873  285.577
 4266.00    1.20978   1.20538  281.242
 4267.00    1.18176   1.17173  282.609
 4268.00    1.13410   1.11920   -1.000
 4269.00    1.07881   1.05159   -1.000
 4270.00    1.00972   0.97737   -1.000
 4271.00    0.92723   0.91818  323.413
 4272.00    0.89082   0.89263  344.709
 4273.00    0.91529   0.90349   -1.000
 4274.00    0.95282   0.94077   -1.000
 4275.00    0.99257   0.99691  349.958
 4276.00    1.05843   1.06519  338.637
 4277.00    1.13662   1.12615   -1.000
 4278.00    1.17050   1.15174   -1.000
 4279.00    1.14218   1.13866  292.731
 4280.00    1.09195   1.11135   -1.000
 4281.00    1.08034   1.09810   -1.000
 4282.00    1.09434   1.10282  317.629
 4283.00    1.09837   1.10722  316.233
 4284.00    1.07647   1.09984   -1.000
 4285.00    1.05070   1.08346   -1.000
 4286.00    1.05130   1.06428   -1.000
 4287.00    1.04108   1.03986  326.929
 4288.00    0.99714   1.00298  333.879
 4289.00    0.94731   0.96205   -1.000
 4290.00    0.93112   0.94523   -1.000
 4291.00    0.95830   0.96933   -1.000
 4292.00    1.01653   1.01534  361.505
 4293.00    1.05986   1.04590   -1.000
 4294.00    1.06311   1.04694   -1.000
 4295.00    1.05601   1.02982   -1.000
 4296.00    1.02965   1.00128   -1.000
 4297.00    0.97756   0.95583   -1.000
 4298.00    0.91366   0.89584   -1.000
 4299.00    0.85010   0.83939   -1.000
 4300.00    0.81097   0.80891  395.495
 4301.00    0.81887   0.80860   -1.000
 4302.00    0.84064   0.82413   -1.000
 4303.00    0.85446   0.84110   -1.000
 4304.00    0.87179   0.85229   -1.000
 4305.00    0.86359   0.84804   -1.000
 4306.00    0.83587   0.82198   -1.000
 4307.00    0.79097   0.78596   -1.000
 4308.00    0.76067   0.76486  412.439
 4309.00    0.77611   0.77725  431.127
 4310.00    0.83237   0.82090   -1.000
 4311.00    0.89377   0.88034   -1.000
 4312.00    0.93428   0.94122  395.356
 4313.00    0.99153   1.00598   -1.000
 4314.00    1.07231   1.08588   -1.000
 4315.00    1.15724   1.18041   -1.000
 4316.00    1.25904   1.27293   -1.000
 4317.00    1.33526   1.33351  287.993
 4318.00    1.34162   1.34860   -1.000
 4319.00    1.31842   1.33018   -1.000
 4320.00    1.29328   1.29416  266.123
 4321.00    1.24742   1.24285  271.083
 4322.00    1.18747   1.17083   -1.000
 4323.00    1.10567   1.07700   -1.000
 4324.00    1.00970   0.98731   -1.000
 4325.00    0.94220   0.94865  330.653
 4326.00    0.96512   0.99103   -1.000
 4327.00    1.07673   1.09530   -1.000
 4328.00    1.20667   1.20518  326.676
 4329.00    1.27171   1.27019  295.355
 4330.00    1.28325   1.28901  279.733
 4331.00    1.27029   1.29136   -1.000
 4332.00    1.27359   1.30083   -1.000
 4333.00    1.30398   1.31694   -1.000
 4334.00    1.30879   1.32257   -1.000
 4335.00    1.29757   1.29775  268.598
 4336.00    1.25998   1.22889   -1.000
 4337.00    1.17073   1.12295   -1.000
 4338.00    1.06521   1.01139   -1.000
 4339.00    0.97613   0.93748   -1.000
 4340.00    0.94420   0.92395   -1.000
 4341.00    0.98395   0.96929   -1.000
 4342.00    1.08051   1.05088   -1.000
 4343.00    1.17034   1.13390   -1.000
 4344.00    1.20743   1.19545   -1.000
 4345.00    1.23192   1.23775  299.071
 4346.00    1.26235   1.27141   -1.000
 4347.00    1.28361   1.30225   -1.000
 4348.00    1.29812   1.32289   -1.000
 4349.00    1.31196   1.31003  276.033
 4350.00    1.26513   1.25209  273.121
 4351.00    1.17877   1.17797  278.638
 4352.00    1.12017   1.13584   -1.000
 4353.00    1.13927   1.15046   -1.000
 4354.00    1.20166   1.20158  311.229
 4355.00    1.25483   1.25345  297.337
 4356.00    1.29048   1.28536  285.214
 4357.00    1.30544   1.29389  277.544
 4358.00    1.28943   1.28534  273.772
 4359.00    1.26837   1.27869   -1.000
 4360.00    1.27091   1.29215   -1.000
 4361.00    1.31042   1.32202   -1.000
 4362.00    1.34768   1.35276  275.071
 4363.00    1.36504   1.37571   -1.000
 4364.00    1.38608   1.38948  266.124
 4365.00    1.39191   1.38673  264.499
 4366.00    1.35806   1.35806  262.291
 4367.00    1.30717   1.31361   -1.000
 4368.00    1.28017   1.28037  273.917
 4369.00    1.27827   1.26944  281.837
 4370.00    1.28385   1.26910   -1.000
 4371.00    1.28906   1.26148   -1.000
 4372.00    1.27210   1.23564   -1.000
 4373.00    1.23112   1.19270   -1.000
 4374.00    1.17900   1.15105   -1.000
 4375.00    1.15545   1.14149   -1.000
 4376.00    1.19601   1.17606   -1.000
 4377.00    1.25322   1.23199   -1.000
 4378.00    1.29549   1.27046   -1.000
 4379.00    1.29902   1.27027   -1.000
 4380.00    1.28420   1.22771   -1.000
 4381.00    1.22528   1.14233   -1.000
 4382.00    1.10288   1.02893   -1.000
 4383.00    0.96336   0.93468   -1.000
 4384.00    0.91999   0.91057   -1.000
 4385.00    1.00360   0.96777   -1.000
 4386.00    1.11954   1.06355   -1.000
 4387.00    1.18533   1.13676   -1.000
 4388.00    1.19861   1.16513   -1.000
 4389.00    1.20446   1.16693   -1.000
 4390.00    1.20208   1.16800   -1.000
 4391.00    1.20172   1.18034   -1.000
 4392.00    1.23399   1.19773   -1.000
 4393.00    1.25668   1.20690   -1.000
 4394.00    1.24434   1.20921   -1.000
 4395.00    1.24782   1.22515   -1.000
 4396.00    1.29271   1.26330   -1.000
 4397.00    1.32379   1.29844   -1.000
 4398.00    1.32582   1.29976   -1.000
 4399.00    1.30314   1.26847   -1.000
 4400.00    1.26765   1.23658   -1.000
 4401.00    1.24166   1.22125   -1.000
 4402.00    1.24943   1.20396   -1.000
 4403.00    1.21620   1.16128   -1.000
 4404.00    1.14247   1.10590   -1.000
 4405.00    1.09816   1.07861   -1.000
 4406.00    1.12714   1.09696   -1.000
 4407.00    1.16512   1.13905   -1.000
 4408.00    1.19198   1.18588  300.041
 4409.00    1.23955   1.24016  296.502
 4410.00    1.30746   1.30417  291.232
 4411.00    1.37520   1.35636   -1.000
 4412.00    1.39733   1.36472   -1.000
 4413.00    1.36111   1.32259   -1.000
 4414.00    1.28379   1.25596   -1.000
 4415.00    1.21317   1.20519  270.892
 4416.00    1.19779   1.20535   -1.000
 4417.00    1.25071   1.25594  291.720
 4418.00    1.32392   1.32401  286.857
 4419.00    1.36899   1.37222  275.831
 4420.00    1.38928   1.38084  265.400
 4421.00    1.35635   1.35431  260.756
 4422.00    1.29307   1.31957   -1.000
 4423.00    1.26858   1.30354   -1.000
 4424.00    1.29273   1.30881   -1.000
 4425.00    1.30643   1.32022   -1.000
 4426.00    1.28941   1.32812   -1.000
 4427.00    1.29531   1.33436   -1.000
 4428.00    1.30266   1.33782   -1.000
 4429.00    1.29581   1.33448   -1.000
 4430.00    1.28325   1.32742   -1.000
 4431.00    1.28140   1.32420   -1.000
 4432.00    1.30192   1.31980   -1.000
 4433.00    1.28761   1.29733  270.099
 4434.00    1.22971   1.26122   -1.000
 4435.00    1.20124   1.24524   -1.000
 4436.00    1.23262   1.27733   -1.000
 4437.00    1.30160   1.34770   -1.000
 4438.00    1.38209   1.41178   -1.000
 4439.00    1.42794   1.43257  261.269
 4440.00    1.38877   1.40276   -1.000
 4441.00    1.31730   1.34646   -1.000
 4442.00    1.27114   1.30155   -1.000
 4443.00    1.27131   1.29797   -1.000
 4444.00    1.30757   1.33917   -1.000
 4445.00    1.38444   1.39869   -1.000
 4446.00    1.43163   1.44294  272.073
 4447.00    1.43221   1.45871   -1.000
 4448.00    1.44120   1.45704   -1.000
 4449.00    1.43013   1.45085   -1.000
 4450.00    1.39936   1.44193   -1.000
 4451.00    1.40085   1.42823   -1.000
 4452.00    1.40408   1.40356  264.927
 4453.00    1.36115   1.35951  263.746
 4454.00    1.30111   1.30217  267.958
 4455.00    1.23549   1.25951   -1.000
 4456.00    1.22365   1.24883   -1.000
 4457.00    1.25678   1.25815  292.590
 4458.00    1.26724   1.26556  287.024
 4459.00    1.26511   1.26163  283.401
 4460.00    1.25310   1.25419  284.217
 4461.00    1.24773   1.25815  286.172
 4462.00    1.26378   1.28439   -1.000
 4463.00    1.31768   1.32765  289.341
 4464.00    1.37729   1.36730   -1.000
 4465.00    1.38818   1.38759  271.436
 4466.00    1.38009   1.38820  266.941
 4467.00    1.37945   1.37724  267.010
 4468.00    1.37529   1.36384  267.996
 4469.00    1.34932   1.35833  271.803
 4470.00    1.35415   1.37255   -1.000
 4471.00    1.38981   1.40947   -1.000
 4472.00    1.43001   1.45524   -1.000
 4473.00    1.46932   1.49397   -1.000
 4474.00    1.49728   1.51888   -1.000
 4475.00    1.51724   1.53555   -1.000
 4476.00    1.54896   1.55297  246.429
 4477.00    1.57727   1.56288  246.293
 4478.00    1.56075   1.54369   -1.000
 4479.00    1.49230   1.48767  243.784
 4480.00    1.41382   1.41827  247.995
 4481.00    1.35279   1.37724   -1.000
 4482.00    1.35194   1.38936   -1.000
 4483.00    1.42062   1.44662   -1.000
 4484.00    1.49602   1.51598   -1.000
 4485.00    1.55568   1.56503  255.958
 4486.00    1.56843   1.57437  247.501
 4487.00    1.54914   1.54214  243.930
 4488.00    1.48178   1.48704  245.955
 4489.00    1.42361   1.44408   -1.000
 4490.00    1.42434   1.43744   -1.000
 4491.00    1.46298   1.46024  265.225
 4492.00    1.49597   1.48066   -1.000
 4493.00    1.47675   1.47131  254.302
 4494.00    1.42536   1.44027   -1.000
 4495.00    1.39500   1.41952   -1.000
 4496.00    1.39877   1.43187   -1.000
 4497.00    1.42691   1.47137   -1.000
 4498.00    1.48150   1.51214   -1.000
 4499.00    1.52310   1.53308  254.490
 4500.00    1.52666   1.53307  248.633
 4501.00    1.49930   1.53246   -1.000
 4502.00    1.51046   1.55156   -1.000
 4503.00    1.57827   1.59014  249.749
 4504.00    1.62443   1.63106  242.312
 4505.00    1.62428   1.65362   -1.000
 4506.00    1.61313   1.64946   -1.000
 4507.00    1.60412   1.63021   -1.000
 4508.00    1.60614   1.61522  239.534
 4509.00    1.62284   1.61402  241.180
 4510.00    1.62019   1.61991  240.733
 4511.00    1.60234   1.61741   -1.000
 4512.00    1.57785   1.59780   -1.000
 4513.00    1.54740   1.56831   -1.000
 4514.00    1.52949   1.54324   -1.000
 4515.00    1.52641   1.53106  249.474
 4516.00    1.53167   1.52967  250.159
 4517.00    1.52345   1.53069  249.049
 4518.00    1.51099   1.53314   -1.000
 4519.00    1.53615   1.54456  252.575
 4520.00    1.57742   1.56377   -1.000
 4521.00    1.59168   1.57636   -1.000
 4522.00    1.56650   1.56928  244.209
 4523.00    1.53649   1.54427  246.508
 4524.00    1.49868   1.51223   -1.000
 4525.00    1.47260   1.47623  256.751
 4526.00    1.42263   1.43181  259.320
 4527.00    1.36592   1.38230   -1.000
 4528.00    1.33614   1.34266  272.864
 4529.00    1.33186   1.32891  279.433
 4530.00    1.36359   1.34461   -1.000
 4531.00    1.39885   1.37552   -1.000
 4532.00    1.41072   1.39824   -1.000
 4533.00    1.38869   1.39831  268.980
 4534.00    1.34772   1.38495   -1.000
 4535.00    1.34250   1.38605   -1.000
 4536.00    1.39641   1.42364   -1.000
 4537.00    1.49577   1.48799   -1.000
 4538.00    1.57647   1.54350   -1.000
 4539.00    1.58073   1.56247   -1.000
 4540.00    1.54975   1.54907  243.245
 4541.00    1.52632   1.53033  246.901
 4542.00    1.53210   1.52575  251.534
 4543.00    1.53929   1.53092  250.559
 4544.00    1.52836   1.53136  248.877
 4545.00    1.49976   1.52242   -1.000
 4546.00    1.49825   1.51153  241.610
 4547.00    1.16691   1.50249   -1.000
 4548.00    0.18656   1.48996   -1.000
 4549.00    0.00275   1.47534   -1.000
 4550.00    0.35319   1.47173   -1.000
 4551.00    1.09430   1.48438   -1.000
 4552.00    0.58462   1.49652   -1.000
 4553.00    1.23137   1.49101   -1.000
 4554.00    1.52588   1.47595   -1.000
 4555.00    1.46768   1.47503  265.137
 4556.00    1.50572   1.50392  265.948
 4557.00    1.56474   1.55512   84.664
 4558.00    1.61687   1.60403   25.022
 4559.00    1.63109   1.63395   24.145
 4560.00    1.63028   1.64645   23.880
 4561.00    1.62599   1.64493   24.004
 4562.00    1.59624   1.62677   23.987
 4563.00    1.56170   1.59193   24.125
 4564.00    1.51652   1.55505   24.725
 4565.00    1.51129   1.53865   25.299
 4566.00    1.53701   1.55428   25.555
 4567.00    1.58715   1.59230   25.152
 4568.00    1.63727   1.62785   24.490
 4569.00    1.63717   1.63807   23.935
 4570.00    1.59613   1.62025   23.830
 4571.00    1.55539   1.59114   24.195
 4572.00    1.54435   1.57622   24.833
 4573.00    1.57984   1.59053   25.295
 4574.00    1.63067   1.62057   24.933
 4575.00    1.63945   1.64111   24.245
 4576.00    1.61457   1.64268   24.001
 4577.00    1.60730   1.62934   24.053
 4578.00    1.59677   1.60217   24.175
 4579.00    1.54553   1.56245   24.379
 4580.00    1.49761   1.52320   24.881
 4581.00    1.49207   1.50233   25.593
 4582.00    1.51677   1.50325   25.973
 4583.00    1.53680   1.51352   25.805
 4584.00    1.54064   1.52113   25.466
 4585.00    1.53022   1.52480   25.346
 4586.00    1.52764   1.53451   25.454
 4587.00    1.55886   1.55995   25.501
 4588.00    1.60977   1.59534   25.052
 4589.00    1.63679   1.62222   24.407
 4590.00    1.62827   1.62656   24.003
 4591.00    1.58365   1.60858   24.075
 4592.00    1.53554   1.58055   24.468
 4593.00    1.51732   1.55773   24.923
 4594.00    1.53127   1.54643   25.268
 4595.00    1.53732   1.54276   25.219
 4596.00    1.54417   1.54434   24.997
 4597.00    1.54246   1.55223   24.830
 4598.00    1.56867   1.56276   24.773
 4599.00    1.57707   1.56935   24.721
 4600.00    1.56777   1.56993   24.724
 4601.00    1.55534   1.56864   24.957
 4602.00    1.56011   1.57010   25.148
 4603.00    1.57965   1.57342   25.137
 4604.00    1.59051   1.57547   24.850
 4605.00    1.59407   1.57972   24.640
 4606.00    1.59963   1.59577   24.679
 4607.00    1.62962   1.62889   24.583
 4608.00    1.69190   1.67162   24.257
 4609.00    1.72728   1.70634   23.758
 4610.00    1.73151   1.71679   23.297
 4611.00    1.69740   1.70307   23.114
 4612.00    1.64947   1.68034   23.281
 4613.00    1.64533   1.66497   23.599
 4614.00    1.66877   1.66521   23.835
 4615.00    1.69562   1.67696   23.926
 4616.00    1.69360   1.68902   23.774
 4617.00    1.67990   1.69448   23.583
 4618.00    1.66103   1.69346   23.547
 4619.00    1.65885   1.69022   23.721
 4620.00    1.65639   1.69125   23.856
 4621.00    1.68839   1.69943   23.780
 4622.00    1.71339   1.70905   23.511
 4623.00    1.69538   1.71197   23.206
 4624.00    1.70589   1.70720   23.231
 4625.00    1.69906   1.69999   23.290
 4626.00    1.68420   1.69400   23.370
 4627.00    1.68390   1.69041   23.561
 4628.00    1.68366   1.68916   23.596
 4629.00    1.68646   1.69034   23.614
 4630.00    1.69230   1.69513   23.755
 4631.00    1.70889   1.70150   23.765
 4632.00    1.70518   1.70110   23.605
 4633.00    1.66868   1.68820   23.401
 4634.00    1.64905   1.66852   23.574
 4635.00    1.64536   1.65226   23.914
 4636.00    1.63162   1.63951   24.115
 4637.00    1.61441   1.62452   24.123
 4638.00    1.58929   1.60809   24.356
 4639.00    1.58535   1.59798   24.641
 4640.00    1.60457   1.60244   24.702
 4641.00    1.65193   1.62188   24.582
 4642.00    1.70063   1.64408   24.107
 4643.00    1.70329   1.65107   23.560
 4644.00    1.67618   1.63309   23.334
 4645.00    1.61740   1.59505   23.517
 4646.00    1.55704   1.55053   24.018
 4647.00    1.52823   1.52002   24.707
 4648.00    1.55440   1.52057   25.275
 4649.00    1.59775   1.55163   25.241
 4650.00    1.62351   1.59774   24.738
 4651.00    1.65284   1.63935   24.200
 4652.00    1.66223   1.66208   23.937
 4653.00    1.64839   1.66101   23.908
 4654.00    1.63458   1.64136   23.923
 4655.00    1.60141   1.61946   24.279
 4656.00    1.59809   1.61616   24.803
 4657.00    1.64318   1.64325   24.974
 4658.00    1.70894   1.69456   24.619
 4659.00    1.75751   1.74661   23.773
 4660.00    1.78055   1.77331   22.928
 4661.00    1.76790   1.76420   22.528
 4662.00    1.73042   1.72956   22.588
 4663.00    1.68355   1.68686   22.936
 4664.00    1.65476   1.64528   23.495
 4665.00    1.61943   1.59941   23.873
 4666.00    1.54348   1.54432   23.971
 4667.00    1.46489   1.49450   24.504
 4668.00    1.45439   1.47641   25.590
 4669.00    1.51549   1.50315   26.455
 4670.00    1.59127   1.55916   26.264
 4671.00    1.65897   1.61414   25.359
 4672.00    1.66198   1.64737   24.355
 4673.00    1.65735   1.65854   23.813
 4674.00    1.66884   1.66360   23.727
 4675.00    1.68385   1.67533   23.745
 4676.00    1.71620   1.68977   23.663
 4677.00    1.72137   1.69127   23.331
 4678.00    1.69852   1.67134   23.064
 4679.00    1.64843   1.63880   23.276
 4680.00    1.60551   1.60884   23.796
 4681.00    1.59186   1.59358   24.249
 4682.00    1.59991   1.59812   24.615
 4683.00    1.65690   1.61836   24.743
 4684.00    1.68941   1.64187   24.346
 4685.00    1.69821   1.65668   23.770
 4686.00    1.69848   1.65968   23.546
 4687.00    1.68175   1.65480   23.634
 4688.00    1.67995   1.64844   23.661
 4689.00    1.68006   1.64433   23.779
 4690.00    1.67487   1.64222   23.773
 4691.00    1.66303   1.64149   23.807
 4692.00    1.67396   1.64518   23.966
 4693.00    1.68957   1.65778   23.947
 4694.00    1.72366   1.67778   23.632
 4695.00    1.76676   1.69649   23.244
 4696.00    1.75720   1.70232   22.757
 4697.00    1.71756   1.68615   22.550
 4698.00    1.67748   1.65148   22.778
 4699.00    1.64593   1.61516   23.472
 4700.00    1.63702   1.59073   24.106
 4701.00    1.62486   1.57617   24.278
 4702.00    1.60810   1.56688   24.125
 4703.00    1.59884   1.56761   24.370
 4704.00    1.62536   1.58243   24.763
 4705.00    1.66350   1.60231   24.767
 4706.00    1.67435   1.61081   24.284
 4707.00    1.64221   1.60205   24.053
 4708.00    1.60335   1.58817   24.452
 4709.00    1.60044   1.58764   24.908
 4710.00    1.63681   1.60703   25.069
 4711.00    1.69127   1.63538   24.810
 4712.00    1.70924   1.65440   24.056
 4713.00    1.70719   1.65388   23.473
 4714.00    1.67735   1.64350   23.341
 4715.00    1.67003   1.64546   23.626
 4716.00    1.70040   1.67074   24.010
 4717.00    1.74819   1.71071   23.902
 4718.00    1.78019   1.74912   23.406
 4719.00    1.79169   1.77575   23.009
 4720.00    1.78374   1.78866   22.894
 4721.00    1.77653   1.78865   22.816
 4722.00    1.75909   1.78070   22.783
 4723.00    1.74266   1.77607   22.988
 4724.00    1.77791   1.77897   23.098
 4725.00    1.80365   1.77552   22.927
 4726.00    1.75654   1.74815   22.720
 4727.00    1.67750   1.69537   22.856
 4728.00    1.60342   1.63689   23.492
 4729.00    1.57898   1.59941   24.346
 4730.00    1.60851   1.59414   24.765
 4731.00    1.63082   1.61405   24.613
 4732.00    1.66178   1.64524   24.363
 4733.00    1.68697   1.67554   24.158
 4734.00    1.70495   1.69557   23.874
 4735.00    1.72146   1.70151   23.683
 4736.00    1.71854   1.69945   23.553
 4737.00    1.70926   1.70068   23.484
 4738.00    1.72893   1.71172   23.722
 4739.00    1.74052   1.72734   23.684
 4740.00    1.74306   1.73642   23.410
 4741.00    1.72930   1.73724   23.459
 4742.00    1.71751   1.73848   23.585
 4743.00    1.74235   1.74397   23.574
 4744.00    1.75916   1.75147   23.362
 4745.00    1.75431   1.76163   23.151
 4746.00    1.76574   1.77538   23.211
 4747.00    1.78053   1.79072   23.198
 4748.00    1.77767   1.80402   23.004
 4749.00    1.77882   1.81284   22.797
 4750.00    1.77984   1.81630   22.772
 4751.00    1.76080   1.81190   22.808
 4752.00    1.74780   1.79706   22.846
 4753.00    1.74482   1.77451   23.035
 4754.00    1.72302   1.75196   23.292
 4755.00    1.70415   1.73735   23.478
 4756.00    1.71478   1.73448   23.605
 4757.00    1.72615   1.74210   23.573
 4758.00    1.72066   1.75630   23.686
 4759.00    1.72422   1.77137   23.844
 4760.00    1.73049   1.77785   23.827
 4761.00    1.70678   1.76543   23.640
 4762.00    1.65223   1.73358   23.668
 4763.00    1.61627   1.69451   24.095
 4764.00    1.60298   1.66312   24.668
 4765.00    1.59484   1.64436   24.927
 4766.00    1.59479   1.63806   24.936
 4767.00    1.62878   1.65028   24.861
 4768.00    1.70559   1.68615   24.654
 4769.00    1.73259   1.73425   24.270
 4770.00    1.72441   1.77032   23.739
 4771.00    1.71796   1.78012   23.476
 4772.00    1.71766   1.77518   23.558
 4773.00    1.74704   1.77909   23.768
 4774.00    1.75173   1.80139   23.906
 4775.00    1.78110   1.83088   23.568
 4776.00    1.79436   1.85174   23.102
 4777.00    1.78879   1.86027   22.988
 4778.00    1.78142   1.85957   23.023
 4779.00    1.77085   1.85009   23.105
 4780.00    1.75285   1.83397   23.276
 4781.00    1.73520   1.81595   23.527
 4782.00    1.72972   1.79682   23.647
 4783.00    1.70112   1.77689   23.710
 4784.00    1.70703   1.76183   23.840
 4785.00    1.70463   1.75436   24.008
 4786.00    1.69936   1.74915   24.000
 4787.00    1.68492   1.74301   24.109
 4788.00    1.69245   1.73970   24.344
 4789.00    1.69726   1.74127   24.455
 4790.00    1.69801   1.74796   24.409
 4791.00    1.71665   1.76385   24.279
 4792.00    1.74479   1.79420   24.113
 4793.00    1.79959   1.83786   23.836
 4794.00    1.83263   1.88464   23.417
 4795.00    1.86822   1.91866   22.904
 4796.00    1.85309   1.92618   22.560
 4797.00    1.80354   1.90383   22.536
 4798.00    1.75583   1.86241   22.810
 4799.00    1.71440   1.82353   23.280
 4800.00    1.72199   1.80815   23.692
 4801.00    1.76094   1.82320   23.898
 4802.00    1.81533   1.85692   23.625
 4803.00    1.83630   1.88439   23.152
 4804.00    1.80550   1.88495   22.876
 4805.00    1.77327   1.86134   22.966
 4806.00    1.75794   1.83192   23.286
 4807.00    1.73466   1.81112   23.572
 4808.00    1.72899   1.80365   23.752
 4809.00    1.74855   1.80972   23.727
 4810.00    1.76671   1.82570   23.659
 4811.00    1.78835   1.84295   23.536
 4812.00    1.80100   1.85392   23.322
 4813.00    1.81243   1.85875   23.164
 4814.00    1.80050   1.86356   23.060
 4815.00    1.81411   1.87377   23.038
 4816.00    1.82884   1.89048   22.977
 4817.00    1.82540   1.91068   22.884
 4818.00    1.83808   1.92966   22.737
 4819.00    1.85601   1.94278   22.603
 4820.00    1.84720   1.94509   22.524
 4821.00    1.83043   1.92984   22.521
 4822.00    1.79324   1.89403   22.548
 4823.00    1.76492   1.84790   22.806
 4824.00    1.75353   1.81427   23.412
 4825.00    1.77248   1.81174   23.787
 4826.00    1.80898   1.83519   23.669
 4827.00    1.81337   1.85861   23.238
 4828.00    1.79860   1.86348   22.938
 4829.00    1.80268   1.85370   23.079
 4830.00    1.77909   1.83979   23.345
 4831.00    1.75105   1.82431   23.465
 4832.00    1.73009   1.81049   23.478
 4833.00    1.76335   1.80905   23.687
 4834.00    1.79994   1.82537   23.665
 4835.00    1.82960   1.85039   23.273
 4836.00    1.82768   1.86820   22.995
 4837.00    1.81466   1.87073   22.936
 4838.00    1.78882   1.85863   22.988
 4839.00    1.76387   1.83623   23.126
 4840.00    1.74698   1.81352   23.465
 4841.00    1.74402   1.80090   23.843
 4842.00    1.74588   1.79949   23.828
 4843.00    1.76525   1.80495   23.767
 4844.00    1.77989   1.81874   23.637
 4845.00    1.81926   1.84315   23.451
 4846.00    1.84149   1.86698   23.198
 4847.00    1.82219   1.87200   22.855
 4848.00    1.80473   1.85590   22.815
 4849.00    1.78226   1.83862   23.295
 4850.00    1.79207   1.83853   23.596
 4851.00    1.80676   1.85084   23.539
 4852.00    1.82452   1.85719   23.224
 4853.00    1.80447   1.84206   23.204
 4854.00    1.74371   1.80175   23.353
 4855.00    1.70526   1.75049   23.611
 4856.00    1.68863   1.71334   24.340
 4857.00    1.67914   1.69901   24.945
 4858.00    1.66687   1.68272   24.831
 4859.00    1.59814   1.62496   24.671
 4860.00    1.46377   1.51766   25.544
 4861.00    1.36453   1.41094   27.909
 4862.00    1.38204   1.37112   31.052
 4863.00    1.49730   1.42032   32.061
 4864.00    1.59179   1.52050   29.852
 4865.00    1.65550   1.61897   27.261
 4866.00    1.69863   1.69224   25.759
 4867.00    1.73397   1.73987   24.913
 4868.00    1.73482   1.76313   24.433
 4869.00    1.72978   1.75887   24.236
 4870.00    1.69428   1.72396   24.170
 4871.00    1.61450   1.66997   24.443
 4872.00    1.58978   1.63083   25.148
 4873.00    1.63444   1.63898   25.673
 4874.00    1.70661   1.68763   25.362
 4875.00    1.71508   1.74056   24.645
 4876.00    1.72570   1.77662   24.255
 4877.00    1.73752   1.80209   24.082
 4878.00    1.76407   1.82980   23.958
 4879.00    1.79986   1.85887   23.853
 4880.00    1.77941   1.87605   23.502
 4881.00    1.76389   1.87100   23.302
 4882.00    1.75256   1.84982   23.547
 4883.00    1.75618   1.82856   23.921
 4884.00    1.74767   1.81050   24.030
 4885.00    1.71949   1.78658   23.960
 4886.00    1.67747   1.75930   24.122
 4887.00    1.68017   1.74286   24.483
 4888.00    1.69915   1.73770   24.578
 4889.00    1.68126   1.72603   24.445
 4890.00    1.66036   1.69728   24.454
 4891.00    1.64602   1.67125   24.851
 4892.00    1.66581   1.68727   25.343
 4893.00    1.76839   1.76160   25.061
 4894.00    1.88056   1.86807   24.006
 4895.00    1.93767   1.96112   22.920
 4896.00    1.94858   2.01324   22.283
 4897.00    1.95232   2.02599   21.903
 4898.00    1.93810   2.01243   21.823
 4899.00    1.89432   1.98408   21.915
 4900.00    1.85534   1.95273   22.414
 4901.00    1.83494   1.92906   22.922
 4902.00    1.83870   1.91357   23.130
 4903.00    1.83704   1.90229   23.016
 4904.00    1.83583   1.90165   23.078
 4905.00    1.86248   1.92227   23.325
 4906.00    1.90068   1.95516   23.027
 4907.00    1.91061   1.96991   22.551
 4908.00    1.87088   1.94672   22.422
 4909.00    1.81687   1.89505   22.674
 4910.00    1.77419   1.84243   23.246
 4911.00    1.77951   1.81658   23.893
 4912.00    1.80422   1.82858   24.127
 4913.00    1.82795   1.86746   23.776
 4914.00    1.87678   1.91212   23.349
 4915.00    1.91650   1.94590   23.035
 4916.00    1.91717   1.95289   22.743
 4917.00    1.85336   1.91324   22.572
 4918.00    1.74518   1.82074   22.747
 4919.00    1.63891   1.70406   23.609
 4920.00    1.58499   1.61480   24.914
 4921.00    1.60983   1.59386   26.023
 4922.00    1.70577   1.63871   26.192
 4923.00    1.77481   1.70736   25.293
 4924.00    1.79826   1.76149   24.414
 4925.00    1.78348   1.79995   24.098
 4926.00    1.81980   1.84255   24.063
 4927.00    1.88743   1.89434   23.719
 4928.00    1.92965   1.94490   23.102
 4929.00    1.94127   1.98622   22.712
 4930.00    1.95597   2.01192   22.509
 4931.00    1.95344   2.01200   22.358
 4932.00    1.91923   1.98087   22.252
 4933.00    1.84401   1.92917   22.514
 4934.00    1.80587   1.88402   23.160
 4935.00    1.82999   1.86613   23.953
 4936.00    1.83480   1.86187   23.947
 4937.00    1.80550   1.83927   23.531
 4938.00    1.73920   1.79447   23.583
 4939.00    1.71616   1.76361   24.303
 4940.00    1.77939   1.78334   24.906
 4941.00    1.85765   1.84998   24.611
 4942.00    1.91163   1.92745   23.753
 4943.00    1.93423   1.98188   23.016
 4944.00    1.93981   2.00348   22.617
 4945.00    1.93245   2.00140   22.434
 4946.00    1.91923   1.99262   22.468
 4947.00    1.93342   1.99361   22.626
 4948.00    1.96873   2.00962   22.652
 4949.00    1.98115   2.03183   22.435
 4950.00    1.99249   2.04790   22.180
 4951.00    1.99408   2.05253   22.118
 4952.00    1.97672   2.04580   22.038
 4953.00    1.95760   2.02965   22.163
 4954.00    1.92473   2.00201   22.324
 4955.00    1.88682   1.95053   22.589
 4956.00    1.80144   1.86425   22.893
 4957.00    1.69230   1.76375   23.556
 4958.00    1.67672   1.70926   24.781
 4959.00    1.77592   1.74317   25.669
 4960.00    1.89499   1.83849   25.036
 4961.00    1.94510   1.93176   23.609
 4962.00    1.92876   1.98128   22.854
 4963.00    1.92313   1.98591   22.716
 4964.00    1.89336   1.96144   22.836
 4965.00    1.83769   1.92092   23.027
 4966.00    1.81574   1.88008   23.317
 4967.00    1.78471   1.85552   23.809
 4968.00    1.79931   1.85093   24.092
 4969.00    1.83760   1.86040   24.084
 4970.00    1.85376   1.88038   24.004
 4971.00    1.86222   1.90954   23.818
 4972.00    1.89736   1.94431   23.560
 4973.00    1.91040   1.97652   23.305
 4974.00    1.93279   1.99670   23.029
 4975.00    1.93365   2.00055   22.821
 4976.00    1.92073   1.98804   22.748
 4977.00    1.89370   1.96072   22.919
 4978.00    1.85989   1.92526   23.168
 4979.00    1.81651   1.89082   23.489
 4980.00    1.78740   1.85701   23.870
 4981.00    1.75972   1.81225   24.164
 4982.00    1.69050   1.75171   24.534
 4983.00    1.64288   1.69497   25.359
 4984.00    1.64889   1.67428   26.136
 4985.00    1.70745   1.70307   26.082
 4986.00    1.78287   1.76758   25.562
 4987.00    1.85044   1.84044   24.831
 4988.00    1.87390   1.89466   24.049
 4989.00    1.86927   1.91381   23.492
 4990.00    1.85070   1.90440   23.549
 4991.00    1.83260   1.89013   23.901
 4992.00    1.85166   1.88753   24.131
 4993.00    1.85616   1.89565   24.122
 4994.00    1.85784   1.90617   23.906
 4995.00    1.87266   1.91678   23.813
 4996.00    1.86952   1.92852   23.799
 4997.00    1.86833   1.93297   23.673
 4998.00    1.85630   1.91633   23.569
 4999.00    1.81528   1.87602   23.729
 5000.00    1.77301   1.82642   24.061
 5001.00    1.75721   1.79038   24.545
 5002.00    1.78041   1.77810   24.832
 5003.00    1.79041   1.77784   24.828
 5004.00    1.76745   1.76880   24.588
 5005.00    1.73921   1.74212   24.453
 5006.00    1.72238   1.71431   24.834
 5007.00    1.73421   1.71562   25.455
 5008.00    1.78368   1.75782   25.544
 5009.00    1.83629   1.81507   24.888
 5010.00    1.83044   1.84704   24.147
 5011.00    1.81399   1.83292   23.930
 5012.00    1.73925   1.78166   24.280
 5013.00    1.67337   1.72157   25.033
 5014.00    1.65462   1.68317   25.965
 5015.00    1.67270   1.68126   26.526
 5016.00    1.73089   1.70361   26.355
 5017.00    1.76777   1.72616   25.758
 5018.00    1.76246   1.73898   25.239
 5019.00    1.76200   1.75110   25.150
 5020.00    1.79636   1.76894   25.146
 5021.00    1.79741   1.78352   24.854
 5022.00    1.77371   1.78963   24.667
 5023.00    1.77113   1.79861   24.784
 5024.00    1.81201   1.82094   24.829
 5025.00    1.84505   1.84811   24.675
 5026.00    1.83704   1.86075   24.414
 5027.00    1.79953   1.85394   24.264
 5028.00    1.80505   1.84609   24.389
 5029.00    1.83893   1.85725   24.493
 5030.00    1.87875   1.88974   24.248
 5031.00    1.90883   1.93286   23.787
 5032.00    1.92217   1.97431   23.450
 5033.00    1.95351   2.00015   23.071
 5034.00    1.92536   1.99400   22.820
 5035.00    1.86002   1.95216   22.893
 5036.00    1.79768   1.89581   23.659
 5037.00    1.76561   1.85225   24.589
 5038.00    1.77520   1.82065   24.966
 5039.00    1.72835   1.77625   25.052
 5040.00    1.63764   1.71107   25.393
 5041.00    1.59248   1.65766   26.419
 5042.00    1.64145   1.66364   27.463
 5043.00    1.76287   1.74145   27.391
 5044.00    1.87448   1.85643   26.009
 5045.00    1.95099   1.95853   24.406
 5046.00    1.97247   2.01454   23.444
 5047.00    1.93486   2.01514   22.952
 5048.00    1.95268   1.96940   22.107
 5049.00    1.23037   1.90299   -1.000
 5050.00    0.17426   1.84858   -1.000
 5051.00    0.05366   1.82541   -1.000
 5052.00    0.56092   1.83456   -1.000
 5053.00    1.91473   1.87142   24.626
 5054.00    1.93166   1.92438   24.054
 5055.00    1.97257   1.97243   23.448
 5056.00    1.98277   2.00215   23.033
 5057.00    1.99864   2.01716   22.825
 5058.00    2.01203   2.02777   22.760
 5059.00    1.97792   2.04167   22.806
 5060.00    1.99912   2.06063   22.847
 5061.00    2.02431   2.07787   22.832
 5062.00    2.01154   2.07732   22.675
 5063.00    1.95599   2.04332   22.702
 5064.00    1.86490   1.97946   23.029
 5065.00    1.80391   1.91394   23.720
 5066.00    1.81899   1.87670   24.559
 5067.00    1.86548   1.87172   24.805
 5068.00    1.86105   1.88340   24.481
 5069.00    1.87525   1.90028   24.114
 5070.00    1.90214   1.91725   24.047
 5071.00    1.89778   1.92579   23.930
 5072.00    1.86155   1.92087   23.778
 5073.00    1.86839   1.91254   23.985
 5074.00    1.90517   1.91426   24.164
 5075.00    1.91865   1.92518   23.849
 5076.00    1.91134   1.93389   23.671
 5077.00    1.89827   1.92766   23.645
 5078.00    1.87532   1.89421   23.632
 5079.00    1.79156   1.83331   23.884
 5080.00    1.71137   1.77267   24.751
 5081.00    1.71049   1.74891   25.931
 5082.00    1.75047   1.76711   26.176
 5083.00    1.80457   1.80466   25.591
 5084.00    1.84088   1.84497   25.048
 5085.00    1.87558   1.88456   24.717
 5086.00    1.92007   1.92027   24.245
 5087.00    1.93745   1.94641   23.835
 5088.00    1.93174   1.96222   23.677
 5089.00    1.93534   1.97346   23.648
 5090.00    1.95402   1.98564   23.524
 5091.00    1.96241   2.00220   23.353
 5092.00    1.99417   2.02467   23.226
 5093.00    2.03018   2.04757   23.103
 5094.00    2.01042   2.05627   22.831
 5095.00    1.97403   2.03647   22.634
 5096.00    1.93515   1.98744   22.862
 5097.00    1.89585   1.92297   23.353
 5098.00    1.82606   1.86322   23.860
 5099.00    1.81325   1.82989   24.441
 5100.00    1.83669   1.83939   24.945
 5101.00    1.88930   1.88577   24.997
 5102.00    1.94644   1.93841   24.351
 5103.00    1.93799   1.96634   23.645
 5104.00    1.90498   1.96337   23.463
 5105.00    1.91582   1.94297   23.618
 5106.00    1.86892   1.91677   23.937
 5107.00    1.84799   1.88973   24.240
 5108.00    1.83551   1.86634   24.536
 5109.00    1.82366   1.85330   24.842
 5110.00    1.85018   1.85786   24.787
 5111.00    1.88554   1.88242   24.623
 5112.00    1.91982   1.91996   24.444
 5113.00    1.95154   1.95716   24.084
 5114.00    1.96276   1.98631   23.792
 5115.00    1.98327   2.01013   23.502
 5116.00    1.99973   2.03331   23.294
 5117.00    2.03359   2.05494   23.173
 5118.00    2.03327   2.06778   22.922
 5119.00    2.02453   2.06300   22.734
 5120.00    1.99592   2.03773   22.814
 5121.00    1.94772   1.99609   23.125
 5122.00    1.88660   1.94382   23.475
 5123.00    1.84400   1.88873   23.866
 5124.00    1.81945   1.84428   24.492
 5125.00    1.80389   1.82302   25.237
 5126.00    1.81854   1.82431   25.384
 5127.00    1.82658   1.83422   25.139
 5128.00    1.83407   1.84124   25.022
 5129.00    1.83612   1.84734   24.871
 5130.00    1.84473   1.86173   24.916
 5131.00    1.88266   1.88813   24.891
 5132.00    1.92111   1.91953   24.551
 5133.00    1.94275   1.94714   24.127
 5134.00    1.95938   1.96896   23.942
 5135.00    1.97347   1.98388   23.711
 5136.00    1.96636   1.98276   23.503
 5137.00    1.94566   1.95466   23.450
 5138.00    1.87656   1.90834   23.896
 5139.00    1.84423   1.87233   24.487
 5140.00    1.86410   1.86259   24.867
 5141.00    1.86464   1.86751   24.885
 5142.00    1.84722   1.86958   24.650
 5143.00    1.85302   1.86898   24.852
 5144.00    1.87242   1.87567   25.269
 5145.00    1.87099   1.88388   25.096
 5146.00    1.85611   1.87839   24.660
 5147.00    1.84627   1.86397   24.590
 5148.00    1.84586   1.85982   24.835
 5149.00    1.88332   1.87009   24.888
 5150.00    1.88137   1.87907   24.566
 5151.00    1.85405   1.87309   24.435
 5152.00    1.82637   1.85677   24.758
 5153.00    1.83012   1.84494   25.218
 5154.00    1.83663   1.84988   25.371
 5155.00    1.88342   1.87830   25.230
 5156.00    1.94470   1.92696   24.732
 5157.00    1.99423   1.98032   24.097
 5158.00    2.03525   2.02085   23.484
 5159.00    2.03011   2.04123   23.051
 5160.00    2.02998   2.04324   22.892
 5161.00    2.01956   2.02961   22.895
 5162.00    1.99333   2.00055   22.975
 5163.00    1.95200   1.95457   23.109
 5164.00    1.89448   1.88703   23.376
 5165.00    1.77803   1.78703   23.743
 5166.00    1.59219   1.65040   24.674
 5167.00    1.44422   1.51164   26.763
 5168.00    1.40852   1.43599   29.595
 5169.00    1.50284   1.44986   31.545
 5170.00    1.58447   1.50017   -1.000
 5171.00    1.51951   1.50471   28.986
 5172.00    1.38918   1.45096   28.647
 5173.00    1.36532   1.41705   30.587
 5174.00    1.51551   1.47693   32.685
 5175.00    1.71305   1.61961   -1.000
 5176.00    1.83108   1.76874   27.749
 5177.00    1.89425   1.86543   25.486
 5178.00    1.91908   1.90660   24.569
 5179.00    1.90615   1.90892   24.310
 5180.00    1.85411   1.87247   24.269
 5181.00    1.74921   1.78047   24.520
 5182.00    1.56530   1.63370   25.402
 5183.00    1.37537   1.48362   27.281
 5184.00    1.35680   1.41359   30.512
 5185.00    1.52027   1.47383   32.864
 5186.00    1.75610   1.62838   -1.000
 5187.00    1.89823   1.78677   -1.000
 5188.00    1.93864   1.88987   25.280
 5189.00    1.94863   1.93453   24.529
 5190.00    1.95503   1.93426   24.332
 5191.00    1.90404   1.89516   24.234
 5192.00    1.81305   1.83592   24.508
 5193.00    1.78804   1.79672   25.308
 5194.00    1.84355   1.80003   26.005
 5195.00    1.88433   1.82921   25.777
 5196.00    1.90934   1.86407   25.324
 5197.00    1.98585   1.90342   24.953
 5198.00    2.02131   1.94846   24.588
 5199.00    2.04961   1.99122   24.088
 5200.00    2.09070   2.01940   23.682
 5201.00    2.08518   2.02458   23.494
 5202.00    2.05040   2.00373   23.477
 5203.00    1.98260   1.95558   23.673
 5204.00    1.90640   1.88307   24.111
 5205.00    1.82888   1.80192   24.667
 5206.00    1.77096   1.73644   25.453
 5207.00    1.76641   1.70110   26.236
 5208.00    1.75561   1.69363   26.309
 5209.00    1.74931   1.71121   26.452
 5210.00    1.81824   1.76185   26.613
 5211.00    1.91919   1.84584   26.208
 5212.00    2.01699   1.94004   25.338
 5213.00    2.08385   2.00981   24.312
 5214.00    2.07209   2.03143   23.361
 5215.00    2.02709   2.00850   22.890
 5216.00    1.98659   1.97275   23.165
 5217.00    1.98319   1.96203   23.723
 5218.00    2.02561   1.99081   24.005
 5219.00    2.07303   2.04241   23.792
 5220.00    2.11151   2.09003   23.268
 5221.00    2.11953   2.11506   22.919
 5222.00    2.12005   2.10806   22.748
 5223.00    2.06412   2.06490   22.659
 5224.00    1.97069   1.98675   22.963
 5225.00    1.86908   1.88575   23.677
 5226.00    1.80973   1.79339   24.664
 5227.00    1.82007   1.75393   25.825
 5228.00    1.88915   1.79264   -1.000
 5229.00    1.99399   1.88973   -1.000
 5230.00    2.07962   1.98886   -1.000
 5231.00    2.09995   2.03704   23.473
 5232.00    2.05908   2.02311   23.069
 5233.00    2.00561   1.97964   23.042
 5234.00    2.00236   1.95433   23.523
 5235.00    2.01504   1.97460   23.941
 5236.00    2.10268   2.03127   23.877
 5237.00    2.14570   2.09507   23.317
 5238.00    2.16854   2.14004   22.759
 5239.00    2.16368   2.15786   22.510
 5240.00    2.15059   2.15750   22.495
 5241.00    2.17262   2.15101   22.569
 5242.00    2.16107   2.14687   22.526
 5243.00    2.15528   2.15020   22.390
 5244.00    2.17290   2.15713   22.429
 5245.00    2.15583   2.15065   22.381
 5246.00    2.10161   2.11575   22.345
 5247.00    2.00820   2.06159   22.805
 5248.00    1.98879   2.01506   23.529
 5249.00    2.00795   1.99032   24.073
 5250.00    2.01481   1.98204   24.124
 5251.00    1.99859   1.98628   24.168
 5252.00    2.01472   2.00281   24.326
 5253.00    2.04582   2.02154   24.205
 5254.00    2.04381   2.03102   23.864
 5255.00    2.04836   2.03909   23.630
 5256.00    2.08066   2.06898   23.638
 5257.00    2.16377   2.12703   23.465
 5258.00    2.23818   2.18572   22.909
 5259.00    2.22644   2.20954   22.287
 5260.00    2.16403   2.18258   22.098
 5261.00    2.07203   2.10863   22.312
 5262.00    1.97128   2.00484   22.933
 5263.00    1.88805   1.89468   23.913
 5264.00    1.80884   1.80121   25.056
 5265.00    1.77636   1.74308   25.919
 5266.00    1.80383   1.72765   26.448
 5267.00    1.83362   1.73809   -1.000
 5268.00    1.84054   1.73568   -1.000
 5269.00    1.77710   1.70169   25.578
 5270.00    1.72394   1.67312   26.150
 5271.00    1.81851   1.70674   -1.000
 5272.00    1.97207   1.80665   -1.000
 5273.00    2.05606   1.91092   -1.000
 5274.00    2.06352   1.96531   -1.000
 5275.00    2.04734   1.98420   23.818
 5276.00    2.08870   2.01507   23.834
 5277.00    2.15860   2.07738   23.778
 5278.00    2.21587   2.14694   23.315
 5279.00    2.23478   2.18271   22.512
 5280.00    2.19276   2.16712   22.097
 5281.00    2.12131   2.11515   22.237
 5282.00    2.06831   2.05505   22.779
 5283.00    2.04413   2.01591   23.373
 5284.00    2.07211   2.02275   23.799
 5285.00    2.15948   2.08304   23.914
 5286.00    2.24874   2.17052   23.424
 5287.00    2.27311   2.24098   22.704
 5288.00    2.23289   2.27343   21.988
 5289.00    2.26011   2.28256   21.826
 5290.00    2.30348   2.28833   21.945
 5291.00    2.30121   2.29343   21.941
 5292.00    2.28345   2.28942   21.811
 5293.00    2.26725   2.27376   21.765
 5294.00    2.26073   2.24868   21.895
 5295.00    2.21790   2.20596   22.103
 5296.00    2.12156   2.13547   22.397
 5297.00    2.02556   2.05167   23.008
 5298.00    1.98638   1.99453   23.897
 5299.00    2.02285   1.99302   24.538
 5300.00    2.09090   2.03421   24.381
 5301.00    2.12770   2.08266   23.758
 5302.00    2.17091   2.12479   23.316
 5303.00    2.23610   2.17249   23.169
 5304.00    2.29072   2.23087   22.883
 5305.00    2.32746   2.28108   22.264
 5306.00    2.31480   2.30093   21.855
 5307.00    2.29228   2.29433   21.799
 5308.00    2.29373   2.28649   22.014
 5309.00    2.31476   2.29463   22.205
 5310.00    2.33868   2.31296   22.060
 5311.00    2.34798   2.32332   21.827
 5312.00    2.31595   2.31700   21.688
 5313.00    2.29443   2.29927   21.710
 5314.00    2.30030   2.27685   21.832
 5315.00    2.29185   2.25238   21.927
 5316.00    2.25622   2.22904   22.086
 5317.00    2.24909   2.21477   22.305
 5318.00    2.27390   2.21571   22.504
 5319.00    2.26792   2.22581   22.511
 5320.00    2.28491   2.23218   22.344
 5321.00    2.25140   2.22637   22.248
 5322.00    2.22924   2.20379   22.330
 5323.00    2.17827   2.16430   22.487
 5324.00    2.14219   2.11750   22.752
 5325.00    2.13014   2.07155   23.152
 5326.00    2.10917   2.01394   -1.000
 5327.00    1.99150   1.93047   23.358
 5328.00    1.86891   1.84682   23.998
 5329.00    1.88746   1.82541   25.549
 5330.00    2.02025   1.89792   -1.000
 5331.00    2.15930   2.02027   -1.000
 5332.00    2.20126   2.12090   23.841
 5333.00    2.23892   2.17724   23.070
 5334.00    2.26149   2.21128   22.825
 5335.00    2.29873   2.24152   22.607
 5336.00    2.30968   2.26231   22.344
 5337.00    2.28266   2.26020   22.247
 5338.00    2.24733   2.22989   22.389
 5339.00    2.20025   2.17515   22.534
 5340.00    2.14430   2.11378   22.780
 5341.00    2.12310   2.08100   23.356
 5342.00    2.17124   2.09950   23.768
 5343.00    2.22793   2.14988   23.577
 5344.00    2.25893   2.19092   22.941
 5345.00    2.26802   2.20239   22.527
 5346.00    2.23064   2.19126   22.522
 5347.00    2.22411   2.17181   22.669
 5348.00    2.22254   2.15243   22.815
 5349.00    2.19102   2.14261   22.927
 5350.00    2.21454   2.15661   23.134
 5351.00    2.27360   2.19732   23.191
 5352.00    2.31807   2.24856   22.836
 5353.00    2.33366   2.29263   22.306
 5354.00    2.34490   2.32658   22.025
 5355.00    2.39153   2.35669   21.953
 5356.00    2.42099   2.38304   21.781
 5357.00    2.42168   2.39817   21.503
 5358.00    2.41605   2.39992   21.340
 5359.00    2.38789   2.39069   21.357
 5360.00    2.38425   2.36965   21.390
 5361.00    2.33739   2.33739   21.468
 5362.00    2.30551   2.30120   21.718
 5363.00    2.28316   2.26900   22.082
 5364.00    2.26183   2.24292   22.407
 5365.00    2.24815   2.22187   22.567
 5366.00    2.23019   2.20679   22.698
 5367.00    2.23992   2.19687   22.834
 5368.00    2.23588   2.17864   22.767
 5369.00    2.16974   2.13343   22.765
 5370.00    2.08734   2.06577   22.993
 5371.00    2.05340   2.01387   23.563
 5372.00    2.11705   2.02203   -1.000
 5373.00    2.23751   2.09757   -1.000
 5374.00    2.33577   2.20128   -1.000
 5375.00    2.36201   2.28265   22.404
 5376.00    2.36582   2.31944   21.847
 5377.00    2.35200   2.32341   21.680
 5378.00    2.35426   2.31896   21.741
 5379.00    2.36509   2.31638   21.751
 5380.00    2.34882   2.30958   21.794
 5381.00    2.32445   2.29173   21.919
 5382.00    2.30364   2.26806   22.135
 5383.00    2.29506   2.25256   22.353
 5384.00    2.30811   2.25482   22.465
 5385.00    2.34175   2.27218   22.452
 5386.00    2.35492   2.29145   22.347
 5387.00    2.34200   2.29691   22.108
 5388.00    2.33164   2.28047   22.061
 5389.00    2.29465   2.24623   22.159
 5390.00    2.24059   2.20708   22.372
 5391.00    2.21757   2.17595   22.713
 5392.00    2.22338   2.15883   22.970
 5393.00    2.23308   2.15266   23.075
 5394.00    2.22162   2.14748   23.088
 5395.00    2.18578   2.13020   23.158
 5396.00    2.13934   2.09688   23.328
 5397.00    2.12343   2.06616   23.634
 5398.00    2.14299   2.06714   24.111
 5399.00    2.22072   2.10735   -1.000
 5400.00    2.27100   2.16278   -1.000
 5401.00    2.29615   2.20331   -1.000
 5402.00    2.29899   2.21097   -1.000
 5403.00    2.23942   2.17748   22.650
 5404.00    2.14940   2.10575   22.828
 5405.00    2.05737   2.02466   23.512
 5406.00    2.03641   1.98194   24.281
 5407.00    2.11064   1.99795   -1.000
 5408.00    2.15322   2.04218   -1.000
 5409.00    2.15026   2.07313   23.890
 5410.00    2.15876   2.08783   23.676
 5411.00    2.18945   2.11508   23.875
 5412.00    2.27099   2.16810   -1.000
 5413.00    2.33253   2.22305   -1.000
 5414.00    2.32693   2.25609   22.608
 5415.00    2.31388   2.27364   22.365
 5416.00    2.33739   2.29458   22.374
 5417.00    2.36751   2.32060   22.385
 5418.00    2.36007   2.33399   22.221
 5419.00    2.34576   2.32438   22.079
 5420.00    2.32102   2.30271   22.164
 5421.00    2.31022   2.28542   22.382
 5422.00    2.30925   2.27528   22.519
 5423.00    2.29626   2.26305   22.433
 5424.00    2.27791   2.25069   22.343
 5425.00    2.29091   2.25799   22.646
 5426.00    2.34298   2.29067   22.858
 5427.00    2.36725   2.31704   22.626
 5428.00    2.31212   2.29630   22.244
 5429.00    2.22536   2.23002   22.302
 5430.00    2.18519   2.16733   22.906
 5431.00    2.21331   2.14828   23.642
 5432.00    2.25420   2.15952   -1.000
 5433.00    2.23096   2.16132   23.290
 5434.00    2.20111   2.14018   23.266
 5435.00    2.18690   2.12263   23.591
 5436.00    2.19491   2.14076   23.867
 5437.00    2.26427   2.19940   23.790
 5438.00    2.34350   2.27834   23.326
 5439.00    2.40803   2.35068   22.685
 5440.00    2.46188   2.39930   22.206
 5441.00    2.46652   2.42305   21.891
 5442.00    2.45414   2.42805   21.706
 5443.00    2.44033   2.41379   21.665
 5444.00    2.37576   2.36915   21.663
 5445.00    2.26852   2.28909   21.885
 5446.00    2.16873   2.19646   22.460
 5447.00    2.14510   2.13703   23.381
 5448.00    2.20862   2.14363   24.162
 5449.00    2.29277   2.20506   -1.000
 5450.00    2.32471   2.27598   23.259
 5451.00    2.35521   2.31545   22.603
 5452.00    2.33660   2.31275   22.374
 5453.00    2.27825   2.27536   22.371
 5454.00    2.22914   2.21257   22.557
 5455.00    2.17154   2.14876   23.073
 5456.00    2.17739   2.12408   23.736
 5457.00    2.24758   2.16377   24.259
 5458.00    2.32516   2.24447   23.940
 5459.00    2.36401   2.31086   23.120
 5460.00    2.35044   2.32592   22.481
 5461.00    2.32234   2.29542   22.337
 5462.00    2.27672   2.24755   22.587
 5463.00    2.25892   2.21341   23.010
 5464.00    2.28881   2.21150   23.327
 5465.00    2.32280   2.23677   -1.000
 5466.00    2.33252   2.26962   23.184
 5467.00    2.34705   2.29505   22.911
 5468.00    2.36624   2.30887   22.797
 5469.00    2.35348   2.30936   22.549
 5470.00    2.32027   2.29722   22.448
 5471.00    2.29782   2.27834   22.648
 5472.00    2.31202   2.25965   22.886
 5473.00    2.29628   2.24131   22.974
 5474.00    2.25766   2.21508   23.089
 5475.00    2.22258   2.17406   23.321
 5476.00    2.17486   2.12695   23.650
 5477.00    2.15557   2.10312   24.151
 5478.00    2.20382   2.12610   -1.000
 5479.00    2.28206   2.17765   -1.000
 5480.00    2.27882   2.21073   23.609
 5481.00    2.24819   2.20621   23.146
 5482.00    2.23940   2.19274   23.297
 5483.00    2.27827   2.20891   23.586
 5484.00    2.32601   2.25815   23.556
 5485.00    2.36271   2.30607   23.158
 5486.00    2.37147   2.31975   22.684
 5487.00    2.31533   2.29821   22.474
 5488.00    2.27023   2.26754   22.675
 5489.00    2.27088   2.25568   23.000
 5490.00    2.30188   2.26820   23.144
 5491.00    2.31811   2.29046   23.153
 5492.00    2.33993   2.30463   22.996
 5493.00    2.34837   2.30631   22.828
 5494.00    2.34417   2.30277   22.740
 5495.00    2.34030   2.29997   22.784
 5496.00    2.33729   2.29542   22.796
 5497.00    2.34163   2.28888   22.793
 5498.00    2.35346   2.29069   22.952
 5499.00    2.37170   2.30356   23.115
 5500.00    2.37236   2.31002   23.004
 5501.00    2.34777   2.29383   22.747
 5502.00    2.32263   2.26398   22.907
 5503.00    2.32578   2.24365   23.272
 5504.00    2.34081   2.23929   -1.000
 5505.00    2.32127   2.23483   -1.000
 5506.00    2.28855   2.22195   23.089
 5507.00    2.28421   2.21606   23.386
 5508.00    2.31142   2.23278   23.625
 5509.00    2.34233   2.26188   -1.000
 5510.00    2.33596   2.27379   23.058
 5511.00    2.29331   2.25188   22.943
 5512.00    2.24372   2.20951   23.084
 5513.00    2.21694   2.17470   23.524
 5514.00    2.22572   2.16709   23.919
 5515.00    2.26571   2.18746   24.141
 5516.00    2.31508   2.22422   -1.000
 5517.00    2.37312   2.26828   -1.000
 5518.00    2.42153   2.31413   -1.000
 5519.00    2.45535   2.35409   -1.000
 5520.00    2.46804   2.37741   -1.000
 5521.00    2.44735   2.38158   22.224
 5522.00    2.43781   2.37654   22.255
 5523.00    2.42952   2.37202   22.300
 5524.00    2.41214   2.36491   22.376
 5525.00    2.38434   2.34323   22.416
 5526.00    2.34262   2.29924   22.545
 5527.00    2.27986   2.24101   22.843
 5528.00    2.23398   2.19594   23.360
 5529.00    2.26420   2.19275   23.963
 5530.00    2.33954   2.23424   -1.000
 5531.00    2.38687   2.28944   -1.000
 5532.00    2.39773   2.32397   23.017
 5533.00    2.38364   2.32791   22.699
 5534.00    2.36900   2.31477   22.726
 5535.00    2.34878   2.30141   22.933
 5536.00    2.36277   2.29666   23.053
 5537.00    2.38227   2.30277   22.985
 5538.00    2.38866   2.31804   22.801
 5539.00    2.42173   2.34026   -1.000
 5540.00    2.45250   2.36576   -1.000
 5541.00    2.46452   2.38453   22.427
 5542.00    2.45912   2.38502   22.245
 5543.00    2.42115   2.36872   22.243
 5544.00    2.40017   2.35010   22.461
 5545.00    2.39122   2.34165   22.691
 5546.00    2.40033   2.34562   22.761
 5547.00    2.42776   2.36094   22.704
 5548.00    2.45262   2.38648   22.651
 5549.00    2.49619   2.41521   22.514
 5550.00    2.50758   2.43511   22.295
 5551.00    2.49235   2.43866   22.105
 5552.00    2.47686   2.42581   22.045
 5553.00    2.44378   2.40185   22.153
 5554.00    2.43129   2.37807   22.343
 5555.00    2.43819   2.36570   22.597
 5556.00    2.44160   2.36630   22.717
 5557.00    2.44734   2.37156   22.692
 5558.00    2.45282   2.37463   22.621
 5559.00    2.44459   2.37581   22.580
 5560.00    2.44661   2.37594   22.551
 5561.00    2.44281   2.36950   22.527
 5562.00    2.40478   2.35334   22.570
 5563.00    2.37725   2.33413   22.682
 5564.00    2.36978   2.32057   22.907
 5565.00    2.37971   2.31312   23.073
 5566.00    2.38232   2.30714   23.145
 5567.00    2.38161   2.30093   -1.000
 5568.00    2.39550   2.29774   -1.000
 5569.00    2.39396   2.30008   -1.000
 5570.00    2.39946   2.30616   -1.000
 5571.00    2.40520   2.31077   -1.000
 5572.00    2.38864   2.30981   23.174
 5573.00    2.38638   2.30680   23.174
 5574.00    2.39192   2.31278   23.238
 5575.00    2.40148   2.33273   23.152
 5576.00    2.27498   2.35601   22.913
 5577.00    1.84300   2.37058   -1.000
 5578.00    0.94252   2.37938   -1.000
 5579.00    0.19459   2.38903   -1.000
 5580.00    0.21085   2.39665   -1.000
 5581.00    1.20723   2.39637   -1.000
 5582.00    2.17717   2.38739   -1.000
 5583.00    2.47034   2.37321   -1.000
 5584.00    2.44447   2.35294   -1.000
 5585.00    2.39546   2.31561   22.833
 5586.00    2.32355   2.25494   22.953
 5587.00    2.26365   2.18619   23.437
 5588.00    2.22583   2.13853   -1.000
 5589.00    2.22458   2.13171   -1.000
 5590.00    2.27379   2.16200   -1.000
 5591.00    2.31827   2.20634   -1.000
 5592.00    2.33250   2.24212   -1.000
 5593.00    2.33172   2.26155   23.752
 5594.00    2.33493   2.27705   23.659
 5595.00    2.37143   2.30333   23.744
 5596.00    2.42617   2.33554   -1.000
 5597.00    2.42583   2.34980   23.295
 5598.00    2.37295   2.33133   23.087
 5599.00    2.33949   2.29173   23.273
 5600.00    2.31512   2.25179   23.671
 5601.00    2.28993   2.22320   23.939
 5602.00    2.27964   2.21224   23.945
 5603.00    2.30647   2.23010   -1.000
 5604.00    2.37764   2.28386   -1.000
 5605.00    2.45093   2.35848   -1.000
 5606.00    2.50058   2.42424   -1.000
 5607.00    2.52189   2.46234   22.650
 5608.00    2.52624   2.47480   22.360
 5609.00    2.54568   2.47434   22.296
 5610.00    2.54139   2.47461   22.325
 5611.00    2.52515   2.47965   22.371
 5612.00    2.51760   2.47731   22.354
 5613.00    2.47402   2.44454   22.287
 5614.00    2.39243   2.37107   22.377
 5615.00    2.31203   2.28260   22.811
 5616.00    2.29057   2.22781   23.584
 5617.00    2.34136   2.23442   -1.000
 5618.00    2.40131   2.28064   -1.000
 5619.00    2.43355   2.32586   -1.000
 5620.00    2.43486   2.35311   -1.000
 5621.00    2.45093   2.37128   -1.000
 5622.00    2.45535   2.37763   22.954
 5623.00    2.41935   2.35741   22.839
 5624.00    2.35917   2.31413   22.917
 5625.00    2.33739   2.27845   23.343
 5626.00    2.36590   2.27917   -1.000
 5627.00    2.42982   2.31608   -1.000
 5628.00    2.47135   2.36439   -1.000
 5629.00    2.48689   2.40575   -1.000
 5630.00    2.50668   2.43551   22.732
 5631.00    2.53169   2.45099   22.556
 5632.00    2.53037   2.45077   22.484
 5633.00    2.52313   2.43768   -1.000
 5634.00    2.49990   2.41622   -1.000
 5635.00    2.47205   2.39049   -1.000
 5636.00    2.44076   2.36492   22.739
 5637.00    2.41650   2.34586   22.884
 5638.00    2.41533   2.33838   23.050
 5639.00    2.42133   2.33996   -1.000
 5640.00    2.41420   2.34074   23.225
 5641.00    2.40718   2.33496   23.201
 5642.00    2.40611   2.32927   23.270
 5643.00    2.40630   2.33396   23.290
 5644.00    2.43352   2.34919   -1.000
 5645.00    2.45363   2.36674   -1.000
 5646.00    2.45388   2.38132   23.054
 5647.00    2.47122   2.39059   -1.000
 5648.00    2.48592   2.39170   -1.000
 5649.00    2.48036   2.38650   -1.000
 5650.00    2.47328   2.38421   -1.000
 5651.00    2.49641   2.39283   -1.000
 5652.00    2.51343   2.40712   -1.000
 5653.00    2.50604   2.41174   -1.000
 5654.00    2.48654   2.39957   -1.000
 5655.00    2.45247   2.37737   22.623
 5656.00    2.42879   2.34905   -1.000
 5657.00    2.36772   2.30942   23.016
 5658.00    2.30411   2.26285   23.437
 5659.00    2.30399   2.23373   24.138
 5660.00    2.34970   2.24197   -1.000
 5661.00    2.39643   2.27303   -1.000
 5662.00    2.39881   2.29747   -1.000
 5663.00    2.40417   2.31440   -1.000
 5664.00    2.43310   2.34064   -1.000
 5665.00    2.45428   2.37135   -1.000
 5666.00    2.45637   2.38644   23.094
 5667.00    2.43423   2.38003   22.977
 5668.00    2.43434   2.36555   23.081
 5669.00    2.42984   2.35995   23.222
 5670.00    2.43148   2.36888   23.262
 5671.00    2.45947   2.38979   23.209
 5672.00    2.48909   2.41972   23.067
 5673.00    2.53007   2.45086   -1.000
 5674.00    2.56217   2.47202   -1.000
 5675.00    2.55801   2.47936   22.423
 5676.00    2.54352   2.47951   22.405
 5677.00    2.55755   2.47843   -1.000
 5678.00    2.56062   2.47436   -1.000
 5679.00    2.53842   2.46195   22.380
 5680.00    2.52607   2.44123   -1.000
 5681.00    2.50817   2.41519   -1.000
 5682.00    2.46516   2.38621   -1.000
 5683.00    2.44495   2.36328   -1.000
 5684.00    2.44483   2.35804   -1.000
 5685.00    2.46204   2.36632   -1.000
 5686.00    2.46738   2.36989   -1.000
 5687.00    2.42981   2.36183   23.080
 5688.00    2.42802   2.35493   23.167
 5689.00    2.46576   2.36469   -1.000
 5690.00    2.51226   2.39333   -1.000
 5691.00    2.54265   2.42925   -1.000
 5692.00    2.56209   2.45886   -1.000
 5693.00    2.56755   2.47515   -1.000
 5694.00    2.55683   2.47790   -1.000
 5695.00    2.55892   2.47229   -1.000
 5696.00    2.56206   2.46245   -1.000
 5697.00    2.52886   2.44705   -1.000
 5698.00    2.48113   2.42439   22.540
 5699.00    2.45831   2.39830   22.747
 5700.00    2.43401   2.37376   23.010
 5701.00    2.42505   2.35423   23.220
 5702.00    2.42800   2.34649   -1.000
 5703.00    2.43604   2.35567   -1.000
 5704.00    2.45791   2.37177   -1.000
 5705.00    2.45052   2.37420   -1.000
 5706.00    2.40880   2.35249   23.121
 5707.00    2.35076   2.31420   23.256
 5708.00    2.30883   2.27570   23.570
 5709.00    2.29611   2.24900   24.002
 5710.00    2.31178   2.23901   -1.000
 5711.00    2.34048   2.24953   -1.000
 5712.00    2.38583   2.28265   -1.000
 5713.00    2.43914   2.33464   -1.000
 5714.00    2.49395   2.39133   -1.000
 5715.00    2.51447   2.43471   -1.000
 5716.00    2.53342   2.45986   -1.000
 5717.00    2.55188   2.47480   -1.000
 5718.00    2.56312   2.48640   -1.000
 5719.00    2.58234   2.49925   -1.000
 5720.00    2.58695   2.51590   22.507
 5721.00    2.61028   2.53483   -1.000
 5722.00    2.63208   2.55189   -1.000
 5723.00    2.62744   2.56306   22.196
 5724.00    2.61670   2.56353   22.161
 5725.00    2.58784   2.54860   22.133
 5726.00    2.56276   2.52095   22.177
 5727.00    2.55872   2.49524   22.350
 5728.00    2.55758   2.48728   22.584
 5729.00    2.56719   2.49568   22.772
 5730.00    2.56716   2.50284   22.684
 5731.00    2.56289   2.49858   22.544
 5732.00    2.55767   2.49418   22.582
 5733.00    2.57314   2.50538   22.695
 5734.00    2.60136   2.52994   -1.000
 5735.00    2.61677   2.54922   22.426
 5736.00    2.60096   2.55062   22.272
 5737.00    2.58059   2.53995   22.275
 5738.00    2.59246   2.52959   22.303
 5739.00    2.60416   2.52572   -1.000
 5740.00    2.59626   2.52565   22.389
 5741.00    2.58501   2.52397   22.433
 5742.00    2.58242   2.52109   22.469
 5743.00    2.58608   2.52348   22.518
 5744.00    2.60720   2.53602   -1.000
 5745.00    2.63425   2.55185   -1.000
 5746.00    2.63214   2.55516   -1.000
 5747.00    2.60012   2.53980   22.174
 5748.00    2.56307   2.52061   22.266
 5749.00    2.54551   2.51754   22.481
 5750.00    2.56556   2.52872   22.586
 5751.00    2.58735   2.52909   22.478
 5752.00    2.56097   2.50080   22.397
 5753.00    2.50643   2.45655   22.543
 5754.00    2.50227   2.43129   -1.000
 5755.00    2.56156   2.44839   -1.000
 5756.00    2.60375   2.49789   -1.000
 5757.00    2.62589   2.54837   -1.000
 5758.00    2.65945   2.57149   -1.000
 5759.00    2.63947   2.55974   -1.000
 5760.00    2.58059   2.52166   22.138
 5761.00    2.54305   2.47530   22.370
 5762.00    2.51397   2.44263   22.662
 5763.00    2.52985   2.44262   -1.000
 5764.00    2.58225   2.47962   -1.000
 5765.00    2.64488   2.53432   -1.000
 5766.00    2.65516   2.57808   -1.000
 5767.00    2.65824   2.59857   22.217
 5768.00    2.65938   2.60222   22.123
 5769.00    2.66125   2.59641   22.098
 5770.00    2.65343   2.58555   22.063
 5771.00    2.63220   2.57277   22.097
 5772.00    2.60318   2.55974   22.168
 5773.00    2.59479   2.54742   22.285
 5774.00    2.57440   2.53829   22.423
 5775.00    2.57736   2.53619   22.491
 5776.00    2.59312   2.54236   22.520
 5777.00    2.58323   2.54960   22.483
 5778.00    2.56991   2.54261   22.378
 5779.00    2.53793   2.50964   22.342
 5780.00    2.44405   2.45400   22.402
 5781.00    2.34886   2.39461   22.693
 5782.00    2.30832   2.35445   23.187
 5783.00    2.31477   2.34108   23.526
 5784.00    2.34741   2.34375   23.530
 5785.00    2.40745   2.35324   23.439
 5786.00    2.47375   2.37696   -1.000
 5787.00    2.53175   2.41925   -1.000
 5788.00    2.56462   2.46461   -1.000
 5789.00    2.58077   2.49314   -1.000
 5790.00    2.57574   2.50047   -1.000
 5791.00    2.56294   2.49859   22.535
 5792.00    2.58415   2.50610   -1.000
 5793.00    2.60803   2.53150   -1.000
 5794.00    2.63574   2.56525   -1.000
 5795.00    2.65208   2.58763   22.289
 5796.00    2.63017   2.58596   22.153
 5797.00    2.59048   2.56681   22.119
 5798.00    2.57431   2.55299   22.231
 5799.00    2.61333   2.56487   22.376
 5800.00    2.65942   2.59980   22.308
 5801.00    2.69320   2.63500   22.046
 5802.00    2.70441   2.64750   21.742
 5803.00    2.67416   2.63121   21.652
 5804.00    2.65058   2.59863   21.802
 5805.00    2.64683   2.57009   -1.000
 5806.00    2.65157   2.55939   -1.000
 5807.00    2.66009   2.56533   -1.000
 5808.00    2.65999   2.57895   -1.000
 5809.00    2.66676   2.59336   -1.000
 5810.00    2.67799   2.60619   -1.000
 5811.00    2.68689   2.61535   -1.000
 5812.00    2.67835   2.61688   22.061
 5813.00    2.67749   2.60722   21.987
 5814.00    2.68642   2.58619   -1.000
 5815.00    2.64180   2.55991   -1.000
 5816.00    2.62341   2.54318   -1.000
 5817.00    2.64462   2.55076   -1.000
 5818.00    2.68900   2.58225   -1.000
 5819.00    2.72146   2.61927   -1.000
 5820.00    2.74994   2.64277   -1.000
 5821.00    2.73349   2.64703   -1.000
 5822.00    2.73454   2.63900   -1.000
 5823.00    2.71717   2.62953   -1.000
 5824.00    2.71956   2.62589   -1.000
 5825.00    2.72661   2.62876   -1.000
 5826.00    2.73126   2.63427   -1.000
 5827.00    2.73694   2.63984   -1.000
 5828.00    2.74770   2.64556   -1.000
 5829.00    2.74399   2.65184   -1.000
 5830.00    2.73286   2.65631   -1.000
 5831.00    2.74422   2.65594   -1.000
 5832.00    2.74681   2.65009   -1.000
 5833.00    2.73647   2.63976   -1.000
 5834.00    2.72440   2.62717   -1.000
 5835.00    2.71113   2.61776   -1.000
 5836.00    2.70981   2.61558   -1.000
 5837.00    2.70120   2.61768   -1.000
 5838.00    2.70429   2.62014   -1.000
 5839.00    2.72481   2.62665   -1.000
 5840.00    2.72367   2.64140   -1.000
 5841.00    2.73755   2.65999   -1.000
 5842.00    2.75767   2.67296   -1.000
 5843.00    2.75394   2.67374   -1.000
 5844.00    2.72883   2.66153   21.522
 5845.00    2.70669   2.63978   21.585
 5846.00    2.68587   2.61410   21.668
 5847.00    2.67859   2.59216   -1.000
 5848.00    2.67725   2.58068   -1.000
 5849.00    2.67120   2.57986   -1.000
 5850.00    2.66703   2.57993   -1.000
 5851.00    2.64690   2.56865   -1.000
 5852.00    2.61596   2.54458   22.160
 5853.00    2.59748   2.51993   -1.000
 5854.00    2.59956   2.50601   -1.000
 5855.00    2.60699   2.49780   -1.000
 5856.00    2.58591   2.47951   -1.000
 5857.00    2.53848   2.44928   -1.000
 5858.00    2.53047   2.42847   -1.000
 5859.00    2.57371   2.43799   -1.000
 5860.00    2.61615   2.47318   -1.000
 5861.00    2.63003   2.51046   -1.000
 5862.00    2.63760   2.53278   -1.000
 5863.00    2.64370   2.54188   -1.000
 5864.00    2.64997   2.54468   -1.000
 5865.00    2.65927   2.54224   -1.000
 5866.00    2.64981   2.53374   -1.000
 5867.00    2.63766   2.52806   -1.000
 5868.00    2.66588   2.53856   -1.000
 5869.00    2.69132   2.56437   -1.000
 5870.00    2.70234   2.58945   -1.000
 5871.00    2.68711   2.60105   -1.000
 5872.00    2.68092   2.59914   -1.000
 5873.00    2.67333   2.59193   -1.000
 5874.00    2.69167   2.58737   -1.000
 5875.00    2.70039   2.58601   -1.000
 5876.00    2.69067   2.58187   -1.000
 5877.00    2.66596   2.56871   -1.000
 5878.00    2.65108   2.54653   -1.000
 5879.00    2.62740   2.52155   -1.000
 5880.00    2.60920   2.50236   -1.000
 5881.00    2.61090   2.49514   -1.000
 5882.00    2.62316   2.49712   -1.000
 5883.00    2.60822   2.49803   -1.000
 5884.00    2.60241   2.49287   -1.000
 5885.00    2.60887   2.48288   -1.000
 5886.00    2.56269   2.45434   -1.000
 5887.00    2.43263   2.37355   22.711
 5888.00    2.17274   2.22090   22.951
 5889.00    1.80626   2.03238   -1.000
 5890.00    1.43776   1.89375   -1.000
 5891.00    1.26860   1.87515   -1.000
 5892.00    1.45164   1.96077   -1.000
 5893.00    1.80530   2.05992   -1.000
 5894.00    1.99092   2.08887   25.884
 5895.00    1.90005   2.04562   25.272
 5896.00    1.67360   2.00373   -1.000
 5897.00    1.58524   2.03695   -1.000
 5898.00    1.73374   2.14547   -1.000
 5899.00    2.05943   2.26912   -1.000
 5900.00    2.36966   2.36540   24.626
 5901.00    2.52459   2.43010   -1.000
 5902.00    2.57111   2.47063   -1.000
 5903.00    2.58937   2.49248   -1.000
 5904.00    2.58932   2.50120   -1.000
 5905.00    2.59685   2.50275   -1.000
 5906.00    2.62532   2.50433   -1.000
 5907.00    2.64230   2.51201   -1.000
 5908.00    2.64689   2.52527   -1.000
 5909.00    2.64806   2.53870   -1.000
 5910.00    2.64619   2.54860   -1.000
 5911.00    2.64175   2.55155   -1.000
 5912.00    2.62416   2.54080   -1.000
 5913.00    2.59335   2.51316   -1.000
 5914.00    2.56079   2.47795   -1.000
 5915.00    2.54414   2.45392   -1.000
 5916.00    2.55270   2.45351   -1.000
 5917.00    2.57893   2.47349   -1.000
 5918.00    2.62134   2.50202   -1.000
 5919.00    2.63508   2.52788   -1.000
 5920.00    2.62793   2.54313   -1.000
 5921.00    2.60585   2.54625   22.931
 5922.00    2.59320   2.54241   22.852
 5923.00    2.61007   2.54099   22.841
 5924.00    2.63115   2.54829   -1.000
 5925.00    2.63978   2.56166   -1.000
 5926.00    2.63676   2.57191   22.714
 5927.00    2.62967   2.57000   22.668
 5928.00    2.62991   2.55335   -1.000
 5929.00    2.62358   2.53049   -1.000
 5930.00    2.61361   2.51789   -1.000
 5931.00    2.62796   2.52478   -1.000
 5932.00    2.64883   2.54118   -1.000
 5933.00    2.64952   2.54753   -1.000
 5934.00    2.63363   2.53916   -1.000
 5935.00    2.61888   2.53167   -1.000
 5936.00    2.63146   2.54052   -1.000
 5937.00    2.65092   2.56236   -1.000
 5938.00    2.67750   2.57993   -1.000
 5939.00    2.68895   2.58142   -1.000
 5940.00    2.66960   2.56664   -1.000
 5941.00    2.63355   2.54424   -1.000
 5942.00    2.61613   2.52930   -1.000
 5943.00    2.61732   2.53285   -1.000
 5944.00    2.63250   2.55176   -1.000
 5945.00    2.63786   2.57192   -1.000
 5946.00    2.64975   2.57984   -1.000
 5947.00    2.64657   2.56979   -1.000
 5948.00    2.60995   2.54849   22.734
 5949.00    2.57228   2.53245   22.915
 5950.00    2.57973   2.53124   23.156
 5951.00    2.59610   2.53646   23.247
 5952.00    2.60028   2.53585   23.156
 5953.00    2.60770   2.53145   -1.000
 5954.00    2.61687   2.53193   -1.000
 5955.00    2.62471   2.53605   -1.000
 5956.00    2.62829   2.53469   -1.000
 5957.00    2.63175   2.52849   -1.000
 5958.00    2.64450   2.53067   -1.000
 5959.00    2.65294   2.54909   -1.000
 5960.00    2.65591   2.57697   -1.000
 5961.00    2.67033   2.60201   -1.000
 5962.00    2.69372   2.61588   -1.000
 5963.00    2.69185   2.61663   -1.000
 5964.00    2.68513   2.60735   -1.000
 5965.00    2.68366   2.59436   -1.000
 5966.00    2.67970   2.58689   -1.000
 5967.00    2.68423   2.59151   -1.000
 5968.00    2.70255   2.60534   -1.000
 5969.00    2.71259   2.62025   -1.000
 5970.00    2.71322   2.63226   -1.000
 5971.00    2.72046   2.64062   -1.000
 5972.00    2.72007   2.64317   -1.000
 5973.00    2.70226   2.63667   22.495
 5974.00    2.67995   2.61854   22.463
 5975.00    2.66084   2.58968   -1.000
 5976.00    2.64070   2.55849   -1.000
 5977.00    2.63046   2.53816   -1.000
 5978.00    2.62650   2.53731   -1.000
 5979.00    2.63433   2.55411   -1.000
 5980.00    2.66124   2.57706   -1.000
 5981.00    2.68129   2.58882   -1.000
 5982.00    2.67140   2.57689   -1.000
 5983.00    2.63118   2.54504   -1.000
 5984.00    2.60567   2.51402   -1.000
 5985.00    2.60953   2.50563   -1.000
 5986.00    2.63345   2.52373   -1.000
 5987.00    2.65833   2.55295   -1.000
 5988.00    2.68621   2.57752   -1.000
 5989.00    2.69491   2.59290   -1.000
 5990.00    2.68405   2.59965   -1.000
 5991.00    2.67578   2.60212   -1.000
 5992.00    2.67563   2.60948   -1.000
 5993.00    2.68832   2.62617   -1.000
 5994.00    2.71638   2.64275   -1.000
 5995.00    2.72251   2.64397   -1.000
 5996.00    2.71430   2.62530   -1.000
 5997.00    2.68758   2.59810   -1.000
 5998.00    2.66690   2.57988   -1.000
 5999.00    2.67275   2.57902   -1.000
 6000.00    2.68371   2.58864   -1.000
 6001.00    2.68906   2.59486   -1.000
 6002.00    2.67851   2.59136   -1.000
 6003.00    2.65855   2.58438   -1.000
 6004.00    2.65622   2.58237   -1.000
 6005.00    2.66560   2.58087   -1.000
 6006.00    2.63682   2.56645   -1.000
 6007.00    2.60664   2.54003   -1.000
 6008.00    2.60275   2.52284   -1.000
 6009.00    2.61857   2.53382   -1.000
 6010.00    2.64812   2.56518   -1.000
 6011.00    2.65547   2.58798   -1.000
 6012.00    2.63629   2.58573   22.977
 6013.00    2.62835   2.56977   22.933
 6014.00    2.62911   2.55928   -1.000
 6015.00    2.64254   2.55914   -1.000
 6016.00    2.64940   2.56081   -1.000
 6017.00    2.64733   2.55923   -1.000
 6018.00    2.64972   2.55605   -1.000
 6019.00    2.63693   2.54949   -1.000
 6020.00    2.63473   2.53914   -1.000
 6021.00    2.64272   2.53373   -1.000
 6022.00    2.63972   2.54063   -1.000
 6023.00    2.65271   2.55729   -1.000
 6024.00    2.67496   2.57811   -1.000
 6025.00    2.69530   2.59939   -1.000
 6026.00    2.71143   2.61845   -1.000
 6027.00    2.72445   2.63464   -1.000
 6028.00    2.73394   2.65021   -1.000
 6029.00    2.73858   2.66532   -1.000
 6030.00    2.75405   2.67655   -1.000
 6031.00    2.76405   2.68386   -1.000
 6032.00    2.76852   2.69175   -1.000
 6033.00    2.77555   2.70292   -1.000
 6034.00    2.77981   2.71573   -1.000
 6035.00    2.78439   2.72562   22.558
 6036.00    2.78198   2.72792   22.489
 6037.00    2.77155   2.72176   22.470
 6038.00    2.75903   2.70996   22.437
 6039.00    2.73703   2.69669   22.444
 6040.00    2.71349   2.68639   22.550
 6041.00    2.72343   2.68249   22.620
 6042.00    2.74033   2.68623   22.682
 6043.00    2.74932   2.69714   22.664
 6044.00    2.77974   2.71255   -1.000
 6045.00    2.80251   2.72673   -1.000
 6046.00    2.80489   2.73568   -1.000
 6047.00    2.78623   2.74021   22.326
 6048.00    2.77515   2.74225   22.341
 6049.00    2.78941   2.74272   22.313
 6050.00    2.80840   2.74157   -1.000
 6051.00    2.80180   2.73681   -1.000
 6052.00    2.79009   2.72516   -1.000
 6053.00    2.77742   2.70670   -1.000
 6054.00    2.75723   2.68584   -1.000
 6055.00    2.75412   2.66740   -1.000
 6056.00    2.74035   2.65613   -1.000
 6057.00    2.72616   2.65682   -1.000
 6058.00    2.73241   2.66943   -1.000
 6059.00    2.75054   2.68670   -1.000
 6060.00    2.77037   2.69844   -1.000
 6061.00    2.77293   2.69662   -1.000
 6062.00    2.74778   2.67854   -1.000
 6063.00    2.71158   2.64828   -1.000
 6064.00    2.68822   2.61772   -1.000
 6065.00    2.65233   2.60437   23.351
 6066.00    2.61186   2.62095   22.890
 6067.00    2.63904   2.66266   31.025
 6068.00    2.65652   2.70862    9.632
 6069.00    2.75880   2.74077   12.739
 6070.00    2.79366   2.75710   23.912
 6071.00    2.78964   2.76426   22.661
 6072.00    2.83328   2.76549   -1.000
 6073.00    2.57825   2.76203   21.832
 6074.00    1.24583   2.75670   -1.000
 6075.00    1.84162   2.74816   -1.000
 6076.00    2.75615   2.73060   22.425
 6077.00    2.78881   2.70443   -1.000
 6078.00    2.72711   2.67810   22.593
 6079.00    2.72204   2.65954   -1.000
 6080.00    2.71728   2.64856   -1.000
 6081.00    2.70490   2.63964   -1.000
 6082.00    2.68882   2.63214   -1.000
 6083.00    2.69355   2.63036   -1.000
 6084.00    2.70499   2.63504   -1.000
 6085.00    2.71460   2.64316   -1.000
 6086.00    2.71535   2.65293   -1.000
 6087.00    2.71783   2.66179   -1.000
 6088.00    2.72492   2.66346   -1.000
 6089.00    2.70900   2.65342   -1.000
 6090.00    2.67808   2.63650   22.994
 6091.00    2.68432   2.62482   -1.000
 6092.00    2.69517   2.62684   -1.000
 6093.00    2.69986   2.64209   -1.000
 6094.00    2.73093   2.66421   -1.000
 6095.00    2.76663   2.68432   -1.000
 6096.00    2.78651   2.69617   -1.000
 6097.00    2.78301   2.70183   -1.000
 6098.00    2.77065   2.70642   -1.000
 6099.00    2.75444   2.70458   22.793
 6100.00    2.73213   2.68048   22.821
 6101.00    2.69291   2.62801   -1.000
 6102.00    2.63664   2.56850   -1.000
 6103.00    2.61173   2.54012   -1.000
 6104.00    2.65825   2.56065   -1.000
 6105.00    2.71252   2.60969   -1.000
 6106.00    2.73817   2.65408   -1.000
 6107.00    2.73051   2.67954   -1.000
 6108.00    2.72571   2.69287   22.995
 6109.00    2.73983   2.70210   23.046
 6110.00    2.74589   2.70686   23.118
 6111.00    2.74063   2.70758   23.125
 6112.00    2.74227   2.71108   23.084
 6113.00    2.76177   2.72094   22.995
 6114.00    2.76869   2.73023   22.961
 6115.00    2.76032   2.73015   22.877
 6116.00    2.75251   2.72159   22.797
 6117.00    2.74797   2.71072   22.847
 6118.00    2.74004   2.69528   22.986
 6119.00    2.70829   2.66557   23.056
 6120.00    2.65990   2.61940   23.138
 6121.00    2.61713   2.57161   23.413
 6122.00    2.59964   2.54785   23.738
 6123.00    2.63290   2.56326   -1.000
 6124.00    2.69529   2.60472   -1.000
 6125.00    2.71392   2.64153   -1.000
 6126.00    2.69726   2.65564   23.438
 6127.00    2.68383   2.65256   23.349
 6128.00    2.67846   2.64899   23.455
 6129.00    2.70142   2.65974   23.479
 6130.00    2.74513   2.68712   -1.000
 6131.00    2.76615   2.71769   -1.000
 6132.00    2.75955   2.73237   23.059
 6133.00    2.73761   2.71616   22.959
 6134.00    2.69906   2.66111   22.984
 6135.00    2.61804   2.57475   23.153
 6136.00    2.54158   2.49009   23.592
 6137.00    2.51255   2.45245   -1.000
 6138.00    2.54279   2.48136   -1.000
 6139.00    2.61368   2.54922   -1.000
 6140.00    2.68183   2.60746   -1.000
 6141.00    2.69607   2.63447   -1.000
 6142.00    2.67596   2.64841   23.604
 6143.00    2.67845   2.67155   23.571
 6144.00    2.71184   2.70139   23.622
 6145.00    2.73003   2.72130   23.465
 6146.00    2.73175   2.72158   23.185
 6147.00    2.72945   2.70472   23.075
 6148.00    2.70929   2.67988   23.150
 6149.00    2.67868   2.65790   23.290
 6150.00    2.67412   2.64757   23.454
 6151.00    2.69072   2.65129   23.601
 6152.00    2.69903   2.66172   23.643
 6153.00    2.69670   2.66589   23.577
 6154.00    2.67884   2.65719   23.433
 6155.00    2.66949   2.64189   23.359
 6156.00    2.66432   2.62985   23.495
 6157.00    2.64549   2.62053   23.650
 6158.00    2.62955   2.60104   23.694
 6159.00    2.57757   2.55511   23.763
 6160.00    2.49436   2.47743   23.973
 6161.00    2.41795   2.38784   24.374
 6162.00    2.36950   2.32649   25.038
 6163.00    2.37985   2.32348   25.790
 6164.00    2.43961   2.37257   -1.000
 6165.00    2.49586   2.44001   -1.000
 6166.00    2.53408   2.49114   25.334
 6167.00    2.53982   2.50701   24.838
 6168.00    2.50904   2.48932   24.662
 6169.00    2.46416   2.46105   24.684
 6170.00    2.46240   2.45404   24.932
 6171.00    2.50406   2.48194   25.220
 6172.00    2.55487   2.52753   25.166
 6173.00    2.57926   2.56412   24.750
 6174.00    2.57158   2.58209   24.352
 6175.00    2.56321   2.58797   24.269
 6176.00    2.57603   2.59084   24.306
 6177.00    2.60484   2.59733   24.268
 6178.00    2.60462   2.60948   24.214
 6179.00    2.60159   2.62365   24.156
 6180.00    2.61813   2.63665   24.052
 6181.00    2.62756   2.64924   23.952
 6182.00    2.63331   2.66019   23.875
 6183.00    2.63539   2.66355   23.775
 6184.00    2.63308   2.65464   23.697
 6185.00    2.60809   2.63379   23.713
 6186.00    2.58353   2.60559   23.791
 6187.00    2.56018   2.57669   23.949
 6188.00    2.52910   2.55000   24.195
 6189.00    2.50750   2.52136   24.452
 6190.00    2.47960   2.48967   24.690
 6191.00    2.45112   2.46911   24.885
 6192.00    2.47234   2.47892   25.163
 6193.00    2.53163   2.52029   25.386
 6194.00    2.58983   2.57313   25.233
 6195.00    2.61900   2.61507   24.692
 6196.00    2.61899   2.63577   24.208
 6197.00    2.60879   2.63389   23.994
 6198.00    2.58532   2.61378   23.934
 6199.00    2.56031   2.58980   24.033
 6200.00    2.55236   2.58194   24.284
 6201.00    2.56638   2.59834   24.514
 6202.00    2.58660   2.62841   24.557
 6203.00    2.60480   2.65575   24.368
 6204.00    2.61575   2.67229   24.070
 6205.00    2.60899   2.68022   23.926
 6206.00    2.62162   2.68507   23.919
 6207.00    2.63649   2.68857   23.894
 6208.00    2.63051   2.68771   23.877
 6209.00    2.62347   2.67866   23.943
 6210.00    2.61400   2.65935   23.976
 6211.00    2.59777   2.62797   24.041
 6212.00    2.56218   2.58388   24.232
 6213.00    2.51108   2.53395   24.438
 6214.00    2.47565   2.49376   24.658
 6215.00    2.46262   2.47713   24.995
 6216.00    2.48005   2.48415   25.296
 6217.00    2.51639   2.50046   25.416
 6218.00    2.52211   2.50905   25.202
 6219.00    2.50704   2.50546   24.993
 6220.00    2.50556   2.50108   25.097
 6221.00    2.52383   2.50789   25.111
 6222.00    2.54279   2.52432   24.937
 6223.00    2.55438   2.54059   24.978
 6224.00    2.56931   2.55171   26.277
 6225.00    2.55126   2.55916   26.424
 6226.00    2.51304   2.56230   25.147
 6227.00    2.52648   2.55368   24.720
 6228.00    2.53077   2.52483   24.770
 6229.00    2.48769   2.47773   24.863
 6230.00    2.44260   2.43138   25.144
 6231.00    2.42872   2.41179   25.548
 6232.00    2.45677   2.43182   25.910
 6233.00    2.51784   2.48258   25.941
 6234.00    2.56785   2.54146   25.632
 6235.00    2.60034   2.58451   25.174
 6236.00    2.59474   2.59706   24.738
 6237.00    2.56945   2.58044   24.531
 6238.00    2.54475   2.54798   24.616
 6239.00    2.49980   2.51526   24.851
 6240.00    2.46818   2.49186   25.106
 6241.00    2.46741   2.47743   25.369
 6242.00    2.47069   2.46486   25.531
 6243.00    2.45821   2.45107   25.552
 6244.00    2.45145   2.44214   25.667
 6245.00    2.46769   2.44654   25.855
 6246.00    2.49288   2.46838   25.899
 6247.00    2.52469   2.50473   25.775
 6248.00    2.55564   2.54340   25.544
 6249.00    2.56896   2.56677   25.239
 6250.00    2.56422   2.56249   24.953
 6251.00    2.52347   2.53178   24.850
 6252.00    2.48435   2.49004   25.003
 6253.00    2.46624   2.45657   25.398
 6254.00    2.45240   2.43892   25.778
 6255.00    2.43255   2.42899   25.994
 6256.00    2.41536   2.41606   26.097
 6257.00    2.40609   2.40202   26.111
 6258.00    2.40473   2.40090   26.257
 6259.00    2.42941   2.42392   26.507
 6260.00    2.48146   2.46860   26.515
 6261.00    2.53053   2.52126   26.197
 6262.00    2.56719   2.56597   25.791
 6263.00    2.60232   2.59116   25.430
 6264.00    2.60197   2.59524   25.055
 6265.00    2.58446   2.58875   24.833
 6266.00    2.57938   2.58573   24.929
 6267.00    2.58334   2.58965   25.122
 6268.00    2.58467   2.59294   25.106
 6269.00    2.56825   2.59163   24.934
 6270.00    2.57009   2.59166   24.923
 6271.00    2.57740   2.59892   25.050
 6272.00    2.58702   2.61035   25.075
 6273.00    2.60831   2.61668   25.000
 6274.00    2.61275   2.61113   24.929
 6275.00    2.59823   2.59383   24.951
 6276.00    2.58802   2.56902   25.097
 6277.00    2.56074   2.54073   25.298
 6278.00    2.50766   2.51246   25.630
 6279.00    2.44649   2.48917   26.204
 6280.00    2.39550   2.47852   26.761
 6281.00    2.36675   2.48746   27.033
 6282.00    2.36495   2.51572   27.015
 6283.00    2.36839   2.55392   26.695
 6284.00    2.37327   2.59047   -1.000
 6285.00    2.37745   2.61994   -1.000
 6286.00    2.40307   2.64393   -1.000
 6287.00    2.45965   2.66375   -1.000
 6288.00    2.52041   2.67488   25.012
 6289.00    2.54922   2.67093   24.816
 6290.00    2.55900   2.65256   24.723
 6291.00    2.55904   2.62918   24.794
 6292.00    2.55540   2.61166   24.984
 6293.00    2.55738   2.60330   25.183
 6294.00    2.55850   2.59746   25.283
 6295.00    2.55895   2.58449   25.311
 6296.00    2.54992   2.56351   25.349
 6297.00    2.57414   2.54522   25.490
 6298.00    2.65645   2.53884   -1.000
 6299.00    2.78235   2.53986   -1.000
 6300.00    2.97108   2.53712   -1.000
 6301.00    3.27327   2.52972   -1.000
 6302.00    3.64728   2.52930   -1.000
 6303.00    3.82904   2.54457   -1.000
 6304.00    3.63106   2.57210   -1.000
 6305.00    3.23515   2.60352   -1.000
 6306.00    2.89383   2.63419   -1.000
 6307.00    2.71858   2.66111   -1.000
 6308.00    2.67756   2.67792   24.936
 6309.00    2.65020   2.67859   24.719
 6310.00    2.61635   2.66524   24.606
 6311.00    2.59324   2.64692   24.667
 6312.00    2.58128   2.63029   24.819
 6313.00    2.58484   2.61439   24.945
 6314.00    2.57395   2.59544   25.041
 6315.00    2.55022   2.57471   25.096
 6316.00    2.52050   2.55681   25.243
 6317.00    2.50944   2.54458   25.401
 6318.00    2.51617   2.54274   25.417
 6319.00    2.53537   2.55798   25.391
 6320.00    2.56626   2.58773   25.403
 6321.00    2.59093   2.61978   25.364
 6322.00    2.61700   2.64662   25.133
 6323.00    2.63325   2.66968   24.854
 6324.00    2.64818   2.69000   24.705
 6325.00    2.66971   2.70424   24.624
 6326.00    2.67144   2.71035   24.510
 6327.00    2.66594   2.71158   24.409
 6328.00    2.67426   2.71216   24.374
 6329.00    2.68002   2.71319   24.297
 6330.00    2.67948   2.71572   24.256
 6331.00    2.67984   2.72170   24.284
 6332.00    2.67597   2.72618   24.300
 6333.00    2.66264   2.71630   24.254
 6334.00    2.64263   2.68510   24.189
 6335.00    2.62362   2.64393   24.215
 6336.00    2.61091   2.61587   24.283
 6337.00    2.59933   2.61526   24.645
 6338.00    2.61760   2.63785   24.940
 6339.00    2.66327   2.66962   24.806
 6340.00    2.68770   2.69635   24.561
 6341.00    2.68627   2.70670   24.297
 6342.00    2.67840   2.69736   24.118
 6343.00    2.67028   2.67769   24.007
 6344.00    2.64809   2.66498   23.970
 6345.00    2.63482   2.67091   24.113
 6346.00    2.66564   2.69305   24.233
 6347.00    2.69193   2.72111   24.197
 6348.00    2.70302   2.74684   24.088
 6349.00    2.72245   2.76587   23.931
 6350.00    2.72439   2.77585   23.807
 6351.00    2.70353   2.77528   23.777
 6352.00    2.68336   2.76282   23.753
 6353.00    2.66480   2.73953   23.741
 6354.00    2.64162   2.71223   23.814
 6355.00    2.62220   2.68980   23.925
 6356.00    2.61086   2.67303   24.132
 6357.00    2.60795   2.65401   24.379
 6358.00    2.58983   2.62857   24.468
 6359.00    2.56004   2.60204   24.504
 6360.00    2.56491   2.58131   24.702
 6361.00    2.59227   2.56886   24.892
 6362.00    2.62721   2.56667   -1.000
 6363.00    2.70012   2.57802   -1.000
 6364.00    2.80677   2.60318   -1.000
 6365.00    2.92657   2.63730   -1.000
 6366.00    3.02321   2.67388   -1.000
 6367.00    3.03579   2.70707   -1.000
 6368.00    2.95281   2.73153   -1.000
 6369.00    2.83806   2.74524   -1.000
 6370.00    2.74556   2.75315   23.929
 6371.00    2.70164   2.76323   23.826
 6372.00    2.70908   2.77797   23.815
 6373.00    2.72038   2.79217   23.779
 6374.00    2.72263   2.79962   23.685
 6375.00    2.72396   2.79909   23.681
 6376.00    2.70959   2.79199   23.727
 6377.00    2.69356   2.77892   23.761
 6378.00    2.67336   2.76236   23.836
 6379.00    2.65378   2.74808   23.945
 6380.00    2.64699   2.74100   24.092
 6381.00    2.63575   2.74193   24.217
 6382.00    2.65010   2.74783   24.262
 6383.00    2.67310   2.75413   24.292
 6384.00    2.66810   2.75918   24.311
 6385.00    2.66155   2.76550   24.268
 6386.00    2.65353   2.77467   24.301
 6387.00    2.64402   2.78382   24.391
 6388.00    2.63806   2.78892   24.400
 6389.00    2.62775   2.78703   24.430
 6390.00    2.60956   2.77360   24.512
 6391.00    2.58806   2.74451   24.661
 6392.00    2.55347   2.70582   24.865
 6393.00    2.51219   2.67761   25.110
 6394.00    2.50407   2.68001   25.456
 6395.00    2.52556   2.71171   25.753
 6396.00    2.54631   2.74744   25.796
 6397.00    2.54608   2.75858   -1.000
 6398.00    2.51722   2.73514   -1.000
 6399.00    2.47368   2.69479   -1.000
 6400.00    2.44015   2.67246   -1.000
 6401.00    2.44304   2.69112   -1.000
 6402.00    2.48261   2.74033   -1.000
 6403.00    2.51622   2.78896   -1.000
 6404.00    2.52930   2.81350   -1.000
 6405.00    2.51875   2.80889   -1.000
 6406.00    2.47732   2.78437   -1.000
 6407.00    2.44675   2.75714   -1.000
 6408.00    2.42263   2.74199   -1.000
 6409.00    2.39839   2.73981   -1.000
 6410.00    2.38106   2.74022   -1.000
 6411.00    2.36809   2.73685   -1.000
 6412.00    2.35431   2.73438   -1.000
 6413.00    2.33361   2.73903   -1.000
 6414.00    2.33603   2.74994   -1.000
 6415.00    2.33615   2.76229   -1.000
 6416.00    2.31678   2.77081   -1.000
 6417.00    2.30298   2.76857   -1.000
 6418.00    2.28249   2.75033   -1.000
 6419.00    2.23975   2.72093   -1.000
 6420.00    2.20055   2.69742   -1.000
 6421.00    2.18896   2.69841   -1.000
 6422.00    2.19831   2.72722   -1.000
 6423.00    2.21430   2.76822   -1.000
 6424.00    2.21861   2.80292   -1.000
 6425.00    2.21340   2.82515   -1.000
 6426.00    2.20221   2.83697   -1.000
 6427.00    2.18153   2.83635   -1.000
 6428.00    2.15051   2.81615   -1.000
