###################################################################
## OUTPUT of StarlightChains_v04.for    [Cid@UFSC - 01/Apr/2007] ##
###################################################################

## Some input info
NGC5286_a_1.cxt                          [arq_obs]
Base.BC03.S                              [arq_base]
NGC5286_a_1.msk                          [arq_masks]
StCv04.C11.config                        [arq_config]
  150                                    [N_base]
    0                                    [N_YAV_components = # of components with extra extinction!]
    0                                    [i_FitPowerLaw (1/0 = Yes/No)]
-9.99                                    [alpha_PowerLaw]
CCM                                      [red_law_option]
 1.458241                                [q_norm = A(l_norm)/A(V)]

## (Re)Sampling Parameters
 3359.00                                 [l_ini (A)]
 6428.00                                 [l_fin (A)]
    1.00                                 [dl    (A)]     (OBS: dl_cushion =    50.00 A)

## Normalization info
 4020.00                                 [l_norm (A) - for base]
 4010.00                                 [llow_norm (A) - window for f_obs]
 4060.00                                 [lupp_norm (A) - window for f_obs]
3.810619E-14                             [fobs_norm (in input units)]

## S/N
 4730.00                                 [llow_SN (A) - window for S/N]
 4780.00                                 [lupp_SN (A) - window for S/N]
 122.361                                 [S/N in S/N window]
 104.972                                 [S/N in norm. window]
 167.801                                 [S/N_err in S/N window]
 143.955                                 [S/N_err in norm. window]
  1.0000                                 [fscale_chi2]

## etc...
  2147483638                             [idum_orig]
  3069                                   [NOl_eff]
  1507                                   [Nl_eff]
  1562    NSIGMA                         [Ntot_cliped & clip_method]
  1314180                                [Nglobal_steps]
   7                                     [N_chains]
  15                                     [NEX0s_base = N_base in EX0s-fits]
 0   0   1      194   2.0   3.182E+02    [Clip-Bug, RC-Crash & Burn-In warning-flags, n_censored_weights, wei_nsig_threshold & wei_limit]
    73     73.470     73.466      0.004  [idt_all, wdt_TotTime, wdt_UsrTime & wdt_SysTime (sec)]

## Synthesis Results - Best model ##

 2.56697E+00                             [chi2/Nl_eff]
     1.11260                             [adev (%)]

    99.62725                             [sum-of-x (%)]
 1.19034E-13                             [Flux_tot (units of input spectrum!)]
 1.78053E-09                             [Mini_tot (???)]
 8.88730E-10                             [Mcor_tot (???)]

 -23.73                                  [v0_min  (km/s)]
  42.07                                  [vd_min  (km/s)]
 0.8508                                  [AV_min  (mag)]
 0.0000                                  [YAV_min (mag)]

# j     x_j(%)      Mini_j(%)     Mcor_j(%)     age_j(yr)     Z_j      (L/M)_j    YAV?  Mstars   component_j        a/Fe...       SSP_chi2r SSP_adev(%)   SSP_AV   SSP_x(%)
  1      0.0000     0.0000E+00    0.0000E+00    1.000000E+06  0.00010  8.160E-03    0   1.0000   age020_m22            0.0000     4.6079E+02    11.9813   4.0000    77.5586
  2     12.8661     1.8142E-02    3.6346E-02    3.160000E+06  0.00010  4.759E-02    0   1.0000   age045_m22            0.0000     4.6269E+01     4.0586   2.0842    95.6620
  3      0.0000     0.0000E+00    0.0000E+00    5.010000E+06  0.00010  1.932E-02    0   0.9582   age055_m22            0.0000     4.1684E+02    11.9330   2.3985    82.1822
  4      0.0000     0.0000E+00    0.0000E+00    6.610000E+06  0.00010  9.973E-03    0   0.9297   age061_m22            0.0000     4.5665E+02    12.3226   4.0000    79.7037
  5      0.0000     0.0000E+00    0.0000E+00    8.710000E+06  0.00010  7.690E-03    0   0.9030   age067_m22            0.0000     4.2927E+02    11.9724   4.0000    79.9752
  6      0.0000     0.0000E+00    0.0000E+00    1.000000E+07  0.00010  6.375E-03    0   0.8902   age070_m22            0.0000     4.1010E+02    11.6475   4.0000    80.4394
  7      0.0000     0.0000E+00    0.0000E+00    1.445000E+07  0.00010  4.874E-03    0   0.8589   age078_m22            0.0000     2.9292E+02    10.0673   3.8747    82.1232
  8      0.0000     0.0000E+00    0.0000E+00    2.512000E+07  0.00010  4.103E-03    0   0.8174   age090_m22            0.0000     1.1447E+02     6.6726   3.4582    88.8621
  9      0.2134     3.9190E-03    6.1477E-03    4.000000E+07  0.00010  3.654E-03    0   0.7830   age104_m22            0.0000     5.0486E+01     4.1964   3.1486    94.1506
 10      0.0851     1.8468E-03    2.8109E-03    5.500000E+07  0.00010  3.093E-03    0   0.7597   age110_m22            0.0000     4.4856E+01     3.6122   3.0451    95.8201
 11      0.8753     2.4160E-02    3.4551E-02    1.015200E+08  0.00010  2.431E-03    0   0.7138   age116_m22            0.0000     5.9895E+01     3.5485   2.6895    99.1347
 12      0.0000     0.0000E+00    0.0000E+00    1.609000E+08  0.00010  1.319E-03    0   0.6775   age120_m22            0.0000     6.0049E+01     3.3962   2.2135   101.3454
 13      0.0000     0.0000E+00    0.0000E+00    2.861200E+08  0.00010  1.075E-03    0   0.6412   age125_m22            0.0000     2.4510E+02     7.1613   2.2756   105.2257
 14      0.0000     0.0000E+00    0.0000E+00    5.088000E+08  0.00010  7.183E-04    0   0.6083   age130_m22            0.0000     3.2758E+02     8.5100   2.0495   106.8187
 15      0.0000     0.0000E+00    0.0000E+00    9.047900E+08  0.00010  4.524E-04    0   0.5785   age135_m22            0.0000     3.3639E+02     8.7066   1.8485   107.9984
 16      0.0000     0.0000E+00    0.0000E+00    1.278050E+09  0.00010  3.018E-04    0   0.5588   age138_m22            0.0000     1.3576E+02     5.5155   1.3200   105.9233
 17      0.0000     0.0000E+00    0.0000E+00    1.434000E+09  0.00010  2.691E-04    0   0.5532   age139_m22            0.0000     1.0550E+02     4.8814   1.1665   105.2135
 18      0.0000     0.0000E+00    0.0000E+00    2.500000E+09  0.00010  1.582E-04    0   0.5296   age150_m22            0.0000     7.9866E+01     4.1025   1.0504   106.0016
 19      0.0000     0.0000E+00    0.0000E+00    4.250000E+09  0.00010  1.007E-04    0   0.5110   age158_m22            0.0000     3.1029E+01     2.6848   0.9042   103.9628
 20      0.0000     0.0000E+00    0.0000E+00    6.250000E+09  0.00010  6.869E-05    0   0.4985   age166_m22            0.0000     6.6836E+00     1.4410   0.8514   100.8700
 21      0.0000     0.0000E+00    0.0000E+00    7.500000E+09  0.00010  5.873E-05    0   0.4931   age171_m22            0.0000     4.8597E+00     1.2610   0.8387   100.3465
 22      0.0000     0.0000E+00    0.0000E+00    1.000000E+10  0.00010  4.481E-05    0   0.4854   age181_m22            0.0000     4.5246E+00     1.2523   0.8015    99.9456
 23      0.0352     6.7701E-02    6.4984E-02    1.300000E+10  0.00010  3.489E-05    0   0.4791   age193_m22            0.0000     4.0122E+00     1.2359   0.7464    99.3200
 24      0.0000     0.0000E+00    0.0000E+00    1.500000E+10  0.00010  3.035E-05    0   0.4766   age201_m22            0.0000     3.7818E+00     1.2315   0.7083    99.0883
 25      7.4262     1.9853E+01    1.8834E+01    1.800000E+10  0.00010  2.510E-05    0   0.4735   age213_m22            0.0000     3.9580E+00     1.2819   0.6419    98.3879
 26      0.0000     0.0000E+00    0.0000E+00    1.000000E+06  0.00040  8.458E-03    0   1.0000   age020_m32            0.0000     4.6110E+02    11.9920   4.0000    78.5441
 27      0.0000     0.0000E+00    0.0000E+00    3.160000E+06  0.00040  3.973E-02    0   1.0000   age045_m32            0.0000     1.3346E+02     7.1244   3.3600    88.7479
 28      0.0000     0.0000E+00    0.0000E+00    5.010000E+06  0.00040  1.935E-02    0   0.9532   age055_m32            0.0000     3.3943E+02    10.9743   3.5935    82.6639
 29      0.0000     0.0000E+00    0.0000E+00    6.610000E+06  0.00040  1.204E-02    0   0.9243   age061_m32            0.0000     3.7368E+02    11.3230   3.9114    80.5935
 30      0.0000     0.0000E+00    0.0000E+00    8.710000E+06  0.00040  9.433E-03    0   0.9001   age067_m32            0.0000     3.3246E+02    10.7226   3.8823    81.5074
 31      0.0000     0.0000E+00    0.0000E+00    1.000000E+07  0.00040  8.053E-03    0   0.8877   age070_m32            0.0000     3.1646E+02    10.4825   3.8456    81.9825
 32      0.0000     0.0000E+00    0.0000E+00    1.445000E+07  0.00040  7.027E-03    0   0.8578   age078_m32            0.0000     1.8113E+02     8.2829   3.3112    87.5493
 33      0.0000     0.0000E+00    0.0000E+00    2.512000E+07  0.00040  4.707E-03    0   0.8166   age090_m32            0.0000     9.3512E+01     6.1829   3.0074    91.7817
 34      0.0121     2.1892E-04    3.4329E-04    4.000000E+07  0.00040  3.714E-03    0   0.7827   age104_m32            0.0000     4.6322E+01     4.1544   2.7968    95.5275
 35      0.0000     0.0000E+00    0.0000E+00    5.500000E+07  0.00040  2.982E-03    0   0.7593   age110_m32            0.0000     4.0924E+01     3.5925   2.7333    96.8294
 36      0.0000     0.0000E+00    0.0000E+00    1.015200E+08  0.00040  2.188E-03    0   0.7143   age116_m32            0.0000     9.8508E+01     4.3104   2.4620   101.5543
 37      0.0000     0.0000E+00    0.0000E+00    1.609000E+08  0.00040  1.690E-03    0   0.6856   age120_m32            0.0000     1.7684E+02     5.7642   2.2505   104.5768
 38      0.0000     0.0000E+00    0.0000E+00    2.861200E+08  0.00040  1.152E-03    0   0.6509   age125_m32            0.0000     2.6711E+02     7.5664   2.0326   106.2708
 39      0.0000     0.0000E+00    0.0000E+00    5.088000E+08  0.00040  7.331E-04    0   0.6182   age130_m32            0.0000     3.0568E+02     8.2787   1.8714   106.8741
 40      0.0000     0.0000E+00    0.0000E+00    9.047900E+08  0.00040  3.960E-04    0   0.5890   age135_m32            0.0000     1.5214E+02     6.0924   1.4169   104.9604
 41      0.0000     0.0000E+00    0.0000E+00    1.278050E+09  0.00040  2.854E-04    0   0.5687   age138_m32            0.0000     1.0139E+02     4.7969   1.1196   106.9004
 42      0.0000     0.0000E+00    0.0000E+00    1.434000E+09  0.00040  2.531E-04    0   0.5632   age139_m32            0.0000     9.7046E+01     4.6514   1.0583   106.8961
 43      6.7485     3.0433E+00    3.2839E+00    2.500000E+09  0.00040  1.488E-04    0   0.5386   age150_m32            0.0000     5.9970E+01     3.7501   0.8053   104.9575
 44     45.0563     3.3290E+01    3.4675E+01    4.250000E+09  0.00040  9.082E-05    0   0.5199   age158_m32            0.0000     8.9969E+00     1.7446   0.7162   101.0487
 45     15.2571     1.6092E+01    1.6365E+01    6.250000E+09  0.00040  6.362E-05    0   0.5076   age166_m32            0.0000     1.0457E+01     1.8235   0.6818    97.2224
 46      0.4408     5.5926E-01    5.6325E-01    7.500000E+09  0.00040  5.289E-05    0   0.5027   age171_m32            0.0000     1.5890E+01     2.0948   0.6479    95.8521
 47      0.0000     0.0000E+00    0.0000E+00    1.000000E+10  0.00040  3.972E-05    0   0.4948   age181_m32            0.0000     2.1060E+01     2.3033   0.5881    94.4033
 48      0.0000     0.0000E+00    0.0000E+00    1.300000E+10  0.00040  3.283E-05    0   0.4870   age193_m32            0.0000     8.9077E+00     1.7872   0.5414    97.3042
 49      1.3192     3.0263E+00    2.9430E+00    1.500000E+10  0.00040  2.925E-05    0   0.4854   age201_m32            0.0000     7.5432E+00     1.7408   0.5213    99.0100
 50      8.8371     2.4018E+01    2.3188E+01    1.800000E+10  0.00040  2.469E-05    0   0.4819   age213_m32            0.0000     8.9959E+00     1.8712   0.4813    99.5544
 51      0.0000     0.0000E+00    0.0000E+00    1.000000E+06  0.00400  1.114E-02    0   1.0000   age020_m42            0.0000     4.2622E+02    11.6933   4.0000    77.5580
 52      0.0000     0.0000E+00    0.0000E+00    3.160000E+06  0.00400  4.073E-02    0   0.9999   age045_m42            0.0000     7.8764E+01     5.5097   3.0652    91.4323
 53      0.0000     0.0000E+00    0.0000E+00    5.010000E+06  0.00400  2.534E-02    0   0.9488   age055_m42            0.0000     2.1329E+02     8.6768   3.4738    84.8361
 54      0.4498     1.1686E-03    2.1585E-03    6.610000E+06  0.00400  2.583E-02    0   0.9220   age061_m42            0.0000     5.5855E+01     4.6803   2.8713    92.5959
 55      0.0000     0.0000E+00    0.0000E+00    8.710000E+06  0.00400  1.706E-02    0   0.8983   age067_m42            0.0000     1.1735E+02     6.7982   2.6954    90.6565
 56      0.0000     0.0000E+00    0.0000E+00    1.000000E+07  0.00400  1.271E-02    0   0.8862   age070_m42            0.0000     1.9036E+02     8.6981   2.6822    89.1405
 57      0.0000     0.0000E+00    0.0000E+00    1.445000E+07  0.00400  7.666E-03    0   0.8571   age078_m42            0.0000     2.5425E+02     9.5899   3.0883    85.6078
 58      0.0050     6.6834E-05    1.0945E-04    2.512000E+07  0.00400  5.070E-03    0   0.8174   age090_m42            0.0000     1.6019E+02     8.0145   2.5506    90.7684
 59      0.0000     0.0000E+00    0.0000E+00    4.000000E+07  0.00400  3.505E-03    0   0.7851   age104_m42            0.0000     9.0507E+01     6.0193   2.2373    93.6307
 60      0.0000     0.0000E+00    0.0000E+00    5.500000E+07  0.00400  3.059E-03    0   0.7629   age110_m42            0.0000     2.8477E+01     2.8904   2.2802    98.8884
 61      0.0000     0.0000E+00    0.0000E+00    1.015200E+08  0.00400  2.268E-03    0   0.7207   age116_m42            0.0000     1.5088E+02     5.5727   2.1737   104.9237
 62      0.0000     0.0000E+00    0.0000E+00    1.609000E+08  0.00400  1.720E-03    0   0.6930   age120_m42            0.0000     1.8299E+02     6.3538   2.0377   106.3911
 63      0.0000     0.0000E+00    0.0000E+00    2.861200E+08  0.00400  1.079E-03    0   0.6613   age125_m42            0.0000     1.8879E+02     6.4967   1.6864   106.7307
 64      0.0000     0.0000E+00    0.0000E+00    5.088000E+08  0.00400  6.261E-04    0   0.6313   age130_m42            0.0000     2.2877E+02     7.1385   1.4872   109.7969
 65      0.0000     0.0000E+00    0.0000E+00    9.047900E+08  0.00400  3.535E-04    0   0.6024   age135_m42            0.0000     1.2633E+02     5.5782   1.0970   109.4154
 66      0.0000     0.0000E+00    0.0000E+00    1.278050E+09  0.00400  2.677E-04    0   0.5837   age138_m42            0.0000     1.0057E+02     5.6497   0.4446   105.2409
 67      0.0000     0.0000E+00    0.0000E+00    1.434000E+09  0.00400  1.910E-04    0   0.5716   age139_m42            0.0000     9.4228E+01     5.4189   0.6055   106.5090
 68      0.0000     0.0000E+00    0.0000E+00    2.500000E+09  0.00400  9.818E-05    0   0.5463   age150_m42            0.0000     9.0456E+01     5.2372   0.3605   100.5368
 69      0.0000     0.0000E+00    0.0000E+00    4.250000E+09  0.00400  5.491E-05    0   0.5269   age158_m42            0.0000     1.0982E+02     5.4641   0.2459    97.3836
 70      0.0000     0.0000E+00    0.0000E+00    6.250000E+09  0.00400  3.857E-05    0   0.5151   age166_m42            0.0000     1.4742E+02     6.1641   0.1303    95.6500
 71      0.0000     0.0000E+00    0.0000E+00    7.500000E+09  0.00400  3.243E-05    0   0.5110   age171_m42            0.0000     1.7362E+02     6.6076   0.0588    94.8703
 72      0.0000     0.0000E+00    0.0000E+00    1.000000E+10  0.00400  2.424E-05    0   0.5028   age181_m42            0.0000     2.0998E+02     7.1673  -0.0123    93.9690
 73      0.0000     0.0000E+00    0.0000E+00    1.300000E+10  0.00400  1.883E-05    0   0.4927   age193_m42            0.0000     2.3841E+02     7.5810  -0.0467    93.4838
 74      0.0000     0.0000E+00    0.0000E+00    1.500000E+10  0.00400  1.685E-05    0   0.4919   age201_m42            0.0000     2.3081E+02     7.4725  -0.0427    93.5507
 75      0.0000     0.0000E+00    0.0000E+00    1.800000E+10  0.00400  1.452E-05    0   0.4874   age213_m42            0.0000     2.1687E+02     7.2805  -0.0301    93.9216
 76      0.0000     0.0000E+00    0.0000E+00    1.000000E+06  0.00800  1.286E-02    0   1.0000   age020_m52            0.0000     3.7560E+02    11.0894   4.0000    78.8699
 77      0.0000     0.0000E+00    0.0000E+00    3.160000E+06  0.00800  3.147E-02    0   0.9966   age045_m52            0.0000     3.6064E+02    10.9973   3.9283    80.0650
 78      0.0000     0.0000E+00    0.0000E+00    5.010000E+06  0.00800  2.664E-02    0   0.9443   age055_m52            0.0000     2.5609E+02     9.3427   3.5957    83.6135
 79      0.0000     0.0000E+00    0.0000E+00    6.610000E+06  0.00800  2.151E-02    0   0.9177   age061_m52            0.0000     1.6299E+02     7.5007   2.2889    90.2611
 80      0.0000     0.0000E+00    0.0000E+00    8.710000E+06  0.00800  1.628E-02    0   0.8948   age067_m52            0.0000     1.4418E+02     7.5060   2.6548    90.9344
 81      0.0000     0.0000E+00    0.0000E+00    1.000000E+07  0.00800  1.215E-02    0   0.8827   age070_m52            0.0000     1.8141E+02     8.3440   2.9978    88.9657
 82      0.0000     0.0000E+00    0.0000E+00    1.445000E+07  0.00800  8.739E-03    0   0.8552   age078_m52            0.0000     1.3629E+02     7.2891   3.0356    90.3747
 83      0.0000     0.0000E+00    0.0000E+00    2.512000E+07  0.00800  5.676E-03    0   0.8162   age090_m52            0.0000     7.1494E+01     5.3846   2.6237    95.8085
 84      0.0000     0.0000E+00    0.0000E+00    4.000000E+07  0.00800  3.939E-03    0   0.7841   age104_m52            0.0000     4.4695E+01     3.8112   2.4597    98.5085
 85      0.0000     0.0000E+00    0.0000E+00    5.500000E+07  0.00800  3.155E-03    0   0.7627   age110_m52            0.0000     4.6520E+01     3.1857   2.4241   100.4122
 86      0.0000     0.0000E+00    0.0000E+00    1.015200E+08  0.00800  2.206E-03    0   0.7226   age116_m52            0.0000     1.0078E+02     4.5289   2.2336   104.5135
 87      0.0000     0.0000E+00    0.0000E+00    1.609000E+08  0.00800  1.596E-03    0   0.6963   age120_m52            0.0000     1.3888E+02     5.4972   2.0193   106.2203
 88      0.0000     0.0000E+00    0.0000E+00    2.861200E+08  0.00800  1.002E-03    0   0.6665   age125_m52            0.0000     2.6334E+02     7.9878   1.7334   108.8586
 89      0.0000     0.0000E+00    0.0000E+00    5.088000E+08  0.00800  5.759E-04    0   0.6377   age130_m52            0.0000     3.1420E+02     9.0207   1.3982   112.2957
 90      0.0000     0.0000E+00    0.0000E+00    9.047900E+08  0.00800  2.972E-04    0   0.6086   age135_m52            0.0000     2.0726E+02     7.6581   0.8830   109.9246
 91      0.0000     0.0000E+00    0.0000E+00    1.278050E+09  0.00800  2.242E-04    0   0.5907   age138_m52            0.0000     1.6020E+02     6.9401   0.2828   107.6972
 92      0.0000     0.0000E+00    0.0000E+00    1.434000E+09  0.00800  1.645E-04    0   0.5787   age139_m52            0.0000     1.3190E+02     6.3671   0.4302   107.1505
 93      0.0000     0.0000E+00    0.0000E+00    2.500000E+09  0.00800  7.723E-05    0   0.5519   age150_m52            0.0000     1.6909E+02     6.8617   0.1108   102.5135
 94      0.0000     0.0000E+00    0.0000E+00    4.250000E+09  0.00800  4.151E-05    0   0.5320   age158_m52            0.0000     1.8070E+02     6.9241   0.0502    99.6202
 95      0.0000     0.0000E+00    0.0000E+00    6.250000E+09  0.00800  3.010E-05    0   0.5197   age166_m52            0.0000     2.4653E+02     7.8708  -0.1311    97.7793
 96      0.0000     0.0000E+00    0.0000E+00    7.500000E+09  0.00800  2.467E-05    0   0.5139   age171_m52            0.0000     2.6480E+02     8.1174  -0.1693    97.2682
 97      0.0000     0.0000E+00    0.0000E+00    1.000000E+10  0.00800  1.862E-05    0   0.5054   age181_m52            0.0000     3.2469E+02     8.9133  -0.2903    96.5816
 98      0.0000     0.0000E+00    0.0000E+00    1.300000E+10  0.00800  1.433E-05    0   0.4988   age193_m52            0.0000     3.9376E+02     9.7475  -0.3789    96.9166
 99      0.0000     0.0000E+00    0.0000E+00    1.500000E+10  0.00800  1.244E-05    0   0.4936   age201_m52            0.0000     4.2164E+02    10.0503  -0.4047    97.2509
100      0.0000     0.0000E+00    0.0000E+00    1.800000E+10  0.00800  1.070E-05    0   0.4888   age213_m52            0.0000     4.4158E+02    10.2805  -0.4358    96.9926
101      0.0000     0.0000E+00    0.0000E+00    1.000000E+06  0.02000  1.989E-02    0   1.0000   age020_m62            0.0000     4.2894E+02    11.7080   4.0000    77.5026
102      0.0000     0.0000E+00    0.0000E+00    3.160000E+06  0.02000  3.772E-02    0   0.9858   age045_m62            0.0000     3.8356E+02    11.2400   3.8566    79.7845
103      0.0000     0.0000E+00    0.0000E+00    5.010000E+06  0.02000  3.227E-02    0   0.9342   age055_m62            0.0000     1.3416E+02     7.0560   3.3148    88.1612
104      0.0000     0.0000E+00    0.0000E+00    6.610000E+06  0.02000  2.387E-02    0   0.9090   age061_m62            0.0000     2.3097E+02     9.3417   3.0663    87.5724
105      0.0000     0.0000E+00    0.0000E+00    8.710000E+06  0.02000  1.102E-02    0   0.8861   age067_m62            0.0000     7.2246E+02    16.4132   2.7014    82.7316
106      0.0000     0.0000E+00    0.0000E+00    1.000000E+07  0.02000  1.011E-02    0   0.8751   age070_m62            0.0000     4.8950E+02    13.5162   2.7192    85.2905
107      0.0000     0.0000E+00    0.0000E+00    1.445000E+07  0.02000  7.331E-03    0   0.8472   age078_m62            0.0000     3.3173E+02    11.0809   2.7361    86.7512
108      0.0000     0.0000E+00    0.0000E+00    2.512000E+07  0.02000  4.206E-03    0   0.8099   age090_m62            0.0000     3.4610E+02    11.2541   2.6511    86.0471
109      0.0000     0.0000E+00    0.0000E+00    4.000000E+07  0.02000  3.373E-03    0   0.7799   age104_m62            0.0000     7.4897E+01     5.4749   2.4332    95.7485
110      0.0000     0.0000E+00    0.0000E+00    5.500000E+07  0.02000  2.747E-03    0   0.7595   age110_m62            0.0000     4.7116E+01     3.6632   2.3555    99.7944
111      0.0000     0.0000E+00    0.0000E+00    1.015200E+08  0.02000  1.878E-03    0   0.7221   age116_m62            0.0000     1.1969E+02     4.6958   2.2025   105.4394
112      0.0000     0.0000E+00    0.0000E+00    1.609000E+08  0.02000  1.378E-03    0   0.6978   age120_m62            0.0000     2.0699E+02     6.4310   2.0459   108.2549
113      0.0000     0.0000E+00    0.0000E+00    2.861200E+08  0.02000  8.869E-04    0   0.6700   age125_m62            0.0000     3.7281E+02     9.0800   1.6808   112.5861
114      0.0000     0.0000E+00    0.0000E+00    5.088000E+08  0.02000  4.834E-04    0   0.6430   age130_m62            0.0000     3.5480E+02     9.4719   1.2633   113.9649
115      0.0000     0.0000E+00    0.0000E+00    9.047900E+08  0.02000  2.312E-04    0   0.6152   age135_m62            0.0000     1.8944E+02     7.5478   0.6778   112.1609
116      0.0000     0.0000E+00    0.0000E+00    1.278050E+09  0.02000  1.387E-04    0   0.5927   age138_m62            0.0000     1.3741E+02     6.5523   0.3190   106.7177
117      0.0000     0.0000E+00    0.0000E+00    1.434000E+09  0.02000  1.168E-04    0   0.5865   age139_m62            0.0000     1.3772E+02     6.4830   0.2983   104.8553
118      0.0000     0.0000E+00    0.0000E+00    2.500000E+09  0.02000  5.505E-05    0   0.5610   age150_m62            0.0000     2.2385E+02     7.7859  -0.0509   100.9783
119      0.0000     0.0000E+00    0.0000E+00    4.250000E+09  0.02000  3.070E-05    0   0.5407   age158_m62            0.0000     3.6240E+02     9.6087  -0.3286   100.2822
120      0.0000     0.0000E+00    0.0000E+00    6.250000E+09  0.02000  2.104E-05    0   0.5277   age166_m62            0.0000     4.4427E+02    10.4735  -0.4523   100.3932
121      0.0000     0.0000E+00    0.0000E+00    7.500000E+09  0.02000  1.770E-05    0   0.5223   age171_m62            0.0000     4.8901E+02    10.9489  -0.5367   100.6279
122      0.0000     0.0000E+00    0.0000E+00    1.000000E+10  0.02000  1.297E-05    0   0.5121   age181_m62            0.0000     5.8576E+02    11.8966  -0.6869   100.8142
123      0.0000     0.0000E+00    0.0000E+00    1.300000E+10  0.02000  9.691E-06    0   0.5047   age193_m62            0.0000     6.5241E+02    12.4907  -0.7627   100.9275
124      0.0000     0.0000E+00    0.0000E+00    1.500000E+10  0.02000  8.360E-06    0   0.4999   age201_m62            0.0000     7.1048E+02    13.0101  -0.8281   100.9822
125      0.0000     0.0000E+00    0.0000E+00    1.800000E+10  0.02000  6.911E-06    0   0.4946   age213_m62            0.0000     7.8402E+02    13.6675  -0.8970   101.0498
126      0.0000     0.0000E+00    0.0000E+00    1.000000E+06  0.05000  2.651E-02    0   0.9998   age020_m72            0.0000     4.0292E+02    11.2085   4.0000    78.3436
127      0.0000     0.0000E+00    0.0000E+00    3.160000E+06  0.05000  4.817E-02    0   0.9577   age045_m72            0.0000     2.7238E+02     9.4597   3.7044    83.1611
128      0.0000     0.0000E+00    0.0000E+00    5.010000E+06  0.05000  3.101E-02    0   0.9147   age055_m72            0.0000     2.4979E+02     9.1873   3.3459    86.0286
129      0.0000     0.0000E+00    0.0000E+00    6.610000E+06  0.05000  1.472E-02    0   0.8877   age061_m72            0.0000     5.6648E+02    13.8457   2.9128    84.0244
130      0.0000     0.0000E+00    0.0000E+00    8.710000E+06  0.05000  1.050E-02    0   0.8638   age067_m72            0.0000     3.7456E+02    11.0283   3.3016    84.5380
131      0.0000     0.0000E+00    0.0000E+00    1.000000E+07  0.05000  8.954E-03    0   0.8524   age070_m72            0.0000     2.6774E+02     9.1617   3.5802    84.4900
132      0.0000     0.0000E+00    0.0000E+00    1.445000E+07  0.05000  6.392E-03    0   0.8262   age078_m72            0.0000     2.2379E+02     8.4143   3.5254    85.6002
133      0.0000     0.0000E+00    0.0000E+00    2.512000E+07  0.05000  4.207E-03    0   0.7902   age090_m72            0.0000     1.1589E+02     6.2986   3.1350    90.6211
134      0.0000     0.0000E+00    0.0000E+00    4.000000E+07  0.05000  3.198E-03    0   0.7618   age104_m72            0.0000     6.4796E+01     3.7950   2.5995   100.0318
135      0.0000     0.0000E+00    0.0000E+00    5.500000E+07  0.05000  2.593E-03    0   0.7432   age110_m72            0.0000     9.2663E+01     4.3234   2.4981   102.4192
136      0.0000     0.0000E+00    0.0000E+00    1.015200E+08  0.05000  1.716E-03    0   0.7092   age116_m72            0.0000     1.6410E+02     5.5491   2.2926   105.6532
137      0.0000     0.0000E+00    0.0000E+00    1.609000E+08  0.05000  1.218E-03    0   0.6876   age120_m72            0.0000     2.6410E+02     7.4483   2.0230   108.5563
138      0.0000     0.0000E+00    0.0000E+00    2.861200E+08  0.05000  7.047E-04    0   0.6618   age125_m72            0.0000     3.8539E+02     9.6318   1.4922   112.2566
139      0.0000     0.0000E+00    0.0000E+00    5.088000E+08  0.05000  3.590E-04    0   0.6356   age130_m72            0.0000     3.3574E+02     9.4876   0.9322   114.0650
140      0.0000     0.0000E+00    0.0000E+00    9.047900E+08  0.05000  1.484E-04    0   0.6088   age135_m72            0.0000     2.0989E+02     7.9666   0.2317   105.8518
141      0.0000     0.0000E+00    0.0000E+00    1.278050E+09  0.05000  9.435E-05    0   0.5924   age138_m72            0.0000     3.0933E+02     9.2356  -0.1462   101.7707
142      0.0000     0.0000E+00    0.0000E+00    1.434000E+09  0.05000  7.827E-05    0   0.5847   age139_m72            0.0000     3.0601E+02     9.0785  -0.1308   101.0509
143      0.0000     0.0000E+00    0.0000E+00    2.500000E+09  0.05000  3.759E-05    0   0.5583   age150_m72            0.0000     4.3826E+02    10.4791  -0.4396    99.6272
144      0.0000     0.0000E+00    0.0000E+00    4.250000E+09  0.05000  1.842E-05    0   0.5374   age158_m72            0.0000     5.8178E+02    11.7821  -0.7391    98.7933
145      0.0000     0.0000E+00    0.0000E+00    6.250000E+09  0.05000  1.207E-05    0   0.5242   age166_m72            0.0000     7.2863E+02    13.1277  -0.9656    98.0840
146      0.0000     0.0000E+00    0.0000E+00    7.500000E+09  0.05000  9.993E-06    0   0.5183   age171_m72            0.0000     7.5135E+02    13.3136  -1.0000    97.7841
147      0.0000     0.0000E+00    0.0000E+00    1.000000E+10  0.05000  7.291E-06    0   0.5081   age181_m72            0.0000     8.6894E+02    14.1991  -1.0000    94.3906
148      0.0000     0.0000E+00    0.0000E+00    1.300000E+10  0.05000  5.316E-06    0   0.5018   age193_m72            0.0000     1.0917E+03    15.8478  -1.0000    89.3553
149      0.0000     0.0000E+00    0.0000E+00    1.500000E+10  0.05000  4.497E-06    0   0.4972   age201_m72            0.0000     1.2080E+03    16.6759  -1.0000    87.6107
150      0.0000     0.0000E+00    0.0000E+00    1.800000E+10  0.05000  3.739E-06    0   0.4924   age213_m72            0.0000     1.3729E+03    17.7144  -1.0000    84.9052


## Synthesis Results - Average & Chains ##

# j      x_j: min, <> & last-chain-values for 1 ...  7 chains
  1      0.0000      0.0065      0.0023      0.0000      0.0599      0.0930      0.0000      0.0557      0.0333
  2     12.8661      8.0007      8.7538      8.4033      7.9870      8.2672      9.3587      8.2773      8.5152
  3      0.0000      0.0371      0.0000      0.1041      0.0000      0.0000      0.0000      0.0292      0.0000
  4      0.0000      0.0018      0.0000      0.0000      0.0000      0.0010      0.0000      0.0000      0.0000
  5      0.0000      0.0064      0.0000      0.0000      0.0000      0.0000      0.0000      0.0000      0.0365
  6      0.0000      0.0219      0.0090      0.0000      0.0000      0.0720      0.0000      0.0000      0.0000
  7      0.0000      0.0111      0.0000      0.0000      0.0820      0.0818      0.0000      0.0000      0.0000
  8      0.0000      0.0192      0.0000      0.0000      0.1695      0.0000      0.0155      0.0000      0.0000
  9      0.2134      0.5169      0.6391      0.4787      0.5965      0.4069      0.5388      0.4763      0.5609
 10      0.0851      0.4172      0.4957      0.4208      0.4117      0.4519      0.2827      0.3464      0.3252
 11      0.8753      1.1576      1.0724      1.2088      1.2946      1.5562      1.0941      1.2669      1.0393
 12      0.0000      0.0211      0.0200      0.0000      0.0000      0.0235      0.0000      0.0000      0.0000
 13      0.0000      0.0179      0.0000      0.0000      0.0075      0.0000      0.0089      0.0000      0.0000
 14      0.0000      0.0333      0.0288      0.0506      0.0000      0.0893      0.0305      0.0000      0.0000
 15      0.0000      0.0140      0.0000      0.0378      0.0000      0.0000      0.0000      0.0000      0.0000
 16      0.0000      0.0408      0.0000      0.0000      0.0000      0.0000      0.0266      0.0000      0.0946
 17      0.0000      0.0305      0.0000      0.0000      0.0000      0.0000      0.0000      0.0000      0.0000
 18      0.0000      0.0623      0.2335      0.0000      0.0486      0.0000      0.0000      0.0000      0.0170
 19      0.0000      0.1140      0.0892      0.1082      0.0057      0.1562      0.0000      0.3032      0.0906
 20      0.0000      0.1439      0.0000      0.0732      0.0000      0.0916      0.0000      0.0000      0.0491
 21      0.0000      0.5323      0.7298      0.0963      0.4109      0.3936      0.0000      0.6832      0.0652
 22      0.0000      0.3955      1.1836      0.2570      1.0197      0.8876      0.2207      0.0000      0.0918
 23      0.0352      0.5077      0.5529      0.5290      0.3367      0.5123      0.5110      0.0000      0.5343
 24      0.0000      0.3098      0.0693      0.1509      0.3094      0.5913      0.2059      0.4068      0.8413
 25      7.4262      8.6739      8.4716      8.9087      8.3741      8.5250      8.7340      8.7567      9.4946
 26      0.0000      0.0059      0.0000      0.0000      0.0000      0.0000      0.0000      0.0046      0.0000
 27      0.0000      0.0239      0.0869      0.0000      0.0000      0.0000      0.0000      0.0000      0.0000
 28      0.0000      0.0145      0.0000      0.0000      0.0000      0.0000      0.0000      0.0000      0.0376
 29      0.0000      0.0064      0.0000      0.0000      0.0000      0.0000      0.0000      0.0267      0.0000
 30      0.0000      0.0107      0.0000      0.0112      0.0000      0.0000      0.0245      0.0000      0.0474
 31      0.0000      0.0131      0.0000      0.0000      0.0000      0.0000      0.0000      0.0000      0.0000
 32      0.0000      0.0267      0.1141      0.0001      0.0000      0.0000      0.0000      0.1214      0.0372
 33      0.0000      0.0271      0.0000      0.0000      0.0401      0.0000      0.0190      0.0000      0.0000
 34      0.0121      0.3023      0.2997      0.3957      0.2506      0.3279      0.2361      0.3311      0.3151
 35      0.0000      0.0776      0.0000      0.0533      0.0669      0.0000      0.0000      0.0347      0.0758
 36      0.0000      0.0256      0.0000      0.0000      0.0000      0.0000      0.0005      0.0786      0.2642
 37      0.0000      0.0426      0.1084      0.0000      0.0441      0.0000      0.0609      0.1108      0.2195
 38      0.0000      0.0269      0.0000      0.0000      0.0000      0.0084      0.0000      0.0626      0.0566
 39      0.0000      0.0234      0.0000      0.0000      0.0000      0.0000      0.0000      0.0000      0.0000
 40      0.0000      0.0228      0.0000      0.0000      0.0000      0.0418      0.0000      0.0094      0.0000
 41      0.0000      0.0469      0.0000      0.0466      0.0000      0.0000      0.0000      0.0000      0.0000
 42      0.0000      0.0703      0.0294      0.0000      0.0479      0.0000      0.0000      0.0000      0.0000
 43      6.7485      5.8807      5.4955      6.5415      6.8324      6.6656      7.1753      6.0620      5.7123
 44     45.0563     41.5152     42.6955     42.0788     41.6475     41.5178     41.9074     42.0248     41.6917
 45     15.2571     15.6585     14.6748     15.7138     15.2949     15.0206     16.1523     16.0145     16.2835
 46      0.4408      1.8850      1.4759      1.5865      1.6956      1.8782      1.5298      2.1899      1.0848
 47      0.0000      0.0791      0.0066      0.0000      0.0000      0.0000      0.0000      0.0000      0.0769
 48      0.0000      0.1027      0.0876      0.1536      0.0681      0.0000      0.1005      0.0000      0.7204
 49      1.3192      2.7231      2.7172      2.6034      2.5949      2.6012      1.6081      2.1473      1.6127
 50      8.8371      7.8403      7.5842      7.6000      7.7071      7.6879      7.9445      7.8945      7.5484
 51      0.0000      0.0071      0.0000      0.0000      0.0000      0.0000      0.0000      0.0000      0.0000
 52      0.0000      0.1289      0.0000      0.1544      0.0514      0.0000      0.2298      0.2460      0.0000
 53      0.0000      0.0089      0.0000      0.0000      0.0000      0.0000      0.0630      0.0000      0.0000
 54      0.4498      0.3852      0.4138      0.4723      0.4652      0.5305      0.2727      0.4824      0.5971
 55      0.0000      0.0169      0.0000      0.0000      0.0000      0.0000      0.0966      0.0000      0.0000
 56      0.0000      0.0294      0.0000      0.0671      0.0000      0.0000      0.1221      0.0000      0.0000
 57      0.0000      0.0085      0.0000      0.0000      0.0000      0.0000      0.0000      0.0000      0.0307
 58      0.0050      0.0304      0.0000      0.0000      0.0399      0.0072      0.2768      0.0000      0.0000
 59      0.0000      0.0108      0.0000      0.0050      0.0037      0.0000      0.0000      0.0000      0.0577
 60      0.0000      0.0175      0.0000      0.0000      0.0000      0.0000      0.0000      0.0000      0.0154
 61      0.0000      0.0203      0.1911      0.0000      0.0198      0.0000      0.0000      0.0000      0.0000
 62      0.0000      0.0583      0.0000      0.1825      0.1566      0.0106      0.0000      0.0772      0.1211
 63      0.0000      0.0229      0.0039      0.0000      0.0151      0.0000      0.1312      0.0000      0.0000
 64      0.0000      0.0293      0.1263      0.0006      0.0000      0.0483      0.1575      0.0456      0.0000
 65      0.0000      0.0324      0.0131      0.0000      0.0000      0.0000      0.0000      0.1174      0.1403
 66      0.0000      0.0156      0.0000      0.0000      0.0000      0.0000      0.0000      0.0000      0.0000
 67      0.0000      0.0167      0.0000      0.0311      0.0000      0.0000      0.0000      0.0671      0.0000
 68      0.0000      0.0094      0.0000      0.0301      0.0000      0.0000      0.0000      0.0000      0.0188
 69      0.0000      0.0103      0.0000      0.0247      0.0000      0.0000      0.0267      0.0000      0.0000
 70      0.0000      0.0075      0.0000      0.0000      0.0000      0.0112      0.0000      0.0000      0.0000
 71      0.0000      0.0063      0.0007      0.0000      0.0000      0.0000      0.0000      0.0000      0.0566
 72      0.0000      0.0036      0.0000      0.0000      0.0000      0.0000      0.0000      0.0000      0.0000
 73      0.0000      0.0045      0.0000      0.0000      0.0000      0.0000      0.0000      0.0000      0.0000
 74      0.0000      0.0047      0.0000      0.0000      0.0000      0.0000      0.0000      0.0754      0.0000
 75      0.0000      0.0087      0.0000      0.0071      0.0000      0.0000      0.0000      0.0000      0.0000
 76      0.0000      0.0031      0.0000      0.0000      0.0000      0.0100      0.0000      0.0000      0.0000
 77      0.0000      0.0047      0.0876      0.0625      0.0000      0.0762      0.0000      0.0000      0.0000
 78      0.0000      0.0093      0.0000      0.0420      0.0000      0.0000      0.0000      0.0017      0.0095
 79      0.0000      0.0141      0.0000      0.0161      0.0813      0.0934      0.0000      0.0000      0.0000
 80      0.0000      0.0141      0.0000      0.0186      0.0000      0.0000      0.0000      0.0000      0.1287
 81      0.0000      0.0165      0.0000      0.0000      0.1832      0.0000      0.0000      0.0000      0.0000
 82      0.0000      0.0142      0.0000      0.0046      0.0000      0.0000      0.0000      0.0000      0.0000
 83      0.0000      0.0405      0.0000      0.0000      0.2600      0.0054      0.0000      0.0000      0.0000
 84      0.0000      0.0221      0.0000      0.0170      0.0000      0.0171      0.0000      0.0220      0.0000
 85      0.0000      0.1030      0.0000      0.1211      0.0000      0.0000      0.0588      0.0000      0.1029
 86      0.0000      0.0134      0.0000      0.0000      0.0000      0.0000      0.0000      0.0000      0.0000
 87      0.0000      0.0123      0.0000      0.0591      0.0000      0.0000      0.0000      0.0000      0.0000
 88      0.0000      0.0062      0.0081      0.0000      0.0000      0.0000      0.0000      0.0000      0.0000
 89      0.0000      0.0120      0.0000      0.0000      0.0000      0.1696      0.0000      0.0000      0.0000
 90      0.0000      0.0038      0.0000      0.0000      0.0000      0.0000      0.0000      0.0000      0.0000
 91      0.0000      0.0076      0.0000      0.0000      0.0000      0.0000      0.0000      0.0000      0.0000
 92      0.0000      0.0047      0.0000      0.0000      0.0000      0.0000      0.0008      0.0000      0.0000
 93      0.0000      0.0052      0.0000      0.0000      0.0000      0.0000      0.0000      0.0000      0.0000
 94      0.0000      0.0074      0.0000      0.0000      0.0534      0.0000      0.0000      0.0224      0.0000
 95      0.0000      0.0074      0.0000      0.0000      0.0000      0.0000      0.0000      0.0000      0.0000
 96      0.0000      0.0045      0.0000      0.0000      0.0000      0.0000      0.0000      0.0000      0.0000
 97      0.0000      0.0046      0.0579      0.0023      0.0000      0.0000      0.0367      0.0000      0.0000
 98      0.0000      0.0028      0.0000      0.0000      0.0000      0.0000      0.0000      0.0044      0.0000
 99      0.0000      0.0019      0.0273      0.0000      0.0000      0.0000      0.0000      0.0000      0.0000
100      0.0000      0.0065      0.0113      0.0000      0.0000      0.0000      0.0000      0.0094      0.0137
101      0.0000      0.0044      0.0268      0.0000      0.0000      0.0000      0.0000      0.0000      0.0000
102      0.0000      0.0043      0.0000      0.0000      0.0000      0.0017      0.0000      0.0000      0.0000
103      0.0000      0.0236      0.0000      0.0767      0.0000      0.0693      0.0000      0.0112      0.0000
104      0.0000      0.0218      0.0000      0.0084      0.0000      0.0106      0.0000      0.0000      0.0000
105      0.0000      0.0103      0.1185      0.0000      0.0000      0.0000      0.0000      0.0000      0.0000
106      0.0000      0.0139      0.0215      0.0000      0.0000      0.0000      0.0000      0.0703      0.0000
107      0.0000      0.0087      0.0000      0.0000      0.0000      0.0000      0.0555      0.0000      0.0000
108      0.0000      0.0101      0.0000      0.0025      0.0000      0.0000      0.0148      0.0000      0.0000
109      0.0000      0.0169      0.0000      0.0000      0.0000      0.0000      0.0000      0.0000      0.0000
110      0.0000      0.0102      0.0000      0.0000      0.0000      0.0000      0.0000      0.0000      0.0000
111      0.0000      0.0169      0.0000      0.0000      0.1418      0.0000      0.0000      0.0000      0.0000
112      0.0000      0.0223      0.0000      0.0000      0.0089      0.0000      0.0200      0.0000      0.0000
113      0.0000      0.0118      0.0301      0.0000      0.0000      0.0000      0.0000      0.0355      0.0000
114      0.0000      0.0086      0.0000      0.0000      0.0000      0.0000      0.0000      0.0000      0.0000
115      0.0000      0.0055      0.0000      0.0000      0.0000      0.0000      0.0000      0.0000      0.0000
116      0.0000      0.0087      0.0000      0.0000      0.0000      0.0000      0.0000      0.0000      0.0000
117      0.0000      0.0053      0.0000      0.0000      0.0000      0.0000      0.0000      0.0000      0.0000
118      0.0000      0.0066      0.0438      0.0000      0.0000      0.0000      0.0000      0.0000      0.0000
119      0.0000      0.0042      0.0000      0.0000      0.0000      0.0000      0.0000      0.0000      0.0063
120      0.0000      0.0036      0.0000      0.0000      0.0000      0.0233      0.0000      0.0000      0.0000
121      0.0000      0.0023      0.0000      0.0000      0.0514      0.0000      0.0000      0.0000      0.0000
122      0.0000      0.0052      0.0000      0.0000      0.0002      0.0000      0.0000      0.0000      0.0000
123      0.0000      0.0046      0.0000      0.0000      0.0000      0.0000      0.0000      0.0000      0.0000
124      0.0000      0.1432      0.1189      0.1752      0.1467      0.0000      0.0000      0.1159      0.1044
125      0.0000      0.0034      0.0000      0.0000      0.0000      0.0000      0.0000      0.0027      0.0000
126      0.0000      0.0037      0.0000      0.0000      0.0000      0.0000      0.0000      0.0000      0.0000
127      0.0000      0.0051      0.0000      0.0108      0.0000      0.0261      0.0000      0.0000      0.0000
128      0.0000      0.0119      0.0000      0.0000      0.0000      0.0000      0.0000      0.0000      0.0000
129      0.0000      0.0090      0.0000      0.0000      0.0450      0.0000      0.0000      0.0000      0.0000
130      0.0000      0.0037      0.0000      0.0000      0.0000      0.0000      0.0000      0.0000      0.0000
131      0.0000      0.0046      0.0000      0.0000      0.0000      0.0000      0.0000      0.0000      0.0000
132      0.0000      0.0039      0.0000      0.0000      0.0000      0.0000      0.0000      0.0000      0.0000
133      0.0000      0.0047      0.0000      0.0000      0.0000      0.0000      0.0000      0.0000      0.0077
134      0.0000      0.0096      0.0005      0.0000      0.0000      0.0000      0.0000      0.0317      0.0000
135      0.0000      0.0133      0.0000      0.0000      0.0333      0.0000      0.0000      0.0641      0.0260
136      0.0000      0.0187      0.0982      0.0000      0.0000      0.0000      0.0000      0.1127      0.0000
137      0.0000      0.0126      0.0000      0.0416      0.0006      0.0000      0.0000      0.0000      0.2078
138      0.0000      0.0130      0.0000      0.0000      0.0666      0.0000      0.0000      0.0000      0.0000
139      0.0000      0.0056      0.0000      0.0000      0.0000      0.0000      0.0000      0.0000      0.0000
140      0.0000      0.0059      0.0000      0.0000      0.0000      0.0000      0.0000      0.0000      0.0000
141      0.0000      0.0043      0.0000      0.0000      0.0000      0.0000      0.0000      0.0000      0.0000
142      0.0000      0.0059      0.0000      0.0000      0.0000      0.0000      0.0000      0.0000      0.0000
143      0.0000      0.0030      0.0114      0.0376      0.0000      0.0000      0.0000      0.0000      0.0000
144      0.0000      0.0110      0.0876      0.0000      0.0000      0.0817      0.0000      0.0000      0.0000
145      0.0000      0.0207      0.0000      0.0000      0.0000      0.1191      0.0000      0.0000      0.0000
146      0.0000      0.0110      0.1446      0.0048      0.0000      0.0000      0.0000      0.0000      0.0000
147      0.0000      0.0135      0.0000      0.0000      0.0742      0.0000      0.0000      0.0000      0.0000
148      0.0000      0.0927      0.0826      0.1840      0.1156      0.1178      0.0772      0.0914      0.1688
149      0.0000      0.0951      0.0942      0.0000      0.1540      0.0949      0.0874      0.0919      0.1607
150      0.0000      0.0886      0.0897      0.1728      0.0968      0.1497      0.0855      0.1300      0.0576

# j      m_j: min, <> & last-chain-values for 1 ...  7 chains
  1  0.0000E+00  9.5242E-05  3.4126E-05  0.0000E+00  8.7738E-04  1.3649E-03  0.0000E+00  8.2483E-04  4.8643E-04
  2  3.6346E-02  2.0115E-02  2.2138E-02  2.1156E-02  2.0073E-02  2.0799E-02  2.4563E-02  2.1022E-02  2.1344E-02
  3  0.0000E+00  2.1990E-04  0.0000E+00  6.1844E-04  0.0000E+00  0.0000E+00  0.0000E+00  1.7530E-04  0.0000E+00
  4  0.0000E+00  1.9740E-05  0.0000E+00  0.0000E+00  0.0000E+00  1.1312E-05  0.0000E+00  0.0000E+00  0.0000E+00
  5  0.0000E+00  9.0171E-05  0.0000E+00  0.0000E+00  0.0000E+00  0.0000E+00  0.0000E+00  0.0000E+00  5.1191E-04
  6  0.0000E+00  3.6574E-04  1.5105E-04  0.0000E+00  0.0000E+00  1.2033E-03  0.0000E+00  0.0000E+00  0.0000E+00
  7  0.0000E+00  2.3313E-04  0.0000E+00  0.0000E+00  1.7277E-03  1.7263E-03  0.0000E+00  0.0000E+00  0.0000E+00
  8  0.0000E+00  4.5772E-04  0.0000E+00  0.0000E+00  4.0397E-03  0.0000E+00  3.8540E-04  0.0000E+00  0.0000E+00
  9  6.1477E-03  1.3252E-02  1.6484E-02  1.2291E-02  1.5288E-02  1.0439E-02  1.4422E-02  1.2336E-02  1.4338E-02
 10  2.8109E-03  1.2262E-02  1.4652E-02  1.2384E-02  1.2095E-02  1.3289E-02  8.6729E-03  1.0282E-02  9.5297E-03
 11  3.4551E-02  4.0670E-02  3.7898E-02  4.2527E-02  4.5463E-02  5.4709E-02  4.0128E-02  4.4962E-02  3.6402E-02
 12  0.0000E+00  1.2943E-03  1.2378E-03  0.0000E+00  0.0000E+00  1.4445E-03  0.0000E+00  0.0000E+00  0.0000E+00
 13  0.0000E+00  1.2783E-03  0.0000E+00  0.0000E+00  5.3772E-04  0.0000E+00  6.6552E-04  0.0000E+00  0.0000E+00
 14  0.0000E+00  3.3697E-03  2.9330E-03  5.1359E-03  0.0000E+00  9.0523E-03  3.2246E-03  0.0000E+00  0.0000E+00
 15  0.0000E+00  2.1408E-03  0.0000E+00  5.7981E-03  0.0000E+00  0.0000E+00  0.0000E+00  0.0000E+00  0.0000E+00
 16  0.0000E+00  9.0284E-03  0.0000E+00  0.0000E+00  0.0000E+00  0.0000E+00  6.1411E-03  0.0000E+00  2.0894E-02
 17  0.0000E+00  7.4967E-03  0.0000E+00  0.0000E+00  0.0000E+00  0.0000E+00  0.0000E+00  0.0000E+00  0.0000E+00
 18  0.0000E+00  2.4938E-02  9.4093E-02  0.0000E+00  1.9442E-02  0.0000E+00  0.0000E+00  0.0000E+00  6.7984E-03
 19  0.0000E+00  6.9236E-02  5.4453E-02  6.5764E-02  3.4760E-03  9.4906E-02  0.0000E+00  1.8598E-01  5.4843E-02
 20  0.0000E+00  1.2498E-01  0.0000E+00  6.3686E-02  0.0000E+00  7.9608E-02  0.0000E+00  0.0000E+00  4.2547E-02
 21  0.0000E+00  5.3472E-01  7.3748E-01  9.6919E-02  4.1265E-01  3.9566E-01  0.0000E+00  6.9334E-01  6.5281E-02
 22  0.0000E+00  5.1267E-01  1.5431E+00  3.3351E-01  1.3211E+00  1.1512E+00  2.9865E-01  0.0000E+00  1.1868E-01
 23  6.4984E-02  8.3412E-01  9.1371E-01  8.7041E-01  5.5302E-01  8.4222E-01  8.7640E-01  0.0000E+00  8.7521E-01
 24  0.0000E+00  5.8215E-01  1.3094E-01  2.8390E-01  5.8116E-01  1.1117E+00  4.0382E-01  7.7204E-01  1.5759E+00
 25  1.8834E+01  1.9578E+01  1.9234E+01  2.0136E+01  1.8894E+01  1.9255E+01  2.0580E+01  1.9966E+01  2.1366E+01
 26  0.0000E+00  8.4009E-05  0.0000E+00  0.0000E+00  0.0000E+00  0.0000E+00  0.0000E+00  6.5558E-05  0.0000E+00
 27  0.0000E+00  7.2091E-05  2.6321E-04  0.0000E+00  0.0000E+00  0.0000E+00  0.0000E+00  0.0000E+00  0.0000E+00
 28  0.0000E+00  8.5465E-05  0.0000E+00  0.0000E+00  0.0000E+00  0.0000E+00  0.0000E+00  0.0000E+00  2.2066E-04
 29  0.0000E+00  5.8540E-05  0.0000E+00  0.0000E+00  0.0000E+00  0.0000E+00  0.0000E+00  2.4770E-04  0.0000E+00
 30  0.0000E+00  1.2199E-04  0.0000E+00  1.2806E-04  0.0000E+00  0.0000E+00  2.9214E-04  0.0000E+00  5.3980E-04
 31  0.0000E+00  1.7341E-04  0.0000E+00  0.0000E+00  0.0000E+00  0.0000E+00  0.0000E+00  0.0000E+00  0.0000E+00
 32  0.0000E+00  3.9027E-04  1.6759E-03  7.6021E-07  0.0000E+00  0.0000E+00  0.0000E+00  1.7918E-03  5.4100E-04
 33  0.0000E+00  5.6355E-04  0.0000E+00  0.0000E+00  8.3225E-04  0.0000E+00  4.1125E-04  0.0000E+00  0.0000E+00
 34  3.4329E-04  7.6232E-03  7.6021E-03  9.9905E-03  6.3165E-03  8.2734E-03  6.2157E-03  8.4344E-03  7.9226E-03
 35  0.0000E+00  2.3640E-03  0.0000E+00  1.6270E-03  2.0377E-03  0.0000E+00  0.0000E+00  1.0694E-03  2.3032E-03
 36  0.0000E+00  9.9956E-04  0.0000E+00  0.0000E+00  0.0000E+00  0.0000E+00  2.2241E-05  3.1015E-03  1.0289E-02
 37  0.0000E+00  2.0691E-03  5.2924E-03  0.0000E+00  2.1387E-03  0.0000E+00  3.0878E-03  5.4325E-03  1.0621E-02
 38  0.0000E+00  1.8210E-03  0.0000E+00  0.0000E+00  0.0000E+00  5.6516E-04  0.0000E+00  4.2759E-03  3.8151E-03
 39  0.0000E+00  2.3600E-03  0.0000E+00  0.0000E+00  0.0000E+00  0.0000E+00  0.0000E+00  0.0000E+00  0.0000E+00
 40  0.0000E+00  4.0663E-03  0.0000E+00  0.0000E+00  0.0000E+00  7.4362E-03  0.0000E+00  1.6957E-03  0.0000E+00
 41  0.0000E+00  1.1183E-02  0.0000E+00  1.1127E-02  0.0000E+00  0.0000E+00  0.0000E+00  0.0000E+00  0.0000E+00
 42  0.0000E+00  1.8721E-02  7.8753E-03  0.0000E+00  1.2740E-02  0.0000E+00  0.0000E+00  0.0000E+00  0.0000E+00
 43  3.2839E+00  2.5469E+00  2.3941E+00  2.8369E+00  2.9579E+00  2.8887E+00  3.2440E+00  2.6521E+00  2.4665E+00
 44  3.4675E+01  2.8435E+01  2.9416E+01  2.8861E+01  2.8515E+01  2.8456E+01  2.9965E+01  2.9077E+01  2.8470E+01
 45  1.6365E+01  1.4948E+01  1.4092E+01  1.5022E+01  1.4595E+01  1.4349E+01  1.6097E+01  1.5444E+01  1.5498E+01
 46  5.6325E-01  2.1437E+00  1.6883E+00  1.8067E+00  1.9275E+00  2.1374E+00  1.8162E+00  2.5157E+00  1.2300E+00
 47  0.0000E+00  1.1785E-01  9.9211E-03  0.0000E+00  0.0000E+00  0.0000E+00  0.0000E+00  0.0000E+00  1.1423E-01
 48  0.0000E+00  1.8226E-01  1.5643E-01  2.7307E-01  1.2080E-01  0.0000E+00  1.8629E-01  0.0000E+00  1.2749E+00
 49  2.9430E+00  5.4069E+00  5.4270E+00  5.1763E+00  5.1504E+00  5.1684E+00  3.3333E+00  4.3069E+00  3.1924E+00
 50  2.3188E+01  1.8310E+01  1.7816E+01  1.7773E+01  1.7991E+01  1.7966E+01  1.9368E+01  1.8624E+01  1.7575E+01
 51  0.0000E+00  7.6446E-05  0.0000E+00  0.0000E+00  0.0000E+00  0.0000E+00  0.0000E+00  0.0000E+00  0.0000E+00
 52  0.0000E+00  3.7861E-04  0.0000E+00  4.5414E-04  1.5097E-04  0.0000E+00  7.0459E-04  7.3005E-04  0.0000E+00
 53  0.0000E+00  3.9706E-05  0.0000E+00  0.0000E+00  0.0000E+00  0.0000E+00  2.9478E-04  0.0000E+00  0.0000E+00
 54  2.1585E-03  1.6453E-03  1.7778E-03  2.0200E-03  1.9860E-03  2.2672E-03  1.2160E-03  2.0814E-03  2.5427E-03
 55  0.0000E+00  1.0661E-04  0.0000E+00  0.0000E+00  0.0000E+00  0.0000E+00  6.3548E-04  0.0000E+00  0.0000E+00
 56  0.0000E+00  2.4505E-04  0.0000E+00  5.6067E-04  0.0000E+00  0.0000E+00  1.0630E-03  0.0000E+00  0.0000E+00
 57  0.0000E+00  1.1384E-04  0.0000E+00  0.0000E+00  0.0000E+00  0.0000E+00  0.0000E+00  0.0000E+00  4.0945E-04
 58  1.0945E-04  5.8724E-04  0.0000E+00  0.0000E+00  7.6974E-04  1.3932E-04  5.5741E-03  0.0000E+00  0.0000E+00
 59  0.0000E+00  2.8899E-04  0.0000E+00  1.3397E-04  1.0032E-04  0.0000E+00  0.0000E+00  0.0000E+00  1.5423E-03
 60  0.0000E+00  5.2359E-04  0.0000E+00  0.0000E+00  0.0000E+00  0.0000E+00  0.0000E+00  0.0000E+00  4.5864E-04
 61  0.0000E+00  7.7098E-04  7.3087E-03  0.0000E+00  7.5382E-04  0.0000E+00  0.0000E+00  0.0000E+00  0.0000E+00
 62  0.0000E+00  2.8119E-03  0.0000E+00  8.8113E-03  7.5477E-03  5.0998E-04  0.0000E+00  3.7619E-03  5.8200E-03
 63  0.0000E+00  1.6772E-03  2.8872E-04  0.0000E+00  1.1041E-03  0.0000E+00  1.0047E-02  0.0000E+00  0.0000E+00
 64  0.0000E+00  3.5405E-03  1.5328E-02  7.0114E-05  0.0000E+00  5.8349E-03  1.9833E-02  5.5536E-03  0.0000E+00
 65  0.0000E+00  6.6142E-03  2.6969E-03  0.0000E+00  0.0000E+00  0.0000E+00  0.0000E+00  2.4184E-02  2.8517E-02
 66  0.0000E+00  4.0709E-03  0.0000E+00  0.0000E+00  0.0000E+00  0.0000E+00  0.0000E+00  0.0000E+00  0.0000E+00
 67  0.0000E+00  5.9780E-03  0.0000E+00  1.1152E-02  0.0000E+00  0.0000E+00  0.0000E+00  2.4286E-02  0.0000E+00
 68  0.0000E+00  6.2556E-03  0.0000E+00  2.0051E-02  0.0000E+00  0.0000E+00  0.0000E+00  0.0000E+00  1.2483E-02
 69  0.0000E+00  1.1866E-02  0.0000E+00  2.8442E-02  0.0000E+00  0.0000E+00  3.1948E-02  0.0000E+00  0.0000E+00
 70  0.0000E+00  1.1907E-02  0.0000E+00  0.0000E+00  0.0000E+00  1.7926E-02  0.0000E+00  0.0000E+00  0.0000E+00
 71  0.0000E+00  1.1943E-02  1.3533E-03  0.0000E+00  0.0000E+00  0.0000E+00  0.0000E+00  0.0000E+00  1.0633E-01
 72  0.0000E+00  8.9839E-03  0.0000E+00  0.0000E+00  0.0000E+00  0.0000E+00  0.0000E+00  0.0000E+00  0.0000E+00
 73  0.0000E+00  1.4165E-02  0.0000E+00  0.0000E+00  0.0000E+00  0.0000E+00  0.0000E+00  0.0000E+00  0.0000E+00
 74  0.0000E+00  1.6280E-02  0.0000E+00  0.0000E+00  0.0000E+00  0.0000E+00  0.0000E+00  2.6621E-01  0.0000E+00
 75  0.0000E+00  3.5044E-02  0.0000E+00  2.8417E-02  0.0000E+00  0.0000E+00  0.0000E+00  0.0000E+00  0.0000E+00
 76  0.0000E+00  2.8647E-05  0.0000E+00  0.0000E+00  0.0000E+00  9.2916E-05  0.0000E+00  0.0000E+00  0.0000E+00
 77  0.0000E+00  1.7937E-05  3.3389E-04  2.3728E-04  0.0000E+00  2.8891E-04  0.0000E+00  0.0000E+00  0.0000E+00
 78  0.0000E+00  3.9326E-05  0.0000E+00  1.7857E-04  0.0000E+00  0.0000E+00  0.0000E+00  7.1670E-06  4.0323E-05
 79  0.0000E+00  7.1791E-05  0.0000E+00  8.2208E-05  4.1506E-04  4.7722E-04  0.0000E+00  0.0000E+00  0.0000E+00
 80  0.0000E+00  9.3004E-05  0.0000E+00  1.2260E-04  0.0000E+00  0.0000E+00  0.0000E+00  0.0000E+00  8.4356E-04
 81  0.0000E+00  1.4375E-04  0.0000E+00  0.0000E+00  1.5921E-03  0.0000E+00  0.0000E+00  0.0000E+00  0.0000E+00
 82  0.0000E+00  1.6603E-04  0.0000E+00  5.4152E-05  0.0000E+00  0.0000E+00  0.0000E+00  0.0000E+00  0.0000E+00
 83  0.0000E+00  6.9610E-04  0.0000E+00  0.0000E+00  4.4722E-03  9.2171E-05  0.0000E+00  0.0000E+00  0.0000E+00
 84  0.0000E+00  5.2601E-04  0.0000E+00  4.0554E-04  0.0000E+00  4.0725E-04  0.0000E+00  5.2979E-04  0.0000E+00
 85  0.0000E+00  2.9803E-03  0.0000E+00  3.5083E-03  0.0000E+00  0.0000E+00  1.7750E-03  0.0000E+00  2.9664E-03
 86  0.0000E+00  5.2347E-04  0.0000E+00  0.0000E+00  0.0000E+00  0.0000E+00  0.0000E+00  0.0000E+00  0.0000E+00
 87  0.0000E+00  6.4380E-04  0.0000E+00  3.0912E-03  0.0000E+00  0.0000E+00  0.0000E+00  0.0000E+00  0.0000E+00
 88  0.0000E+00  4.9310E-04  6.4946E-04  0.0000E+00  0.0000E+00  0.0000E+00  0.0000E+00  0.0000E+00  0.0000E+00
 89  0.0000E+00  1.5957E-03  0.0000E+00  0.0000E+00  0.0000E+00  2.2483E-02  0.0000E+00  0.0000E+00  0.0000E+00
 90  0.0000E+00  9.3719E-04  0.0000E+00  0.0000E+00  0.0000E+00  0.0000E+00  0.0000E+00  0.0000E+00  0.0000E+00
 91  0.0000E+00  2.3834E-03  0.0000E+00  0.0000E+00  0.0000E+00  0.0000E+00  0.0000E+00  0.0000E+00  0.0000E+00
 92  0.0000E+00  1.9776E-03  0.0000E+00  0.0000E+00  0.0000E+00  0.0000E+00  3.6448E-04  0.0000E+00  0.0000E+00
 93  0.0000E+00  4.4351E-03  0.0000E+00  0.0000E+00  0.0000E+00  0.0000E+00  0.0000E+00  0.0000E+00  0.0000E+00
 94  0.0000E+00  1.1314E-02  0.0000E+00  0.0000E+00  8.1838E-02  0.0000E+00  0.0000E+00  3.4686E-02  0.0000E+00
 95  0.0000E+00  1.5219E-02  0.0000E+00  0.0000E+00  0.0000E+00  0.0000E+00  0.0000E+00  0.0000E+00  0.0000E+00
 96  0.0000E+00  1.1337E-02  0.0000E+00  0.0000E+00  0.0000E+00  0.0000E+00  0.0000E+00  0.0000E+00  0.0000E+00
 97  0.0000E+00  1.5073E-02  1.8919E-01  7.4726E-03  0.0000E+00  0.0000E+00  1.2450E-01  0.0000E+00  0.0000E+00
 98  0.0000E+00  1.1706E-02  0.0000E+00  0.0000E+00  0.0000E+00  0.0000E+00  0.0000E+00  1.8592E-02  0.0000E+00
 99  0.0000E+00  8.7863E-03  1.3029E-01  0.0000E+00  0.0000E+00  0.0000E+00  0.0000E+00  0.0000E+00  0.0000E+00
100  0.0000E+00  3.5464E-02  6.1909E-02  0.0000E+00  0.0000E+00  0.0000E+00  0.0000E+00  5.2117E-02  7.4649E-02
101  0.0000E+00  2.6231E-05  1.6227E-04  0.0000E+00  0.0000E+00  0.0000E+00  0.0000E+00  0.0000E+00  0.0000E+00
102  0.0000E+00  1.3298E-05  0.0000E+00  0.0000E+00  0.0000E+00  5.3780E-06  0.0000E+00  0.0000E+00  0.0000E+00
103  0.0000E+00  8.1749E-05  0.0000E+00  2.6591E-04  0.0000E+00  2.4010E-04  0.0000E+00  3.9131E-05  0.0000E+00
104  0.0000E+00  9.9513E-05  0.0000E+00  3.8411E-05  0.0000E+00  4.8341E-05  0.0000E+00  0.0000E+00  0.0000E+00
105  0.0000E+00  9.9027E-05  1.1465E-03  0.0000E+00  0.0000E+00  0.0000E+00  0.0000E+00  0.0000E+00  0.0000E+00
106  0.0000E+00  1.4395E-04  2.2357E-04  0.0000E+00  0.0000E+00  0.0000E+00  0.0000E+00  7.3509E-04  0.0000E+00
107  0.0000E+00  1.2097E-04  0.0000E+00  0.0000E+00  0.0000E+00  0.0000E+00  8.0046E-04  0.0000E+00  0.0000E+00
108  0.0000E+00  2.3219E-04  0.0000E+00  5.6893E-05  0.0000E+00  0.0000E+00  3.5693E-04  0.0000E+00  0.0000E+00
109  0.0000E+00  4.6730E-04  0.0000E+00  0.0000E+00  0.0000E+00  0.0000E+00  0.0000E+00  0.0000E+00  0.0000E+00
110  0.0000E+00  3.3807E-04  0.0000E+00  0.0000E+00  0.0000E+00  0.0000E+00  0.0000E+00  0.0000E+00  0.0000E+00
111  0.0000E+00  7.7696E-04  0.0000E+00  0.0000E+00  6.5227E-03  0.0000E+00  0.0000E+00  0.0000E+00  0.0000E+00
112  0.0000E+00  1.3481E-03  0.0000E+00  0.0000E+00  5.3931E-04  0.0000E+00  1.2671E-03  0.0000E+00  0.0000E+00
113  0.0000E+00  1.0626E-03  2.7358E-03  0.0000E+00  0.0000E+00  0.0000E+00  0.0000E+00  3.2378E-03  0.0000E+00
114  0.0000E+00  1.3765E-03  0.0000E+00  0.0000E+00  0.0000E+00  0.0000E+00  0.0000E+00  0.0000E+00  0.0000E+00
115  0.0000E+00  1.7418E-03  0.0000E+00  0.0000E+00  0.0000E+00  0.0000E+00  0.0000E+00  0.0000E+00  0.0000E+00
116  0.0000E+00  4.4391E-03  0.0000E+00  0.0000E+00  0.0000E+00  0.0000E+00  0.0000E+00  0.0000E+00  0.0000E+00
117  0.0000E+00  3.1999E-03  0.0000E+00  0.0000E+00  0.0000E+00  0.0000E+00  0.0000E+00  0.0000E+00  0.0000E+00
118  0.0000E+00  8.0859E-03  5.3714E-02  0.0000E+00  0.0000E+00  0.0000E+00  0.0000E+00  0.0000E+00  0.0000E+00
119  0.0000E+00  8.7761E-03  0.0000E+00  0.0000E+00  0.0000E+00  0.0000E+00  0.0000E+00  0.0000E+00  1.3320E-02
120  0.0000E+00  1.0731E-02  0.0000E+00  0.0000E+00  0.0000E+00  6.9945E-02  0.0000E+00  0.0000E+00  0.0000E+00
121  0.0000E+00  8.2714E-03  0.0000E+00  0.0000E+00  1.8141E-01  0.0000E+00  0.0000E+00  0.0000E+00  0.0000E+00
122  0.0000E+00  2.4799E-02  0.0000E+00  0.0000E+00  1.0931E-03  0.0000E+00  0.0000E+00  0.0000E+00  0.0000E+00
123  0.0000E+00  2.8829E-02  0.0000E+00  0.0000E+00  0.0000E+00  0.0000E+00  0.0000E+00  0.0000E+00  0.0000E+00
124  0.0000E+00  1.0247E+00  8.5558E-01  1.2552E+00  1.0490E+00  0.0000E+00  0.0000E+00  8.3793E-01  7.4442E-01
125  0.0000E+00  2.9487E-02  0.0000E+00  0.0000E+00  0.0000E+00  0.0000E+00  0.0000E+00  2.3148E-02  0.0000E+00
126  0.0000E+00  1.6546E-05  0.0000E+00  0.0000E+00  0.0000E+00  0.0000E+00  0.0000E+00  0.0000E+00  0.0000E+00
127  0.0000E+00  1.2042E-05  0.0000E+00  2.5760E-05  0.0000E+00  6.2060E-05  0.0000E+00  0.0000E+00  0.0000E+00
128  0.0000E+00  4.2119E-05  0.0000E+00  0.0000E+00  0.0000E+00  0.0000E+00  0.0000E+00  0.0000E+00  0.0000E+00
129  0.0000E+00  6.4581E-05  0.0000E+00  0.0000E+00  3.2424E-04  0.0000E+00  0.0000E+00  0.0000E+00  0.0000E+00
130  0.0000E+00  3.5953E-05  0.0000E+00  0.0000E+00  0.0000E+00  0.0000E+00  0.0000E+00  0.0000E+00  0.0000E+00
131  0.0000E+00  5.2816E-05  0.0000E+00  0.0000E+00  0.0000E+00  0.0000E+00  0.0000E+00  0.0000E+00  0.0000E+00
132  0.0000E+00  6.0186E-05  0.0000E+00  0.0000E+00  0.0000E+00  0.0000E+00  0.0000E+00  0.0000E+00  0.0000E+00
133  0.0000E+00  1.0602E-04  0.0000E+00  0.0000E+00  0.0000E+00  0.0000E+00  0.0000E+00  0.0000E+00  1.7288E-04
134  0.0000E+00  2.7496E-04  1.3562E-05  0.0000E+00  0.0000E+00  0.0000E+00  0.0000E+00  9.1207E-04  0.0000E+00
135  0.0000E+00  4.5686E-04  0.0000E+00  0.0000E+00  1.1403E-03  0.0000E+00  0.0000E+00  2.2206E-03  8.8902E-04
136  0.0000E+00  9.2570E-04  4.8834E-03  0.0000E+00  0.0000E+00  0.0000E+00  0.0000E+00  5.6287E-03  0.0000E+00
137  0.0000E+00  8.4807E-04  0.0000E+00  2.8153E-03  4.0631E-05  0.0000E+00  0.0000E+00  0.0000E+00  1.3993E-02
138  0.0000E+00  1.4624E-03  0.0000E+00  0.0000E+00  7.4767E-03  0.0000E+00  0.0000E+00  0.0000E+00  0.0000E+00
139  0.0000E+00  1.1771E-03  0.0000E+00  0.0000E+00  0.0000E+00  0.0000E+00  0.0000E+00  0.0000E+00  0.0000E+00
140  0.0000E+00  2.9122E-03  0.0000E+00  0.0000E+00  0.0000E+00  0.0000E+00  0.0000E+00  0.0000E+00  0.0000E+00
141  0.0000E+00  3.2186E-03  0.0000E+00  0.0000E+00  0.0000E+00  0.0000E+00  0.0000E+00  0.0000E+00  0.0000E+00
142  0.0000E+00  5.2426E-03  0.0000E+00  0.0000E+00  0.0000E+00  0.0000E+00  0.0000E+00  0.0000E+00  0.0000E+00
143  0.0000E+00  5.3461E-03  2.0315E-02  6.6892E-02  0.0000E+00  0.0000E+00  0.0000E+00  0.0000E+00  0.0000E+00
144  0.0000E+00  3.8413E-02  3.0772E-01  0.0000E+00  0.0000E+00  2.8524E-01  0.0000E+00  0.0000E+00  0.0000E+00
145  0.0000E+00  1.0758E-01  0.0000E+00  0.0000E+00  0.0000E+00  6.1940E-01  0.0000E+00  0.0000E+00  0.0000E+00
146  0.0000E+00  6.8530E-02  9.0246E-01  3.0033E-02  0.0000E+00  0.0000E+00  0.0000E+00  0.0000E+00  0.0000E+00
147  0.0000E+00  1.1241E-01  0.0000E+00  0.0000E+00  6.1844E-01  0.0000E+00  0.0000E+00  0.0000E+00  0.0000E+00
148  0.0000E+00  1.0475E+00  9.3792E-01  2.0810E+00  1.3050E+00  1.3314E+00  9.1076E-01  1.0430E+00  1.9005E+00
149  0.0000E+00  1.2582E+00  1.2538E+00  0.0000E+00  2.0365E+00  1.2560E+00  1.2066E+00  1.2286E+00  2.1191E+00
150  0.0000E+00  1.3961E+00  1.4224E+00  2.7271E+00  1.5249E+00  2.3609E+00  1.4059E+00  2.0693E+00  9.0516E-01

# AV, chi2 & Mass for <> & i_chain = 1 ...  7 solutions
AV       0.8508      0.8155      0.8191      0.8164      0.8186      0.8185      0.8319      0.8178      0.8218
chi2 2.5670E+00  2.6671E+00  2.6417E+00  2.6449E+00  2.6521E+00  2.6410E+00  2.6045E+00  2.6480E+00  2.6394E+00
Mass 8.8873E-10  9.5225E-10  9.5134E-10  9.5217E-10  9.5661E-10  9.5545E-10  9.3249E-10  9.4562E-10  9.6326E-10
 -23.73                                  [v0_min (km/s) before EX0s...]
  42.07                                  [vd_min (km/s) before EX0s...]


## Synthetic spectrum (Best Model) ##l_obs f_obs f_syn wei
 3070    [Nl_obs]
 3359.00    0.14978   0.39787   -1.000
 3360.00    0.24543   0.38971   -1.000
 3361.00    0.24451   0.40471   -1.000
 3362.00    0.25410   0.43022   -1.000
 3363.00    0.26910   0.45718   -1.000
 3364.00    0.28112   0.46967   -1.000
 3365.00    0.29092   0.46517   -1.000
 3366.00    0.29331   0.45853   -1.000
 3367.00    0.28996   0.45312   -1.000
 3368.00    0.29114   0.44627   -1.000
 3369.00    0.29045   0.43483   -1.000
 3370.00    0.28063   0.41616   -1.000
 3371.00    0.27046   0.40548   -1.000
 3372.00    0.27204   0.41103   -1.000
 3373.00    0.28746   0.43005   -1.000
 3374.00    0.30033   0.45260   -1.000
 3375.00    0.31032   0.47162   -1.000
 3376.00    0.32121   0.47844   -1.000
 3377.00    0.32815   0.47359   -1.000
 3378.00    0.32877   0.46274   -1.000
 3379.00    0.32735   0.45692   -1.000
 3380.00    0.32621   0.45991   -1.000
 3381.00    0.32601   0.46617   -1.000
 3382.00    0.32577   0.47142   -1.000
 3383.00    0.32878   0.47517   -1.000
 3384.00    0.33506   0.47929   -1.000
 3385.00    0.34943   0.48159   -1.000
 3386.00    0.35984   0.47410   -1.000
 3387.00    0.36073   0.46278   -1.000
 3388.00    0.36153   0.45995   -1.000
 3389.00    0.36574   0.46868   -1.000
 3390.00    0.36916   0.48002   -1.000
 3391.00    0.37911   0.48491   -1.000
 3392.00    0.38329   0.47828   -1.000
 3393.00    0.38167   0.47362   -1.000
 3394.00    0.38157   0.47865   -1.000
 3395.00    0.39528   0.49005   -1.000
 3396.00    0.40339   0.50349   -1.000
 3397.00    0.40785   0.51363   -1.000
 3398.00    0.41655   0.52030   -1.000
 3399.00    0.42517   0.52025   -1.000
 3400.00    0.42926   0.51389   -1.000
 3401.00    0.42971   0.50061   41.295
 3402.00    0.42352   0.48397   42.257
 3403.00    0.41758   0.47575   42.875
 3404.00    0.41589   0.47446   43.650
 3405.00    0.41193   0.47994   44.394
 3406.00    0.41027   0.48066   -1.000
 3407.00    0.41660   0.47515   45.314
 3408.00    0.41381   0.46930   45.744
 3409.00    0.41274   0.47222   45.653
 3410.00    0.41947   0.47983   44.661
 3411.00    0.41973   0.47882   43.932
 3412.00    0.41937   0.47249   44.997
 3413.00    0.42060   0.46576   46.267
 3414.00    0.41826   0.46901   46.505
 3415.00    0.42401   0.48203   45.721
 3416.00    0.43056   0.49431   44.042
 3417.00    0.43153   0.50264   42.019
 3418.00    0.44043   0.50882   39.941
 3419.00    0.44744   0.51413   39.092
 3420.00    0.45809   0.51822   38.875
 3421.00    0.45944   0.51444   38.925
 3422.00    0.45153   0.49995   39.735
 3423.00    0.45491   0.48576   40.743
 3424.00    0.45693   0.48232   40.329
 3425.00    0.46078   0.48787   39.218
 3426.00    0.46365   0.49620   38.705
 3427.00    0.46441   0.50815   -1.000
 3428.00    0.46970   0.52326   -1.000
 3429.00    0.47988   0.53576   -1.000
 3430.00    0.48799   0.53530   -1.000
 3431.00    0.48903   0.51850   -1.000
 3432.00    0.48121   0.50247   58.822
 3433.00    0.47437   0.50028   38.625
 3434.00    0.47672   0.51424   -1.000
 3435.00    0.48152   0.52874   -1.000
 3436.00    0.48300   0.52907   58.347
 3437.00    0.48356   0.51746   39.629
 3438.00    0.47856   0.50276   41.823
 3439.00    0.46879   0.48836   44.849
 3440.00    0.45835   0.47395   47.334
 3441.00    0.45230   0.46094   48.082
 3442.00    0.44867   0.45526   47.974
 3443.00    0.44908   0.45794   46.678
 3444.00    0.45519   0.46709   44.363
 3445.00    0.46446   0.48153   41.912
 3446.00    0.47601   0.50187   40.143
 3447.00    0.48897   0.52245   89.427
 3448.00    0.49501   0.53649   -1.000
 3449.00    0.49685   0.53750   -1.000
 3450.00    0.50140   0.52163   -1.000
 3451.00    0.50410   0.50126  318.238
 3452.00    0.50112   0.48961   -1.000
 3453.00    0.49546   0.49005  318.238
 3454.00    0.49474   0.49783  318.238
 3455.00    0.49632   0.50599  318.238
 3456.00    0.50533   0.50906  318.238
 3457.00    0.51057   0.50676  318.238
 3458.00    0.50858   0.50032   58.144
 3459.00    0.50097   0.49134   38.957
 3460.00    0.49956   0.48191   38.987
 3461.00    0.50046   0.48071   88.602
 3462.00    0.50162   0.49010   -1.000
 3463.00    0.50428   0.49964  318.238
 3464.00    0.50553   0.50184  318.238
 3465.00    0.51036   0.49823   -1.000
 3466.00    0.51139   0.50082   -1.000
 3467.00    0.51410   0.51188  318.238
 3468.00    0.52123   0.52625  318.238
 3469.00    0.53129   0.53702  318.238
 3470.00    0.54334   0.53922  318.238
 3471.00    0.54129   0.53326  318.238
 3472.00    0.53194   0.52092   -1.000
 3473.00    0.51432   0.50201   -1.000
 3474.00    0.49739   0.48656   58.385
 3475.00    0.49167   0.48060   39.867
 3476.00    0.48952   0.48609   39.850
 3477.00    0.49361   0.50114   89.977
 3478.00    0.50649   0.51489   -1.000
 3479.00    0.51978   0.52587  318.238
 3480.00    0.52724   0.53415  318.238
 3481.00    0.52877   0.53493  318.238
 3482.00    0.53257   0.53025  318.238
 3483.00    0.53523   0.52537  318.238
 3484.00    0.52910   0.52554  318.238
 3485.00    0.52746   0.53355  318.238
 3486.00    0.53207   0.54098   -1.000
 3487.00    0.53794   0.53994  317.863
 3488.00    0.53354   0.53088  318.238
 3489.00    0.51871   0.51697  318.238
 3490.00    0.50625   0.50848  318.238
 3491.00    0.50223   0.51265   -1.000
 3492.00    0.51301   0.52139  318.238
 3493.00    0.51686   0.52298  318.238
 3494.00    0.51194   0.51731  318.238
 3495.00    0.50790   0.50723  318.238
 3496.00    0.51126   0.50115   -1.000
 3497.00    0.51175   0.50401  318.238
 3498.00    0.51663   0.50927  318.238
 3499.00    0.53280   0.51485   -1.000
 3500.00    0.54041   0.51524   -1.000
 3501.00    0.54347   0.51521   -1.000
 3502.00    0.54439   0.51970   -1.000
 3503.00    0.54207   0.52298   -1.000
 3504.00    0.54271   0.52180   -1.000
 3505.00    0.53621   0.51521   -1.000
 3506.00    0.53206   0.50851   -1.000
 3507.00    0.54069   0.50480   -1.000
 3508.00    0.54267   0.50491   -1.000
 3509.00    0.52956   0.50831   -1.000
 3510.00    0.52025   0.50918   -1.000
 3511.00    0.51683   0.50649   -1.000
 3512.00    0.52044   0.50027   -1.000
 3513.00    0.52161   0.49578   -1.000
 3514.00    0.52102   0.49866   -1.000
 3515.00    0.53152   0.51141   -1.000
 3516.00    0.54402   0.53155   -1.000
 3517.00    0.54743   0.54510  307.211
 3518.00    0.54482   0.54331  311.661
 3519.00    0.54371   0.52864   -1.000
 3520.00    0.53299   0.51485   -1.000
 3521.00    0.52191   0.50706   -1.000
 3522.00    0.52225   0.50224   -1.000
 3523.00    0.51714   0.49551   57.226
 3524.00    0.50447   0.48568   39.494
 3525.00    0.49739   0.48157   39.835
 3526.00    0.49613   0.48909   92.321
 3527.00    0.50306   0.50260  318.238
 3528.00    0.51659   0.51872  318.238
 3529.00    0.53163   0.53248  318.238
 3530.00    0.54211   0.54140  318.238
 3531.00    0.54411   0.54423  318.238
 3532.00    0.54108   0.53570  318.238
 3533.00    0.53820   0.51993   -1.000
 3534.00    0.54381   0.51031   -1.000
 3535.00    0.54831   0.51411   -1.000
 3536.00    0.54577   0.53142   -1.000
 3537.00    0.55002   0.54897  308.427
 3538.00    0.55808   0.55888  304.638
 3539.00    0.55969   0.56241  304.970
 3540.00    0.56389   0.56061  309.711
 3541.00    0.56373   0.55783  313.539
 3542.00    0.55836   0.55885  313.155
 3543.00    0.56212   0.56484  309.325
 3544.00    0.56013   0.56848   -1.000
 3545.00    0.55727   0.56644   -1.000
 3546.00    0.56209   0.56214  317.153
 3547.00    0.56252   0.55809  318.238
 3548.00    0.56165   0.55716  318.238
 3549.00    0.55822   0.56031  318.238
 3550.00    0.55747   0.56652   -1.000
 3551.00    0.55171   0.56990   -1.000
 3552.00    0.53646   0.56385   -1.000
 3553.00    0.53291   0.55234   -1.000
 3554.00    0.53478   0.54578   -1.000
 3555.00    0.53840   0.54843   -1.000
 3556.00    0.53875   0.55725   -1.000
 3557.00    0.54234   0.56760   -1.000
 3558.00    0.54649   0.57271   -1.000
 3559.00    0.54700   0.57263   -1.000
 3560.00    0.54701   0.57168   -1.000
 3561.00    0.54865   0.57091   -1.000
 3562.00    0.54946   0.56641   -1.000
 3563.00    0.55122   0.55481  318.238
 3564.00    0.53938   0.53797   57.089
 3565.00    0.52163   0.52224   40.027
 3566.00    0.51408   0.51465   40.294
 3567.00    0.50920   0.51492   39.978
 3568.00    0.50743   0.51656   40.784
 3569.00    0.50339   0.51277   41.770
 3570.00    0.49581   0.50311   41.162
 3571.00    0.49646   0.49584   39.496
 3572.00    0.50816   0.49532   92.304
 3573.00    0.51735   0.49871   -1.000
 3574.00    0.51790   0.50489   -1.000
 3575.00    0.51424   0.51343  318.238
 3576.00    0.51756   0.52170  318.238
 3577.00    0.52345   0.52865  318.238
 3578.00    0.52118   0.53094   58.907
 3579.00    0.51622   0.52451   42.350
 3580.00    0.50692   0.51314   45.060
 3581.00    0.49580   0.50227   46.102
 3582.00    0.49047   0.49738   46.321
 3583.00    0.49163   0.49803   47.151
 3584.00    0.49138   0.49312   48.587
 3585.00    0.47595   0.47869   49.595
 3586.00    0.47013   0.46400   48.146
 3587.00    0.47320   0.46139   45.609
 3588.00    0.48079   0.47449   43.327
 3589.00    0.49604   0.49651   40.021
 3590.00    0.51024   0.51557   91.977
 3591.00    0.52603   0.52581  318.238
 3592.00    0.53850   0.52830   -1.000
 3593.00    0.54494   0.52950   -1.000
 3594.00    0.53966   0.53515  318.238
 3595.00    0.53992   0.54531  316.728
 3596.00    0.55427   0.55447  305.378
 3597.00    0.56106   0.55962  297.091
 3598.00    0.56000   0.56141  291.241
 3599.00    0.56594   0.56125  291.930
 3600.00    0.56956   0.55598   -1.000
 3601.00    0.56330   0.54433   -1.000
 3602.00    0.54829   0.53414   -1.000
 3603.00    0.53804   0.53047  318.238
 3604.00    0.54023   0.53490  318.238
 3605.00    0.54186   0.53882  318.238
 3606.00    0.54059   0.53665  318.238
 3607.00    0.53605   0.53115  318.238
 3608.00    0.52824   0.52590  318.238
 3609.00    0.52373   0.52369  318.238
 3610.00    0.52655   0.52383  318.238
 3611.00    0.52879   0.52742  318.238
 3612.00    0.53551   0.53381  318.238
 3613.00    0.53743   0.54080  318.238
 3614.00    0.54347   0.55184   -1.000
 3615.00    0.55235   0.56337   -1.000
 3616.00    0.55138   0.56341   -1.000
 3617.00    0.54191   0.55244   -1.000
 3618.00    0.52689   0.53659   55.716
 3619.00    0.52305   0.52879   92.497
 3620.00    0.53026   0.53614  318.238
 3621.00    0.54800   0.54917  316.431
 3622.00    0.55869   0.55981  305.440
 3623.00    0.56095   0.56646  300.544
 3624.00    0.56456   0.57428   -1.000
 3625.00    0.57081   0.58829   -1.000
 3626.00    0.58132   0.60559   -1.000
 3627.00    0.58860   0.61541   -1.000
 3628.00    0.58590   0.60618   -1.000
 3629.00    0.57444   0.58081  316.922
 3630.00    0.55047   0.55168  318.238
 3631.00    0.53036   0.53665  318.238
 3632.00    0.52604   0.54096   -1.000
 3633.00    0.53697   0.55551   -1.000
 3634.00    0.55008   0.56527   -1.000
 3635.00    0.55365   0.56625   -1.000
 3636.00    0.55787   0.56833   -1.000
 3637.00    0.56430   0.57726   -1.000
 3638.00    0.57461   0.58772   -1.000
 3639.00    0.58524   0.59345   -1.000
 3640.00    0.58313   0.59251   -1.000
 3641.00    0.57454   0.58508   -1.000
 3642.00    0.56112   0.57404   -1.000
 3643.00    0.55194   0.56462   -1.000
 3644.00    0.54958   0.55861   -1.000
 3645.00    0.54997   0.55506  318.238
 3646.00    0.54722   0.55289  318.238
 3647.00    0.54309   0.55249   -1.000
 3648.00    0.54493   0.55278  318.238
 3649.00    0.54485   0.55319   -1.000
 3650.00    0.55110   0.55566  304.690
 3651.00    0.56181   0.56253  291.241
 3652.00    0.56646   0.57418   -1.000
 3653.00    0.58351   0.58635  277.572
 3654.00    0.59416   0.59820  275.702
 3655.00    0.59295   0.60866   -1.000
 3656.00    0.59402   0.61521   -1.000
 3657.00    0.59860   0.61693   -1.000
 3658.00    0.59954   0.61521   -1.000
 3659.00    0.59633   0.61234   -1.000
 3660.00    0.59783   0.60767   -1.000
 3661.00    0.58998   0.60072   -1.000
 3662.00    0.58678   0.59423   -1.000
 3663.00    0.59253   0.59176  277.003
 3664.00    0.59226   0.59468  275.368
 3665.00    0.58942   0.59898   -1.000
 3666.00    0.59143   0.60087   -1.000
 3667.00    0.59153   0.59877   -1.000
 3668.00    0.58974   0.59291  288.111
 3669.00    0.57884   0.58770   -1.000
 3670.00    0.57494   0.58702   -1.000
 3671.00    0.58271   0.59240   -1.000
 3672.00    0.58961   0.60053   -1.000
 3673.00    0.59034   0.60476   -1.000
 3674.00    0.59060   0.60279   -1.000
 3675.00    0.59398   0.59569  277.366
 3676.00    0.58998   0.58397  286.070
 3677.00    0.58061   0.57150  294.830
 3678.00    0.57057   0.56440  302.809
 3679.00    0.57023   0.56619  304.706
 3680.00    0.57821   0.57186  298.902
 3681.00    0.57890   0.57640  290.452
 3682.00    0.57928   0.57855  285.930
 3683.00    0.57913   0.57770  289.825
 3684.00    0.57733   0.57457  300.253
 3685.00    0.56881   0.56895  312.667
 3686.00    0.56629   0.56580  318.238
 3687.00    0.56853   0.57178  316.189
 3688.00    0.57404   0.58795   -1.000
 3689.00    0.58621   0.60416   -1.000
 3690.00    0.59559   0.61087   -1.000
 3691.00    0.59682   0.61063   -1.000
 3692.00    0.60035   0.61003   -1.000
 3693.00    0.60321   0.61233   -1.000
 3694.00    0.61347   0.61567  277.249
 3695.00    0.61557   0.61529  275.135
 3696.00    0.60167   0.60875  272.042
 3697.00    0.60078   0.60610  264.817
 3698.00    0.61128   0.61789  257.436
 3699.00    0.62867   0.63937   -1.000
 3700.00    0.64289   0.65478   -1.000
 3701.00    0.64119   0.64503  264.884
 3702.00    0.61735   0.61189  285.856
 3703.00    0.58616   0.57269   -1.000
 3704.00    0.56137   0.54690   -1.000
 3705.00    0.55442   0.54317   -1.000
 3706.00    0.56457   0.55629  318.238
 3707.00    0.58145   0.57498  318.238
 3708.00    0.59244   0.58657  317.165
 3709.00    0.58966   0.58234  304.070
 3710.00    0.58215   0.56748   -1.000
 3711.00    0.57860   0.55698   -1.000
 3712.00    0.58667   0.56354   -1.000
 3713.00    0.61070   0.59070   -1.000
 3714.00    0.64512   0.62698   -1.000
 3715.00    0.67085   0.65651   -1.000
 3716.00    0.67140   0.67159  264.326
 3717.00    0.66195   0.66896  285.231
 3718.00    0.64095   0.64326  318.238
 3719.00    0.59673   0.59381  318.238
 3720.00    0.54612   0.53644   55.488
 3721.00    0.51541   0.50277   98.162
 3722.00    0.52184   0.50721   -1.000
 3723.00    0.56121   0.54569   -1.000
 3724.00    0.60640   0.59932  282.282
 3725.00    0.64329   0.63955  280.165
 3726.00    0.65841   0.65781  287.249
 3727.00    0.65634   0.66466  291.918
 3728.00    0.65449   0.66944   -1.000
 3729.00    0.65934   0.67212   -1.000
 3730.00    0.65395   0.66276  299.817
 3731.00    0.63045   0.62698  318.238
 3732.00    0.58417   0.56748   54.059
 3733.00    0.53480   0.50940   41.521
 3734.00    0.50093   0.47239   44.222
 3735.00    0.49331   0.47128   43.185
 3736.00    0.51662   0.50591   39.668
 3737.00    0.56054   0.55915   95.948
 3738.00    0.60898   0.61428  315.840
 3739.00    0.64802   0.66285   -1.000
 3740.00    0.67461   0.69116   -1.000
 3741.00    0.68512   0.69584  294.386
 3742.00    0.68494   0.68299  310.951
 3743.00    0.67289   0.66452   -1.000
 3744.00    0.64918   0.64340  318.238
 3745.00    0.62713   0.62023   -1.000
 3746.00    0.59654   0.59185   54.890
 3747.00    0.56228   0.55572   40.718
 3748.00    0.52586   0.51712   41.863
 3749.00    0.50066   0.48789  105.712
 3750.00    0.50721   0.48815   -1.000
 3751.00    0.54961   0.52573   -1.000
 3752.00    0.60417   0.58443   -1.000
 3753.00    0.65349   0.64187  265.516
 3754.00    0.69448   0.68277  257.664
 3755.00    0.71786   0.70356   -1.000
 3756.00    0.71605   0.70227   -1.000
 3757.00    0.70039   0.68371   -1.000
 3758.00    0.68177   0.66407   -1.000
 3759.00    0.67428   0.65494   -1.000
 3760.00    0.68435   0.65929   -1.000
 3761.00    0.70148   0.67336   -1.000
 3762.00    0.71383   0.68553   -1.000
 3763.00    0.71651   0.68918   -1.000
 3764.00    0.70839   0.68368   -1.000
 3765.00    0.69426   0.67085   -1.000
 3766.00    0.67454   0.65090   -1.000
 3767.00    0.64828   0.61964   -1.000
 3768.00    0.61816   0.57874   -1.000
 3769.00    0.59349   0.54016   -1.000
 3770.00    0.57399   0.52105   -1.000
 3771.00    0.57676   0.53582   -1.000
 3772.00    0.60621   0.57725   -1.000
 3773.00    0.65036   0.62515   -1.000
 3774.00    0.68220   0.65972   -1.000
 3775.00    0.69822   0.67979   -1.000
 3776.00    0.72192   0.69556   -1.000
 3777.00    0.74105   0.71739   -1.000
 3778.00    0.75991   0.74380   -1.000
 3779.00    0.77988   0.76855  248.391
 3780.00    0.79012   0.78717  245.499
 3781.00    0.80053   0.79480  243.985
 3782.00    0.80548   0.79306   -1.000
 3783.00    0.80988   0.78664   -1.000
 3784.00    0.80375   0.77829   -1.000
 3785.00    0.78991   0.76597   -1.000
 3786.00    0.77357   0.74984   -1.000
 3787.00    0.75285   0.73328   -1.000
 3788.00    0.74144   0.72365   -1.000
 3789.00    0.73805   0.72178   -1.000
 3790.00    0.73576   0.72162   -1.000
 3791.00    0.72755   0.71650   -1.000
 3792.00    0.70981   0.70188   -1.000
 3793.00    0.69001   0.67492   -1.000
 3794.00    0.66277   0.63586   -1.000
 3795.00    0.62972   0.58939   -1.000
 3796.00    0.58759   0.54249   -1.000
 3797.00    0.54786   0.50636   -1.000
 3798.00    0.53608   0.49929   -1.000
 3799.00    0.56036   0.53287   -1.000
 3800.00    0.60934   0.59660   -1.000
 3801.00    0.66197   0.66099  282.266
 3802.00    0.70479   0.70896  274.289
 3803.00    0.73431   0.73579  271.435
 3804.00    0.75326   0.74881  273.946
 3805.00    0.76519   0.75203   -1.000
 3806.00    0.76491   0.75455   -1.000
 3807.00    0.76721   0.76389  285.956
 3808.00    0.78332   0.78101  275.744
 3809.00    0.80099   0.80069  270.387
 3810.00    0.81027   0.81278  273.276
 3811.00    0.80773   0.80655  285.312
 3812.00    0.79674   0.78264   -1.000
 3813.00    0.78341   0.75613   -1.000
 3814.00    0.77006   0.74052   -1.000
 3815.00    0.76503   0.74336   -1.000
 3816.00    0.77546   0.75859   -1.000
 3817.00    0.78733   0.77316   -1.000
 3818.00    0.78410   0.77255   -1.000
 3819.00    0.76126   0.75619  318.238
 3820.00    0.74483   0.73992  318.238
 3821.00    0.74645   0.73653   -1.000
 3822.00    0.75464   0.74339   -1.000
 3823.00    0.75011   0.73935   -1.000
 3824.00    0.72966   0.71822   55.715
 3825.00    0.70633   0.69591   40.938
 3826.00    0.69601   0.68087   40.940
 3827.00    0.68618   0.67076   40.358
 3828.00    0.67789   0.66112   39.694
 3829.00    0.67635   0.64968   39.853
 3830.00    0.66144   0.63235   41.291
 3831.00    0.62841   0.60355   44.194
 3832.00    0.58556   0.56016   46.216
 3833.00    0.54187   0.50876   45.952
 3834.00    0.51128   0.47022   44.338
 3835.00    0.50256   0.45820   43.124
 3836.00    0.51935   0.47289   43.506
 3837.00    0.54595   0.50722   44.542
 3838.00    0.57225   0.54874   44.283
 3839.00    0.60105   0.58780   42.214
 3840.00    0.63598   0.62568  108.464
 3841.00    0.67746   0.66470   -1.000
 3842.00    0.71842   0.70323   -1.000
 3843.00    0.75044   0.73829   -1.000
 3844.00    0.76874   0.76293  312.820
 3845.00    0.78167   0.77908  312.727
 3846.00    0.78937   0.79232  313.099
 3847.00    0.79456   0.80241  318.238
 3848.00    0.79450   0.80499  318.238
 3849.00    0.78882   0.80079   -1.000
 3850.00    0.78659   0.80091   -1.000
 3851.00    0.79529   0.81323   -1.000
 3852.00    0.80766   0.83115   -1.000
 3853.00    0.81897   0.84255   -1.000
 3854.00    0.82095   0.84030   -1.000
 3855.00    0.81356   0.82827   -1.000
 3856.00    0.80346   0.81467  318.238
 3857.00    0.79428   0.80368   52.376
 3858.00    0.78395   0.79507   39.881
 3859.00    0.76486   0.79399   39.962
 3860.00    0.76535   0.80360   -1.000
 3861.00    0.79491   0.82024   -1.000
 3862.00    0.82971   0.83445  309.016
 3863.00    0.84386   0.84069  306.629
 3864.00    0.84068   0.83976  311.729
 3865.00    0.84225   0.83762  316.899
 3866.00    0.84025   0.83978  318.238
 3867.00    0.83594   0.84611  318.238
 3868.00    0.83330   0.85074   -1.000
 3869.00    0.81753   0.84537   -1.000
 3870.00    0.79373   0.82884   52.989
 3871.00    0.77148   0.80601   -1.000
 3872.00    0.75574   0.78542   -1.000
 3873.00    0.76328   0.77818   -1.000
 3874.00    0.78523   0.78401  300.766
 3875.00    0.79522   0.79131  304.354
 3876.00    0.78826   0.78517  318.238
 3877.00    0.76649   0.76653  318.238
 3878.00    0.74501   0.74997  318.238
 3879.00    0.73752   0.74643  318.238
 3880.00    0.73605   0.75139   -1.000
 3881.00    0.71976   0.74862   -1.000
 3882.00    0.71356   0.73460   -1.000
 3883.00    0.71700   0.71462  311.674
 3884.00    0.70711   0.68615   -1.000
 3885.00    0.67941   0.64438   -1.000
 3886.00    0.63841   0.59042   -1.000
 3887.00    0.60003   0.53699   -1.000
 3888.00    0.56463   0.50579   -1.000
 3889.00    0.55750   0.50992   -1.000
 3890.00    0.59618   0.54933   -1.000
 3891.00    0.65426   0.60617   -1.000
 3892.00    0.69724   0.65596   -1.000
 3893.00    0.71780   0.68581   -1.000
 3894.00    0.72874   0.70272   -1.000
 3895.00    0.74438   0.71746   -1.000
 3896.00    0.76261   0.73498   -1.000
 3897.00    0.77819   0.75263   -1.000
 3898.00    0.78950   0.76359   -1.000
 3899.00    0.79319   0.76816   -1.000
 3900.00    0.80434   0.77637   -1.000
 3901.00    0.81799   0.78798   -1.000
 3902.00    0.82962   0.79549   -1.000
 3903.00    0.83551   0.79610   -1.000
 3904.00    0.83019   0.79176   -1.000
 3905.00    0.82097   0.79118   -1.000
 3906.00    0.82357   0.80046   -1.000
 3907.00    0.83898   0.82254   -1.000
 3908.00    0.86308   0.85028   -1.000
 3909.00    0.88364   0.87225   -1.000
 3910.00    0.89075   0.88200  234.976
 3911.00    0.89528   0.88194   -1.000
 3912.00    0.90211   0.87550   -1.000
 3913.00    0.89237   0.86391   -1.000
 3914.00    0.87830   0.85332   -1.000
 3915.00    0.87132   0.85104   -1.000
 3916.00    0.87017   0.85295   -1.000
 3917.00    0.87317   0.85142   -1.000
 3918.00    0.87095   0.84496   -1.000
 3919.00    0.85886   0.83781   -1.000
 3920.00    0.84535   0.83421   -1.000
 3921.00    0.84380   0.83332   -1.000
 3922.00    0.84588   0.83523   -1.000
 3923.00    0.85302   0.83782   -1.000
 3924.00    0.85299   0.83676   -1.000
 3925.00    0.84037   0.82561   -1.000
 3926.00    0.81560   0.80002   -1.000
 3927.00    0.77483   0.76378   57.456
 3928.00    0.72852   0.71713   47.708
 3929.00    0.67637   0.66167   55.856
 3930.00    0.60308   0.59075   65.872
 3931.00    0.51106   0.50006   77.350
 3932.00    0.41507   0.41181   86.265
 3933.00    0.36381   0.36013   85.748
 3934.00    0.38864   0.37304   76.298
 3935.00    0.46507   0.44455   63.812
 3936.00    0.55794   0.53946   52.471
 3937.00    0.63955   0.62870   43.852
 3938.00    0.70593   0.70341  113.516
 3939.00    0.76160   0.75569  318.238
 3940.00    0.79317   0.78945  318.238
 3941.00    0.80422   0.80782  318.238
 3942.00    0.81061   0.81434  318.238
 3943.00    0.81537   0.81696  315.308
 3944.00    0.82130   0.82253  289.547
 3945.00    0.84028   0.83269  270.143
 3946.00    0.86331   0.84405   -1.000
 3947.00    0.87138   0.84839   -1.000
 3948.00    0.86668   0.84439   -1.000
 3949.00    0.86796   0.83768   -1.000
 3950.00    0.87784   0.83303   -1.000
 3951.00    0.87665   0.83062   -1.000
 3952.00    0.86887   0.83257   -1.000
 3953.00    0.86651   0.83919   -1.000
 3954.00    0.87464   0.84177   -1.000
 3955.00    0.87151   0.83596   -1.000
 3956.00    0.84814   0.82389   -1.000
 3957.00    0.83825   0.81416   -1.000
 3958.00    0.84153   0.81155   -1.000
 3959.00    0.83295   0.80390   -1.000
 3960.00    0.80251   0.78222   -1.000
 3961.00    0.76839   0.74994   -1.000
 3962.00    0.72749   0.71201   -1.000
 3963.00    0.69325   0.67392   53.776
 3964.00    0.64709   0.62433   44.983
 3965.00    0.57468   0.55150   54.673
 3966.00    0.47651   0.45878   67.100
 3967.00    0.37456   0.36297   76.449
 3968.00    0.31300   0.30063   74.413
 3969.00    0.31236   0.29538   63.108
 3970.00    0.37073   0.34693   51.862
 3971.00    0.45289   0.43173   43.197
 3972.00    0.53645   0.52249  112.913
 3973.00    0.61947   0.59829   -1.000
 3974.00    0.68608   0.66026   -1.000
 3975.00    0.73341   0.70892   -1.000
 3976.00    0.77447   0.74788   -1.000
 3977.00    0.80640   0.77921   -1.000
 3978.00    0.84230   0.80519   -1.000
 3979.00    0.86575   0.82453   -1.000
 3980.00    0.87400   0.83301   -1.000
 3981.00    0.87447   0.83515   -1.000
 3982.00    0.87175   0.83877   -1.000
 3983.00    0.88170   0.84901   -1.000
 3984.00    0.90189   0.86495   -1.000
 3985.00    0.91190   0.87966   -1.000
 3986.00    0.91868   0.88937   -1.000
 3987.00    0.92998   0.89799   -1.000
 3988.00    0.93715   0.90605   -1.000
 3989.00    0.94233   0.91049   -1.000
 3990.00    0.94775   0.91538   -1.000
 3991.00    0.95388   0.92323   -1.000
 3992.00    0.96343   0.93327   -1.000
 3993.00    0.96692   0.94085   -1.000
 3994.00    0.95442   0.93906  204.208
 3995.00    0.94498   0.92654   -1.000
 3996.00    0.94260   0.91007   -1.000
 3997.00    0.93547   0.90217   -1.000
 3998.00    0.93153   0.90783   -1.000
 3999.00    0.94701   0.92182   -1.000
 4000.00    0.97172   0.93442   -1.000
 4001.00    0.98217   0.94134   -1.000
 4002.00    0.98833   0.94139   -1.000
 4003.00    0.98518   0.93515   -1.000
 4004.00    0.96112   0.92365   -1.000
 4005.00    0.94201   0.91567   -1.000
 4006.00    0.94162   0.92031   -1.000
 4007.00    0.96009   0.93589   -1.000
 4008.00    0.97903   0.95326   -1.000
 4009.00    0.98774   0.96309   -1.000
 4010.00    0.98945   0.96593   -1.000
 4011.00    0.98563   0.96487   -1.000
 4012.00    0.98268   0.96225   -1.000
 4013.00    0.98743   0.96177   -1.000
 4014.00    0.99025   0.96581   -1.000
 4015.00    0.99956   0.97246   -1.000
 4016.00    1.00233   0.97836   -1.000
 4017.00    0.99899   0.98315  186.105
 4018.00    1.00077   0.98833  183.670
 4019.00    1.00278   0.99308  183.266
 4020.00    1.00405   0.99406  185.434
 4021.00    0.99481   0.98897  186.956
 4022.00    0.99186   0.98045  188.135
 4023.00    0.99330   0.97204   -1.000
 4024.00    0.98838   0.96760  186.358
 4025.00    0.99402   0.97179   -1.000
 4026.00    1.00347   0.98361  175.768
 4027.00    1.01289   0.99254  176.094
 4028.00    1.02076   0.99009   -1.000
 4029.00    1.00024   0.97718   -1.000
 4030.00    0.97187   0.95949  202.844
 4031.00    0.95622   0.94737  206.773
 4032.00    0.95490   0.94487  205.348
 4033.00    0.96219   0.95037  199.567
 4034.00    0.97429   0.96249  190.424
 4035.00    0.98957   0.98004  180.982
 4036.00    1.00728   1.00000  173.990
 4037.00    1.02524   1.01626  172.002
 4038.00    1.03130   1.02134  174.643
 4039.00    1.02624   1.01735  178.761
 4040.00    1.01968   1.01015  181.294
 4041.00    1.01532   1.00441  182.419
 4042.00    1.01211   0.99725  189.237
 4043.00    0.99760   0.98078   -1.000
 4044.00    0.96684   0.95706  222.663
 4045.00    0.94339   0.93866  219.786
 4046.00    0.94461   0.94095  200.955
 4047.00    0.97119   0.96409  186.917
 4048.00    1.00115   0.98962  180.179
 4049.00    1.01816   1.00443  177.395
 4050.00    1.01653   1.00826  177.841
 4051.00    1.01853   1.00621  181.873
 4052.00    1.01552   0.99939  186.707
 4053.00    1.00434   0.99174  190.088
 4054.00    1.00432   0.98717  191.938
 4055.00    1.00176   0.98628  193.281
 4056.00    0.99818   0.98734  195.138
 4057.00    0.99938   0.98990  193.886
 4058.00    1.00000   0.99766  187.898
 4059.00    1.00584   1.00712  183.384
 4060.00    1.01508   1.00683  184.904
 4061.00    1.01030   0.99257   -1.000
 4062.00    0.98677   0.97017   -1.000
 4063.00    0.95976   0.95140  210.933
 4064.00    0.96138   0.94251   -1.000
 4065.00    0.97953   0.94493   -1.000
 4066.00    0.98376   0.95338   -1.000
 4067.00    0.98751   0.95968   -1.000
 4068.00    1.00300   0.96228   -1.000
 4069.00    1.01054   0.96028   -1.000
 4070.00    0.99764   0.94981   -1.000
 4071.00    0.97957   0.93616   -1.000
 4072.00    0.97145   0.93172   -1.000
 4073.00    0.98285   0.93740   -1.000
 4074.00    0.98366   0.94223   -1.000
 4075.00    0.96726   0.93344   -1.000
 4076.00    0.94299   0.91299   -1.000
 4077.00    0.93111   0.89613   -1.000
 4078.00    0.93777   0.89703   -1.000
 4079.00    0.95906   0.91747   -1.000
 4080.00    0.98454   0.94144   -1.000
 4081.00    0.99577   0.95534   -1.000
 4082.00    0.99237   0.95503   -1.000
 4083.00    0.97995   0.94559   -1.000
 4084.00    0.96503   0.93506   -1.000
 4085.00    0.96516   0.93053   -1.000
 4086.00    0.97657   0.93462   -1.000
 4087.00    0.98355   0.94342   -1.000
 4088.00    0.99253   0.95092   -1.000
 4089.00    0.99526   0.95185   -1.000
 4090.00    0.98777   0.94699   -1.000
 4091.00    0.97275   0.93942   -1.000
 4092.00    0.96464   0.92807   -1.000
 4093.00    0.95470   0.91227   -1.000
 4094.00    0.93513   0.89423   -1.000
 4095.00    0.91023   0.87256   -1.000
 4096.00    0.89418   0.84695   -1.000
 4097.00    0.87573   0.81508   -1.000
 4098.00    0.84239   0.77361   -1.000
 4099.00    0.79528   0.71754   -1.000
 4100.00    0.72574   0.65420   -1.000
 4101.00    0.66627   0.61179   -1.000
 4102.00    0.66362   0.61675   -1.000
 4103.00    0.71674   0.67019   -1.000
 4104.00    0.78300   0.74100   -1.000
 4105.00    0.83858   0.80107   -1.000
 4106.00    0.87380   0.83781   -1.000
 4107.00    0.88872   0.85882   -1.000
 4108.00    0.89766   0.87150   -1.000
 4109.00    0.90778   0.88167   -1.000
 4110.00    0.91777   0.89259   -1.000
 4111.00    0.93171   0.90595   -1.000
 4112.00    0.95044   0.92190   -1.000
 4113.00    0.96244   0.93815   -1.000
 4114.00    0.97699   0.95368   -1.000
 4115.00    0.98609   0.96429   -1.000
 4116.00    0.98317   0.96586   -1.000
 4117.00    0.97867   0.95970   -1.000
 4118.00    0.97365   0.95074   -1.000
 4119.00    0.97052   0.94575   -1.000
 4120.00    0.97192   0.94826   -1.000
 4121.00    0.97382   0.95415   -1.000
 4122.00    0.97876   0.95963   -1.000
 4123.00    0.98546   0.96560   -1.000
 4124.00    0.99193   0.97336   -1.000
 4125.00    1.00043   0.97932   -1.000
 4126.00    0.99952   0.97927   -1.000
 4127.00    0.99211   0.97451  192.186
 4128.00    0.99124   0.97078   -1.000
 4129.00    0.99516   0.96940   -1.000
 4130.00    0.98713   0.96596   -1.000
 4131.00    0.97227   0.95877  207.134
 4132.00    0.96371   0.95395  209.047
 4133.00    0.96169   0.95984  203.734
 4134.00    0.97027   0.97454  194.108
 4135.00    0.98722   0.99093  186.979
 4136.00    1.00452   1.00540  183.305
 4137.00    1.02039   1.01770  180.443
 4138.00    1.02641   1.02830  179.257
 4139.00    1.03289   1.03369  181.964
 4140.00    1.02902   1.02829  190.279
 4141.00    1.01314   1.01228  205.092
 4142.00    0.98846   0.99136  217.568
 4143.00    0.95951   0.97723   -1.000
 4144.00    0.95915   0.97871   -1.000
 4145.00    0.98575   0.99291  193.189
 4146.00    1.00596   1.00746  190.065
 4147.00    1.01067   1.01254  192.480
 4148.00    1.00410   1.01176  197.565
 4149.00    0.99724   1.01122  200.741
 4150.00    0.99868   1.01265  200.120
 4151.00    1.00187   1.01295  198.863
 4152.00    0.99989   1.00874  200.065
 4153.00    0.99334   1.00208  203.092
 4154.00    0.98837   0.99701  199.830
 4155.00    0.98132   0.99753   -1.000
 4156.00    1.08641   1.00360   -1.000
 4157.00    1.14733   1.01264   -1.000
 4158.00    0.98105   1.02149   -1.000
 4159.00    0.89004   1.02641   -1.000
 4160.00    0.98456   1.02733   -1.000
 4161.00    1.03871   1.02646  183.951
 4162.00    1.02941   1.02804  184.397
 4163.00    1.02664   1.03362  187.058
 4164.00    1.02815   1.04041  189.937
 4165.00    1.02063   1.04282   -1.000
 4166.00    1.01343   1.03848   -1.000
 4167.00    1.01448   1.03338   -1.000
 4168.00    1.01422   1.02990   -1.000
 4169.00    1.01024   1.02529  194.446
 4170.00    1.00070   1.01198  203.995
 4171.00    0.98479   0.98855  216.539
 4172.00    0.96496   0.96881  219.924
 4173.00    0.95243   0.96365  213.669
 4174.00    0.95714   0.97524   -1.000
 4175.00    0.97402   0.99275   -1.000
 4176.00    0.97757   1.00019   -1.000
 4177.00    0.97691   0.99902   -1.000
 4178.00    0.98503   0.99832   -1.000
 4179.00    0.99346   1.00552   -1.000
 4180.00    1.00497   1.01515  199.415
 4181.00    1.00438   1.01634  197.776
 4182.00    1.00008   1.01514   -1.000
 4183.00    1.00071   1.01798   -1.000
 4184.00    1.00128   1.02105   -1.000
 4185.00    1.00046   1.01978   -1.000
 4186.00    0.98944   1.01270   -1.000
 4187.00    0.97985   1.00638   -1.000
 4188.00    0.98486   1.00733   -1.000
 4189.00    0.99400   1.01214   -1.000
 4190.00    0.99421   1.01533   -1.000
 4191.00    0.99840   1.01644   -1.000
 4192.00    1.00683   1.01940  185.970
 4193.00    1.01636   1.02535  189.740
 4194.00    1.01267   1.02662  198.918
 4195.00    1.00277   1.01675  206.409
 4196.00    0.99573   1.00048  210.683
 4197.00    0.98241   0.98427  211.787
 4198.00    0.96721   0.97301  210.003
 4199.00    0.96663   0.97029  206.807
 4200.00    0.97309   0.97415  205.666
 4201.00    0.97871   0.97724  204.524
 4202.00    0.97942   0.97984  201.666
 4203.00    0.97593   0.98663  199.849
 4204.00    0.98040   0.99535   -1.000
 4205.00    0.98434   1.00258   -1.000
 4206.00    0.99132   1.00957   -1.000
 4207.00    1.00204   1.01614   -1.000
 4208.00    1.00832   1.01934  186.746
 4209.00    1.00721   1.02043  186.606
 4210.00    1.00729   1.02266   -1.000
 4211.00    1.00863   1.02795   -1.000
 4212.00    1.00833   1.03273   -1.000
 4213.00    1.00527   1.02692   -1.000
 4214.00    0.98804   1.01164   -1.000
 4215.00    0.97049   0.99701   -1.000
 4216.00    0.97210   0.99300   -1.000
 4217.00    0.98406   1.00329   -1.000
 4218.00    0.99690   1.01777   -1.000
 4219.00    1.01129   1.02879   -1.000
 4220.00    1.02281   1.03519  173.144
 4221.00    1.02090   1.03568   -1.000
 4222.00    1.00848   1.02710   -1.000
 4223.00    0.98949   1.00457   -1.000
 4224.00    0.96098   0.97048  235.257
 4225.00    0.92660   0.93866  257.273
 4226.00    0.89760   0.92346   -1.000
 4227.00    0.90622   0.93787   -1.000
 4228.00    0.94806   0.97747   -1.000
 4229.00    0.98928   1.02012   -1.000
 4230.00    1.01417   1.03951   -1.000
 4231.00    1.01124   1.03567   -1.000
 4232.00    0.99698   1.02173   -1.000
 4233.00    0.98753   1.00673   -1.000
 4234.00    0.98403   0.99943   -1.000
 4235.00    0.98475   1.00175   -1.000
 4236.00    0.97929   1.00565   -1.000
 4237.00    0.97268   1.01008   -1.000
 4238.00    0.97657   1.01692   -1.000
 4239.00    0.98543   1.02521   -1.000
 4240.00    1.00081   1.03555   -1.000
 4241.00    1.00819   1.04442   -1.000
 4242.00    1.00505   1.04852   -1.000
 4243.00    1.01002   1.04707   -1.000
 4244.00    1.01344   1.04111   -1.000
 4245.00    1.00697   1.03025   -1.000
 4246.00    0.99021   1.01454   -1.000
 4247.00    0.96731   1.00152   -1.000
 4248.00    0.95913   0.99552   -1.000
 4249.00    0.96066   0.99463   -1.000
 4250.00    0.96334   0.99855   -1.000
 4251.00    0.98232   1.00889   -1.000
 4252.00    0.99426   1.01873   -1.000
 4253.00    0.99009   1.02292   -1.000
 4254.00    0.98228   1.02319   -1.000
 4255.00    0.98491   1.02512   -1.000
 4256.00    0.99407   1.03030   -1.000
 4257.00    1.00579   1.03019   -1.000
 4258.00    1.00115   1.02047   -1.000
 4259.00    0.98111   1.00852   -1.000
 4260.00    0.96614   1.00424   -1.000
 4261.00    0.97087   1.01262   -1.000
 4262.00    0.99412   1.02983   -1.000
 4263.00    1.01498   1.04674   -1.000
 4264.00    1.02126   1.05451   -1.000
 4265.00    1.02668   1.05353   -1.000
 4266.00    1.02139   1.04963   -1.000
 4267.00    1.00563   1.04266   -1.000
 4268.00    0.99440   1.03133   -1.000
 4269.00    0.98285   1.01454   -1.000
 4270.00    0.96327   0.99382   -1.000
 4271.00    0.94384   0.97775   -1.000
 4272.00    0.93667   0.97256   -1.000
 4273.00    0.94024   0.97903   -1.000
 4274.00    0.94581   0.99224   -1.000
 4275.00    0.95940   1.00885   -1.000
 4276.00    0.98518   1.02835   -1.000
 4277.00    1.00645   1.04465   -1.000
 4278.00    1.00642   1.04924   -1.000
 4279.00    0.99476   1.04231   -1.000
 4280.00    0.98033   1.02930   -1.000
 4281.00    0.97576   1.01973   -1.000
 4282.00    0.97639   1.01660   -1.000
 4283.00    0.97922   1.01797   -1.000
 4284.00    0.97776   1.01979   -1.000
 4285.00    0.96536   1.01558   -1.000
 4286.00    0.95322   1.00263   -1.000
 4287.00    0.94876   0.98324   -1.000
 4288.00    0.93420   0.96204   -1.000
 4289.00    0.91603   0.94596   -1.000
 4290.00    0.90580   0.94486   -1.000
 4291.00    0.91836   0.95848   -1.000
 4292.00    0.94161   0.97412   -1.000
 4293.00    0.95460   0.97800   -1.000
 4294.00    0.95561   0.97382   -1.000
 4295.00    0.94878   0.97165   -1.000
 4296.00    0.93366   0.96668   -1.000
 4297.00    0.91357   0.95186   -1.000
 4298.00    0.88035   0.92836   -1.000
 4299.00    0.85657   0.90149   -1.000
 4300.00    0.84623   0.88290   -1.000
 4301.00    0.84463   0.87841   -1.000
 4302.00    0.84728   0.88558   -1.000
 4303.00    0.85977   0.89920   -1.000
 4304.00    0.87848   0.91249   -1.000
 4305.00    0.87939   0.91489   -1.000
 4306.00    0.86536   0.90602   -1.000
 4307.00    0.84227   0.89491   -1.000
 4308.00    0.83001   0.89170   -1.000
 4309.00    0.83853   0.90022   -1.000
 4310.00    0.85128   0.91426   -1.000
 4311.00    0.86665   0.92540   -1.000
 4312.00    0.87561   0.92796   -1.000
 4313.00    0.88972   0.93088   -1.000
 4314.00    0.92209   0.94531   -1.000
 4315.00    0.96164   0.97418   -1.000
 4316.00    0.99923   1.00981  162.406
 4317.00    1.02405   1.03341  161.459
 4318.00    1.02530   1.04016   -1.000
 4319.00    1.01998   1.03464   -1.000
 4320.00    1.01269   1.02475  172.530
 4321.00    0.99787   1.01406   -1.000
 4322.00    0.98379   1.00045   -1.000
 4323.00    0.94966   0.98023   -1.000
 4324.00    0.91497   0.95608   -1.000
 4325.00    0.90029   0.94421   -1.000
 4326.00    0.91631   0.95510   -1.000
 4327.00    0.95175   0.97771   -1.000
 4328.00    0.97965   0.99579   -1.000
 4329.00    0.98216   0.99858   -1.000
 4330.00    0.97716   0.99276   -1.000
 4331.00    0.97363   0.98811   -1.000
 4332.00    0.96803   0.98381   -1.000
 4333.00    0.96254   0.97431  163.740
 4334.00    0.95777   0.95518  166.039
 4335.00    0.93466   0.92354  175.431
 4336.00    0.89845   0.87618   -1.000
 4337.00    0.84326   0.81066   -1.000
 4338.00    0.77240   0.73796   -1.000
 4339.00    0.70583   0.68171   -1.000
 4340.00    0.67189   0.66178  221.388
 4341.00    0.69536   0.69253  200.095
 4342.00    0.76167   0.76182  186.552
 4343.00    0.83271   0.83542  179.838
 4344.00    0.87901   0.88855  174.873
 4345.00    0.90882   0.92526   -1.000
 4346.00    0.93257   0.95368   -1.000
 4347.00    0.94828   0.97591   -1.000
 4348.00    0.96128   0.98727   -1.000
 4349.00    0.97010   0.98335  174.803
 4350.00    0.95862   0.96811  187.547
 4351.00    0.93375   0.95581   -1.000
 4352.00    0.92668   0.95784   -1.000
 4353.00    0.94880   0.97770   -1.000
 4354.00    0.97477   1.00479   -1.000
 4355.00    0.99313   1.02599   -1.000
 4356.00    1.00567   1.03603   -1.000
 4357.00    1.00768   1.03737   -1.000
 4358.00    1.00893   1.03501   -1.000
 4359.00    1.00666   1.03531   -1.000
 4360.00    1.01154   1.04164   -1.000
 4361.00    1.02622   1.05145   -1.000
 4362.00    1.03888   1.06097   -1.000
 4363.00    1.03596   1.06699   -1.000
 4364.00    1.02930   1.06829   -1.000
 4365.00    1.03553   1.06460   -1.000
 4366.00    1.03080   1.05554   -1.000
 4367.00    1.01860   1.04404   -1.000
 4368.00    1.01017   1.03669   -1.000
 4369.00    1.01291   1.03416   -1.000
 4370.00    1.02151   1.03405  170.060
 4371.00    1.02371   1.03186  171.484
 4372.00    1.01981   1.02299  177.703
 4373.00    1.00436   1.00724  184.899
 4374.00    0.98098   0.99219  186.145
 4375.00    0.97557   0.99213   -1.000
 4376.00    0.99852   1.01084  170.638
 4377.00    1.01903   1.03713   -1.000
 4378.00    1.02937   1.05410   -1.000
 4379.00    1.03989   1.05703   -1.000
 4380.00    1.03954   1.04822  177.218
 4381.00    1.02723   1.02601  195.131
 4382.00    0.99754   0.99311  217.445
 4383.00    0.95403   0.96505  223.254
 4384.00    0.93639   0.95582   -1.000
 4385.00    0.95904   0.96958  186.057
 4386.00    0.99127   0.99517  178.271
 4387.00    1.01366   1.01556  177.600
 4388.00    1.02248   1.02637  179.333
 4389.00    1.01395   1.02913  180.135
 4390.00    1.00849   1.02888   -1.000
 4391.00    1.02183   1.03026  173.255
 4392.00    1.03331   1.03010  173.658
 4393.00    1.02587   1.02177  177.196
 4394.00    1.01297   1.00895  177.259
 4395.00    1.00667   1.00685  170.122
 4396.00    1.01759   1.01839  164.679
 4397.00    1.03269   1.02930  165.958
 4398.00    1.03060   1.02944  171.640
 4399.00    1.01692   1.02129  176.994
 4400.00    1.00480   1.01686  175.979
 4401.00    1.01142   1.02151  172.865
 4402.00    1.03300   1.02811  177.552
 4403.00    1.03257   1.02927  187.499
 4404.00    1.01310   1.02551  190.504
 4405.00    1.00392   1.02415   -1.000
 4406.00    1.01196   1.02801  181.818
 4407.00    1.02034   1.03202  180.093
 4408.00    1.01658   1.03481   -1.000
 4409.00    1.02312   1.04238   -1.000
 4410.00    1.04693   1.05542  160.645
 4411.00    1.06028   1.06581  158.252
 4412.00    1.07053   1.06587  161.675
 4413.00    1.06335   1.05381  170.387
 4414.00    1.04007   1.03277  177.171
 4415.00    1.01728   1.01282  177.182
 4416.00    1.00809   1.00563  171.612
 4417.00    1.01477   1.01511  164.565
 4418.00    1.03083   1.03701  159.601
 4419.00    1.04664   1.05872  159.773
 4420.00    1.05958   1.07055  163.608
 4421.00    1.05467   1.07022   -1.000
 4422.00    1.04500   1.06679   -1.000
 4423.00    1.04546   1.06581   -1.000
 4424.00    1.04418   1.06427   -1.000
 4425.00    1.04107   1.06050   -1.000
 4426.00    1.03121   1.05748   -1.000
 4427.00    1.03033   1.05916   -1.000
 4428.00    1.03854   1.06528   -1.000
 4429.00    1.04061   1.07111   -1.000
 4430.00    1.03912   1.07417   -1.000
 4431.00    1.04353   1.07470   -1.000
 4432.00    1.04899   1.07167   -1.000
 4433.00    1.04116   1.06294   -1.000
 4434.00    1.02674   1.05152   -1.000
 4435.00    1.01782   1.04727   -1.000
 4436.00    1.03001   1.05930   -1.000
 4437.00    1.06041   1.08170   -1.000
 4438.00    1.08139   1.09929   -1.000
 4439.00    1.08229   1.10105   -1.000
 4440.00    1.06964   1.08513   -1.000
 4441.00    1.04672   1.05992  173.476
 4442.00    1.02499   1.03718  175.003
 4443.00    1.01246   1.03072   -1.000
 4444.00    1.02008   1.04325   -1.000
 4445.00    1.04371   1.06567   -1.000
 4446.00    1.05739   1.08258   -1.000
 4447.00    1.06322   1.08880   -1.000
 4448.00    1.07132   1.08917   -1.000
 4449.00    1.06862   1.08702   -1.000
 4450.00    1.06418   1.08560   -1.000
 4451.00    1.06700   1.08639   -1.000
 4452.00    1.06823   1.08615   -1.000
 4453.00    1.06209   1.07824   -1.000
 4454.00    1.04207   1.06471   -1.000
 4455.00    1.02792   1.05788   -1.000
 4456.00    1.03577   1.06309   -1.000
 4457.00    1.04941   1.07311   -1.000
 4458.00    1.05743   1.07803   -1.000
 4459.00    1.05541   1.07748   -1.000
 4460.00    1.04808   1.07484   -1.000
 4461.00    1.04638   1.07458   -1.000
 4462.00    1.05154   1.07851   -1.000
 4463.00    1.06148   1.08359   -1.000
 4464.00    1.06625   1.08662   -1.000
 4465.00    1.06476   1.08500   -1.000
 4466.00    1.06218   1.07705   -1.000
 4467.00    1.05281   1.06434  167.642
 4468.00    1.04026   1.05471   -1.000
 4469.00    1.03952   1.05578   -1.000
 4470.00    1.05446   1.06892   -1.000
 4471.00    1.07138   1.08786   -1.000
 4472.00    1.08337   1.10416   -1.000
 4473.00    1.09756   1.11413   -1.000
 4474.00    1.10642   1.11704  150.560
 4475.00    1.10276   1.11657  149.463
 4476.00    1.09819   1.11614   -1.000
 4477.00    1.10173   1.11625  149.567
 4478.00    1.10694   1.11042  154.585
 4479.00    1.09917   1.09398  161.514
 4480.00    1.07999   1.07463  166.482
 4481.00    1.06479   1.06464  165.451
 4482.00    1.05968   1.07208  159.021
 4483.00    1.07311   1.09304   -1.000
 4484.00    1.09203   1.11457   -1.000
 4485.00    1.10386   1.12730   -1.000
 4486.00    1.10944   1.12833   -1.000
 4487.00    1.10478   1.11875  157.692
 4488.00    1.09103   1.10480   -1.000
 4489.00    1.07514   1.09708   -1.000
 4490.00    1.07279   1.10012   -1.000
 4491.00    1.08660   1.11007   -1.000
 4492.00    1.09089   1.11588   -1.000
 4493.00    1.08812   1.11284   -1.000
 4494.00    1.08131   1.10754   -1.000
 4495.00    1.07343   1.10571   -1.000
 4496.00    1.07836   1.10785   -1.000
 4497.00    1.09494   1.11133   -1.000
 4498.00    1.09785   1.11228  150.923
 4499.00    1.09463   1.10598  152.312
 4500.00    1.08859   1.09584  153.303
 4501.00    1.08497   1.09367  149.928
 4502.00    1.10341   1.10415  144.862
 4503.00    1.11450   1.12123  141.982
 4504.00    1.12677   1.13309  142.523
 4505.00    1.13255   1.13478  145.242
 4506.00    1.12523   1.12926  146.891
 4507.00    1.11737   1.12242  147.161
 4508.00    1.11664   1.12044  146.173
 4509.00    1.12020   1.12438  145.127
 4510.00    1.12513   1.12913  146.077
 4511.00    1.12580   1.12973  148.795
 4512.00    1.12025   1.12741  151.513
 4513.00    1.11536   1.12349  152.679
 4514.00    1.11073   1.11852  152.118
 4515.00    1.10757   1.11484  151.909
 4516.00    1.10817   1.11320  153.528
 4517.00    1.10497   1.11117  154.573
 4518.00    1.10143   1.10650  152.373
 4519.00    1.09995   1.10262  149.372
 4520.00    1.10487   1.10231  149.393
 4521.00    1.10257   1.10151  152.589
 4522.00    1.09415   1.09703  155.790
 4523.00    1.09025   1.09303  157.350
 4524.00    1.09090   1.09377  159.814
 4525.00    1.08965   1.09531  164.461
 4526.00    1.08300   1.09224  169.188
 4527.00    1.07231   1.08379  171.563
 4528.00    1.06092   1.07539  170.699
 4529.00    1.06014   1.07333  167.876
 4530.00    1.07010   1.07709  164.802
 4531.00    1.07761   1.07935  163.718
 4532.00    1.07449   1.07160  167.656
 4533.00    1.06354   1.05701  173.306
 4534.00    1.04757   1.04995  172.063
 4535.00    1.04971   1.05968  163.059
 4536.00    1.06978   1.08160  153.395
 4537.00    1.10042   1.10546  148.660
 4538.00    1.12016   1.12214  149.460
 4539.00    1.12435   1.12714  152.867
 4540.00    1.11874   1.12387  153.211
 4541.00    1.11067   1.11913  152.169
 4542.00    1.11187   1.11772  151.525
 4543.00    1.10106   1.11811   -1.000
 4544.00    1.15233   1.11613   77.945
 4545.00    0.64324   1.11324   -1.000
 4546.00    0.05596   1.11038   -1.000
 4547.00   -0.05015   1.10103    0.000
 4548.00    0.47562   1.08254   -1.000
 4549.00    0.57904   1.06652   -1.000
 4550.00    0.44816   1.06827   -1.000
 4551.00    1.02205   1.08378   -1.000
 4552.00    1.09343   1.09213  160.980
 4553.00    1.07348   1.08532  162.613
 4554.00    1.06591   1.07488  160.636
 4555.00    1.06632   1.07481  155.135
 4556.00    1.08581   1.08850  148.912
 4557.00    1.10718   1.10698  145.878
 4558.00    1.11827   1.12028  146.302
 4559.00    1.12443   1.12824  146.353
 4560.00    1.12898   1.13357  146.384
 4561.00    1.12634   1.13247  149.383
 4562.00    1.11122   1.12197  153.123
 4563.00    1.09846   1.10925  155.899
 4564.00    1.09772   1.10539  154.706
 4565.00    1.10544   1.11311  150.998
 4566.00    1.11681   1.12550  146.996
 4567.00    1.12911   1.13424  145.226
 4568.00    1.13420   1.13533  146.472
 4569.00    1.12609   1.12820  149.971
 4570.00    1.11188   1.11477  153.930
 4571.00    1.09485   1.10117  153.443
 4572.00    1.08878   1.09938  149.163
 4573.00    1.10898   1.11231  146.718
 4574.00    1.12642   1.12543  146.559
 4575.00    1.13273   1.12857  147.183
 4576.00    1.13327   1.12571  148.022
 4577.00    1.12498   1.12252  150.359
 4578.00    1.11620   1.11799  154.661
 4579.00    1.11449   1.10999  158.057
 4580.00    1.10428   1.10082  158.053
 4581.00    1.09842   1.09378  155.998
 4582.00    1.10395   1.08788  154.705
 4583.00    1.09381   1.08445  154.982
 4584.00    1.09786   1.08888  155.915
 4585.00    1.10326   1.09906  154.133
 4586.00    1.11571   1.10799  150.274
 4587.00    1.11928   1.11292  146.974
 4588.00    1.12210   1.11377  146.412
 4589.00    1.12224   1.11266  148.301
 4590.00    1.11509   1.11291  151.025
 4591.00    1.11540   1.11367  153.704
 4592.00    1.10772   1.11409  154.154
 4593.00    1.10806   1.11695  152.989
 4594.00    1.11317   1.12267  151.762
 4595.00    1.12402   1.12952  151.265
 4596.00    1.13377   1.13543  150.943
 4597.00    1.13401   1.13734  150.606
 4598.00    1.13238   1.13464  151.738
 4599.00    1.13476   1.12924  153.117
 4600.00    1.12785   1.12262  153.658
 4601.00    1.11373   1.11747  152.258
 4602.00    1.10860   1.11627  150.538
 4603.00    1.11215   1.11938  150.561
 4604.00    1.11688   1.12445  150.384
 4605.00    1.12340   1.12795  148.901
 4606.00    1.13477   1.13020  146.090
 4607.00    1.14199   1.13315  142.973
 4608.00    1.14352   1.13657  141.127
 4609.00    1.14529   1.13968  141.501
 4610.00    1.14426   1.13968  143.324
 4611.00    1.13644   1.13691  144.974
 4612.00    1.13328   1.13479  145.988
 4613.00    1.13467   1.13431  145.451
 4614.00    1.13870   1.13400  144.204
 4615.00    1.13658   1.13165  143.540
 4616.00    1.12856   1.12789  144.334
 4617.00    1.13384   1.12464  145.410
 4618.00    1.13641   1.12244  145.411
 4619.00    1.13429   1.12315  144.149
 4620.00    1.14093   1.12878  141.942
 4621.00    1.14534   1.13728  141.641
 4622.00    1.14902   1.14345  141.973
 4623.00    1.14876   1.14390  142.264
 4624.00    1.14199   1.14030  143.461
 4625.00    1.14144   1.13670  143.929
 4626.00    1.14053   1.13456  143.893
 4627.00    1.13535   1.13256  144.712
 4628.00    1.13555   1.12923  145.100
 4629.00    1.12915   1.12780  144.480
 4630.00    1.12975   1.13215  142.900
 4631.00    1.13524   1.13885  143.277
 4632.00    1.14088   1.14160  145.238
 4633.00    1.13873   1.13951  146.914
 4634.00    1.13315   1.13686  146.968
 4635.00    1.14009   1.13762  148.002
 4636.00    1.14138   1.13966  149.900
 4637.00    1.13538   1.14049  150.673
 4638.00    1.13726   1.14155  150.539
 4639.00    1.14869   1.14511  148.224
 4640.00    1.15140   1.15129  144.682
 4641.00    1.15359   1.15705  142.520
 4642.00    1.15460   1.16014  142.838
 4643.00    1.15111   1.15993  145.302
 4644.00    1.14473   1.15633  149.279
 4645.00    1.14131   1.14991  153.440
 4646.00    1.12822   1.14124  154.484
 4647.00    1.12477   1.13596  152.072
 4648.00    1.13267   1.13870  148.571
 4649.00    1.13686   1.14570  146.375
 4650.00    1.14428   1.15113  145.945
 4651.00    1.14053   1.15293  145.661
 4652.00    1.13991   1.15118  147.180
 4653.00    1.13548   1.14660  150.450
 4654.00    1.12637   1.14089  152.386
 4655.00    1.12273   1.13708  151.384
 4656.00    1.12384   1.13607  146.890
 4657.00    1.13318   1.14041  141.315
 4658.00    1.14770   1.15230  137.901
 4659.00    1.16300   1.16574  137.469
 4660.00    1.16750   1.17244  139.013
 4661.00    1.16507   1.17056  142.277
 4662.00    1.15803   1.16437  145.174
 4663.00    1.15455   1.15847  145.767
 4664.00    1.15302   1.15294  147.933
 4665.00    1.14225   1.14483  153.922
 4666.00    1.13588   1.13220  160.404
 4667.00    1.12210   1.11964  161.242
 4668.00    1.10945   1.11586  156.746
 4669.00    1.11804   1.12175  150.297
 4670.00    1.13110   1.13225  145.995
 4671.00    1.13746   1.14296  144.833
 4672.00    1.14705   1.14975  144.870
 4673.00    1.15445   1.15295  144.752
 4674.00    1.15705   1.15622  143.033
 4675.00    1.16133   1.16021  140.889
 4676.00    1.16115   1.16242  141.312
 4677.00    1.15784   1.15885  144.178
 4678.00    1.15406   1.15108  147.082
 4679.00    1.14883   1.14375  149.560
 4680.00    1.14406   1.13763  151.108
 4681.00    1.14199   1.13477  149.545
 4682.00    1.14384   1.13688  145.916
 4683.00    1.14400   1.14228  143.814
 4684.00    1.15339   1.14757  144.085
 4685.00    1.16249   1.15006  144.202
 4686.00    1.15836   1.15047  144.950
 4687.00    1.15871   1.15035  145.044
 4688.00    1.15918   1.15077  145.051
 4689.00    1.16550   1.15109  146.001
 4690.00    1.16343   1.14956  146.385
 4691.00    1.15700   1.14771  144.835
 4692.00    1.15914   1.14836  142.700
 4693.00    1.16552   1.15036  139.608
 4694.00    1.17214   1.15174  137.691
 4695.00    1.17489   1.15334  138.147
 4696.00    1.17707   1.15341   -1.000
 4697.00    1.17146   1.14854   -1.000
 4698.00    1.16127   1.14096  148.118
 4699.00    1.15671   1.13538  147.180
 4700.00    1.16019   1.13174   -1.000
 4701.00    1.16043   1.12719   -1.000
 4702.00    1.14785   1.12142   -1.000
 4703.00    1.13803   1.11889  148.972
 4704.00    1.14350   1.12350  146.687
 4705.00    1.15154   1.12990   -1.000
 4706.00    1.14871   1.13061  151.277
 4707.00    1.13672   1.12492  152.897
 4708.00    1.13277   1.11914  152.295
 4709.00    1.13616   1.12034  148.118
 4710.00    1.14351   1.12850  143.999
 4711.00    1.15606   1.13758  142.342
 4712.00    1.16295   1.14133  143.466
 4713.00    1.16164   1.13866   -1.000
 4714.00    1.15729   1.13488  146.361
 4715.00    1.15513   1.13580  143.692
 4716.00    1.15668   1.14207  140.898
 4717.00    1.16089   1.14836  139.860
 4718.00    1.16681   1.15145  139.343
 4719.00    1.16927   1.15299  138.866
 4720.00    1.17051   1.15366  139.902
 4721.00    1.17140   1.15327  140.929
 4722.00    1.17032   1.15303  140.266
 4723.00    1.17238   1.15543  138.789
 4724.00    1.17260   1.15944  138.843
 4725.00    1.17566   1.16122  141.948
 4726.00    1.16869   1.15950  147.214
 4727.00    1.15993   1.15408  150.746
 4728.00    1.15354   1.14751  150.527
 4729.00    1.15006   1.14263  149.045
 4730.00    1.15380   1.13805  147.835
 4731.00    1.15839   1.13608  146.106
 4732.00    1.16215   1.13997  144.790
 4733.00    1.16318   1.14577  143.933
 4734.00    1.16227   1.14856  143.132
 4735.00    1.16181   1.14725  144.467
 4736.00    1.15723   1.14402  144.792
 4737.00    1.15384   1.14263  143.080
 4738.00    1.16075   1.14385  142.960
 4739.00    1.16685   1.14552  143.742
 4740.00    1.16740   1.14656  143.994
 4741.00    1.16340   1.14800  142.948
 4742.00    1.16765   1.15144  141.410
 4743.00    1.17272   1.15639  141.534
 4744.00    1.17298   1.16004  141.687
 4745.00    1.16799   1.16202  140.726
 4746.00    1.16990   1.16455  139.321
 4747.00    1.17749   1.16938  138.929
 4748.00    1.17987   1.17419  139.107
 4749.00    1.18053   1.17660  139.213
 4750.00    1.17757   1.17872  140.148
 4751.00    1.17980   1.18058  141.702
 4752.00    1.17218   1.17985  142.933
 4753.00    1.16897   1.17671  143.928
 4754.00    1.16722   1.17375  143.778
 4755.00    1.16402   1.17246  144.262
 4756.00    1.16695   1.17333  145.299
 4757.00    1.16573   1.17539  145.540
 4758.00    1.16396   1.17656  144.437
 4759.00    1.16843   1.17581  144.086
 4760.00    1.16739   1.17249  146.134
 4761.00    1.15713   1.16483  149.708
 4762.00    1.14741   1.15467  151.804
 4763.00    1.14070   1.14734  152.164
 4764.00    1.14028   1.14646  151.882
 4765.00    1.14400   1.15202  150.872
 4766.00    1.15514   1.16099  148.860
 4767.00    1.15868   1.16992  145.571
 4768.00    1.16570   1.17782  143.435
 4769.00    1.17824   1.18371  143.498
 4770.00    1.17220   1.18512  144.652
 4771.00    1.17052   1.18192  145.938
 4772.00    1.16926   1.17812  144.493
 4773.00    1.16705   1.17841  141.486
 4774.00    1.16827   1.18292  140.341
 4775.00    1.17367   1.18676  140.377
 4776.00    1.17836   1.18750  140.773
 4777.00    1.17655   1.18608  141.655
 4778.00    1.17276   1.18170  143.202
 4779.00    1.16591   1.17535  144.116
 4780.00    1.16403   1.17256  144.512
 4781.00    1.16865   1.17586  145.189
 4782.00    1.17175   1.17978  146.330
 4783.00    1.16931   1.17982  146.373
 4784.00    1.16671   1.17774  146.814
 4785.00    1.16552   1.17456  148.207
 4786.00    1.16355   1.17038  149.119
 4787.00    1.15856   1.16803  149.047
 4788.00    1.15223   1.16877  148.353
 4789.00    1.15501   1.17096  147.448
 4790.00    1.16106   1.17464  145.956
 4791.00    1.17016   1.18117  143.623
 4792.00    1.17696   1.18827  140.475
 4793.00    1.17655   1.19430   -1.000
 4794.00    1.18374   1.19875  137.350
 4795.00    1.18913   1.19904  138.596
 4796.00    1.18709   1.19562  141.302
 4797.00    1.18637   1.19000  143.978
 4798.00    1.17226   1.18452  145.769
 4799.00    1.16529   1.18316   -1.000
 4800.00    1.16971   1.18751   -1.000
 4801.00    1.17950   1.19444  139.782
 4802.00    1.18784   1.19881  139.820
 4803.00    1.17879   1.19465   -1.000
 4804.00    1.16972   1.18352  143.410
 4805.00    1.16818   1.17584  144.757
 4806.00    1.16932   1.17593  144.823
 4807.00    1.17596   1.18161  144.476
 4808.00    1.17633   1.18869  143.846
 4809.00    1.17593   1.19264  142.587
 4810.00    1.17753   1.19233  141.541
 4811.00    1.18040   1.19140  140.795
 4812.00    1.18453   1.19326  140.613
 4813.00    1.18543   1.19833  140.289
 4814.00    1.18253   1.20348   -1.000
 4815.00    1.19367   1.20556  138.940
 4816.00    1.19225   1.20598  138.075
 4817.00    1.19029   1.20621  137.491
 4818.00    1.19049   1.20509  137.404
 4819.00    1.18813   1.20281  137.409
 4820.00    1.19033   1.20037  138.530
 4821.00    1.18627   1.19609  142.021
 4822.00    1.18007   1.18729  144.831
 4823.00    1.16932   1.17613  144.784
 4824.00    1.16296   1.16993  142.372
 4825.00    1.16921   1.17237  140.133
 4826.00    1.18271   1.17893  140.507
 4827.00    1.18612   1.18291  142.110
 4828.00    1.18204   1.18252  143.062
 4829.00    1.17619   1.18034  143.090
 4830.00    1.17563   1.17928  144.311
 4831.00    1.17728   1.17870  144.648
 4832.00    1.17581   1.17805  142.510
 4833.00    1.17886   1.17803  140.572
 4834.00    1.18315   1.17798  139.954
 4835.00    1.18050   1.17710  140.135
 4836.00    1.18275   1.17555  140.778
 4837.00    1.18172   1.17526  142.616
 4838.00    1.17414   1.17502  145.142
 4839.00    1.16574   1.17282  145.421
 4840.00    1.15801   1.17094  145.128
 4841.00    1.15892   1.17093  144.428
 4842.00    1.15832   1.17019  143.371
 4843.00    1.16163   1.16788  141.962
 4844.00    1.16489   1.16559  139.784
 4845.00    1.16767   1.16464  138.949
 4846.00    1.16486   1.16319  141.518
 4847.00    1.15545   1.15703  143.714
 4848.00    1.14756   1.14869  143.859
 4849.00    1.13932   1.14437  141.971
 4850.00    1.13595   1.14306  141.505
 4851.00    1.14212   1.14063  142.238
 4852.00    1.13681   1.13491  143.427
 4853.00    1.12655   1.12286  147.497
 4854.00    1.11099   1.10237  151.728
 4855.00    1.09327   1.07933  151.736
 4856.00    1.07773   1.06146  150.254
 4857.00    1.05943   1.04169  153.935
 4858.00    1.02821   1.00246   -1.000
 4859.00    0.95392   0.92662   -1.000
 4860.00    0.85398   0.83017   -1.000
 4861.00    0.79330   0.76821   -1.000
 4862.00    0.82091   0.78457   -1.000
 4863.00    0.91365   0.86672   -1.000
 4864.00    0.99562   0.95551   -1.000
 4865.00    1.03906   1.01669  149.566
 4866.00    1.07062   1.05389  148.075
 4867.00    1.09341   1.08027  147.393
 4868.00    1.10872   1.09998  148.531
 4869.00    1.11162   1.10857  152.527
 4870.00    1.10279   1.10428  156.333
 4871.00    1.09246   1.09584  155.390
 4872.00    1.09175   1.09592  151.147
 4873.00    1.10907   1.10884  148.383
 4874.00    1.12808   1.12566  147.132
 4875.00    1.14275   1.13658  146.309
 4876.00    1.14483   1.14069  145.799
 4877.00    1.13745   1.14259  143.789
 4878.00    1.14092   1.14829  142.206
 4879.00    1.15145   1.15986  143.262
 4880.00    1.15792   1.17213  145.573
 4881.00    1.15198   1.17546   -1.000
 4882.00    1.15023   1.16940   -1.000
 4883.00    1.15530   1.16340  146.849
 4884.00    1.15953   1.16268  149.024
 4885.00    1.15969   1.16636  149.946
 4886.00    1.15596   1.17054  149.256
 4887.00    1.15874   1.17248  148.999
 4888.00    1.15682   1.16958  151.028
 4889.00    1.14369   1.16111   -1.000
 4890.00    1.12571   1.15018   -1.000
 4891.00    1.12219   1.14623   -1.000
 4892.00    1.14036   1.15835  140.975
 4893.00    1.16882   1.17945  136.630
 4894.00    1.19214   1.19715  133.962
 4895.00    1.20098   1.20807  133.179
 4896.00    1.20547   1.21359  133.402
 4897.00    1.20838   1.21497  136.108
 4898.00    1.19730   1.21164  139.336
 4899.00    1.18750   1.20415   -1.000
 4900.00    1.17995   1.19739   -1.000
 4901.00    1.17327   1.19537   -1.000
 4902.00    1.17779   1.19487   -1.000
 4903.00    1.17608   1.19318  140.954
 4904.00    1.17894   1.19517  138.015
 4905.00    1.19159   1.20429  136.791
 4906.00    1.20039   1.21297  137.886
 4907.00    1.20482   1.21317  141.081
 4908.00    1.19555   1.20748  145.144
 4909.00    1.18045   1.19950   -1.000
 4910.00    1.18053   1.19146  145.518
 4911.00    1.18223   1.18792  142.913
 4912.00    1.18862   1.19122  140.902
 4913.00    1.19531   1.19820  139.060
 4914.00    1.19990   1.20513  137.785
 4915.00    1.19945   1.20940  138.298
 4916.00    1.20196   1.20699  142.832
 4917.00    1.19230   1.19393  150.500
 4918.00    1.16413   1.17177  157.804
 4919.00    1.13044   1.14885   -1.000
 4920.00    1.12024   1.13478  155.364
 4921.00    1.12925   1.13550  149.724
 4922.00    1.14192   1.14361  147.255
 4923.00    1.15125   1.14793  146.969
 4924.00    1.15984   1.15117  145.233
 4925.00    1.17272   1.16322  141.555
 4926.00    1.18753   1.18196  138.929
 4927.00    1.19754   1.19756  137.538
 4928.00    1.20817   1.20706  136.572
 4929.00    1.21149   1.21284  135.739
 4930.00    1.20993   1.21444  136.916
 4931.00    1.20595   1.20878  140.488
 4932.00    1.19042   1.19401  145.540
 4933.00    1.16944   1.17472  146.290
 4934.00    1.15835   1.16459  143.852
 4935.00    1.16460   1.16997  143.557
 4936.00    1.17726   1.17884  147.487
 4937.00    1.18217   1.17838  151.613
 4938.00    1.17012   1.17046  150.711
 4939.00    1.15884   1.16732  145.813
 4940.00    1.17007   1.17569  141.092
 4941.00    1.19473   1.19259  138.342
 4942.00    1.20617   1.20900  136.986
 4943.00    1.20662   1.21819  136.989
 4944.00    1.20825   1.22025  137.912
 4945.00    1.20632   1.21758  138.265
 4946.00    1.20422   1.21481  137.126
 4947.00    1.20761   1.21518  135.517
 4948.00    1.21163   1.21882  135.020
 4949.00    1.21090   1.22235  134.464
 4950.00    1.21061   1.22310  135.075
 4951.00    1.21446   1.22190  135.993
 4952.00    1.21073   1.22019  137.527
 4953.00    1.21675   1.21882  139.237
 4954.00    1.21183   1.21493  142.820
 4955.00    1.19512   1.20151  149.972
 4956.00    1.17014   1.17595  156.189
 4957.00    1.14422   1.15234  153.726
 4958.00    1.14509   1.15246  145.248
 4959.00    1.16903   1.17541  139.986
 4960.00    1.19624   1.20169  138.641
 4961.00    1.21015   1.21828  139.176
 4962.00    1.21175   1.22457  140.262
 4963.00    1.20848   1.22480  141.889
 4964.00    1.20802   1.22046  144.819
 4965.00    1.19992   1.21245  146.796
 4966.00    1.19295   1.20525  146.964
 4967.00    1.19755   1.20297  146.561
 4968.00    1.20083   1.20369  145.521
 4969.00    1.19838   1.20605  143.993
 4970.00    1.19836   1.21077  142.447
 4971.00    1.20052   1.21603  140.753
 4972.00    1.20543   1.21997  139.398
 4973.00    1.20927   1.22251  138.777
 4974.00    1.21037   1.22257  139.639
 4975.00    1.21357   1.22077  141.083
 4976.00    1.21252   1.21806  142.975
 4977.00    1.20893   1.21388  145.288
 4978.00    1.20603   1.21052  147.123
 4979.00    1.19777   1.20767  149.187
 4980.00    1.18461   1.19874  153.919
 4981.00    1.16636   1.18313  158.946
 4982.00    1.14843   1.16693  159.319
 4983.00    1.14776   1.15860  156.511
 4984.00    1.15598   1.16234  152.196
 4985.00    1.16304   1.17359  147.389
 4986.00    1.17881   1.18783  143.659
 4987.00    1.19177   1.20246  143.528
 4988.00    1.19581   1.21083  145.524
 4989.00    1.19289   1.20778  147.078
 4990.00    1.18444   1.19800  147.242
 4991.00    1.17893   1.19036  146.013
 4992.00    1.18446   1.19019  145.345
 4993.00    1.18929   1.19475  145.243
 4994.00    1.18900   1.20082  144.539
 4995.00    1.19497   1.20818  143.814
 4996.00    1.20128   1.21354  144.581
 4997.00    1.19849   1.21191  146.455
 4998.00    1.18948   1.20108  149.360
 4999.00    1.18231   1.18313  151.319
 5000.00    1.17593   1.17116  151.545
 5001.00    1.17178   1.17416  150.202
 5002.00    1.18513   1.18344  149.175
 5003.00    1.18713   1.18927  151.108
 5004.00    1.18135   1.18557  154.878
 5005.00    1.16779   1.17311  155.964
 5006.00    1.16000   1.16223  152.435
 5007.00    1.16323   1.16507  147.819
 5008.00    1.18284   1.17904  146.045
 5009.00    1.19456   1.19028  147.737
 5010.00    1.19439   1.19138  152.032
 5011.00    1.17846   1.18250  157.693
 5012.00    1.16171   1.16945  161.530
 5013.00    1.15341   1.15945  161.043
 5014.00    1.14821   1.15802  157.634
 5015.00    1.15198   1.16392  154.309
 5016.00    1.15931   1.16764  153.492
 5017.00    1.16420   1.16197  153.490
 5018.00    1.16050   1.15323  151.853
 5019.00    1.16549   1.15691  150.574
 5020.00    1.18136   1.17250  151.124
 5021.00    1.18939   1.18585  151.486
 5022.00    1.18778   1.19259  150.692
 5023.00    1.18825   1.19804  149.134
 5024.00    1.19372   1.20539  148.094
 5025.00    1.19590   1.21135  148.699
 5026.00    1.19275   1.21209  149.419
 5027.00    1.18887   1.20948   -1.000
 5028.00    1.19004   1.20815  145.458
 5029.00    1.19567   1.20839  143.339
 5030.00    1.20736   1.20887  141.025
 5031.00    1.21460   1.21174  139.357
 5032.00    1.21358   1.21717  139.476
 5033.00    1.20924   1.21919  143.710
 5034.00    1.20144   1.21358  149.390
 5035.00    1.18943   1.20339  152.085
 5036.00    1.18230   1.19675  152.730
 5037.00    1.18176   1.19595  154.536
 5038.00    1.17647   1.19212  160.390
 5039.00    1.16103   1.17866  166.946
 5040.00    1.13866   1.15963   -1.000
 5041.00    1.13075   1.14966  159.743
 5042.00    1.14436   1.15917  149.932
 5043.00    1.17467   1.18117  143.635
 5044.00    1.19621   1.20359  140.465
 5045.00    1.22943   1.22019  135.201
 5046.00    1.17699   1.22901   -1.000
 5047.00    0.54988   1.22826   -1.000
 5048.00    0.13718   1.21783   -1.000
 5049.00    0.05428   1.20256   -1.000
 5050.00    0.89857   1.18870   -1.000
 5051.00    1.20218   1.18062  147.160
 5052.00    1.19060   1.18452  143.451
 5053.00    1.20406   1.20136  140.781
 5054.00    1.22179   1.22022  139.378
 5055.00    1.22674   1.23095  138.886
 5056.00    1.23296   1.23461  139.107
 5057.00    1.23219   1.23549  139.368
 5058.00    1.22240   1.23596  139.328
 5059.00    1.21993   1.23651  138.420
 5060.00    1.21749   1.23722   -1.000
 5061.00    1.22330   1.23771  140.228
 5062.00    1.22829   1.23533  144.221
 5063.00    1.21520   1.22735  149.344
 5064.00    1.20014   1.21574  151.251
 5065.00    1.19383   1.20770  149.575
 5066.00    1.19677   1.20699  147.315
 5067.00    1.20199   1.20919  146.761
 5068.00    1.20509   1.21022  146.079
 5069.00    1.20693   1.21140  145.124
 5070.00    1.21115   1.21384  146.202
 5071.00    1.21828   1.21467  147.370
 5072.00    1.21687   1.21214  145.686
 5073.00    1.21099   1.20886  144.508
 5074.00    1.21115   1.20736  144.274
 5075.00    1.21484   1.20779  144.158
 5076.00    1.21325   1.20794  145.497
 5077.00    1.20567   1.20302  150.426
 5078.00    1.18964   1.19094  157.549
 5079.00    1.16962   1.17838  159.638
 5080.00    1.16768   1.17583  156.476
 5081.00    1.17464   1.18297  153.118
 5082.00    1.18975   1.19016  151.010
 5083.00    1.19034   1.19526  148.188
 5084.00    1.19995   1.20328  145.634
 5085.00    1.21235   1.21329  144.533
 5086.00    1.22140   1.21970  144.304
 5087.00    1.22265   1.22161  143.598
 5088.00    1.22304   1.22241  142.569
 5089.00    1.22601   1.22509  141.772
 5090.00    1.22579   1.22854  141.036
 5091.00    1.22677   1.23115  139.439
 5092.00    1.22992   1.23423  138.168
 5093.00    1.23723   1.23768  139.336
 5094.00    1.24846   1.23920  142.198
 5095.00    1.23421   1.23628  145.276
 5096.00    1.22554   1.22786  148.791
 5097.00    1.21206   1.21626  151.935
 5098.00    1.20323   1.20535  152.520
 5099.00    1.20622   1.20192  148.916
 5100.00    1.21178   1.20899  144.602
 5101.00    1.22114   1.22021  143.225
 5102.00    1.22938   1.22844  144.000
 5103.00    1.22873   1.23138  145.873
 5104.00    1.22851   1.23011  147.726
 5105.00    1.22242   1.22431  149.537
 5106.00    1.20609   1.21246  151.415
 5107.00    1.19101   1.19986  151.259
 5108.00    1.18467   1.19432  150.307
 5109.00    1.18513   1.19560  149.229
 5110.00    1.19258   1.20130  147.114
 5111.00    1.20321   1.21175  145.298
 5112.00    1.22056   1.22468  143.526
 5113.00    1.23074   1.23457  142.217
 5114.00    1.23476   1.23917  141.439
 5115.00    1.23789   1.24096  139.966
 5116.00    1.23438   1.24343  138.783
 5117.00    1.23982   1.24622  139.147
 5118.00    1.24158   1.24684  140.933
 5119.00    1.24376   1.24449  143.055
 5120.00    1.23825   1.23928  145.415
 5121.00    1.23038   1.23131  149.128
 5122.00    1.21815   1.22110  153.623
 5123.00    1.20115   1.21104  154.802
 5124.00    1.19436   1.20599  153.484
 5125.00    1.20339   1.20711  152.712
 5126.00    1.20619   1.20880  151.805
 5127.00    1.19960   1.20704  151.993
 5128.00    1.19545   1.20436  151.869
 5129.00    1.20048   1.20474  149.933
 5130.00    1.21148   1.20965  147.379
 5131.00    1.21346   1.21632  146.147
 5132.00    1.22096   1.22135  144.761
 5133.00    1.22566   1.22498  143.481
 5134.00    1.23045   1.22779  143.088
 5135.00    1.22700   1.22801  145.600
 5136.00    1.22176   1.22350  149.141
 5137.00    1.20864   1.21399  151.557
 5138.00    1.19319   1.20321  151.816
 5139.00    1.18479   1.19748  150.480
 5140.00    1.19254   1.19937  151.541
 5141.00    1.19398   1.20403  153.997
 5142.00    1.18863   1.20629  153.179
 5143.00    1.19308   1.20941  150.620
 5144.00    1.20654   1.21677  150.049
 5145.00    1.21779   1.22328  151.422
 5146.00    1.21911   1.22476  151.823
 5147.00    1.21705   1.22396  149.997
 5148.00    1.21944   1.22294  149.128
 5149.00    1.21400   1.21996  150.926
 5150.00    1.20486   1.21321  153.683
 5151.00    1.19576   1.20483  154.735
 5152.00    1.19135   1.20098  153.979
 5153.00    1.19819   1.20348  151.067
 5154.00    1.20833   1.20948  147.235
 5155.00    1.22059   1.21866  143.486
 5156.00    1.23712   1.22986  140.782
 5157.00    1.24616   1.23905  139.716
 5158.00    1.24680   1.24390  139.680
 5159.00    1.24761   1.24521  140.142
 5160.00    1.24543   1.24365  140.944
 5161.00    1.23874   1.23984  142.526
 5162.00    1.23795   1.23563  144.734
 5163.00    1.23746   1.23061  150.219
 5164.00    1.21852   1.21673  162.559
 5165.00    1.18745   1.18380  179.575
 5166.00    1.13819   1.13254  191.816
 5167.00    1.09245   1.08740  188.184
 5168.00    1.08235   1.07529  177.369
 5169.00    1.11277   1.09501   -1.000
 5170.00    1.14051   1.11713   -1.000
 5171.00    1.12738   1.11436   -1.000
 5172.00    1.10242   1.10054  190.858
 5173.00    1.10938   1.10954  170.194
 5174.00    1.15546   1.14996  156.074
 5175.00    1.21030   1.19714  150.139
 5176.00    1.23533   1.22637  148.386
 5177.00    1.25394   1.23815  148.072
 5178.00    1.25324   1.24216  149.528
 5179.00    1.24938   1.24116  154.735
 5180.00    1.24259   1.23099  165.907
 5181.00    1.21322   1.20209  185.203
 5182.00    1.16992   1.15616   -1.000
 5183.00    1.12344   1.11530  190.820
 5184.00    1.11823   1.10880  169.424
 5185.00    1.16467   1.14156   -1.000
 5186.00    1.20825   1.18140   -1.000
 5187.00    1.22546   1.20212   -1.000
 5188.00    1.22083   1.20603  147.875
 5189.00    1.21460   1.20484  149.458
 5190.00    1.20760   1.20113  154.212
 5191.00    1.19251   1.19220  158.493
 5192.00    1.18129   1.18358  157.320
 5193.00    1.18178   1.18372  154.601
 5194.00    1.19335   1.19036  152.313
 5195.00    1.20822   1.19662  150.088
 5196.00    1.21937   1.20184  147.064
 5197.00    1.22631   1.20757  144.563
 5198.00    1.23111   1.21470  143.375
 5199.00    1.23608   1.22232  143.233
 5200.00    1.23616   1.22724  144.391
 5201.00    1.23313   1.22623  147.017
 5202.00    1.22989   1.21768  150.389
 5203.00    1.21940   1.20183  155.136
 5204.00    1.19576   1.18319  159.921
 5205.00    1.17688   1.17032  160.505
 5206.00    1.18223   1.16778  161.357
 5207.00    1.18678   1.17114   -1.000
 5208.00    1.19049   1.17372   -1.000
 5209.00    1.19699   1.17836   -1.000
 5210.00    1.21186   1.19263   -1.000
 5211.00    1.23316   1.21225   -1.000
 5212.00    1.24736   1.22800  139.717
 5213.00    1.25356   1.23415  141.285
 5214.00    1.24624   1.22841  144.652
 5215.00    1.22824   1.21645  146.415
 5216.00    1.21845   1.20828  145.185
 5217.00    1.22280   1.21175  142.027
 5218.00    1.23688   1.22462  139.875
 5219.00    1.25127   1.23834  138.807
 5220.00    1.26145   1.24758  138.252
 5221.00    1.26699   1.25202  140.059
 5222.00    1.26015   1.25156  144.368
 5223.00    1.25694   1.24348  150.358
 5224.00    1.23576   1.22402  157.429
 5225.00    1.20175   1.19357  161.782
 5226.00    1.16849   1.16500  158.288
 5227.00    1.16570   1.15878  149.397
 5228.00    1.19312   1.17844  143.300
 5229.00    1.22674   1.20639   -1.000
 5230.00    1.24409   1.22329  140.580
 5231.00    1.24490   1.22292   -1.000
 5232.00    1.23570   1.21171   -1.000
 5233.00    1.22210   1.20064  145.679
 5234.00    1.22207   1.20064  142.299
 5235.00    1.23762   1.21251   -1.000
 5236.00    1.25124   1.22823  137.349
 5237.00    1.26157   1.24002  137.242
 5238.00    1.26492   1.24527  137.688
 5239.00    1.26560   1.24673  137.434
 5240.00    1.26883   1.24742  136.611
 5241.00    1.27057   1.24779  136.835
 5242.00    1.26886   1.24766  136.546
 5243.00    1.26394   1.24797  136.329
 5244.00    1.26766   1.24917  139.118
 5245.00    1.26502   1.24808  143.520
 5246.00    1.24952   1.24125  146.846
 5247.00    1.23827   1.23222  147.176
 5248.00    1.23163   1.22646  147.448
 5249.00    1.23149   1.22329  148.410
 5250.00    1.22293   1.22136  147.678
 5251.00    1.22886   1.22290  145.601
 5252.00    1.23890   1.22703  144.168
 5253.00    1.24217   1.22940  144.217
 5254.00    1.24007   1.22964  143.160
 5255.00    1.24349   1.23161  139.766
 5256.00    1.25716   1.23900  135.974
 5257.00    1.27156   1.24894  134.818
 5258.00    1.27720   1.25483  136.128
 5259.00    1.26743   1.25315  139.920
 5260.00    1.25603   1.24264  145.913
 5261.00    1.23546   1.22444  152.889
 5262.00    1.21396   1.20434  158.149
 5263.00    1.20055   1.18707  161.372
 5264.00    1.18865   1.17512  161.758
 5265.00    1.18373   1.17111  158.869
 5266.00    1.18917   1.17413  156.034
 5267.00    1.19826   1.17636   -1.000
 5268.00    1.19108   1.16598   -1.000
 5269.00    1.17088   1.14786   -1.000
 5270.00    1.15908   1.14352  153.207
 5271.00    1.18665   1.16396   -1.000
 5272.00    1.21898   1.19336   -1.000
 5273.00    1.22399   1.20990  145.412
 5274.00    1.22958   1.21248  145.062
 5275.00    1.23530   1.21216   -1.000
 5276.00    1.24407   1.21823   -1.000
 5277.00    1.26394   1.23192   -1.000
 5278.00    1.27141   1.24514   -1.000
 5279.00    1.27320   1.24933   -1.000
 5280.00    1.26837   1.24304   -1.000
 5281.00    1.25385   1.23141   -1.000
 5282.00    1.24062   1.21988   -1.000
 5283.00    1.23256   1.21420  142.859
 5284.00    1.24113   1.21908  138.444
 5285.00    1.25501   1.23426  134.076
 5286.00    1.26775   1.25163  133.148
 5287.00    1.28412   1.26201  133.900
 5288.00    1.28531   1.26608  133.859
 5289.00    1.28538   1.26771  133.052
 5290.00    1.28567   1.26744  132.784
 5291.00    1.28062   1.26537  133.596
 5292.00    1.27801   1.26335  134.877
 5293.00    1.27482   1.26214  136.686
 5294.00    1.27483   1.25959  140.461
 5295.00    1.26864   1.25238  145.922
 5296.00    1.25476   1.24074  149.792
 5297.00    1.23986   1.22943  148.714
 5298.00    1.23647   1.22490  144.852
 5299.00    1.24305   1.22933  142.187
 5300.00    1.25345   1.23672  141.332
 5301.00    1.25823   1.24169  139.563
 5302.00    1.25269   1.24576  135.729
 5303.00    1.26189   1.25139  133.272
 5304.00    1.27565   1.25706  132.993
 5305.00    1.28009   1.25916  134.345
 5306.00    1.28026   1.25731  135.508
 5307.00    1.27135   1.25519  134.556
 5308.00    1.27768   1.25595  133.123
 5309.00    1.28771   1.25989   -1.000
 5310.00    1.29270   1.26388   -1.000
 5311.00    1.28750   1.26512  133.224
 5312.00    1.28705   1.26398  133.793
 5313.00    1.28711   1.26042   -1.000
 5314.00    1.28849   1.25277   -1.000
 5315.00    1.27618   1.24175   -1.000
 5316.00    1.26124   1.23257   -1.000
 5317.00    1.25941   1.23246   -1.000
 5318.00    1.27159   1.24174   -1.000
 5319.00    1.27830   1.25260   -1.000
 5320.00    1.27737   1.25827  137.232
 5321.00    1.27219   1.25643  138.875
 5322.00    1.26449   1.24759  141.345
 5323.00    1.25603   1.23542  142.611
 5324.00    1.24626   1.22670  142.503
 5325.00    1.24834   1.22087   -1.000
 5326.00    1.23649   1.20731   -1.000
 5327.00    1.20350   1.18420   -1.000
 5328.00    1.18743   1.16802   -1.000
 5329.00    1.19830   1.17816   -1.000
 5330.00    1.23729   1.20877   -1.000
 5331.00    1.26463   1.23489   -1.000
 5332.00    1.25891   1.24604  137.868
 5333.00    1.26239   1.24821  136.250
 5334.00    1.27327   1.24749   -1.000
 5335.00    1.27509   1.24502   -1.000
 5336.00    1.26714   1.24176   -1.000
 5337.00    1.26655   1.23897   -1.000
 5338.00    1.26112   1.23521   -1.000
 5339.00    1.25008   1.22859   -1.000
 5340.00    1.23748   1.22234  143.773
 5341.00    1.23995   1.22433  139.765
 5342.00    1.26312   1.23528   -1.000
 5343.00    1.27099   1.24590   -1.000
 5344.00    1.27608   1.24957   -1.000
 5345.00    1.27076   1.24712   -1.000
 5346.00    1.26621   1.24244   -1.000
 5347.00    1.26647   1.23893   -1.000
 5348.00    1.25742   1.23689  141.502
 5349.00    1.25833   1.23718  139.197
 5350.00    1.27846   1.24238   -1.000
 5351.00    1.28010   1.25007   -1.000
 5352.00    1.28135   1.25590   -1.000
 5353.00    1.28177   1.25910  132.824
 5354.00    1.29002   1.26191   -1.000
 5355.00    1.30102   1.26599   -1.000
 5356.00    1.30331   1.26974   -1.000
 5357.00    1.30245   1.27148   -1.000
 5358.00    1.29800   1.27159   -1.000
 5359.00    1.29961   1.27009   -1.000
 5360.00    1.29852   1.26642   -1.000
 5361.00    1.28248   1.26037  136.823
 5362.00    1.27344   1.25307  137.733
 5363.00    1.27476   1.24638   -1.000
 5364.00    1.27276   1.24182   -1.000
 5365.00    1.26652   1.24079   -1.000
 5366.00    1.27312   1.24252   -1.000
 5367.00    1.27529   1.24330   -1.000
 5368.00    1.26163   1.23872   -1.000
 5369.00    1.25222   1.22707   -1.000
 5370.00    1.23937   1.21201   -1.000
 5371.00    1.22870   1.20420   -1.000
 5372.00    1.23857   1.21348   -1.000
 5373.00    1.26713   1.23444   -1.000
 5374.00    1.28812   1.25352   -1.000
 5375.00    1.29141   1.26355   -1.000
 5376.00    1.30119   1.26634   -1.000
 5377.00    1.30187   1.26709   -1.000
 5378.00    1.29599   1.26646   -1.000
 5379.00    1.29472   1.26274   -1.000
 5380.00    1.28697   1.25654   -1.000
 5381.00    1.27558   1.25054   -1.000
 5382.00    1.27377   1.24736   -1.000
 5383.00    1.26780   1.24791  136.287
 5384.00    1.27024   1.25204  134.770
 5385.00    1.28749   1.25900   -1.000
 5386.00    1.29854   1.26578   -1.000
 5387.00    1.29249   1.26895   -1.000
 5388.00    1.29360   1.26751   -1.000
 5389.00    1.28686   1.26234   -1.000
 5390.00    1.28638   1.25598   -1.000
 5391.00    1.28154   1.25024   -1.000
 5392.00    1.27484   1.24543   -1.000
 5393.00    1.26958   1.24223   -1.000
 5394.00    1.26657   1.23942   -1.000
 5395.00    1.26022   1.23240   -1.000
 5396.00    1.24388   1.22019   -1.000
 5397.00    1.24014   1.21357   -1.000
 5398.00    1.25383   1.22075   -1.000
 5399.00    1.26720   1.23572   -1.000
 5400.00    1.28277   1.24775   -1.000
 5401.00    1.28924   1.25162   -1.000
 5402.00    1.28114   1.24682   -1.000
 5403.00    1.26378   1.23317   -1.000
 5404.00    1.24199   1.21493   -1.000
 5405.00    1.22809   1.20304   -1.000
 5406.00    1.23390   1.20646   -1.000
 5407.00    1.25684   1.21953   -1.000
 5408.00    1.26689   1.22868   -1.000
 5409.00    1.26133   1.22894   -1.000
 5410.00    1.25759   1.22810   -1.000
 5411.00    1.26651   1.23500   -1.000
 5412.00    1.27822   1.24477   -1.000
 5413.00    1.28608   1.24865   -1.000
 5414.00    1.28327   1.24734   -1.000
 5415.00    1.27198   1.24645   -1.000
 5416.00    1.28140   1.24951   -1.000
 5417.00    1.28502   1.25422   -1.000
 5418.00    1.28281   1.25698   -1.000
 5419.00    1.28241   1.25838   -1.000
 5420.00    1.28313   1.25914   -1.000
 5421.00    1.28666   1.25761   -1.000
 5422.00    1.28130   1.25324   -1.000
 5423.00    1.26906   1.24717  139.567
 5424.00    1.27119   1.24330   -1.000
 5425.00    1.27676   1.24621   -1.000
 5426.00    1.28299   1.25328   -1.000
 5427.00    1.29028   1.25506   -1.000
 5428.00    1.27123   1.24550   -1.000
 5429.00    1.25272   1.23332  144.614
 5430.00    1.24591   1.23138  141.815
 5431.00    1.26040   1.23732   -1.000
 5432.00    1.26895   1.24000   -1.000
 5433.00    1.26250   1.23373   -1.000
 5434.00    1.24824   1.22601   -1.000
 5435.00    1.24584   1.22876  142.000
 5436.00    1.26438   1.24187   -1.000
 5437.00    1.28227   1.25716   -1.000
 5438.00    1.29891   1.26793   -1.000
 5439.00    1.30050   1.27270   -1.000
 5440.00    1.30124   1.27457   -1.000
 5441.00    1.30491   1.27565   -1.000
 5442.00    1.29724   1.27519  133.688
 5443.00    1.28828   1.27013  137.442
 5444.00    1.28069   1.25731   -1.000
 5445.00    1.25868   1.23742   -1.000
 5446.00    1.24268   1.22032   -1.000
 5447.00    1.24452   1.21831   -1.000
 5448.00    1.25574   1.23196   -1.000
 5449.00    1.28459   1.25092   -1.000
 5450.00    1.30026   1.26453   -1.000
 5451.00    1.30046   1.26931   -1.000
 5452.00    1.30353   1.26601   -1.000
 5453.00    1.29110   1.25483   -1.000
 5454.00    1.26454   1.23780   -1.000
 5455.00    1.24536   1.22491   -1.000
 5456.00    1.25061   1.22742   -1.000
 5457.00    1.27455   1.24483   -1.000
 5458.00    1.29194   1.26405   -1.000
 5459.00    1.29716   1.27409   -1.000
 5460.00    1.29608   1.27505  140.702
 5461.00    1.29149   1.27002   -1.000
 5462.00    1.28464   1.26197   -1.000
 5463.00    1.28256   1.25619   -1.000
 5464.00    1.28773   1.25712   -1.000
 5465.00    1.29340   1.26230   -1.000
 5466.00    1.29299   1.26693   -1.000
 5467.00    1.29819   1.26973   -1.000
 5468.00    1.29673   1.27192   -1.000
 5469.00    1.30065   1.27440   -1.000
 5470.00    1.30215   1.27520   -1.000
 5471.00    1.29993   1.27263   -1.000
 5472.00    1.29770   1.26831   -1.000
 5473.00    1.29464   1.26318   -1.000
 5474.00    1.28570   1.25504   -1.000
 5475.00    1.27293   1.24280   -1.000
 5476.00    1.25657   1.23138   -1.000
 5477.00    1.24965   1.23079  143.439
 5478.00    1.26853   1.24294   -1.000
 5479.00    1.28786   1.25641   -1.000
 5480.00    1.28930   1.26250   -1.000
 5481.00    1.28876   1.26275   -1.000
 5482.00    1.28299   1.26259   -1.000
 5483.00    1.28752   1.26555   -1.000
 5484.00    1.29912   1.27069   -1.000
 5485.00    1.29584   1.27429  138.551
 5486.00    1.29134   1.27411  140.597
 5487.00    1.28586   1.27135  141.289
 5488.00    1.28544   1.26836  141.248
 5489.00    1.29103   1.26676   -1.000
 5490.00    1.28866   1.26743  139.135
 5491.00    1.29036   1.27003  138.673
 5492.00    1.29263   1.27271  139.061
 5493.00    1.29567   1.27350   -1.000
 5494.00    1.29899   1.27172   -1.000
 5495.00    1.29523   1.26691   -1.000
 5496.00    1.28259   1.25927   -1.000
 5497.00    1.27755   1.25319   -1.000
 5498.00    1.28305   1.25372   -1.000
 5499.00    1.28332   1.25692   -1.000
 5500.00    1.28366   1.25568   -1.000
 5501.00    1.28003   1.25102   -1.000
 5502.00    1.27435   1.25004   -1.000
 5503.00    1.28419   1.25529   -1.000
 5504.00    1.29181   1.25865   -1.000
 5505.00    1.28030   1.25380   -1.000
 5506.00    1.26787   1.24631   -1.000
 5507.00    1.26911   1.24469   -1.000
 5508.00    1.27570   1.25169   -1.000
 5509.00    1.29037   1.26052   -1.000
 5510.00    1.29990   1.26319   -1.000
 5511.00    1.29145   1.26048   -1.000
 5512.00    1.27966   1.25662   -1.000
 5513.00    1.28504   1.25471   -1.000
 5514.00    1.28327   1.25610   -1.000
 5515.00    1.29273   1.26058   -1.000
 5516.00    1.30198   1.26681   -1.000
 5517.00    1.30785   1.27299   -1.000
 5518.00    1.30649   1.27730   -1.000
 5519.00    1.31059   1.27866   -1.000
 5520.00    1.31463   1.27769   -1.000
 5521.00    1.31205   1.27665   -1.000
 5522.00    1.30589   1.27715   -1.000
 5523.00    1.30558   1.27719   -1.000
 5524.00    1.29840   1.27355   -1.000
 5525.00    1.29580   1.26304   -1.000
 5526.00    1.28240   1.24679   -1.000
 5527.00    1.26261   1.23240   -1.000
 5528.00    1.25860   1.22877   -1.000
 5529.00    1.27080   1.23878   -1.000
 5530.00    1.28362   1.25508   -1.000
 5531.00    1.29312   1.26686   -1.000
 5532.00    1.29652   1.26870   -1.000
 5533.00    1.29629   1.26329   -1.000
 5534.00    1.29708   1.25756   -1.000
 5535.00    1.28909   1.25802   -1.000
 5536.00    1.29027   1.26467   -1.000
 5537.00    1.29515   1.27190   -1.000
 5538.00    1.30108   1.27665   -1.000
 5539.00    1.30559   1.27903   -1.000
 5540.00    1.30733   1.27994   -1.000
 5541.00    1.30797   1.27951   -1.000
 5542.00    1.30495   1.27728   -1.000
 5543.00    1.30057   1.27434   -1.000
 5544.00    1.29889   1.27305   -1.000
 5545.00    1.30316   1.27394   -1.000
 5546.00    1.30175   1.27571   -1.000
 5547.00    1.30208   1.27822   -1.000
 5548.00    1.30809   1.28199   -1.000
 5549.00    1.31115   1.28526   -1.000
 5550.00    1.31074   1.28588   -1.000
 5551.00    1.30854   1.28417   -1.000
 5552.00    1.31384   1.28243   -1.000
 5553.00    1.30890   1.28141   -1.000
 5554.00    1.30503   1.28078   -1.000
 5555.00    1.30316   1.28080   -1.000
 5556.00    1.31092   1.28158   -1.000
 5557.00    1.31244   1.28271   -1.000
 5558.00    1.31231   1.28350   -1.000
 5559.00    1.30909   1.28432   -1.000
 5560.00    1.30949   1.28462   -1.000
 5561.00    1.31029   1.28285   -1.000
 5562.00    1.30509   1.27973   -1.000
 5563.00    1.30296   1.27759   -1.000
 5564.00    1.29665   1.27711  141.547
 5565.00    1.29604   1.27658  141.674
 5566.00    1.30021   1.27465   -1.000
 5567.00    1.29429   1.27191   -1.000
 5568.00    1.29111   1.26873   -1.000
 5569.00    1.28737   1.26646   -1.000
 5570.00    1.28800   1.26525   -1.000
 5571.00    1.28833   1.26189   -1.000
 5572.00    1.27825   1.25836  141.110
 5573.00    1.25785   1.25905  139.505
 5574.00    1.22672   1.26290   -1.000
 5575.00    1.16957   1.26718   -1.000
 5576.00    1.22069   1.27078   -1.000
 5577.00    1.30200   1.27388   -1.000
 5578.00    1.36824   1.27673   -1.000
 5579.00    1.35133   1.27869   -1.000
 5580.00    1.30984   1.27821   -1.000
 5581.00    1.29844   1.27633   -1.000
 5582.00    1.30337   1.27612   -1.000
 5583.00    1.30432   1.27700   -1.000
 5584.00    1.29758   1.27409   -1.000
 5585.00    1.28811   1.26377   -1.000
 5586.00    1.27040   1.24927   -1.000
 5587.00    1.25623   1.23776   -1.000
 5588.00    1.25033   1.23404  149.292
 5589.00    1.25645   1.23841  146.512
 5590.00    1.27454   1.24838   -1.000
 5591.00    1.28548   1.25834   -1.000
 5592.00    1.28722   1.26277   -1.000
 5593.00    1.28979   1.26195   -1.000
 5594.00    1.28306   1.26114   -1.000
 5595.00    1.28769   1.26462   -1.000
 5596.00    1.29674   1.26762   -1.000
 5597.00    1.29396   1.26487   -1.000
 5598.00    1.28443   1.26052   -1.000
 5599.00    1.27818   1.25816   -1.000
 5600.00    1.28011   1.25461   -1.000
 5601.00    1.27847   1.24980   -1.000
 5602.00    1.27148   1.25013   -1.000
 5603.00    1.27450   1.25865  140.703
 5604.00    1.29323   1.27176   -1.000
 5605.00    1.30589   1.28335   -1.000
 5606.00    1.31303   1.28999   -1.000
 5607.00    1.31767   1.29261   -1.000
 5608.00    1.31087   1.29349  136.533
 5609.00    1.31710   1.29441   -1.000
 5610.00    1.32114   1.29578   -1.000
 5611.00    1.32327   1.29570   -1.000
 5612.00    1.31556   1.29094   -1.000
 5613.00    1.30570   1.27934   -1.000
 5614.00    1.29306   1.26350   -1.000
 5615.00    1.27108   1.25429  146.215
 5616.00    1.27263   1.25906  142.487
 5617.00    1.29555   1.27204   -1.000
 5618.00    1.30895   1.28307   -1.000
 5619.00    1.30478   1.28780  139.895
 5620.00    1.30932   1.28890  139.216
 5621.00    1.31233   1.28869   -1.000
 5622.00    1.30921   1.28663   -1.000
 5623.00    1.29959   1.28250  145.603
 5624.00    1.29250   1.27885  144.546
 5625.00    1.29271   1.27894  141.914
 5626.00    1.30473   1.28279   -1.000
 5627.00    1.31501   1.28699   -1.000
 5628.00    1.31536   1.29018   -1.000
 5629.00    1.31773   1.29271   -1.000
 5630.00    1.31904   1.29409   -1.000
 5631.00    1.32172   1.29412   -1.000
 5632.00    1.32067   1.29288   -1.000
 5633.00    1.31745   1.29155   -1.000
 5634.00    1.31512   1.29099   -1.000
 5635.00    1.31252   1.28983   -1.000
 5636.00    1.31317   1.28744   -1.000
 5637.00    1.31376   1.28509   -1.000
 5638.00    1.31288   1.28367   -1.000
 5639.00    1.30570   1.28247   -1.000
 5640.00    1.30539   1.28094   -1.000
 5641.00    1.30594   1.28009   -1.000
 5642.00    1.30783   1.28136   -1.000
 5643.00    1.31497   1.28394   -1.000
 5644.00    1.31390   1.28594   -1.000
 5645.00    1.31540   1.28697   -1.000
 5646.00    1.31850   1.28734   -1.000
 5647.00    1.31792   1.28761   -1.000
 5648.00    1.32620   1.28805   -1.000
 5649.00    1.32203   1.28798   -1.000
 5650.00    1.31672   1.28769   -1.000
 5651.00    1.31329   1.28799   -1.000
 5652.00    1.31583   1.28847   -1.000
 5653.00    1.31545   1.28852   -1.000
 5654.00    1.31488   1.28719   -1.000
 5655.00    1.31243   1.28168   -1.000
 5656.00    1.30559   1.26930   -1.000
 5657.00    1.28944   1.25503   -1.000
 5658.00    1.26703   1.24933  147.547
 5659.00    1.27520   1.25496   -1.000
 5660.00    1.29443   1.26478   -1.000
 5661.00    1.29917   1.27046   -1.000
 5662.00    1.29988   1.27315   -1.000
 5663.00    1.30500   1.27921   -1.000
 5664.00    1.30967   1.28638   -1.000
 5665.00    1.31142   1.28779   -1.000
 5666.00    1.31295   1.28283   -1.000
 5667.00    1.30610   1.27666   -1.000
 5668.00    1.30251   1.27453   -1.000
 5669.00    1.30528   1.27707   -1.000
 5670.00    1.31326   1.28153   -1.000
 5671.00    1.31700   1.28567   -1.000
 5672.00    1.31896   1.28860   -1.000
 5673.00    1.31993   1.29022   -1.000
 5674.00    1.32828   1.29089   -1.000
 5675.00    1.32491   1.29146   -1.000
 5676.00    1.32343   1.29238   -1.000
 5677.00    1.32570   1.29288   -1.000
 5678.00    1.32204   1.29218   -1.000
 5679.00    1.31982   1.29029   -1.000
 5680.00    1.31912   1.28684   -1.000
 5681.00    1.31764   1.28143   -1.000
 5682.00    1.30580   1.27504   -1.000
 5683.00    1.29796   1.27058   -1.000
 5684.00    1.30104   1.27055   -1.000
 5685.00    1.30182   1.27389   -1.000
 5686.00    1.30289   1.27709   -1.000
 5687.00    1.30686   1.27780   -1.000
 5688.00    1.30836   1.27688   -1.000
 5689.00    1.30901   1.27667   -1.000
 5690.00    1.31366   1.27905   -1.000
 5691.00    1.31896   1.28342   -1.000
 5692.00    1.32307   1.28743   -1.000
 5693.00    1.32461   1.28989   -1.000
 5694.00    1.32319   1.29110   -1.000
 5695.00    1.32449   1.29170   -1.000
 5696.00    1.32001   1.29191   -1.000
 5697.00    1.31343   1.29114   -1.000
 5698.00    1.31897   1.28841   -1.000
 5699.00    1.31019   1.28409   -1.000
 5700.00    1.31213   1.27994   -1.000
 5701.00    1.30199   1.27789   -1.000
 5702.00    1.29875   1.27923  141.188
 5703.00    1.30580   1.28264   -1.000
 5704.00    1.30417   1.28472  142.202
 5705.00    1.30323   1.28380   -1.000
 5706.00    1.30422   1.27983   -1.000
 5707.00    1.29753   1.27292   -1.000
 5708.00    1.28657   1.26466   -1.000
 5709.00    1.28067   1.25813   -1.000
 5710.00    1.27555   1.25655   -1.000
 5711.00    1.28250   1.26141   -1.000
 5712.00    1.29597   1.27020   -1.000
 5713.00    1.30546   1.27822   -1.000
 5714.00    1.32016   1.28300   -1.000
 5715.00    1.31988   1.28561   -1.000
 5716.00    1.31799   1.28801   -1.000
 5717.00    1.31867   1.29015   -1.000
 5718.00    1.31941   1.29183   -1.000
 5719.00    1.32021   1.29358   -1.000
 5720.00    1.32600   1.29505   -1.000
 5721.00    1.32677   1.29553   -1.000
 5722.00    1.32759   1.29554   -1.000
 5723.00    1.32659   1.29582   -1.000
 5724.00    1.32812   1.29559   -1.000
 5725.00    1.32646   1.29344   -1.000
 5726.00    1.32458   1.28985   -1.000
 5727.00    1.32129   1.28724   -1.000
 5728.00    1.31604   1.28665   -1.000
 5729.00    1.32282   1.28748   -1.000
 5730.00    1.32495   1.28906   -1.000
 5731.00    1.32231   1.29052   -1.000
 5732.00    1.32414   1.29166   -1.000
 5733.00    1.32308   1.29368   -1.000
 5734.00    1.32552   1.29594   -1.000
 5735.00    1.33112   1.29662   -1.000
 5736.00    1.33298   1.29678   -1.000
 5737.00    1.32666   1.29712   -1.000
 5738.00    1.31987   1.29709   -1.000
 5739.00    1.32657   1.29713   -1.000
 5740.00    1.32992   1.29742   -1.000
 5741.00    1.32230   1.29716   -1.000
 5742.00    1.32129   1.29644   -1.000
 5743.00    1.31880   1.29643   -1.000
 5744.00    1.31655   1.29710  135.160
 5745.00    1.31893   1.29719  136.132
 5746.00    1.32320   1.29613   -1.000
 5747.00    1.32069   1.29496   -1.000
 5748.00    1.32036   1.29537   -1.000
 5749.00    1.32157   1.29674   -1.000
 5750.00    1.32723   1.29660   -1.000
 5751.00    1.31848   1.29392   -1.000
 5752.00    1.31807   1.28952   -1.000
 5753.00    1.31626   1.28640   -1.000
 5754.00    1.31027   1.28747   -1.000
 5755.00    1.31811   1.29199   -1.000
 5756.00    1.32590   1.29710   -1.000
 5757.00    1.33235   1.30144   -1.000
 5758.00    1.33000   1.30394   -1.000
 5759.00    1.32965   1.30322   -1.000
 5760.00    1.33151   1.29968   -1.000
 5761.00    1.31744   1.29511   -1.000
 5762.00    1.31600   1.29245   -1.000
 5763.00    1.31311   1.29452  136.643
 5764.00    1.31654   1.30011  135.157
 5765.00    1.32232   1.30428  134.906
 5766.00    1.32261   1.30524  134.782
 5767.00    1.32152   1.30449  134.561
 5768.00    1.32513   1.30353  134.920
 5769.00    1.32778   1.30285   -1.000
 5770.00    1.32695   1.30215   -1.000
 5771.00    1.32538   1.30147   -1.000
 5772.00    1.32156   1.30059  137.288
 5773.00    1.32340   1.29879   -1.000
 5774.00    1.31943   1.29593   -1.000
 5775.00    1.31381   1.29384  136.339
 5776.00    1.31635   1.29355   -1.000
 5777.00    1.30834   1.29281  136.899
 5778.00    1.29057   1.29046  139.166
 5779.00    1.27714   1.28754  142.388
 5780.00    1.28106   1.28489  143.926
 5781.00    1.29484   1.28301  143.396
 5782.00    1.30446   1.28259   -1.000
 5783.00    1.31632   1.28367   -1.000
 5784.00    1.32144   1.28551   -1.000
 5785.00    1.31884   1.28725   -1.000
 5786.00    1.32030   1.28840   -1.000
 5787.00    1.32427   1.28925   -1.000
 5788.00    1.32875   1.29055   -1.000
 5789.00    1.32756   1.29200   -1.000
 5790.00    1.32491   1.29249   -1.000
 5791.00    1.31961   1.29275   -1.000
 5792.00    1.32330   1.29440   -1.000
 5793.00    1.32507   1.29748   -1.000
 5794.00    1.31990   1.30082  134.994
 5795.00    1.31865   1.30255  135.916
 5796.00    1.32599   1.30156   -1.000
 5797.00    1.32586   1.29967   -1.000
 5798.00    1.32934   1.29967   -1.000
 5799.00    1.33858   1.30160   -1.000
 5800.00    1.34101   1.30350   -1.000
 5801.00    1.34627   1.30471   -1.000
 5802.00    1.34084   1.30511   -1.000
 5803.00    1.33801   1.30431   -1.000
 5804.00    1.33310   1.30357   -1.000
 5805.00    1.32942   1.30401   -1.000
 5806.00    1.33463   1.30559   -1.000
 5807.00    1.33616   1.30757   -1.000
 5808.00    1.34003   1.30858   -1.000
 5809.00    1.33920   1.30867   -1.000
 5810.00    1.34589   1.30909   -1.000
 5811.00    1.34542   1.31014   -1.000
 5812.00    1.34756   1.31082   -1.000
 5813.00    1.34636   1.30999   -1.000
 5814.00    1.34719   1.30795   -1.000
 5815.00    1.34425   1.30629   -1.000
 5816.00    1.34495   1.30654   -1.000
 5817.00    1.34261   1.30851   -1.000
 5818.00    1.34708   1.31042   -1.000
 5819.00    1.34527   1.31132   -1.000
 5820.00    1.34845   1.31177   -1.000
 5821.00    1.35217   1.31267   -1.000
 5822.00    1.35192   1.31377   -1.000
 5823.00    1.35303   1.31417   -1.000
 5824.00    1.35242   1.31375   -1.000
 5825.00    1.35143   1.31349   -1.000
 5826.00    1.35443   1.31411   -1.000
 5827.00    1.35292   1.31525   -1.000
 5828.00    1.35090   1.31674   -1.000
 5829.00    1.35170   1.31755   -1.000
 5830.00    1.35141   1.31696   -1.000
 5831.00    1.35447   1.31594   -1.000
 5832.00    1.35678   1.31478   -1.000
 5833.00    1.35316   1.31346   -1.000
 5834.00    1.35254   1.31260   -1.000
 5835.00    1.35582   1.31275   -1.000
 5836.00    1.35452   1.31383   -1.000
 5837.00    1.35198   1.31554   -1.000
 5838.00    1.35284   1.31776   -1.000
 5839.00    1.35516   1.31947   -1.000
 5840.00    1.35199   1.31960   -1.000
 5841.00    1.34825   1.31819   -1.000
 5842.00    1.35058   1.31578   -1.000
 5843.00    1.34394   1.31304   -1.000
 5844.00    1.34761   1.31089   -1.000
 5845.00    1.34880   1.30972   -1.000
 5846.00    1.34517   1.30936   -1.000
 5847.00    1.35325   1.30956   -1.000
 5848.00    1.34779   1.30970   -1.000
 5849.00    1.34614   1.30886   -1.000
 5850.00    1.34774   1.30649   -1.000
 5851.00    1.34544   1.30187   -1.000
 5852.00    1.33888   1.29574   -1.000
 5853.00    1.33069   1.29158   -1.000
 5854.00    1.32753   1.29064   -1.000
 5855.00    1.33581   1.28902   -1.000
 5856.00    1.33087   1.28410   -1.000
 5857.00    1.32755   1.27962   -1.000
 5858.00    1.32769   1.28042   -1.000
 5859.00    1.33242   1.28621   -1.000
 5860.00    1.33861   1.29272   -1.000
 5861.00    1.34821   1.29725   -1.000
 5862.00    1.34468   1.30033   -1.000
 5863.00    1.34379   1.30224   -1.000
 5864.00    1.35185   1.30210   -1.000
 5865.00    1.35118   1.29968   -1.000
 5866.00    1.34621   1.29735   -1.000
 5867.00    1.34163   1.29790   -1.000
 5868.00    1.34979   1.30092   -1.000
 5869.00    1.35067   1.30429   -1.000
 5870.00    1.35024   1.30655   -1.000
 5871.00    1.35544   1.30685   -1.000
 5872.00    1.35717   1.30550   -1.000
 5873.00    1.35269   1.30330   -1.000
 5874.00    1.34753   1.30053   -1.000
 5875.00    1.34770   1.29811   -1.000
 5876.00    1.34732   1.29737   -1.000
 5877.00    1.34470   1.29696   -1.000
 5878.00    1.34536   1.29502   -1.000
 5879.00    1.33887   1.29249   -1.000
 5880.00    1.33467   1.29066   -1.000
 5881.00    1.33267   1.28885   -1.000
 5882.00    1.33087   1.28586   -1.000
 5883.00    1.32706   1.28185   -1.000
 5884.00    1.31186   1.27767   -1.000
 5885.00    1.27955   1.27304  140.918
 5886.00    1.20925   1.26340   -1.000
 5887.00    1.09644   1.24057   -1.000
 5888.00    0.99635   1.20494   -1.000
 5889.00    0.98802   1.17650   -1.000
 5890.00    1.07468   1.17497   -1.000
 5891.00    1.16784   1.19616   -1.000
 5892.00    1.18351   1.21825   -1.000
 5893.00    1.12278   1.22255   -1.000
 5894.00    1.06325   1.20863   -1.000
 5895.00    1.06536   1.19279   -1.000
 5896.00    1.13867   1.19437   -1.000
 5897.00    1.22962   1.21305   -1.000
 5898.00    1.27673   1.23420   -1.000
 5899.00    1.30074   1.25054   -1.000
 5900.00    1.31401   1.26223   -1.000
 5901.00    1.32239   1.27088   -1.000
 5902.00    1.33266   1.27717   -1.000
 5903.00    1.33740   1.28141   -1.000
 5904.00    1.33848   1.28410   -1.000
 5905.00    1.33664   1.28610   -1.000
 5906.00    1.33098   1.28741   -1.000
 5907.00    1.33179   1.28796   -1.000
 5908.00    1.33257   1.28872   -1.000
 5909.00    1.33037   1.28970   -1.000
 5910.00    1.33199   1.28976   -1.000
 5911.00    1.33063   1.28823   -1.000
 5912.00    1.32991   1.28487   -1.000
 5913.00    1.32143   1.28014   -1.000
 5914.00    1.32407   1.27596   -1.000
 5915.00    1.31703   1.27419   -1.000
 5916.00    1.31309   1.27463   -1.000
 5917.00    1.31493   1.27643   -1.000
 5918.00    1.31924   1.27912   -1.000
 5919.00    1.32379   1.28152   -1.000
 5920.00    1.32390   1.28309   -1.000
 5921.00    1.32081   1.28432   -1.000
 5922.00    1.32047   1.28519   -1.000
 5923.00    1.32066   1.28621   -1.000
 5924.00    1.33089   1.28838   -1.000
 5925.00    1.34227   1.29095   -1.000
 5926.00    1.34468   1.29277   -1.000
 5927.00    1.34146   1.29287   -1.000
 5928.00    1.33646   1.29052   -1.000
 5929.00    1.32784   1.28768   -1.000
 5930.00    1.32801   1.28732   -1.000
 5931.00    1.32976   1.28896   -1.000
 5932.00    1.33555   1.29050   -1.000
 5933.00    1.33579   1.29080   -1.000
 5934.00    1.33114   1.28974   -1.000
 5935.00    1.33325   1.28897   -1.000
 5936.00    1.33203   1.28979   -1.000
 5937.00    1.33828   1.29089   -1.000
 5938.00    1.33265   1.28979   -1.000
 5939.00    1.32129   1.28652   -1.000
 5940.00    1.31485   1.28362   -1.000
 5941.00    1.31361   1.28221   -1.000
 5942.00    1.31701   1.28156   -1.000
 5943.00    1.31910   1.28226   -1.000
 5944.00    1.31664   1.28437   -1.000
 5945.00    1.31957   1.28591   -1.000
 5946.00    1.32474   1.28546   -1.000
 5947.00    1.31752   1.28385   -1.000
 5948.00    1.31402   1.28394   -1.000
 5949.00    1.32044   1.28677   -1.000
 5950.00    1.32525   1.28937   -1.000
 5951.00    1.33064   1.29034   -1.000
 5952.00    1.33539   1.29084   -1.000
 5953.00    1.33246   1.29086   -1.000
 5954.00    1.32735   1.28946   -1.000
 5955.00    1.32591   1.28696   -1.000
 5956.00    1.32230   1.28537   -1.000
 5957.00    1.32013   1.28611   -1.000
 5958.00    1.32430   1.28897   -1.000
 5959.00    1.33388   1.29236   -1.000
 5960.00    1.33645   1.29508   -1.000
 5961.00    1.33940   1.29700   -1.000
 5962.00    1.33926   1.29764   -1.000
 5963.00    1.33328   1.29660   -1.000
 5964.00    1.32640   1.29432   -1.000
 5965.00    1.32491   1.29184   -1.000
 5966.00    1.31587   1.29052   -1.000
 5967.00    1.31677   1.29069   -1.000
 5968.00    1.32646   1.29171   -1.000
 5969.00    1.32698   1.29326   -1.000
 5970.00    1.33433   1.29492   -1.000
 5971.00    1.33396   1.29591   -1.000
 5972.00    1.33399   1.29594   -1.000
 5973.00    1.33455   1.29572   -1.000
 5974.00    1.32941   1.29485   -1.000
 5975.00    1.31873   1.29255   -1.000
 5976.00    1.31861   1.29026   -1.000
 5977.00    1.32364   1.28951   -1.000
 5978.00    1.32323   1.29092   -1.000
 5979.00    1.32875   1.29372   -1.000
 5980.00    1.33957   1.29575   -1.000
 5981.00    1.33634   1.29562   -1.000
 5982.00    1.33100   1.29334   -1.000
 5983.00    1.32433   1.29042   -1.000
 5984.00    1.32054   1.28888   -1.000
 5985.00    1.31860   1.28943   -1.000
 5986.00    1.32384   1.29097   -1.000
 5987.00    1.32680   1.29268   -1.000
 5988.00    1.32791   1.29401   -1.000
 5989.00    1.33010   1.29401   -1.000
 5990.00    1.32791   1.29305   -1.000
 5991.00    1.32863   1.29324   -1.000
 5992.00    1.32657   1.29588   -1.000
 5993.00    1.33107   1.29972   -1.000
 5994.00    1.33375   1.30228   -1.000
 5995.00    1.33288   1.30228   -1.000
 5996.00    1.33218   1.30079   -1.000
 5997.00    1.33382   1.29960   -1.000
 5998.00    1.33143   1.29973   -1.000
 5999.00    1.33008   1.30021   -1.000
 6000.00    1.33384   1.29944   -1.000
 6001.00    1.33144   1.29773   -1.000
 6002.00    1.33217   1.29615   -1.000
 6003.00    1.32916   1.29529   -1.000
 6004.00    1.32171   1.29457   -1.000
 6005.00    1.32250   1.29270   -1.000
 6006.00    1.32369   1.28980   -1.000
 6007.00    1.31590   1.28755   -1.000
 6008.00    1.31089   1.28807   -1.000
 6009.00    1.31712   1.29151   -1.000
 6010.00    1.32134   1.29490   -1.000
 6011.00    1.32551   1.29611   -1.000
 6012.00    1.32961   1.29611   -1.000
 6013.00    1.32517   1.29663   -1.000
 6014.00    1.32864   1.29793   -1.000
 6015.00    1.33303   1.29835   -1.000
 6016.00    1.33271   1.29747   -1.000
 6017.00    1.33286   1.29610   -1.000
 6018.00    1.32703   1.29413   -1.000
 6019.00    1.32643   1.29219   -1.000
 6020.00    1.32137   1.29113   -1.000
 6021.00    1.31966   1.29051   -1.000
 6022.00    1.32260   1.28999   -1.000
 6023.00    1.32295   1.29066   -1.000
 6024.00    1.32259   1.29324   -1.000
 6025.00    1.32881   1.29646   -1.000
 6026.00    1.32487   1.29881   -1.000
 6027.00    1.32930   1.30030   -1.000
 6028.00    1.33931   1.30124   -1.000
 6029.00    1.33802   1.30168   -1.000
 6030.00    1.33474   1.30226   -1.000
 6031.00    1.33662   1.30303   -1.000
 6032.00    1.33801   1.30342   -1.000
 6033.00    1.33310   1.30402   -1.000
 6034.00    1.33416   1.30566   -1.000
 6035.00    1.33308   1.30727   -1.000
 6036.00    1.33414   1.30667   -1.000
 6037.00    1.33760   1.30382   -1.000
 6038.00    1.33029   1.30036   -1.000
 6039.00    1.32749   1.29744   -1.000
 6040.00    1.32798   1.29581   -1.000
 6041.00    1.32716   1.29325   -1.000
 6042.00    1.32849   1.28817   -1.000
 6043.00    1.32878   1.28746   -1.000
 6044.00    1.33276   1.29462   -1.000
 6045.00    1.33111   1.30236   -1.000
 6046.00    1.33392   1.30578   -1.000
 6047.00    1.33600   1.30638   -1.000
 6048.00    1.33446   1.30566   -1.000
 6049.00    1.33274   1.30397   -1.000
 6050.00    1.33882   1.30246   -1.000
 6051.00    1.33670   1.30169   -1.000
 6052.00    1.33082   1.30174   -1.000
 6053.00    1.33118   1.30180   -1.000
 6054.00    1.33721   1.30090   -1.000
 6055.00    1.33364   1.29964   -1.000
 6056.00    1.33146   1.29890   -1.000
 6057.00    1.33247   1.29843   -1.000
 6058.00    1.33730   1.29805   -1.000
 6059.00    1.33625   1.29846   -1.000
 6060.00    1.33615   1.29911   -1.000
 6061.00    1.32995   1.29823   -1.000
 6062.00    1.29971   1.29430  142.913
 6063.00    1.29982   1.28794  143.502
 6064.00    1.29816   1.28252  163.916
 6065.00    1.06039   1.28154   -1.000
 6066.00    0.64239   1.28595   -1.000
 6067.00    1.04818   1.29285   -1.000
 6068.00    1.34828   1.29820   -1.000
 6069.00    1.32360   1.30104   -1.000
 6070.00    1.33368   1.30259   -1.000
 6071.00    1.31846   1.30371  136.306
 6072.00    1.32530   1.30492  136.775
 6073.00    1.33096   1.30563   -1.000
 6074.00    1.32736   1.30497   -1.000
 6075.00    1.32969   1.30301   -1.000
 6076.00    1.32631   1.30073   -1.000
 6077.00    1.32422   1.29936   -1.000
 6078.00    1.33078   1.29911   -1.000
 6079.00    1.32797   1.29921   -1.000
 6080.00    1.31772   1.29884  141.011
 6081.00    1.32084   1.29758   -1.000
 6082.00    1.32475   1.29595   -1.000
 6083.00    1.31834   1.29518   -1.000
 6084.00    1.31747   1.29566   -1.000
 6085.00    1.31737   1.29674   -1.000
 6086.00    1.31986   1.29813   -1.000
 6087.00    1.32618   1.29982   -1.000
 6088.00    1.32484   1.30099   -1.000
 6089.00    1.32207   1.30061   -1.000
 6090.00    1.31800   1.29872  141.640
 6091.00    1.31801   1.29712   -1.000
 6092.00    1.32210   1.29741   -1.000
 6093.00    1.32573   1.29918   -1.000
 6094.00    1.32357   1.30142   -1.000
 6095.00    1.32044   1.30361  138.862
 6096.00    1.32715   1.30579   -1.000
 6097.00    1.32792   1.30751  139.248
 6098.00    1.31895   1.30706  139.448
 6099.00    1.31597   1.30314  141.555
 6100.00    1.31336   1.29542  145.115
 6101.00    1.30431   1.28538   -1.000
 6102.00    1.29196   1.27833  145.150
 6103.00    1.29075   1.27869  142.274
 6104.00    1.29970   1.28515  140.427
 6105.00    1.30908   1.29279  140.265
 6106.00    1.31493   1.29844  140.886
 6107.00    1.31014   1.30250  141.143
 6108.00    1.30999   1.30557  141.007
 6109.00    1.31377   1.30714  140.636
 6110.00    1.32232   1.30679  140.048
 6111.00    1.31831   1.30511  140.019
 6112.00    1.31504   1.30362  139.212
 6113.00    1.31339   1.30324  139.053
 6114.00    1.31643   1.30368  139.745
 6115.00    1.32061   1.30448  140.622
 6116.00    1.31254   1.30521  140.773
 6117.00    1.31233   1.30415  141.703
 6118.00    1.30865   1.29792  143.912
 6119.00    1.30261   1.28755  145.665
 6120.00    1.29586   1.27667   -1.000
 6121.00    1.28651   1.26787  146.487
 6122.00    1.27853   1.26758  143.870
 6123.00    1.28825   1.27730  142.346
 6124.00    1.30225   1.28883  142.627
 6125.00    1.30590   1.29635  143.422
 6126.00    1.30649   1.29932  143.076
 6127.00    1.30178   1.29840  142.661
 6128.00    1.30583   1.29677  141.357
 6129.00    1.30766   1.29864  140.143
 6130.00    1.30871   1.30335  140.058
 6131.00    1.31413   1.30711  140.513
 6132.00    1.31375   1.30802  142.210
 6133.00    1.30681   1.30420  145.794
 6134.00    1.29083   1.29290  150.154
 6135.00    1.27827   1.27541  153.408
 6136.00    1.25632   1.26123  152.882
 6137.00    1.25413   1.25924  148.498
 6138.00    1.25684   1.26673  144.619
 6139.00    1.26880   1.27291  143.573
 6140.00    1.28292   1.27245  144.018
 6141.00    1.27688   1.27209  144.007
 6142.00    1.28009   1.27799  142.299
 6143.00    1.29159   1.28726  140.776
 6144.00    1.29809   1.29414  140.868
 6145.00    1.30416   1.29626  141.636
 6146.00    1.30392   1.29502  142.576
 6147.00    1.30209   1.29244  143.598
 6148.00    1.30103   1.29008  144.301
 6149.00    1.30407   1.28945  144.137
 6150.00    1.30463   1.29086  143.487
 6151.00    1.30212   1.29325  142.534
 6152.00    1.30296   1.29545  142.657
 6153.00    1.30420   1.29623  143.980
 6154.00    1.30465   1.29497  144.546
 6155.00    1.30320   1.29273  144.643
 6156.00    1.30101   1.29059  145.446
 6157.00    1.29785   1.28890  147.270
 6158.00    1.29197   1.28641  150.452
 6159.00    1.28542   1.27902  155.218
 6160.00    1.27372   1.26457  159.273
 6161.00    1.25828   1.24963  159.890
 6162.00    1.24384   1.24420  156.793
 6163.00    1.24850   1.24996  152.508
 6164.00    1.26487   1.25996  150.676
 6165.00    1.27669   1.26733  150.345
 6166.00    1.27936   1.27041  151.060
 6167.00    1.27590   1.27019  153.178
 6168.00    1.26982   1.26763  154.275
 6169.00    1.26249   1.26552  152.543
 6170.00    1.26202   1.26732  149.492
 6171.00    1.27048   1.27282  147.844
 6172.00    1.28093   1.27865  148.262
 6173.00    1.28383   1.28328  148.266
 6174.00    1.28187   1.28741  147.853
 6175.00    1.28317   1.29054  147.577
 6176.00    1.28533   1.29172  147.111
 6177.00    1.28618   1.29170  146.365
 6178.00    1.28586   1.29107  145.879
 6179.00    1.28468   1.29030  145.387
 6180.00    1.28645   1.29059  144.720
 6181.00    1.28562   1.29191  144.492
 6182.00    1.28836   1.29300  144.898
 6183.00    1.29482   1.29371  145.515
 6184.00    1.29067   1.29441  146.831
 6185.00    1.28868   1.29420  148.478
 6186.00    1.28753   1.29234  149.974
 6187.00    1.28634   1.28896  151.340
 6188.00    1.28159   1.28292  152.510
 6189.00    1.26971   1.27374  154.517
 6190.00    1.26396   1.26523  154.947
 6191.00    1.25620   1.26336  152.564
 6192.00    1.25909   1.26991  148.706
 6193.00    1.27187   1.28024  146.716
 6194.00    1.28473   1.28840  146.082
 6195.00    1.28869   1.29270  146.098
 6196.00    1.28832   1.29428  147.318
 6197.00    1.28845   1.29326  149.051
 6198.00    1.28197   1.28984  149.981
 6199.00    1.27391   1.28731  149.464
 6200.00    1.27012   1.28860  147.725
 6201.00    1.27315   1.29254  146.047
 6202.00    1.27637   1.29654  145.911
 6203.00    1.28391   1.29913  145.911
 6204.00    1.28995   1.30030  145.654
 6205.00    1.29264   1.30081  145.775
 6206.00    1.29445   1.30115  146.337
 6207.00    1.29719   1.30125  146.317
 6208.00    1.29559   1.30084  147.181
 6209.00    1.29467   1.29963  148.592
 6210.00    1.28838   1.29750  149.747
 6211.00    1.28494   1.29387  151.389
 6212.00    1.28051   1.28872  153.708
 6213.00    1.27607   1.28408  154.951
 6214.00    1.27336   1.28202  154.858
 6215.00    1.27726   1.28203  152.683
 6216.00    1.27998   1.28168  152.467
 6217.00    1.28082   1.27951  153.617
 6218.00    1.27123   1.27668  152.667
 6219.00    1.26820   1.27564  151.806
 6220.00    1.27013   1.27771  154.498
 6221.00    1.28560   1.28174  165.142
 6222.00    1.23039   1.28491   -1.000
 6223.00    1.08163   1.28618   -1.000
 6224.00    1.26296   1.28698   -1.000
 6225.00    1.29491   1.28782  151.240
 6226.00    1.28641   1.28736  152.400
 6227.00    1.27998   1.28358  154.707
 6228.00    1.27810   1.27552  157.236
 6229.00    1.26913   1.26579  158.753
 6230.00    1.26260   1.25956  157.477
 6231.00    1.25487   1.26056  154.937
 6232.00    1.26243   1.26790  151.989
 6233.00    1.27240   1.27694  149.849
 6234.00    1.28150   1.28333  149.639
 6235.00    1.28785   1.28507  150.921
 6236.00    1.28723   1.28295  152.494
 6237.00    1.28099   1.27925  154.048
 6238.00    1.27835   1.27609  155.558
 6239.00    1.27941   1.27488  155.954
 6240.00    1.27468   1.27531  156.002
 6241.00    1.27283   1.27536  157.312
 6242.00    1.26976   1.27302  158.131
 6243.00    1.27000   1.26819  157.746
 6244.00    1.25887   1.26251  156.555
 6245.00    1.25910   1.25909  154.874
 6246.00    1.26426   1.26090  152.902
 6247.00    1.26301   1.26747  151.580
 6248.00    1.27219   1.27480  151.842
 6249.00    1.27858   1.27844  153.646
 6250.00    1.27622   1.27585  156.524
 6251.00    1.26170   1.26858  158.166
 6252.00    1.25050   1.26166  159.062
 6253.00    1.24758   1.25866  159.356
 6254.00    1.24750   1.25950  159.463
 6255.00    1.24856   1.26181  161.124
 6256.00    1.25204   1.26360  162.200
 6257.00    1.25021   1.26515  160.969
 6258.00    1.25538   1.26802  158.357
 6259.00    1.26159   1.27232  156.043
 6260.00    1.26382   1.27630  153.905
 6261.00    1.26935   1.27927  151.720
 6262.00    1.27179   1.28152  151.474
 6263.00    1.27019   1.28253  152.871
 6264.00    1.26870   1.28239  153.567
 6265.00    1.26611   1.28278  152.607
 6266.00    1.26373   1.28461  151.721
 6267.00    1.26459   1.28573  152.507
 6268.00    1.27030   1.28433  153.129
 6269.00    1.27157   1.28145  152.756
 6270.00    1.27485   1.27890  152.230
 6271.00    1.27337   1.27708  152.013
 6272.00    1.27218   1.27434  152.615
 6273.00    1.26015   1.26863  153.822
 6274.00    1.24590   1.25931  155.257
 6275.00    1.22533   1.24842   -1.000
 6276.00    1.20625   1.23899   -1.000
 6277.00    1.19688   1.23343   -1.000
 6278.00    1.19222   1.23227   -1.000
 6279.00    1.19754   1.23446   -1.000
 6280.00    1.20014   1.23970   -1.000
 6281.00    1.19906   1.24790   -1.000
 6282.00    1.20392   1.25763   -1.000
 6283.00    1.21775   1.26666   -1.000
 6284.00    1.23725   1.27310   -1.000
 6285.00    1.24722   1.27654   -1.000
 6286.00    1.25124   1.27810   -1.000
 6287.00    1.25573   1.27806   -1.000
 6288.00    1.25982   1.27582  151.878
 6289.00    1.25665   1.27243  153.190
 6290.00    1.25284   1.26998  154.173
 6291.00    1.25495   1.26925  154.355
 6292.00    1.25764   1.26927  154.536
 6293.00    1.25890   1.26852  154.970
 6294.00    1.26228   1.26622  156.258
 6295.00    1.26900   1.26266  157.125
 6296.00    1.28139   1.25916   -1.000
 6297.00    1.29223   1.25702   -1.000
 6298.00    1.31726   1.25676   -1.000
 6299.00    1.35657   1.25697   -1.000
 6300.00    1.36337   1.25642   -1.000
 6301.00    1.33706   1.25726   -1.000
 6302.00    1.29858   1.26140   -1.000
 6303.00    1.27248   1.26739  154.360
 6304.00    1.26919   1.27214  152.634
 6305.00    1.26921   1.27425  151.371
 6306.00    1.26835   1.27515  150.155
 6307.00    1.26564   1.27621  150.189
 6308.00    1.26286   1.27769  150.996
 6309.00    1.26614   1.27942  151.986
 6310.00    1.26602   1.28026  152.521
 6311.00    1.26357   1.27944  153.084
 6312.00    1.26292   1.27742  153.372
 6313.00    1.25912   1.27503  154.812
 6314.00    1.25298   1.27303  155.139
 6315.00    1.24726   1.27153   -1.000
 6316.00    1.24810   1.26966  154.881
 6317.00    1.24680   1.26790  155.012
 6318.00    1.25123   1.26907  154.136
 6319.00    1.25334   1.27352  152.193
 6320.00    1.25560   1.27808  150.907
 6321.00    1.26254   1.28113  150.431
 6322.00    1.26362   1.28379  149.872
 6323.00    1.26186   1.28697   -1.000
 6324.00    1.26957   1.28958  148.717
 6325.00    1.27612   1.29028  148.565
 6326.00    1.27643   1.28958  147.882
 6327.00    1.27555   1.28851  148.127
 6328.00    1.27961   1.28751  148.213
 6329.00    1.28193   1.28729  148.213
 6330.00    1.27732   1.28813  147.649
 6331.00    1.26872   1.28880  147.552
 6332.00    1.26736   1.28726  148.014
 6333.00    1.26416   1.28236  148.874
 6334.00    1.27345   1.27528  152.200
 6335.00    1.27400   1.27057  151.893
 6336.00    1.24255   1.27170   -1.000
 6337.00    1.25242   1.27689   -1.000
 6338.00    1.26351   1.28235  147.371
 6339.00    1.26939   1.28597  146.750
 6340.00    1.27294   1.28783  146.154
 6341.00    1.27463   1.28857  146.557
 6342.00    1.27357   1.28807  147.825
 6343.00    1.26687   1.28620  147.799
 6344.00    1.26748   1.28370  147.276
 6345.00    1.26901   1.28163  146.402
 6346.00    1.26713   1.28136  145.430
 6347.00    1.26938   1.28373  145.027
 6348.00    1.27629   1.28821  145.055
 6349.00    1.27320   1.29287  144.769
 6350.00    1.26889   1.29557   -1.000
 6351.00    1.26956   1.29553   -1.000
 6352.00    1.27086   1.29347   -1.000
 6353.00    1.26836   1.29091   -1.000
 6354.00    1.26408   1.28920   -1.000
 6355.00    1.26552   1.28843   -1.000
 6356.00    1.26245   1.28780   -1.000
 6357.00    1.25943   1.28656   -1.000
 6358.00    1.25813   1.28514   -1.000
 6359.00    1.26402   1.28452  151.290
 6360.00    1.26870   1.28412  150.886
 6361.00    1.28044   1.28299  150.713
 6362.00    1.28912   1.28204  150.068
 6363.00    1.29449   1.28298  149.039
 6364.00    1.28906   1.28537  148.121
 6365.00    1.28327   1.28734  147.315
 6366.00    1.27220   1.28837  146.351
 6367.00    1.26645   1.28847  145.473
 6368.00    1.26632   1.28701  145.238
 6369.00    1.26405   1.28427  145.283
 6370.00    1.26053   1.28177   -1.000
 6371.00    1.25992   1.28116   -1.000
 6372.00    1.26367   1.28323  144.731
 6373.00    1.26231   1.28648   -1.000
 6374.00    1.26014   1.28826   -1.000
 6375.00    1.25296   1.28805   -1.000
 6376.00    1.25206   1.28707   -1.000
 6377.00    1.24936   1.28624   -1.000
 6378.00    1.24671   1.28531   -1.000
 6379.00    1.24158   1.28380   -1.000
 6380.00    1.24191   1.28217   -1.000
 6381.00    1.24355   1.28126   -1.000
 6382.00    1.23605   1.28142   -1.000
 6383.00    1.24110   1.28243   -1.000
 6384.00    1.23759   1.28370   -1.000
 6385.00    1.23173   1.28505   -1.000
 6386.00    1.22650   1.28653   -1.000
 6387.00    1.22563   1.28739   -1.000
 6388.00    1.22455   1.28707   -1.000
 6389.00    1.21836   1.28535   -1.000
 6390.00    1.20712   1.28138   -1.000
 6391.00    1.19311   1.27510   -1.000
 6392.00    1.18521   1.26937   -1.000
 6393.00    1.18467   1.26837   -1.000
 6394.00    1.18400   1.27279   -1.000
 6395.00    1.17777   1.27867   -1.000
 6396.00    1.17993   1.28133   -1.000
 6397.00    1.17529   1.27851   -1.000
 6398.00    1.16433   1.27225   -1.000
 6399.00    1.14941   1.26775   -1.000
 6400.00    1.14091   1.26919   -1.000
 6401.00    1.14175   1.27568   -1.000
 6402.00    1.15283   1.28291   -1.000
 6403.00    1.15495   1.28746   -1.000
 6404.00    1.15165   1.28808   -1.000
 6405.00    1.14369   1.28498   -1.000
 6406.00    1.13405   1.27932   -1.000
 6407.00    1.12294   1.27315   -1.000
 6408.00    1.12000   1.27051   -1.000
 6409.00    1.10775   1.27329   -1.000
 6410.00    1.09540   1.27683   -1.000
 6411.00    1.09282   1.27817   -1.000
 6412.00    1.09020   1.27917   -1.000
 6413.00    1.08446   1.28046   -1.000
 6414.00    1.07625   1.28120   -1.000
 6415.00    1.07410   1.28198   -1.000
 6416.00    1.06786   1.28329   -1.000
 6417.00    1.06224   1.28337   -1.000
 6418.00    1.04829   1.28056   -1.000
 6419.00    1.03323   1.27584   -1.000
 6420.00    1.01879   1.27288   -1.000
 6421.00    1.01098   1.27463   -1.000
 6422.00    1.00607   1.28032   -1.000
 6423.00    1.00278   1.28676   -1.000
 6424.00    0.99795   1.29150   -1.000
 6425.00    0.99371   1.29418   -1.000
 6426.00    0.98827   1.29490   -1.000
 6427.00    0.97522   1.29242   -1.000
 6428.00    0.96707   1.28596   -1.000
