###################################################################
## OUTPUT of StarlightChains_v04.for    [Cid@UFSC - 01/Apr/2007] ##
###################################################################

## Some input info
NGC5927_c_1.cxt                          [arq_obs]
Base.BC03.S                              [arq_base]
NGC5927_c_1.msk                          [arq_masks]
StCv04.C11.config                        [arq_config]
  150                                    [N_base]
    0                                    [N_YAV_components = # of components with extra extinction!]
    0                                    [i_FitPowerLaw (1/0 = Yes/No)]
-9.99                                    [alpha_PowerLaw]
CCM                                      [red_law_option]
 1.458241                                [q_norm = A(l_norm)/A(V)]

## (Re)Sampling Parameters
 3359.00                                 [l_ini (A)]
 6428.00                                 [l_fin (A)]
    1.00                                 [dl    (A)]     (OBS: dl_cushion =    50.00 A)

## Normalization info
 4020.00                                 [l_norm (A) - for base]
 4010.00                                 [llow_norm (A) - window for f_obs]
 4060.00                                 [lupp_norm (A) - window for f_obs]
5.954027E-15                             [fobs_norm (in input units)]

## S/N
 4730.00                                 [llow_SN (A) - window for S/N]
 4780.00                                 [lupp_SN (A) - window for S/N]
  31.182                                 [S/N in S/N window]
  18.272                                 [S/N in norm. window]
 384.682                                 [S/N_err in S/N window]
 225.410                                 [S/N_err in norm. window]
  1.0000                                 [fscale_chi2]

## etc...
  2147483631                             [idum_orig]
  3066                                   [NOl_eff]
  1172                                   [Nl_eff]
  1894    NSIGMA                         [Ntot_cliped & clip_method]
  2204300                                [Nglobal_steps]
   7                                     [N_chains]
  32                                     [NEX0s_base = N_base in EX0s-fits]
 0   0   1      166   2.0   5.068E+02    [Clip-Bug, RC-Crash & Burn-In warning-flags, n_censored_weights, wei_nsig_threshold & wei_limit]
    72     71.251     71.243      0.008  [idt_all, wdt_TotTime, wdt_UsrTime & wdt_SysTime (sec)]

## Synthesis Results - Best model ##

 2.44822E+00                             [chi2/Nl_eff]
     1.90673                             [adev (%)]

   100.28707                             [sum-of-x (%)]
 2.73145E-14                             [Flux_tot (units of input spectrum!)]
 1.83968E-09                             [Mini_tot (???)]
 9.19789E-10                             [Mcor_tot (???)]

   6.36                                  [v0_min  (km/s)]
  55.03                                  [vd_min  (km/s)]
 1.1321                                  [AV_min  (mag)]
 0.0000                                  [YAV_min (mag)]

# j     x_j(%)      Mini_j(%)     Mcor_j(%)     age_j(yr)     Z_j      (L/M)_j    YAV?  Mstars   component_j        a/Fe...       SSP_chi2r SSP_adev(%)   SSP_AV   SSP_x(%)
  1      3.1146     5.6510E-03    1.1303E-02    1.000000E+06  0.00010  8.160E-03    0   1.0000   age020_m22            0.0000     3.0555E+03    33.8975   4.0000    92.5871
  2      7.8667     2.4473E-03    4.8948E-03    3.160000E+06  0.00010  4.759E-02    0   1.0000   age045_m22            0.0000     3.5850E+02    12.4399   3.5706   100.3552
  3      6.3083     4.8341E-03    9.2645E-03    5.010000E+06  0.00010  1.932E-02    0   0.9582   age055_m22            0.0000     5.4017E+02    19.6006   4.0000    88.5026
  4      0.2391     3.5496E-04    6.6005E-04    6.610000E+06  0.00010  9.973E-03    0   0.9297   age061_m22            0.0000     3.0018E+03    33.2568   4.0000    95.3678
  5      0.0000     0.0000E+00    0.0000E+00    8.710000E+06  0.00010  7.690E-03    0   0.9030   age067_m22            0.0000     2.9170E+03    32.9071   4.0000    95.8509
  6      0.0000     0.0000E+00    0.0000E+00    1.000000E+07  0.00010  6.375E-03    0   0.8902   age070_m22            0.0000     2.8866E+03    33.0104   4.0000    96.0429
  7      0.0000     0.0000E+00    0.0000E+00    1.445000E+07  0.00010  4.874E-03    0   0.8589   age078_m22            0.0000     2.2292E+03    28.3969   4.0000    99.0306
  8      0.0000     0.0000E+00    0.0000E+00    2.512000E+07  0.00010  4.103E-03    0   0.8174   age090_m22            0.0000     1.1705E+03    18.1917   4.0000   104.0894
  9      0.0000     0.0000E+00    0.0000E+00    4.000000E+07  0.00010  3.654E-03    0   0.7830   age104_m22            0.0000     7.7814E+02    11.8390   4.0000   106.2541
 10      0.0000     0.0000E+00    0.0000E+00    5.500000E+07  0.00010  3.093E-03    0   0.7597   age110_m22            0.0000     7.0111E+02    10.2456   4.0000   106.3651
 11      0.0000     0.0000E+00    0.0000E+00    1.015200E+08  0.00010  2.431E-03    0   0.7138   age116_m22            0.0000     6.6837E+02     9.6912   4.0000   104.7068
 12      0.0000     0.0000E+00    0.0000E+00    1.609000E+08  0.00010  1.319E-03    0   0.6775   age120_m22            0.0000     6.5669E+02     9.9707   3.6135   105.2239
 13      0.0000     0.0000E+00    0.0000E+00    2.861200E+08  0.00010  1.075E-03    0   0.6412   age125_m22            0.0000     1.0937E+03     9.5224   3.5455   109.1068
 14      0.0000     0.0000E+00    0.0000E+00    5.088000E+08  0.00010  7.183E-04    0   0.6083   age130_m22            0.0000     1.2401E+03    10.2079   3.2691   110.7899
 15      0.0000     0.0000E+00    0.0000E+00    9.047900E+08  0.00010  4.524E-04    0   0.5785   age135_m22            0.0000     1.2458E+03    10.3447   3.0613   112.0017
 16      0.0000     0.0000E+00    0.0000E+00    1.278050E+09  0.00010  3.018E-04    0   0.5588   age138_m22            0.0000     7.7996E+02     8.2056   2.5771   109.8030
 17      0.0000     0.0000E+00    0.0000E+00    1.434000E+09  0.00010  2.691E-04    0   0.5532   age139_m22            0.0000     6.9168E+02     7.8653   2.4332   109.0436
 18      0.0000     0.0000E+00    0.0000E+00    2.500000E+09  0.00010  1.582E-04    0   0.5296   age150_m22            0.0000     6.5601E+02     8.1122   2.3651   109.7111
 19      0.0000     0.0000E+00    0.0000E+00    4.250000E+09  0.00010  1.007E-04    0   0.5110   age158_m22            0.0000     4.9319E+02     7.9087   2.2491   107.8538
 20      0.0000     0.0000E+00    0.0000E+00    6.250000E+09  0.00010  6.869E-05    0   0.4985   age166_m22            0.0000     3.6291E+02     8.1394   2.2313   104.8415
 21      0.3902     9.8354E-02    9.7002E-02    7.500000E+09  0.00010  5.873E-05    0   0.4931   age171_m22            0.0000     3.5236E+02     8.5052   2.2373   104.2713
 22      0.0000     0.0000E+00    0.0000E+00    1.000000E+10  0.00010  4.481E-05    0   0.4854   age181_m22            0.0000     3.4403E+02     8.3366   2.1943   103.8894
 23      0.0000     0.0000E+00    0.0000E+00    1.300000E+10  0.00010  3.489E-05    0   0.4791   age193_m22            0.0000     3.2456E+02     8.0843   2.1322   103.2931
 24      0.0000     0.0000E+00    0.0000E+00    1.500000E+10  0.00010  3.035E-05    0   0.4766   age201_m22            0.0000     3.1312E+02     7.9775   2.0916   103.1096
 25      0.0000     0.0000E+00    0.0000E+00    1.800000E+10  0.00010  2.510E-05    0   0.4735   age213_m22            0.0000     2.8816E+02     7.8666   2.0258   102.4482
 26      0.8036     1.4067E-03    2.8135E-03    1.000000E+06  0.00040  8.458E-03    0   1.0000   age020_m32            0.0000     3.0829E+03    34.1817   4.0000    93.2249
 27      0.0000     0.0000E+00    0.0000E+00    3.160000E+06  0.00040  3.973E-02    0   1.0000   age045_m32            0.0000     1.0661E+03    16.0673   4.0000   103.5689
 28      0.0000     0.0000E+00    0.0000E+00    5.010000E+06  0.00040  1.935E-02    0   0.9532   age055_m32            0.0000     1.8101E+03    22.8289   4.0000    98.5512
 29      0.0585     7.1883E-05    1.3289E-04    6.610000E+06  0.00040  1.204E-02    0   0.9243   age061_m32            0.0000     2.5079E+03    29.7487   4.0000    97.5201
 30      0.0000     0.0000E+00    0.0000E+00    8.710000E+06  0.00040  9.433E-03    0   0.9001   age067_m32            0.0000     2.3501E+03    28.8299   4.0000    98.5070
 31      0.0000     0.0000E+00    0.0000E+00    1.000000E+07  0.00040  8.053E-03    0   0.8877   age070_m32            0.0000     2.2388E+03    27.9526   4.0000    98.9210
 32      0.0000     0.0000E+00    0.0000E+00    1.445000E+07  0.00040  7.027E-03    0   0.8578   age078_m32            0.0000     1.1189E+03    15.7703   4.0000   101.9220
 33      0.0000     0.0000E+00    0.0000E+00    2.512000E+07  0.00040  4.707E-03    0   0.8166   age090_m32            0.0000     6.9657E+02    10.3854   4.0000   102.9769
 34      0.0000     0.0000E+00    0.0000E+00    4.000000E+07  0.00040  3.714E-03    0   0.7827   age104_m32            0.0000     5.7110E+02     9.5777   4.0000   103.6662
 35      0.0000     0.0000E+00    0.0000E+00    5.500000E+07  0.00040  2.982E-03    0   0.7593   age110_m32            0.0000     5.7688E+02     9.6910   4.0000   103.7760
 36      0.0000     0.0000E+00    0.0000E+00    1.015200E+08  0.00040  2.188E-03    0   0.7143   age116_m32            0.0000     7.8000E+02     9.9224   3.8241   105.6336
 37      0.0000     0.0000E+00    0.0000E+00    1.609000E+08  0.00040  1.690E-03    0   0.6856   age120_m32            0.0000     9.6666E+02     9.4887   3.5647   108.4126
 38      0.0000     0.0000E+00    0.0000E+00    2.861200E+08  0.00040  1.152E-03    0   0.6509   age125_m32            0.0000     1.1294E+03     9.6199   3.2860   110.0990
 39      0.0000     0.0000E+00    0.0000E+00    5.088000E+08  0.00040  7.331E-04    0   0.6182   age130_m32            0.0000     1.1782E+03    10.0420   3.0864   110.9038
 40      0.0000     0.0000E+00    0.0000E+00    9.047900E+08  0.00040  3.960E-04    0   0.5890   age135_m32            0.0000     7.8121E+02     8.4480   2.6415   109.1654
 41      0.0000     0.0000E+00    0.0000E+00    1.278050E+09  0.00040  2.854E-04    0   0.5687   age138_m32            0.0000     7.0710E+02     8.1499   2.4131   110.8631
 42      0.0000     0.0000E+00    0.0000E+00    1.434000E+09  0.00040  2.531E-04    0   0.5632   age139_m32            0.0000     6.9541E+02     8.0925   2.3547   110.7825
 43      0.0000     0.0000E+00    0.0000E+00    2.500000E+09  0.00040  1.488E-04    0   0.5386   age150_m32            0.0000     5.6109E+02     7.5572   2.1048   108.7687
 44      0.2157     3.5170E-02    3.6572E-02    4.250000E+09  0.00040  9.082E-05    0   0.5199   age158_m32            0.0000     3.4115E+02     7.2244   2.0591   105.0746
 45      1.6293     3.7915E-01    3.8493E-01    6.250000E+09  0.00040  6.362E-05    0   0.5076   age166_m32            0.0000     2.3454E+02     8.0335   2.0797   101.4745
 46      0.1389     3.8873E-02    3.9085E-02    7.500000E+09  0.00040  5.289E-05    0   0.5027   age171_m32            0.0000     2.1180E+02     7.9168   2.0436   100.1255
 47      0.0000     0.0000E+00    0.0000E+00    1.000000E+10  0.00040  3.972E-05    0   0.4948   age181_m32            0.0000     1.9076E+02     7.4952   1.9691    98.6703
 48      0.0000     0.0000E+00    0.0000E+00    1.300000E+10  0.00040  3.283E-05    0   0.4870   age193_m32            0.0000     2.2950E+02     6.8235   1.8914   101.5862
 49      0.0000     0.0000E+00    0.0000E+00    1.500000E+10  0.00040  2.925E-05    0   0.4854   age201_m32            0.0000     2.6265E+02     6.5988   1.8544   103.3049
 50      0.0000     0.0000E+00    0.0000E+00    1.800000E+10  0.00040  2.469E-05    0   0.4819   age213_m32            0.0000     2.7262E+02     6.4009   1.8033   103.8491
 51      0.0039     5.2080E-06    1.0417E-05    1.000000E+06  0.00400  1.114E-02    0   1.0000   age020_m42            0.0000     2.8678E+03    32.5280   4.0000    93.6659
 52      0.0000     0.0000E+00    0.0000E+00    3.160000E+06  0.00400  4.073E-02    0   0.9999   age045_m42            0.0000     6.1047E+02    10.2302   4.0000   103.0441
 53      0.3682     2.1512E-04    4.0822E-04    5.010000E+06  0.00400  2.534E-02    0   0.9488   age055_m42            0.0000     1.3289E+03    18.9339   4.0000   100.3606
 54      1.5926     9.1281E-04    1.6833E-03    6.610000E+06  0.00400  2.583E-02    0   0.9220   age061_m42            0.0000     5.1691E+02     9.2333   4.0000   101.9231
 55      0.3814     3.3099E-04    5.9469E-04    8.710000E+06  0.00400  1.706E-02    0   0.8983   age067_m42            0.0000     4.6924E+02    11.7561   4.0000    98.6767
 56      0.1481     1.7247E-04    3.0570E-04    1.000000E+07  0.00400  1.271E-02    0   0.8862   age070_m42            0.0000     5.1974E+02    12.7475   4.0000    97.5030
 57      0.0000     0.0000E+00    0.0000E+00    1.445000E+07  0.00400  7.666E-03    0   0.8571   age078_m42            0.0000     9.1509E+02    12.2816   4.0000    98.2247
 58      0.0000     0.0000E+00    0.0000E+00    2.512000E+07  0.00400  5.070E-03    0   0.8174   age090_m42            0.0000     4.3158E+02    13.9302   4.0000    97.3052
 59      0.0000     0.0000E+00    0.0000E+00    4.000000E+07  0.00400  3.505E-03    0   0.7851   age104_m42            0.0000     3.5186E+02    13.2616   3.7634    98.1895
 60      0.0000     0.0000E+00    0.0000E+00    5.500000E+07  0.00400  3.059E-03    0   0.7629   age110_m42            0.0000     4.6795E+02     9.4844   3.6854   103.1359
 61      0.0000     0.0000E+00    0.0000E+00    1.015200E+08  0.00400  2.268E-03    0   0.7207   age116_m42            0.0000     8.4257E+02     8.4097   3.4523   109.1678
 62      0.0000     0.0000E+00    0.0000E+00    1.609000E+08  0.00400  1.720E-03    0   0.6930   age120_m42            0.0000     8.9229E+02     8.5198   3.2787   110.9396
 63      0.0000     0.0000E+00    0.0000E+00    2.861200E+08  0.00400  1.079E-03    0   0.6613   age125_m42            0.0000     8.8578E+02     8.2520   2.9128   110.9600
 64      0.0000     0.0000E+00    0.0000E+00    5.088000E+08  0.00400  6.261E-04    0   0.6313   age130_m42            0.0000     9.8279E+02     8.7434   2.7251   113.9610
 65      0.0000     0.0000E+00    0.0000E+00    9.047900E+08  0.00400  3.535E-04    0   0.6024   age135_m42            0.0000     6.7923E+02     7.4456   2.3392   113.9443
 66      0.0000     0.0000E+00    0.0000E+00    1.278050E+09  0.00400  2.677E-04    0   0.5837   age138_m42            0.0000     2.6649E+02     6.1871   1.5741   110.4842
 67      0.0000     0.0000E+00    0.0000E+00    1.434000E+09  0.00400  1.910E-04    0   0.5716   age139_m42            0.0000     3.5950E+02     6.2911   1.7553   111.7116
 68      0.0000     0.0000E+00    0.0000E+00    2.500000E+09  0.00400  9.818E-05    0   0.5463   age150_m42            0.0000     1.3237E+02     4.4321   1.5106   105.9431
 69      0.0000     0.0000E+00    0.0000E+00    4.250000E+09  0.00400  5.491E-05    0   0.5269   age158_m42            0.0000     6.6972E+01     3.4299   1.4118   102.6795
 70      0.0001     5.2553E-05    5.4143E-05    6.250000E+09  0.00400  3.857E-05    0   0.5151   age166_m42            0.0000     4.3585E+01     3.5525   1.2638   101.1517
 71      0.0000     0.0000E+00    0.0000E+00    7.500000E+09  0.00400  3.243E-05    0   0.5110   age171_m42            0.0000     3.6111E+01     3.8493   1.1684   100.4804
 72      0.0000     0.0000E+00    0.0000E+00    1.000000E+10  0.00400  2.424E-05    0   0.5028   age181_m42            0.0000     2.9717E+01     4.2553   1.0716    99.6919
 73      0.0000     0.0000E+00    0.0000E+00    1.300000E+10  0.00400  1.883E-05    0   0.4927   age193_m42            0.0000     2.6577E+01     4.4896   1.0264    99.2363
 74      0.0000     0.0000E+00    0.0000E+00    1.500000E+10  0.00400  1.685E-05    0   0.4919   age201_m42            0.0000     2.6474E+01     4.3695   1.0355    99.2664
 75      0.0000     0.0000E+00    0.0000E+00    1.800000E+10  0.00400  1.452E-05    0   0.4874   age213_m42            0.0000     2.6618E+01     4.1818   1.0578    99.5789
 76      0.0000     0.0000E+00    0.0000E+00    1.000000E+06  0.00800  1.286E-02    0   1.0000   age020_m52            0.0000     2.6749E+03    31.5536   4.0000    95.5963
 77      0.0000     0.0000E+00    0.0000E+00    3.160000E+06  0.00800  3.147E-02    0   0.9966   age045_m52            0.0000     2.4803E+03    29.7007   4.0000    97.2044
 78      0.0000     0.0000E+00    0.0000E+00    5.010000E+06  0.00800  2.664E-02    0   0.9443   age055_m52            0.0000     1.6140E+03    21.7572   4.0000   100.0283
 79      0.0000     0.0000E+00    0.0000E+00    6.610000E+06  0.00800  2.151E-02    0   0.9177   age061_m52            0.0000     3.3645E+02    15.6896   3.8652    95.2004
 80      0.0000     0.0000E+00    0.0000E+00    8.710000E+06  0.00800  1.628E-02    0   0.8948   age067_m52            0.0000     4.6306E+02    12.4183   4.0000    98.6763
 81      0.0000     0.0000E+00    0.0000E+00    1.000000E+07  0.00800  1.215E-02    0   0.8827   age070_m52            0.0000     7.3878E+02    10.9223   4.0000   100.6094
 82      0.0000     0.0000E+00    0.0000E+00    1.445000E+07  0.00800  8.739E-03    0   0.8552   age078_m52            0.0000     7.4301E+02    10.6293   4.0000   102.2953
 83      0.0000     0.0000E+00    0.0000E+00    2.512000E+07  0.00800  5.676E-03    0   0.8162   age090_m52            0.0000     5.2014E+02    11.2940   4.0000   102.0658
 84      0.0000     0.0000E+00    0.0000E+00    4.000000E+07  0.00800  3.939E-03    0   0.7841   age104_m52            0.0000     5.3731E+02    11.6068   3.9306   102.4956
 85      0.0000     0.0000E+00    0.0000E+00    5.500000E+07  0.00800  3.155E-03    0   0.7627   age110_m52            0.0000     5.9775E+02    10.3564   3.8456   104.4425
 86      0.0000     0.0000E+00    0.0000E+00    1.015200E+08  0.00800  2.206E-03    0   0.7226   age116_m52            0.0000     7.3477E+02     8.6467   3.5528   108.9816
 87      0.0000     0.0000E+00    0.0000E+00    1.609000E+08  0.00800  1.596E-03    0   0.6963   age120_m52            0.0000     8.0313E+02     8.2668   3.2993   110.7737
 88      0.0000     0.0000E+00    0.0000E+00    2.861200E+08  0.00800  1.002E-03    0   0.6665   age125_m52            0.0000     9.9319E+02     9.2688   2.9032   113.6149
 89      0.0000     0.0000E+00    0.0000E+00    5.088000E+08  0.00800  5.759E-04    0   0.6377   age130_m52            0.0000     1.0020E+03    10.1819   2.4981   117.7088
 90      0.0000     0.0000E+00    0.0000E+00    9.047900E+08  0.00800  2.972E-04    0   0.6086   age135_m52            0.0000     5.9913E+02     9.0827   1.9454   115.4703
 91      0.0000     0.0000E+00    0.0000E+00    1.278050E+09  0.00800  2.242E-04    0   0.5907   age138_m52            0.0000     2.2473E+02     7.1212   1.3502   112.9759
 92      0.0000     0.0000E+00    0.0000E+00    1.434000E+09  0.00800  1.645E-04    0   0.5787   age139_m52            0.0000     2.1816E+02     6.2238   1.5306   112.4017
 93      0.0000     0.0000E+00    0.0000E+00    2.500000E+09  0.00800  7.723E-05    0   0.5519   age150_m52            0.0000     8.1476E+01     4.9435   1.2105   107.9196
 94      0.0000     0.0000E+00    0.0000E+00    4.250000E+09  0.00800  4.151E-05    0   0.5320   age158_m52            0.0000     5.3609E+01     4.3815   1.1574   105.0676
 95      0.0541     2.6590E-02    2.7639E-02    6.250000E+09  0.00800  3.010E-05    0   0.5197   age166_m52            0.0000     3.3805E+01     4.8206   0.9381   103.3807
 96      0.3785     2.2717E-01    2.3350E-01    7.500000E+09  0.00800  2.467E-05    0   0.5139   age171_m52            0.0000     3.2503E+01     5.0717   0.8866   102.9379
 97     10.1581     8.0768E+00    8.1645E+00    1.000000E+10  0.00800  1.862E-05    0   0.5054   age181_m52            0.0000     3.6075E+01     6.0698   0.7226   102.4873
 98     18.5427     1.9157E+01    1.9112E+01    1.300000E+10  0.00800  1.433E-05    0   0.4988   age193_m52            0.0000     4.4307E+01     7.0095   0.6010   103.0611
 99     18.3433     2.1831E+01    2.1552E+01    1.500000E+10  0.00800  1.244E-05    0   0.4936   age201_m52            0.0000     4.9912E+01     7.3983   0.5631   103.4853
100      0.4823     6.6738E-01    6.5246E-01    1.800000E+10  0.00800  1.070E-05    0   0.4888   age213_m52            0.0000     5.5013E+01     7.8068   0.5157   103.3657
101      0.0000     0.0000E+00    0.0000E+00    1.000000E+06  0.02000  1.989E-02    0   1.0000   age020_m62            0.0000     2.7951E+03    31.5859   4.0000    94.3863
102      0.0000     0.0000E+00    0.0000E+00    3.160000E+06  0.02000  3.772E-02    0   0.9858   age045_m62            0.0000     2.4055E+03    28.5031   4.0000    96.7433
103      0.0000     0.0000E+00    0.0000E+00    5.010000E+06  0.02000  3.227E-02    0   0.9342   age055_m62            0.0000     1.0191E+03    15.3007   4.0000   102.5822
104      0.0000     0.0000E+00    0.0000E+00    6.610000E+06  0.02000  2.387E-02    0   0.9090   age061_m62            0.0000     8.9642E+02    12.0183   4.0000   100.1960
105      0.0016     2.1119E-06    3.7428E-06    8.710000E+06  0.02000  1.102E-02    0   0.8861   age067_m62            0.0000     1.0434E+03    16.6586   4.0000    93.2685
106      0.0000     0.0000E+00    0.0000E+00    1.000000E+07  0.02000  1.011E-02    0   0.8751   age070_m62            0.0000     8.0648E+02    14.7627   4.0000    95.2537
107      0.0000     0.0000E+00    0.0000E+00    1.445000E+07  0.02000  7.331E-03    0   0.8472   age078_m62            0.0000     6.5734E+02    13.4260   4.0000    96.3574
108      0.0000     0.0000E+00    0.0000E+00    2.512000E+07  0.02000  4.206E-03    0   0.8099   age090_m62            0.0000     6.1176E+02    14.5926   4.0000    94.8821
109      0.0000     0.0000E+00    0.0000E+00    4.000000E+07  0.02000  3.373E-03    0   0.7799   age104_m62            0.0000     4.4794E+02    13.3531   3.9593   100.0454
110      0.0000     0.0000E+00    0.0000E+00    5.500000E+07  0.02000  2.747E-03    0   0.7595   age110_m62            0.0000     5.3759E+02    10.7818   3.8086   103.7649
111      0.0000     0.0000E+00    0.0000E+00    1.015200E+08  0.02000  1.878E-03    0   0.7221   age116_m62            0.0000     7.9666E+02     8.7460   3.5469   109.2763
112      0.0000     0.0000E+00    0.0000E+00    1.609000E+08  0.02000  1.378E-03    0   0.6978   age120_m62            0.0000     9.8444E+02     8.5856   3.3267   112.1277
113      0.0000     0.0000E+00    0.0000E+00    2.861200E+08  0.02000  8.869E-04    0   0.6700   age125_m62            0.0000     1.2702E+03     9.9611   2.8708   116.7125
114      0.0000     0.0000E+00    0.0000E+00    5.088000E+08  0.02000  4.834E-04    0   0.6430   age130_m62            0.0000     1.0804E+03    10.6753   2.3510   119.2002
115      0.0000     0.0000E+00    0.0000E+00    9.047900E+08  0.02000  2.312E-04    0   0.6152   age135_m62            0.0000     5.3104E+02     8.7188   1.7480   117.6044
116      0.0000     0.0000E+00    0.0000E+00    1.278050E+09  0.02000  1.387E-04    0   0.5927   age138_m62            0.0000     2.2596E+02     6.3267   1.4073   112.0385
117      0.0000     0.0000E+00    0.0000E+00    1.434000E+09  0.02000  1.168E-04    0   0.5865   age139_m62            0.0000     1.7981E+02     5.8054   1.3931   110.1608
118      0.0000     0.0000E+00    0.0000E+00    2.500000E+09  0.02000  5.505E-05    0   0.5610   age150_m62            0.0000     6.9445E+01     5.6122   1.0027   106.4961
119      0.0000     0.0000E+00    0.0000E+00    4.250000E+09  0.02000  3.070E-05    0   0.5407   age158_m62            0.0000     6.5642E+01     7.6283   0.6394   106.1123
120      0.0109     7.6818E-03    8.1078E-03    6.250000E+09  0.02000  2.104E-05    0   0.5277   age166_m62            0.0000     7.8360E+01     8.7450   0.4759   106.4595
121      0.1116     9.3378E-02    9.7547E-02    7.500000E+09  0.02000  1.770E-05    0   0.5223   age171_m62            0.0000     9.0047E+01     9.4856   0.3643   106.8692
122      3.2265     3.6830E+00    3.7723E+00    1.000000E+10  0.02000  1.297E-05    0   0.5121   age181_m62            0.0000     1.1948E+02    11.0088   0.1588   107.4402
123      5.9489     9.0882E+00    9.1741E+00    1.300000E+10  0.02000  9.691E-06    0   0.5047   age193_m62            0.0000     1.4374E+02    12.0757   0.0451   107.8321
124      6.9651     1.2335E+01    1.2333E+01    1.500000E+10  0.02000  8.360E-06    0   0.4999   age201_m62            0.0000     1.6694E+02    12.9971  -0.0568   108.2082
125      8.5239     1.8260E+01    1.8064E+01    1.800000E+10  0.02000  6.911E-06    0   0.4946   age213_m62            0.0000     1.9770E+02    14.1628  -0.1753   108.7573
126      0.0000     0.0000E+00    0.0000E+00    1.000000E+06  0.05000  2.651E-02    0   0.9998   age020_m72            0.0000     2.7273E+03    31.1224   4.0000    95.5827
127      0.0000     0.0000E+00    0.0000E+00    3.160000E+06  0.05000  4.817E-02    0   0.9577   age045_m72            0.0000     1.8836E+03    24.0673   4.0000   100.4703
128      0.0000     0.0000E+00    0.0000E+00    5.010000E+06  0.05000  3.101E-02    0   0.9147   age055_m72            0.0000     1.2531E+03    16.2225   4.0000   101.3135
129      0.0000     0.0000E+00    0.0000E+00    6.610000E+06  0.05000  1.472E-02    0   0.8877   age061_m72            0.0000     1.0968E+03    14.3666   4.0000    96.4109
130      0.0015     2.0713E-06    3.5785E-06    8.710000E+06  0.05000  1.050E-02    0   0.8638   age067_m72            0.0000     1.3732E+03    16.1332   4.0000    99.3657
131      0.0000     0.0000E+00    0.0000E+00    1.000000E+07  0.05000  8.954E-03    0   0.8524   age070_m72            0.0000     1.6010E+03    21.1594   4.0000   100.9936
132      0.0000     0.0000E+00    0.0000E+00    1.445000E+07  0.05000  6.392E-03    0   0.8262   age078_m72            0.0000     1.4075E+03    19.6501   4.0000   101.7723
133      0.0000     0.0000E+00    0.0000E+00    2.512000E+07  0.05000  4.207E-03    0   0.7902   age090_m72            0.0000     7.4832E+02    11.3456   4.0000   103.3783
134      0.0000     0.0000E+00    0.0000E+00    4.000000E+07  0.05000  3.198E-03    0   0.7618   age104_m72            0.0000     6.0617E+02     9.4028   3.9653   104.7518
135      0.0000     0.0000E+00    0.0000E+00    5.500000E+07  0.05000  2.593E-03    0   0.7432   age110_m72            0.0000     7.0586E+02     8.8306   3.8397   106.8794
136      0.0000     0.0000E+00    0.0000E+00    1.015200E+08  0.05000  1.716E-03    0   0.7092   age116_m72            0.0000     9.0183E+02     8.5722   3.6017   109.7426
137      0.0000     0.0000E+00    0.0000E+00    1.609000E+08  0.05000  1.218E-03    0   0.6876   age120_m72            0.0000     1.0853E+03     8.7731   3.2550   112.9698
138      0.0000     0.0000E+00    0.0000E+00    2.861200E+08  0.05000  7.047E-04    0   0.6618   age125_m72            0.0000     1.1939E+03    10.5729   2.5921   117.4853
139      0.0000     0.0000E+00    0.0000E+00    5.088000E+08  0.05000  3.590E-04    0   0.6356   age130_m72            0.0000     8.8520E+02    11.3021   1.9276   120.1967
140      0.0000     0.0000E+00    0.0000E+00    9.047900E+08  0.05000  1.484E-04    0   0.6088   age135_m72            0.0000     2.5940E+02     8.3934   1.2291   111.5518
141      0.0000     0.0000E+00    0.0000E+00    1.278050E+09  0.05000  9.435E-05    0   0.5924   age138_m72            0.0000     1.2761E+02     8.6276   0.7847   108.0373
142      0.0000     0.0000E+00    0.0000E+00    1.434000E+09  0.05000  7.827E-05    0   0.5847   age139_m72            0.0000     1.0545E+02     7.9462   0.8217   107.1956
143      0.0000     0.0000E+00    0.0000E+00    2.500000E+09  0.05000  3.759E-05    0   0.5583   age150_m72            0.0000     8.1622E+01     8.8055   0.4773   105.9359
144      0.0000     0.0000E+00    0.0000E+00    4.250000E+09  0.05000  1.842E-05    0   0.5374   age158_m72            0.0000     1.1571E+02    11.2264   0.0917   105.3479
145      1.4112     1.7310E+00    1.8149E+00    6.250000E+09  0.05000  1.207E-05    0   0.5242   age166_m72            0.0000     1.6536E+02    13.6805  -0.2439   105.4745
146      2.8674     4.2481E+00    4.4039E+00    7.500000E+09  0.05000  9.993E-06    0   0.5183   age171_m72            0.0000     1.7473E+02    14.1028  -0.3066   105.5298
147      0.0000     0.0000E+00    0.0000E+00    1.000000E+10  0.05000  7.291E-06    0   0.5081   age181_m72            0.0000     2.2180E+02    16.0628  -0.5197   106.0802
148      0.0000     0.0000E+00    0.0000E+00    1.300000E+10  0.05000  5.316E-06    0   0.5018   age193_m72            0.0000     3.0275E+02    18.8240  -0.8417   107.1546
149      0.0000     0.0000E+00    0.0000E+00    1.500000E+10  0.05000  4.497E-06    0   0.4972   age201_m72            0.0000     3.4836E+02    20.1926  -0.9868   108.1095
150      0.0000     0.0000E+00    0.0000E+00    1.800000E+10  0.05000  3.739E-06    0   0.4924   age213_m72            0.0000     4.1842E+02    20.0355  -1.0000   106.5896


## Synthesis Results - Average & Chains ##

# j      x_j: min, <> & last-chain-values for 1 ...  7 chains
  1      3.1146      2.6769      2.6682      2.7609      2.8393      2.7134      2.7749      2.6819      2.6171
  2      7.8667      6.7954      6.8686      7.1504      7.0793      7.2564      6.7557      6.8222      6.9733
  3      6.3083      5.3328      5.4844      5.4129      5.6115      5.1544      5.4587      5.6499      5.4027
  4      0.2391      0.1374      0.1296      0.1359      0.3121      0.1206      0.2388      0.1866      0.2616
  5      0.0000      0.1470      0.3997      0.0910      0.0000      0.4421      0.1116      0.1685      0.0701
  6      0.0000      0.0298      0.0000      0.1122      0.0000      0.0000      0.0000      0.0723      0.0080
  7      0.0000      0.0878      0.0000      0.1495      0.0000      0.2639      0.0000      0.0000      0.0000
  8      0.0000      0.0220      0.0000      0.0000      0.0589      0.0000      0.0270      0.0000      0.0000
  9      0.0000      0.0198      0.1819      0.0389      0.0000      0.0000      0.0000      0.0000      0.0000
 10      0.0000      0.0155      0.0000      0.0000      0.0000      0.0794      0.0000      0.0051      0.0000
 11      0.0000      0.0130      0.0000      0.0000      0.0000      0.0000      0.0000      0.0081      0.0297
 12      0.0000      0.0076      0.0000      0.0923      0.0000      0.0000      0.0000      0.0000      0.0000
 13      0.0000      0.0029      0.0000      0.0000      0.0000      0.0000      0.0000      0.0000      0.0000
 14      0.0000      0.0036      0.0000      0.0000      0.0000      0.0000      0.0000      0.0000      0.0000
 15      0.0000      0.0045      0.0000      0.0000      0.0000      0.0000      0.0000      0.0000      0.0000
 16      0.0000      0.0068      0.0000      0.0000      0.0000      0.0000      0.0000      0.0000      0.0000
 17      0.0000      0.0078      0.0084      0.0000      0.0000      0.0178      0.0000      0.0226      0.0000
 18      0.0000      0.0156      0.0000      0.0000      0.0065      0.0000      0.0000      0.0000      0.0000
 19      0.0000      0.0292      0.1741      0.0000      0.0000      0.0000      0.0000      0.0182      0.0000
 20      0.0000      0.0841      0.0000      0.0000      0.0000      0.0000      0.0000      0.0000      0.0310
 21      0.3902      0.0936      0.0000      0.1080      0.2079      0.0000      0.0000      0.0621      0.2012
 22      0.0000      0.0787      0.0000      0.0000      0.1392      0.4009      0.0245      0.0260      0.0000
 23      0.0000      0.0620      0.0508      0.0000      0.0000      0.0416      0.0107      0.0603      0.0000
 24      0.0000      0.0592      0.0000      0.2486      0.1480      0.0000      0.2327      0.0000      0.0279
 25      0.0000      0.1371      0.1786      0.0000      0.2336      0.0239      0.0000      0.1580      0.0000
 26      0.8036      0.6864      0.5142      0.8118      0.7203      0.6640      0.7503      0.7183      0.6757
 27      0.0000      0.1831      0.2152      0.0000      0.1245      0.2731      0.2338      0.3269      0.0000
 28      0.0000      0.0893      0.0000      0.0554      0.0000      0.0000      0.1850      0.0000      0.1748
 29      0.0585      0.0912      0.1849      0.0000      0.0000      0.2358      0.0204      0.0400      0.2404
 30      0.0000      0.0847      0.0000      0.0000      0.2082      0.0000      0.0000      0.2136      0.1500
 31      0.0000      0.1043      0.3062      0.1308      0.2174      0.0359      0.0913      0.0000      0.0000
 32      0.0000      0.0366      0.0000      0.0812      0.0000      0.0574      0.0700      0.0205      0.0000
 33      0.0000      0.0398      0.0000      0.0727      0.0000      0.0000      0.1535      0.4719      0.0538
 34      0.0000      0.0183      0.0000      0.0000      0.0000      0.0000      0.0000      0.0000      0.0000
 35      0.0000      0.0176      0.0000      0.1352      0.1095      0.0000      0.0961      0.0532      0.0000
 36      0.0000      0.0078      0.0000      0.0108      0.0000      0.0232      0.0000      0.0000      0.0000
 37      0.0000      0.0076      0.0000      0.0000      0.0358      0.0000      0.0388      0.0000      0.0000
 38      0.0000      0.0038      0.0000      0.0000      0.0000      0.0000      0.0000      0.0000      0.0000
 39      0.0000      0.0040      0.0000      0.0000      0.0000      0.0000      0.0000      0.0000      0.0000
 40      0.0000      0.0054      0.0000      0.0000      0.0222      0.0000      0.0000      0.0000      0.0000
 41      0.0000      0.0193      0.0000      0.0000      0.0000      0.0000      0.0000      0.0000      0.0000
 42      0.0000      0.0174      0.0000      0.0000      0.0000      0.0000      0.0000      0.0000      0.1330
 43      0.0000      0.0210      0.0000      0.0000      0.0536      0.0000      0.0000      0.0000      0.0000
 44      0.2157      0.0835      0.2909      0.0000      0.0000      0.3917      0.0000      0.2144      0.2884
 45      1.6293      0.6305      0.7979      0.7580      0.7243      0.3865      0.7111      0.5485      1.3179
 46      0.1389      0.2061      0.0000      0.4837      0.1550      0.4473      0.0662      0.0000      0.2987
 47      0.0000      0.1598      0.0000      0.0324      0.0000      0.0000      0.1860      0.0000      0.0000
 48      0.0000      0.0943      0.0000      0.0000      0.0000      0.0000      0.0205      0.0521      0.1452
 49      0.0000      0.0721      0.0000      0.0000      0.0958      0.0000      0.2890      0.2870      0.0000
 50      0.0000      0.0648      0.0000      0.0049      0.0000      0.1498      0.0000      0.1763      0.0000
 51      0.0039      0.1121      0.0021      0.2878      0.1071      0.1694      0.1123      0.1570      0.3330
 52      0.0000      0.0504      0.2273      0.0000      0.1007      0.0318      0.2114      0.0000      0.0117
 53      0.3682      0.2050      0.0000      0.2427      0.2533      0.2176      0.4503      0.1127      0.2000
 54      1.5926      1.2708      1.3007      1.3311      1.2772      1.2455      1.2420      1.2785      1.0731
 55      0.3814      0.3308      0.2563      0.2103      0.3374      0.3452      0.4335      0.0000      0.4090
 56      0.1481      0.4659      0.7374      0.4644      0.4328      0.5147      0.4581      0.4798      0.4623
 57      0.0000      0.0649      0.4528      0.0000      0.0000      0.0342      0.0000      0.0000      0.0000
 58      0.0000      0.0336      0.0000      0.0000      0.0000      0.0000      0.0321      0.0000      0.0237
 59      0.0000      0.0138      0.0000      0.0000      0.0000      0.0000      0.0000      0.0000      0.0000
 60      0.0000      0.0051      0.0000      0.0000      0.0000      0.0000      0.0000      0.0556      0.0000
 61      0.0000      0.0052      0.0000      0.0000      0.0000      0.0000      0.0083      0.0000      0.0000
 62      0.0000      0.0067      0.0420      0.0000      0.0957      0.1624      0.0521      0.0000      0.0000
 63      0.0000      0.0055      0.0000      0.0000      0.0000      0.0000      0.0000      0.0000      0.0000
 64      0.0000      0.0108      0.0938      0.2958      0.0000      0.0000      0.0000      0.0051      0.0000
 65      0.0000      0.0103      0.0000      0.0000      0.0000      0.0000      0.0000      0.0000      0.0000
 66      0.0000      0.0205      0.0000      0.0067      0.0000      0.0000      0.0000      0.0188      0.0000
 67      0.0000      0.0200      0.0000      0.0412      0.0000      0.0883      0.0000      0.0391      0.0000
 68      0.0000      0.0240      0.0000      0.0000      0.0191      0.0000      0.0503      0.0000      0.0000
 69      0.0000      0.0485      0.0000      0.0000      0.0000      0.0279      0.0000      0.1863      0.0000
 70      0.0001      0.0374      0.0000      0.0000      0.2417      0.0000      0.0110      0.0000      0.2968
 71      0.0000      0.0488      0.0000      0.0000      0.1610      0.0023      0.0000      0.2177      0.0000
 72      0.0000      0.0429      0.0000      0.0000      0.0000      0.0000      0.0000      0.0000      0.1197
 73      0.0000      0.0627      0.0206      0.0000      0.0000      0.0000      0.0000      0.0313      0.0000
 74      0.0000      0.0515      0.0000      0.0000      0.0000      0.0000      0.0041      0.0000      0.0000
 75      0.0000      0.0496      0.0000      0.0000      0.0520      0.1049      0.0000      0.0000      0.0000
 76      0.0000      0.0380      0.0000      0.0000      0.0000      0.0000      0.0000      0.0861      0.0000
 77      0.0000      0.0699      0.0000      0.0071      0.2166      0.0554      0.0000      0.0739      0.0386
 78      0.0000      0.0275      0.0000      0.0000      0.0000      0.0000      0.1118      0.0000      0.0000
 79      0.0000      0.0289      0.0000      0.0000      0.0000      0.0000      0.0000      0.0000      0.0721
 80      0.0000      0.0129      0.1667      0.0075      0.0000      0.0000      0.0120      0.0000      0.0272
 81      0.0000      0.0163      0.0000      0.0103      0.0000      0.0000      0.0000      0.0000      0.0000
 82      0.0000      0.0229      0.0221      0.0000      0.0000      0.0158      0.0000      0.0000      0.0000
 83      0.0000      0.0244      0.0000      0.1330      0.0000      0.0000      0.0000      0.0000      0.0000
 84      0.0000      0.0106      0.0378      0.0000      0.0000      0.0000      0.0000      0.0000      0.0000
 85      0.0000      0.0196      0.0000      0.0000      0.0000      0.0000      0.0000      0.1833      0.0000
 86      0.0000      0.0073      0.0000      0.0000      0.0000      0.0000      0.0000      0.0000      0.0000
 87      0.0000      0.0092      0.0000      0.0000      0.0000      0.0024      0.1310      0.0000      0.0000
 88      0.0000      0.0049      0.0000      0.0000      0.0000      0.0000      0.0000      0.0000      0.0465
 89      0.0000      0.0049      0.0023      0.0000      0.0000      0.0000      0.0000      0.0000      0.0000
 90      0.0000      0.0066      0.0000      0.0000      0.0000      0.0000      0.1332      0.0000      0.0000
 91      0.0000      0.0183      0.0000      0.1211      0.0618      0.0000      0.0000      0.0193      0.0000
 92      0.0000      0.0142      0.0000      0.0000      0.0287      0.0000      0.0000      0.0570      0.0910
 93      0.0000      0.0564      0.0292      0.0000      0.0663      0.0139      0.0040      0.0000      0.0000
 94      0.0000      0.1056      0.0299      0.0000      0.4772      0.3100      0.0066      0.3990      0.1802
 95      0.0541      0.2342      0.1840      0.6498      0.0000      0.1536      0.0000      0.0000      0.1932
 96      0.3785      0.3000      0.4956      0.2236      0.2284      0.2194      1.2047      0.6812      0.5881
 97     10.1581     13.3808     13.6811     13.5434     13.5131     13.0587     12.4273     13.1454     13.1675
 98     18.5427     16.8516     17.1672     16.1858     16.4026     16.9823     17.2380     17.1945     16.6495
 99     18.3433     14.8718     14.5371     15.4158     15.0353     15.5314     15.3977     14.9774     15.4416
100      0.4823      0.7773      1.2471      0.9348      1.0422      0.7521      0.9823      1.0880      0.5340
101      0.0000      0.0279      0.0025      0.1849      0.0000      0.0000      0.0000      0.0000      0.0000
102      0.0000      0.0599      0.0000      0.0993      0.0000      0.0222      0.0000      0.1708      0.0733
103      0.0000      0.0214      0.0000      0.0000      0.0000      0.0000      0.0000      0.0000      0.0104
104      0.0000      0.0670      0.0000      0.0196      0.1045      0.0151      0.0055      0.0058      0.0349
105      0.0016      0.1364      0.0664      0.1194      0.0000      0.1231      0.1916      0.1126      0.2642
106      0.0000      0.0762      0.0000      0.0537      0.0000      0.0464      0.0000      0.0000      0.1034
107      0.0000      0.0655      0.2513      0.1079      0.1028      0.2607      0.0998      0.0000      0.0869
108      0.0000      0.0165      0.0000      0.0000      0.0000      0.0000      0.0000      0.0000      0.0050
109      0.0000      0.0071      0.0000      0.0000      0.0014      0.0000      0.0000      0.0000      0.0150
110      0.0000      0.0065      0.0000      0.0826      0.0000      0.0000      0.0000      0.0000      0.0000
111      0.0000      0.0058      0.0000      0.0000      0.0000      0.0000      0.0000      0.0000      0.0000
112      0.0000      0.0066      0.0000      0.0000      0.0000      0.0000      0.0000      0.0000      0.0000
113      0.0000      0.0033      0.0000      0.0000      0.0000      0.0000      0.0000      0.0032      0.0000
114      0.0000      0.0040      0.0000      0.0000      0.0000      0.0000      0.0000      0.0000      0.0000
115      0.0000      0.0111      0.0000      0.0000      0.0000      0.0000      0.2286      0.0000      0.0000
116      0.0000      0.0173      0.0000      0.0258      0.0000      0.0000      0.0000      0.0000      0.0002
117      0.0000      0.0164      0.0000      0.0000      0.0064      0.0000      0.0369      0.0000      0.0000
118      0.0000      0.0507      0.0096      0.1063      0.0419      0.0000      0.0000      0.0000      0.0000
119      0.0000      0.0835      0.0000      0.0124      0.4092      0.1142      0.1245      0.0389      0.0171
120      0.0109      0.1581      0.3895      0.0516      0.0000      0.1775      0.0000      0.0000      0.2722
121      0.1116      0.1640      0.0000      0.0000      0.3193      0.0780      0.2201      0.2008      0.2702
122      3.2265      2.9224      3.0164      3.2028      2.8866      3.2629      2.8340      2.9563      2.9116
123      5.9489      5.6407      6.0090      5.6499      5.7472      5.7871      5.5802      5.7776      5.8011
124      6.9651      5.6504      5.6552      5.9080      5.5353      5.7080      6.0322      5.7563      5.8723
125      8.5239      8.2349      8.2134      8.1490      8.4894      8.2281      8.5475      8.2644      8.2130
126      0.0000      0.0199      0.0000      0.0000      0.0000      0.0559      0.0341      0.0000      0.0000
127      0.0000      0.0440      0.1056      0.0033      0.0000      0.0000      0.0000      0.0853      0.0304
128      0.0000      0.0375      0.0000      0.0000      0.0000      0.0000      0.0000      0.0715      0.0000
129      0.0000      0.0464      0.0000      0.0000      0.1851      0.0000      0.0214      0.0000      0.0000
130      0.0015      0.0459      0.0000      0.0049      0.0000      0.0000      0.0000      0.0942      0.1961
131      0.0000      0.0337      0.1384      0.0000      0.0000      0.0000      0.0982      0.0000      0.0000
132      0.0000      0.0376      0.0000      0.0000      0.0000      0.0000      0.0045      0.0000      0.0000
133      0.0000      0.0198      0.0262      0.0000      0.0000      0.0000      0.0000      0.0366      0.0000
134      0.0000      0.0042      0.0000      0.0000      0.0025      0.0000      0.0000      0.0000      0.0000
135      0.0000      0.0033      0.0000      0.0000      0.0000      0.0000      0.0000      0.0000      0.0000
136      0.0000      0.0036      0.0000      0.0000      0.0000      0.0000      0.0000      0.0000      0.0000
137      0.0000      0.0035      0.0000      0.0004      0.0031      0.0000      0.0444      0.0000      0.0000
138      0.0000      0.0027      0.0000      0.0000      0.0000      0.0000      0.0000      0.0000      0.0000
139      0.0000      0.0064      0.0000      0.0000      0.0000      0.0000      0.0000      0.0000      0.0000
140      0.0000      0.0191      0.0466      0.0000      0.0000      0.0000      0.0000      0.0000      0.0000
141      0.0000      0.0185      0.0000      0.0000      0.0000      0.0000      0.0000      0.0000      0.0000
142      0.0000      0.0279      0.0000      0.0806      0.0123      0.0000      0.0000      0.0000      0.0000
143      0.0000      0.0927      0.0000      0.0780      0.0000      0.2155      0.0000      0.0022      0.0000
144      0.0000      0.1167      0.0000      0.0000      0.0000      0.0000      0.1987      0.0000      0.0000
145      1.4112      3.6709      3.6361      3.5389      3.0536      3.5142      3.0151      3.5481      3.2935
146      2.8674      3.9940      3.5558      3.8230      4.1520      3.5368      3.7775      3.5763      3.6119
147      0.0000      0.0297      0.0000      0.0000      0.0000      0.0000      0.0000      0.0000      0.1306
148      0.0000      0.0586      0.0208      0.0000      0.0000      0.0000      0.0000      0.0000      0.0000
149      0.0000      0.0209      0.0000      0.0000      0.0000      0.0000      0.0000      0.0000      0.0000
150      0.0000      0.0224      0.0075      0.0000      0.0000      0.0000      0.0000      0.0000      0.0000

# j      m_j: min, <> & last-chain-values for 1 ...  7 chains
  1  1.1303E-02  9.7960E-03  9.7755E-03  1.0152E-02  1.0423E-02  9.9585E-03  1.0135E-02  9.8252E-03  9.6308E-03
  2  4.8948E-03  4.2640E-03  4.3148E-03  4.5081E-03  4.4559E-03  4.5664E-03  4.2308E-03  4.2855E-03  4.4000E-03
  3  9.2645E-03  7.8980E-03  8.1317E-03  8.0549E-03  8.3366E-03  7.6559E-03  8.0686E-03  8.3768E-03  8.0461E-03
  4  6.6005E-04  3.8239E-04  3.6125E-04  3.8017E-04  8.7157E-04  3.3671E-04  6.6344E-04  5.2009E-04  7.3218E-04
  5  0.0000E+00  5.1529E-04  1.4031E-03  3.2058E-04  0.0000E+00  1.5548E-03  3.9044E-04  5.9163E-04  2.4730E-04
  6  0.0000E+00  1.2446E-04  0.0000E+00  4.7001E-04  0.0000E+00  0.0000E+00  0.0000E+00  3.0176E-04  3.3527E-05
  7  0.0000E+00  4.6190E-04  0.0000E+00  7.9027E-04  0.0000E+00  1.3927E-03  0.0000E+00  0.0000E+00  0.0000E+00
  8  0.0000E+00  1.3067E-04  0.0000E+00  0.0000E+00  3.5143E-04  0.0000E+00  1.6042E-04  0.0000E+00  0.0000E+00
  9  0.0000E+00  1.2678E-04  1.1652E-03  2.5039E-04  0.0000E+00  0.0000E+00  0.0000E+00  0.0000E+00  0.0000E+00
 10  0.0000E+00  1.1345E-04  0.0000E+00  0.0000E+00  0.0000E+00  5.8417E-04  0.0000E+00  3.7672E-05  0.0000E+00
 11  0.0000E+00  1.1365E-04  0.0000E+00  0.0000E+00  0.0000E+00  0.0000E+00  0.0000E+00  7.0971E-05  2.6199E-04
 12  0.0000E+00  1.1620E-04  0.0000E+00  1.4220E-03  0.0000E+00  0.0000E+00  0.0000E+00  0.0000E+00  0.0000E+00
 13  0.0000E+00  5.2330E-05  0.0000E+00  0.0000E+00  0.0000E+00  0.0000E+00  0.0000E+00  0.0000E+00  0.0000E+00
 14  0.0000E+00  9.0587E-05  0.0000E+00  0.0000E+00  0.0000E+00  0.0000E+00  0.0000E+00  0.0000E+00  0.0000E+00
 15  0.0000E+00  1.7044E-04  0.0000E+00  0.0000E+00  0.0000E+00  0.0000E+00  0.0000E+00  0.0000E+00  0.0000E+00
 16  0.0000E+00  3.7502E-04  0.0000E+00  0.0000E+00  0.0000E+00  0.0000E+00  0.0000E+00  0.0000E+00  0.0000E+00
 17  0.0000E+00  4.7770E-04  5.1902E-04  0.0000E+00  0.0000E+00  1.0989E-03  0.0000E+00  1.3870E-03  0.0000E+00
 18  0.0000E+00  1.5606E-03  0.0000E+00  0.0000E+00  6.5643E-04  0.0000E+00  0.0000E+00  0.0000E+00  0.0000E+00
 19  0.0000E+00  4.4209E-03  2.6406E-02  0.0000E+00  0.0000E+00  0.0000E+00  0.0000E+00  2.7654E-03  0.0000E+00
 20  0.0000E+00  1.8229E-02  0.0000E+00  0.0000E+00  0.0000E+00  0.0000E+00  0.0000E+00  0.0000E+00  6.7609E-03
 21  9.7002E-02  2.3476E-02  0.0000E+00  2.7213E-02  5.2275E-02  0.0000E+00  0.0000E+00  1.5587E-02  5.0724E-02
 22  0.0000E+00  2.5466E-02  0.0000E+00  0.0000E+00  4.5169E-02  1.3006E-01  7.9170E-03  8.4137E-03  0.0000E+00
 23  0.0000E+00  2.5426E-02  2.0854E-02  0.0000E+00  0.0000E+00  1.7113E-02  4.3721E-03  2.4748E-02  0.0000E+00
 24  0.0000E+00  2.7771E-02  0.0000E+00  1.1715E-01  6.9627E-02  0.0000E+00  1.0889E-01  0.0000E+00  1.3139E-02
 25  0.0000E+00  7.7208E-02  1.0075E-01  0.0000E+00  1.3202E-01  1.3501E-02  0.0000E+00  8.9082E-02  0.0000E+00
 26  2.8135E-03  2.4233E-03  1.8176E-03  2.8798E-03  2.5509E-03  2.3510E-03  2.6440E-03  2.5389E-03  2.3988E-03
 27  0.0000E+00  1.3766E-04  1.6190E-04  0.0000E+00  9.3900E-05  2.0585E-04  1.7536E-04  2.4597E-04  0.0000E+00
 28  0.0000E+00  1.3131E-04  0.0000E+00  8.1824E-05  0.0000E+00  0.0000E+00  2.7162E-04  0.0000E+00  2.5859E-04
 29  1.3289E-04  2.0898E-04  4.2442E-04  0.0000E+00  0.0000E+00  5.4211E-04  4.6788E-05  9.1706E-05  5.5413E-04
 30  0.0000E+00  2.4143E-04  0.0000E+00  0.0000E+00  5.9502E-04  0.0000E+00  0.0000E+00  6.0926E-04  4.2967E-04
 31  0.0000E+00  3.4319E-04  1.0092E-03  4.3272E-04  7.1791E-04  1.1852E-04  3.0007E-04  0.0000E+00  0.0000E+00
 32  0.0000E+00  1.3348E-04  0.0000E+00  2.9752E-04  0.0000E+00  2.0999E-04  2.5482E-04  7.4694E-05  0.0000E+00
 33  0.0000E+00  2.0597E-04  0.0000E+00  3.7850E-04  0.0000E+00  0.0000E+00  7.9369E-04  2.4474E-03  2.8009E-04
 34  0.0000E+00  1.1523E-04  0.0000E+00  0.0000E+00  0.0000E+00  0.0000E+00  0.0000E+00  0.0000E+00  0.0000E+00
 35  0.0000E+00  1.3382E-04  0.0000E+00  1.0328E-03  8.3489E-04  0.0000E+00  7.2944E-04  4.0510E-04  0.0000E+00
 36  0.0000E+00  7.6022E-05  0.0000E+00  1.0616E-04  0.0000E+00  2.2634E-04  0.0000E+00  0.0000E+00  0.0000E+00
 37  0.0000E+00  9.2138E-05  0.0000E+00  0.0000E+00  4.3558E-04  0.0000E+00  4.6940E-04  0.0000E+00  0.0000E+00
 38  0.0000E+00  6.4655E-05  0.0000E+00  0.0000E+00  0.0000E+00  0.0000E+00  0.0000E+00  0.0000E+00  0.0000E+00
 39  0.0000E+00  1.0044E-04  0.0000E+00  0.0000E+00  0.0000E+00  0.0000E+00  0.0000E+00  0.0000E+00  0.0000E+00
 40  0.0000E+00  2.4072E-04  0.0000E+00  0.0000E+00  9.8782E-04  0.0000E+00  0.0000E+00  0.0000E+00  0.0000E+00
 41  0.0000E+00  1.1512E-03  0.0000E+00  0.0000E+00  0.0000E+00  0.0000E+00  0.0000E+00  0.0000E+00  0.0000E+00
 42  0.0000E+00  1.1574E-03  0.0000E+00  0.0000E+00  0.0000E+00  0.0000E+00  0.0000E+00  0.0000E+00  8.8893E-03
 43  0.0000E+00  2.2689E-03  0.0000E+00  0.0000E+00  5.8160E-03  0.0000E+00  0.0000E+00  0.0000E+00  0.0000E+00
 44  3.6572E-02  1.4272E-02  4.9777E-02  0.0000E+00  0.0000E+00  6.7155E-02  0.0000E+00  3.6686E-02  4.9574E-02
 45  3.8493E-01  1.5023E-01  1.9031E-01  1.8147E-01  1.7311E-01  9.2348E-02  1.6910E-01  1.3083E-01  3.1574E-01
 46  3.9085E-02  5.8500E-02  0.0000E+00  1.3795E-01  4.4136E-02  1.2731E-01  1.8748E-02  0.0000E+00  8.5244E-02
 47  0.0000E+00  5.9437E-02  0.0000E+00  1.2123E-02  0.0000E+00  0.0000E+00  6.9065E-02  0.0000E+00  0.0000E+00
 48  0.0000E+00  4.1782E-02  0.0000E+00  0.0000E+00  0.0000E+00  0.0000E+00  9.0708E-03  2.3102E-02  6.4672E-02
 49  0.0000E+00  3.5740E-02  0.0000E+00  0.0000E+00  4.7614E-02  0.0000E+00  1.4294E-01  1.4237E-01  0.0000E+00
 50  0.0000E+00  3.7765E-02  0.0000E+00  2.8769E-03  0.0000E+00  8.7556E-02  0.0000E+00  1.0288E-01  0.0000E+00
 51  1.0417E-05  3.0060E-04  5.6535E-06  7.7505E-04  2.8807E-04  4.5528E-04  3.0049E-04  4.2140E-04  8.9762E-04
 52  0.0000E+00  3.6931E-05  1.6679E-04  0.0000E+00  7.4061E-05  2.3411E-05  1.5466E-04  0.0000E+00  8.6324E-06
 53  4.0822E-04  2.2920E-04  0.0000E+00  2.7267E-04  2.8407E-04  2.4399E-04  5.0250E-04  1.2618E-04  2.2491E-04
 54  1.6833E-03  1.3546E-03  1.3880E-03  1.4256E-03  1.3656E-03  1.3314E-03  1.3213E-03  1.3643E-03  1.1502E-03
 55  5.9469E-04  5.2008E-04  4.0352E-04  3.3232E-04  5.3225E-04  5.4441E-04  6.8035E-04  0.0000E+00  6.4669E-04
 56  3.0570E-04  9.7002E-04  1.5370E-03  9.7149E-04  9.0395E-04  1.0748E-03  9.5193E-04  1.0000E-03  9.6793E-04
 57  0.0000E+00  2.1676E-04  1.5136E-03  0.0000E+00  0.0000E+00  1.1467E-04  0.0000E+00  0.0000E+00  0.0000E+00
 58  0.0000E+00  1.6177E-04  0.0000E+00  0.0000E+00  0.0000E+00  0.0000E+00  1.5440E-04  0.0000E+00  1.1459E-04
 59  0.0000E+00  9.2156E-05  0.0000E+00  0.0000E+00  0.0000E+00  0.0000E+00  0.0000E+00  0.0000E+00  0.0000E+00
 60  0.0000E+00  3.8327E-05  0.0000E+00  0.0000E+00  0.0000E+00  0.0000E+00  0.0000E+00  4.1418E-04  0.0000E+00
 61  0.0000E+00  4.8919E-05  0.0000E+00  0.0000E+00  0.0000E+00  0.0000E+00  7.8195E-05  0.0000E+00  0.0000E+00
 62  0.0000E+00  8.0199E-05  5.0612E-04  0.0000E+00  1.1555E-03  1.9595E-03  6.2524E-04  0.0000E+00  0.0000E+00
 63  0.0000E+00  9.9857E-05  0.0000E+00  0.0000E+00  0.0000E+00  0.0000E+00  0.0000E+00  0.0000E+00  0.0000E+00
 64  0.0000E+00  3.2478E-04  2.8274E-03  8.9493E-03  0.0000E+00  0.0000E+00  0.0000E+00  1.5356E-04  0.0000E+00
 65  0.0000E+00  5.2395E-04  0.0000E+00  0.0000E+00  0.0000E+00  0.0000E+00  0.0000E+00  0.0000E+00  0.0000E+00
 66  0.0000E+00  1.3361E-03  0.0000E+00  4.3957E-04  0.0000E+00  0.0000E+00  0.0000E+00  1.2236E-03  0.0000E+00
 67  0.0000E+00  1.7840E-03  0.0000E+00  3.6974E-03  0.0000E+00  7.9113E-03  0.0000E+00  3.4948E-03  0.0000E+00
 68  0.0000E+00  3.9928E-03  0.0000E+00  0.0000E+00  3.1765E-03  0.0000E+00  8.3406E-03  0.0000E+00  0.0000E+00
 69  0.0000E+00  1.3898E-02  0.0000E+00  0.0000E+00  0.0000E+00  8.0137E-03  0.0000E+00  5.3438E-02  0.0000E+00
 70  5.4143E-05  1.4923E-02  0.0000E+00  0.0000E+00  9.6678E-02  0.0000E+00  4.3777E-03  0.0000E+00  1.1903E-01
 71  0.0000E+00  2.2968E-02  0.0000E+00  0.0000E+00  7.5969E-02  1.0752E-03  0.0000E+00  1.0255E-01  0.0000E+00
 72  0.0000E+00  2.6550E-02  0.0000E+00  0.0000E+00  0.0000E+00  0.0000E+00  0.0000E+00  0.0000E+00  7.4527E-02
 73  0.0000E+00  4.8996E-02  1.6134E-02  0.0000E+00  0.0000E+00  0.0000E+00  0.0000E+00  2.4511E-02  0.0000E+00
 74  0.0000E+00  4.4876E-02  0.0000E+00  0.0000E+00  0.0000E+00  0.0000E+00  3.5378E-03  0.0000E+00  0.0000E+00
 75  0.0000E+00  4.9768E-02  0.0000E+00  0.0000E+00  5.2240E-02  1.0550E-01  0.0000E+00  0.0000E+00  0.0000E+00
 76  0.0000E+00  8.8126E-05  0.0000E+00  0.0000E+00  0.0000E+00  0.0000E+00  0.0000E+00  2.0016E-04  0.0000E+00
 77  0.0000E+00  6.6102E-05  0.0000E+00  6.7143E-06  2.0544E-04  5.2519E-05  0.0000E+00  6.9956E-05  3.6727E-05
 78  0.0000E+00  2.9146E-05  0.0000E+00  0.0000E+00  0.0000E+00  0.0000E+00  1.1815E-04  0.0000E+00  0.0000E+00
 79  0.0000E+00  3.6841E-05  0.0000E+00  0.0000E+00  0.0000E+00  0.0000E+00  0.0000E+00  0.0000E+00  9.2340E-05
 80  0.0000E+00  2.1147E-05  2.7393E-04  1.2442E-05  0.0000E+00  0.0000E+00  1.9694E-05  0.0000E+00  4.4952E-05
 81  0.0000E+00  3.5425E-05  0.0000E+00  2.2537E-05  0.0000E+00  0.0000E+00  0.0000E+00  0.0000E+00  0.0000E+00
 82  0.0000E+00  6.6857E-05  6.4719E-05  0.0000E+00  0.0000E+00  4.6198E-05  0.0000E+00  0.0000E+00  0.0000E+00
 83  0.0000E+00  1.0466E-04  0.0000E+00  5.7368E-04  0.0000E+00  0.0000E+00  0.0000E+00  0.0000E+00  0.0000E+00
 84  0.0000E+00  6.3088E-05  2.2470E-04  0.0000E+00  0.0000E+00  0.0000E+00  0.0000E+00  0.0000E+00  0.0000E+00
 85  0.0000E+00  1.4126E-04  0.0000E+00  0.0000E+00  0.0000E+00  0.0000E+00  0.0000E+00  1.3244E-03  0.0000E+00
 86  0.0000E+00  7.1668E-05  0.0000E+00  0.0000E+00  0.0000E+00  0.0000E+00  0.0000E+00  0.0000E+00  0.0000E+00
 87  0.0000E+00  1.2034E-04  0.0000E+00  0.0000E+00  0.0000E+00  3.1394E-05  1.7028E-03  0.0000E+00  0.0000E+00
 88  0.0000E+00  9.7825E-05  0.0000E+00  0.0000E+00  0.0000E+00  0.0000E+00  0.0000E+00  0.0000E+00  9.2976E-04
 89  0.0000E+00  1.6184E-04  7.4807E-05  0.0000E+00  0.0000E+00  0.0000E+00  0.0000E+00  0.0000E+00  0.0000E+00
 90  0.0000E+00  4.0093E-04  0.0000E+00  0.0000E+00  0.0000E+00  0.0000E+00  8.1305E-03  0.0000E+00  0.0000E+00
 91  0.0000E+00  1.4372E-03  0.0000E+00  9.5700E-03  4.8789E-03  0.0000E+00  0.0000E+00  1.5201E-03  0.0000E+00
 92  0.0000E+00  1.4889E-03  0.0000E+00  0.0000E+00  3.0204E-03  0.0000E+00  0.0000E+00  5.9915E-03  9.6163E-03
 93  0.0000E+00  1.2029E-02  6.2437E-03  0.0000E+00  1.4201E-02  2.9743E-03  8.5435E-04  0.0000E+00  0.0000E+00
 94  0.0000E+00  4.0420E-02  1.1443E-02  0.0000E+00  1.8321E-01  1.1900E-01  2.5320E-03  1.5289E-01  6.9351E-02
 95  2.7639E-02  1.2077E-01  9.4972E-02  3.3665E-01  0.0000E+00  7.9426E-02  0.0000E+00  0.0000E+00  1.0015E-01
 96  2.3350E-01  1.8659E-01  3.0866E-01  1.3974E-01  1.4251E-01  1.3688E-01  7.4794E-01  4.2417E-01  3.6788E-01
 97  8.1645E+00  1.0846E+01  1.1102E+01  1.1030E+01  1.0987E+01  1.0615E+01  1.0053E+01  1.0666E+01  1.0732E+01
 98  1.9112E+01  1.7516E+01  1.7864E+01  1.6904E+01  1.7102E+01  1.7703E+01  1.7883E+01  1.7892E+01  1.7402E+01
 99  2.1552E+01  1.7621E+01  1.7244E+01  1.8353E+01  1.7870E+01  1.8456E+01  1.8209E+01  1.7766E+01  1.8398E+01
100  6.5246E-01  1.0603E+00  1.7032E+00  1.2813E+00  1.4262E+00  1.0289E+00  1.3374E+00  1.4858E+00  7.3248E-01
101  0.0000E+00  4.1833E-05  3.7356E-06  2.7889E-04  0.0000E+00  0.0000E+00  0.0000E+00  0.0000E+00  0.0000E+00
102  0.0000E+00  4.6738E-05  0.0000E+00  7.7858E-05  0.0000E+00  1.7355E-05  0.0000E+00  1.3342E-04  5.7505E-05
103  0.0000E+00  1.8540E-05  0.0000E+00  0.0000E+00  0.0000E+00  0.0000E+00  0.0000E+00  0.0000E+00  9.0533E-06
104  0.0000E+00  7.6198E-05  0.0000E+00  2.2350E-05  1.1920E-04  1.7255E-05  6.2403E-06  6.5775E-06  3.9965E-05
105  3.7428E-06  3.2743E-04  1.5955E-04  2.8818E-04  0.0000E+00  2.9637E-04  4.5922E-04  2.7070E-04  6.3799E-04
106  0.0000E+00  1.9689E-04  0.0000E+00  1.3943E-04  0.0000E+00  1.2018E-04  0.0000E+00  0.0000E+00  2.6865E-04
107  0.0000E+00  2.2594E-04  8.6824E-04  3.7424E-04  3.5598E-04  9.0232E-04  3.4387E-04  0.0000E+00  3.0159E-04
108  0.0000E+00  9.5124E-05  0.0000E+00  0.0000E+00  0.0000E+00  0.0000E+00  0.0000E+00  0.0000E+00  2.8952E-05
109  0.0000E+00  4.9115E-05  0.0000E+00  0.0000E+00  9.9752E-06  0.0000E+00  0.0000E+00  0.0000E+00  1.0391E-04
110  0.0000E+00  5.3455E-05  0.0000E+00  6.8495E-04  0.0000E+00  0.0000E+00  0.0000E+00  0.0000E+00  0.0000E+00
111  0.0000E+00  6.6497E-05  0.0000E+00  0.0000E+00  0.0000E+00  0.0000E+00  0.0000E+00  0.0000E+00  0.0000E+00
112  0.0000E+00  9.9098E-05  0.0000E+00  0.0000E+00  0.0000E+00  0.0000E+00  0.0000E+00  0.0000E+00  0.0000E+00
113  0.0000E+00  7.3621E-05  0.0000E+00  0.0000E+00  0.0000E+00  0.0000E+00  0.0000E+00  7.2779E-05  0.0000E+00
114  0.0000E+00  1.5963E-04  0.0000E+00  0.0000E+00  0.0000E+00  0.0000E+00  0.0000E+00  0.0000E+00  0.0000E+00
115  0.0000E+00  8.8589E-04  0.0000E+00  0.0000E+00  0.0000E+00  0.0000E+00  1.8133E-02  0.0000E+00  0.0000E+00
116  0.0000E+00  2.2106E-03  0.0000E+00  3.3062E-03  0.0000E+00  0.0000E+00  0.0000E+00  0.0000E+00  2.8488E-05
117  0.0000E+00  2.4566E-03  0.0000E+00  0.0000E+00  9.5835E-04  0.0000E+00  5.5149E-03  0.0000E+00  0.0000E+00
118  0.0000E+00  1.5421E-02  2.9169E-03  3.2490E-02  1.2788E-02  0.0000E+00  0.0000E+00  0.0000E+00  0.0000E+00
119  0.0000E+00  4.3941E-02  0.0000E+00  6.5590E-03  2.1590E-01  6.0245E-02  6.5366E-02  2.0460E-02  9.0596E-03
120  8.1078E-03  1.1842E-01  2.9205E-01  3.8843E-02  0.0000E+00  1.3336E-01  0.0000E+00  0.0000E+00  2.0500E-01
121  9.7547E-02  1.4450E-01  0.0000E+00  0.0000E+00  2.8224E-01  6.8942E-02  1.9361E-01  1.7714E-01  2.3940E-01
122  3.7723E+00  3.4456E+00  3.5605E+00  3.7943E+00  3.4140E+00  3.8581E+00  3.3349E+00  3.4894E+00  3.4521E+00
123  9.1741E+00  8.7723E+00  9.3556E+00  8.8285E+00  8.9657E+00  9.0259E+00  8.6612E+00  8.9950E+00  9.0720E+00
124  1.2333E+01  1.0089E+01  1.0110E+01  1.0600E+01  9.9147E+00  1.0222E+01  1.0750E+01  1.0290E+01  1.0544E+01
125  1.8064E+01  1.7599E+01  1.7573E+01  1.7498E+01  1.8199E+01  1.7635E+01  1.8231E+01  1.7681E+01  1.7650E+01
126  0.0000E+00  2.2422E-05  0.0000E+00  0.0000E+00  0.0000E+00  6.3185E-05  3.8335E-05  0.0000E+00  0.0000E+00
127  0.0000E+00  2.6137E-05  6.2764E-05  1.9941E-06  0.0000E+00  0.0000E+00  0.0000E+00  5.0704E-05  1.8164E-05
128  0.0000E+00  3.3027E-05  0.0000E+00  0.0000E+00  0.0000E+00  0.0000E+00  0.0000E+00  6.3041E-05  0.0000E+00
129  0.0000E+00  8.3532E-05  0.0000E+00  0.0000E+00  3.3441E-04  0.0000E+00  3.8496E-05  0.0000E+00  0.0000E+00
130  3.5785E-06  1.1287E-04  0.0000E+00  1.2119E-05  0.0000E+00  0.0000E+00  0.0000E+00  2.3174E-04  4.8437E-04
131  0.0000E+00  9.5804E-05  3.9384E-04  0.0000E+00  0.0000E+00  0.0000E+00  2.7854E-04  0.0000E+00  0.0000E+00
132  0.0000E+00  1.4515E-04  0.0000E+00  0.0000E+00  0.0000E+00  0.0000E+00  1.7426E-05  0.0000E+00  0.0000E+00
133  0.0000E+00  1.1109E-04  1.4735E-04  0.0000E+00  0.0000E+00  0.0000E+00  0.0000E+00  2.0560E-04  0.0000E+00
134  0.0000E+00  2.9778E-05  0.0000E+00  0.0000E+00  1.7674E-05  0.0000E+00  0.0000E+00  0.0000E+00  0.0000E+00
135  0.0000E+00  2.8351E-05  0.0000E+00  0.0000E+00  0.0000E+00  0.0000E+00  0.0000E+00  0.0000E+00  0.0000E+00
136  0.0000E+00  4.4707E-05  0.0000E+00  0.0000E+00  0.0000E+00  0.0000E+00  0.0000E+00  0.0000E+00  0.0000E+00
137  0.0000E+00  5.8586E-05  0.0000E+00  6.8354E-06  5.1956E-05  0.0000E+00  7.4695E-04  0.0000E+00  0.0000E+00
138  0.0000E+00  7.5237E-05  0.0000E+00  0.0000E+00  0.0000E+00  0.0000E+00  0.0000E+00  0.0000E+00  0.0000E+00
139  0.0000E+00  3.3938E-04  0.0000E+00  0.0000E+00  0.0000E+00  0.0000E+00  0.0000E+00  0.0000E+00  0.0000E+00
140  0.0000E+00  2.3371E-03  5.7124E-03  0.0000E+00  0.0000E+00  0.0000E+00  0.0000E+00  0.0000E+00  0.0000E+00
141  0.0000E+00  3.4717E-03  0.0000E+00  0.0000E+00  0.0000E+00  0.0000E+00  0.0000E+00  0.0000E+00  0.0000E+00
142  0.0000E+00  6.2131E-03  0.0000E+00  1.8060E-02  2.7567E-03  0.0000E+00  0.0000E+00  0.0000E+00  0.0000E+00
143  0.0000E+00  4.1099E-02  0.0000E+00  3.4768E-02  0.0000E+00  9.5857E-02  0.0000E+00  9.8615E-04  0.0000E+00
144  0.0000E+00  1.0166E-01  0.0000E+00  0.0000E+00  0.0000E+00  0.0000E+00  1.7274E-01  0.0000E+00  0.0000E+00
145  1.8149E+00  4.7608E+00  4.7210E+00  4.6115E+00  3.9725E+00  4.5707E+00  3.9026E+00  4.6066E+00  4.2951E+00
146  4.4039E+00  6.1860E+00  5.5135E+00  5.9494E+00  6.4507E+00  5.4937E+00  5.8392E+00  5.5451E+00  5.6253E+00
147  0.0000E+00  6.1826E-02  0.0000E+00  0.0000E+00  0.0000E+00  0.0000E+00  0.0000E+00  0.0000E+00  2.7325E-01
148  0.0000E+00  1.6531E-01  5.8667E-02  0.0000E+00  0.0000E+00  0.0000E+00  0.0000E+00  0.0000E+00  0.0000E+00
149  0.0000E+00  6.9056E-02  0.0000E+00  0.0000E+00  0.0000E+00  0.0000E+00  0.0000E+00  0.0000E+00  0.0000E+00
150  0.0000E+00  8.8239E-02  2.9465E-02  0.0000E+00  0.0000E+00  0.0000E+00  0.0000E+00  0.0000E+00  0.0000E+00

# AV, chi2 & Mass for <> & i_chain = 1 ...  7 solutions
AV       1.1321      1.1033      1.1135      1.1178      1.1153      1.1146      1.1160      1.1142      1.1158
chi2 2.4482E+00  2.5402E+00  2.5047E+00  2.5034E+00  2.5034E+00  2.5021E+00  2.5060E+00  2.5068E+00  2.4961E+00
Mass 9.1979E-10  8.7748E-10  8.8857E-10  8.9055E-10  8.8900E-10  8.8831E-10  8.9437E-10  8.8947E-10  8.8746E-10
   6.36                                  [v0_min (km/s) before EX0s...]
  55.03                                  [vd_min (km/s) before EX0s...]


## Synthetic spectrum (Best Model) ##l_obs f_obs f_syn wei
 3070    [Nl_obs]
 3359.00    0.00000   0.42175   -2.000
 3360.00    0.00000   0.39145   -2.000
 3361.00    0.19294   0.39144   -1.000
 3362.00    0.28834   0.41918   -1.000
 3363.00    0.27569   0.45857   -1.000
 3364.00    0.29677   0.48841   -1.000
 3365.00    0.31174   0.49477   -1.000
 3366.00    0.30632   0.47845   -1.000
 3367.00    0.30890   0.45354   -1.000
 3368.00    0.30454   0.43020   -1.000
 3369.00    0.30817   0.41503   -1.000
 3370.00    0.27804   0.40681   -1.000
 3371.00    0.26039   0.40341   -1.000
 3372.00    0.24927   0.40868   -1.000
 3373.00    0.27245   0.42782   -1.000
 3374.00    0.31184   0.45834   -1.000
 3375.00    0.31428   0.49111   -1.000
 3376.00    0.33075   0.51288   -1.000
 3377.00    0.33804   0.51224   -1.000
 3378.00    0.31181   0.49016   -1.000
 3379.00    0.30866   0.46392   -1.000
 3380.00    0.31278   0.44962   -1.000
 3381.00    0.31025   0.45422   -1.000
 3382.00    0.32576   0.47003   -1.000
 3383.00    0.33404   0.48655   -1.000
 3384.00    0.34323   0.49922   -1.000
 3385.00    0.34268   0.50940   -1.000
 3386.00    0.35963   0.51437   -1.000
 3387.00    0.36594   0.51464   -1.000
 3388.00    0.34337   0.51386   -1.000
 3389.00    0.35527   0.51265   -1.000
 3390.00    0.37520   0.50702   -1.000
 3391.00    0.36327   0.49273   -1.000
 3392.00    0.35157   0.47635   -1.000
 3393.00    0.35561   0.47077   -1.000
 3394.00    0.36963   0.48125   -1.000
 3395.00    0.37746   0.50331   -1.000
 3396.00    0.39294   0.52567   -1.000
 3397.00    0.41787   0.54510   -1.000
 3398.00    0.43186   0.56105   -1.000
 3399.00    0.44602   0.56867   -1.000
 3400.00    0.45125   0.56566   -1.000
 3401.00    0.46269   0.55442   -1.000
 3402.00    0.46741   0.53809   -1.000
 3403.00    0.45382   0.52343   -1.000
 3404.00    0.45693   0.51345   -1.000
 3405.00    0.44401   0.50589   -1.000
 3406.00    0.41599   0.49819   -1.000
 3407.00    0.41331   0.49145   -1.000
 3408.00    0.42619   0.48986   -1.000
 3409.00    0.42162   0.49460   -1.000
 3410.00    0.40120   0.50262   -1.000
 3411.00    0.40545   0.50280   -1.000
 3412.00    0.41271   0.48963   -1.000
 3413.00    0.40521   0.47055   -1.000
 3414.00    0.42063   0.45759   70.458
 3415.00    0.41589   0.46173   -1.000
 3416.00    0.40321   0.48031   -1.000
 3417.00    0.41897   0.50687   -1.000
 3418.00    0.44814   0.53288   -1.000
 3419.00    0.47196   0.55349   -1.000
 3420.00    0.47119   0.56160   -1.000
 3421.00    0.46338   0.55320   -1.000
 3422.00    0.45989   0.53310   -1.000
 3423.00    0.46824   0.51821   -1.000
 3424.00    0.47458   0.51507   62.165
 3425.00    0.47890   0.51840   63.721
 3426.00    0.47277   0.52313   -1.000
 3427.00    0.46946   0.53138   -1.000
 3428.00    0.46077   0.54864   -1.000
 3429.00    0.47955   0.56977   -1.000
 3430.00    0.50064   0.57522   -1.000
 3431.00    0.49046   0.55991   -1.000
 3432.00    0.49036   0.53567   -1.000
 3433.00    0.48847   0.52123   -1.000
 3434.00    0.50022   0.52499   87.434
 3435.00    0.51155   0.53412   60.335
 3436.00    0.49155   0.53404   -1.000
 3437.00    0.47201   0.52014   -1.000
 3438.00    0.45234   0.49432   -1.000
 3439.00    0.44299   0.45921   62.020
 3440.00    0.41868   0.42487   65.480
 3441.00    0.39204   0.40173   70.258
 3442.00    0.40490   0.39718   74.054
 3443.00    0.41609   0.40802   75.130
 3444.00    0.39288   0.42550   74.948
 3445.00    0.40122   0.44367   72.841
 3446.00    0.42691   0.46380   69.198
 3447.00    0.44541   0.48648   65.376
 3448.00    0.47845   0.51154   62.658
 3449.00    0.50937   0.53358   -1.000
 3450.00    0.50891   0.54044   -1.000
 3451.00    0.50755   0.52860   -1.000
 3452.00    0.49105   0.51373   -1.000
 3453.00    0.48188   0.50964   -1.000
 3454.00    0.48266   0.51779   -1.000
 3455.00    0.51227   0.52566   -1.000
 3456.00    0.51832   0.52090  506.816
 3457.00    0.49963   0.50355  506.816
 3458.00    0.48340   0.48083  506.816
 3459.00    0.48393   0.46341   -1.000
 3460.00    0.46395   0.45451   88.151
 3461.00    0.45978   0.45807   60.888
 3462.00    0.49159   0.47632   60.907
 3463.00    0.50627   0.50091  144.566
 3464.00    0.50359   0.51108  506.816
 3465.00    0.52615   0.50717   -1.000
 3466.00    0.53272   0.50373   -1.000
 3467.00    0.51636   0.51065   -1.000
 3468.00    0.53898   0.52816   -1.000
 3469.00    0.54771   0.54518  506.816
 3470.00    0.53708   0.55070   -1.000
 3471.00    0.53585   0.53932  506.816
 3472.00    0.52671   0.51580   -1.000
 3473.00    0.49582   0.48645   -1.000
 3474.00    0.47479   0.45830   -1.000
 3475.00    0.46358   0.43846   -1.000
 3476.00    0.44871   0.43704   89.583
 3477.00    0.45267   0.45385   62.322
 3478.00    0.46849   0.47927   62.248
 3479.00    0.48030   0.50201  144.088
 3480.00    0.48887   0.51565   -1.000
 3481.00    0.52453   0.51730   -1.000
 3482.00    0.54101   0.50842   -1.000
 3483.00    0.52866   0.49747   -1.000
 3484.00    0.54489   0.49624   -1.000
 3485.00    0.55406   0.51099   -1.000
 3486.00    0.53121   0.53079  506.816
 3487.00    0.52456   0.53939   -1.000
 3488.00    0.53284   0.52636   -1.000
 3489.00    0.51536   0.49841   -1.000
 3490.00    0.49375   0.47276   -1.000
 3491.00    0.50809   0.46312   -1.000
 3492.00    0.49620   0.47035   -1.000
 3493.00    0.47080   0.48390   -1.000
 3494.00    0.48033   0.49228   -1.000
 3495.00    0.52149   0.48808   -1.000
 3496.00    0.52678   0.47892   -1.000
 3497.00    0.49941   0.48214   -1.000
 3498.00    0.50253   0.50588  506.816
 3499.00    0.53026   0.53768  506.816
 3500.00    0.54963   0.55743   -1.000
 3501.00    0.58228   0.56621   -1.000
 3502.00    0.59722   0.57402   -1.000
 3503.00    0.58502   0.57851  472.921
 3504.00    0.57602   0.57331  468.692
 3505.00    0.56825   0.56007   -1.000
 3506.00    0.54717   0.54828  484.813
 3507.00    0.55728   0.54453   -1.000
 3508.00    0.56765   0.54197   -1.000
 3509.00    0.56039   0.53241   -1.000
 3510.00    0.55217   0.51899   -1.000
 3511.00    0.54947   0.50476   -1.000
 3512.00    0.51228   0.48987   -1.000
 3513.00    0.49665   0.47611   -1.000
 3514.00    0.49458   0.47274   -1.000
 3515.00    0.48819   0.49149  506.816
 3516.00    0.52443   0.52822  506.816
 3517.00    0.56277   0.56165  506.816
 3518.00    0.58260   0.57482   -1.000
 3519.00    0.57527   0.56241   -1.000
 3520.00    0.54694   0.53558   -1.000
 3521.00    0.53421   0.50655   -1.000
 3522.00    0.52423   0.48281   -1.000
 3523.00    0.50260   0.46155   -1.000
 3524.00    0.47759   0.44207   -1.000
 3525.00    0.46500   0.43301   -1.000
 3526.00    0.46888   0.44555   61.675
 3527.00    0.47612   0.47725   62.249
 3528.00    0.49909   0.51584  139.514
 3529.00    0.52103   0.54379   -1.000
 3530.00    0.51299   0.55262   -1.000
 3531.00    0.51204   0.54671   -1.000
 3532.00    0.52880   0.54230   -1.000
 3533.00    0.53943   0.54802   -1.000
 3534.00    0.53486   0.55968   -1.000
 3535.00    0.54093   0.56917   -1.000
 3536.00    0.56544   0.57261   -1.000
 3537.00    0.57982   0.57675  485.311
 3538.00    0.56869   0.58616   -1.000
 3539.00    0.58565   0.59259   -1.000
 3540.00    0.57464   0.58942   -1.000
 3541.00    0.54504   0.57984   -1.000
 3542.00    0.53823   0.57568   -1.000
 3543.00    0.53742   0.58273   -1.000
 3544.00    0.54586   0.59289   -1.000
 3545.00    0.56570   0.59689   -1.000
 3546.00    0.56584   0.59167   -1.000
 3547.00    0.53682   0.58452   -1.000
 3548.00    0.54904   0.58239   -1.000
 3549.00    0.56094   0.58406   -1.000
 3550.00    0.55884   0.58326   -1.000
 3551.00    0.54252   0.57455   -1.000
 3552.00    0.52039   0.55884   -1.000
 3553.00    0.52898   0.54304   -1.000
 3554.00    0.51929   0.53638   -1.000
 3555.00    0.50388   0.54022   -1.000
 3556.00    0.51315   0.54584   -1.000
 3557.00    0.50735   0.54680   -1.000
 3558.00    0.50494   0.54291   -1.000
 3559.00    0.50003   0.54144   -1.000
 3560.00    0.49252   0.54853   -1.000
 3561.00    0.51778   0.56170   -1.000
 3562.00    0.53226   0.56984   -1.000
 3563.00    0.52667   0.55620   -1.000
 3564.00    0.52270   0.51994  506.816
 3565.00    0.48561   0.47926   -1.000
 3566.00    0.44700   0.45790   93.862
 3567.00    0.43495   0.45603   62.443
 3568.00    0.44051   0.45456   62.988
 3569.00    0.43600   0.44485   62.478
 3570.00    0.41441   0.43586   63.637
 3571.00    0.41514   0.43922   65.216
 3572.00    0.43831   0.45603   64.402
 3573.00    0.46188   0.47391   61.829
 3574.00    0.47159   0.48666  132.201
 3575.00    0.49481   0.49444  506.816
 3576.00    0.51095   0.49582   -1.000
 3577.00    0.50020   0.48650   -1.000
 3578.00    0.46354   0.46586  506.816
 3579.00    0.42589   0.43612  506.816
 3580.00    0.40972   0.40825   97.911
 3581.00    0.39934   0.39213   65.933
 3582.00    0.38851   0.39214   70.227
 3583.00    0.38833   0.39922   72.013
 3584.00    0.39147   0.39989   72.361
 3585.00    0.38749   0.39266   73.581
 3586.00    0.37400   0.38749   75.794
 3587.00    0.38279   0.39401   77.437
 3588.00    0.39550   0.41416   75.427
 3589.00    0.41919   0.44603   71.461
 3590.00    0.45113   0.48193   67.870
 3591.00    0.47896   0.51081   62.838
 3592.00    0.50595   0.52335  129.285
 3593.00    0.50937   0.52633   -1.000
 3594.00    0.51179   0.53376   -1.000
 3595.00    0.52923   0.55200   -1.000
 3596.00    0.54228   0.57523   -1.000
 3597.00    0.55444   0.59238   -1.000
 3598.00    0.57088   0.60445   -1.000
 3599.00    0.58531   0.61412   -1.000
 3600.00    0.59905   0.61315   -1.000
 3601.00    0.60064   0.59363  455.806
 3602.00    0.57193   0.56180   -1.000
 3603.00    0.53323   0.52968  496.318
 3604.00    0.51125   0.50909  506.816
 3605.00    0.50973   0.50183   -1.000
 3606.00    0.51278   0.49866   -1.000
 3607.00    0.50069   0.48867   -1.000
 3608.00    0.47354   0.47309  506.816
 3609.00    0.46413   0.46549  506.816
 3610.00    0.47820   0.47477   -1.000
 3611.00    0.49788   0.49684  506.816
 3612.00    0.51903   0.51722  506.816
 3613.00    0.52690   0.53267  506.816
 3614.00    0.54734   0.54801  506.816
 3615.00    0.55770   0.55908  506.816
 3616.00    0.55099   0.55087  499.035
 3617.00    0.54479   0.51733   -1.000
 3618.00    0.51289   0.47470   -1.000
 3619.00    0.48491   0.45743   -1.000
 3620.00    0.48589   0.47610   95.631
 3621.00    0.51916   0.51725  125.765
 3622.00    0.55965   0.55700  506.816
 3623.00    0.57617   0.58310   -1.000
 3624.00    0.58716   0.60420   -1.000
 3625.00    0.61120   0.63195   -1.000
 3626.00    0.64276   0.66133   -1.000
 3627.00    0.65425   0.67717   -1.000
 3628.00    0.64311   0.66478   -1.000
 3629.00    0.60863   0.62018   -1.000
 3630.00    0.56806   0.55741   -1.000
 3631.00    0.52329   0.50967   -1.000
 3632.00    0.49938   0.49334   -1.000
 3633.00    0.50529   0.50561  506.816
 3634.00    0.52321   0.53014  506.816
 3635.00    0.54678   0.55315  506.816
 3636.00    0.55738   0.57044   -1.000
 3637.00    0.57635   0.58953   -1.000
 3638.00    0.60126   0.61406   -1.000
 3639.00    0.62341   0.63599   -1.000
 3640.00    0.65374   0.64586  442.231
 3641.00    0.64770   0.63816   -1.000
 3642.00    0.61984   0.61625  442.127
 3643.00    0.58607   0.58966  455.585
 3644.00    0.56853   0.56477  476.449
 3645.00    0.55062   0.54362   -1.000
 3646.00    0.52391   0.52482  506.444
 3647.00    0.52666   0.50972   -1.000
 3648.00    0.51672   0.50754   -1.000
 3649.00    0.51623   0.52232  506.816
 3650.00    0.55697   0.55225  506.816
 3651.00    0.59767   0.58899   -1.000
 3652.00    0.61902   0.62331  478.143
 3653.00    0.63342   0.64474   -1.000
 3654.00    0.66157   0.65609  442.285
 3655.00    0.67658   0.66541   -1.000
 3656.00    0.65772   0.67818   -1.000
 3657.00    0.66168   0.69416   -1.000
 3658.00    0.68947   0.70589   -1.000
 3659.00    0.69618   0.71016   -1.000
 3660.00    0.68626   0.70652   -1.000
 3661.00    0.68341   0.69499   -1.000
 3662.00    0.68202   0.67806  416.813
 3663.00    0.67097   0.66428  421.397
 3664.00    0.66449   0.65887  427.492
 3665.00    0.66906   0.65998  432.511
 3666.00    0.65795   0.65963  430.777
 3667.00    0.63850   0.65074   -1.000
 3668.00    0.61676   0.63545   -1.000
 3669.00    0.60893   0.62488   -1.000
 3670.00    0.62730   0.63134  449.078
 3671.00    0.65651   0.65151  452.168
 3672.00    0.67527   0.67044  440.840
 3673.00    0.66538   0.67973   -1.000
 3674.00    0.65359   0.67924   -1.000
 3675.00    0.65360   0.66904   -1.000
 3676.00    0.64637   0.64809  424.069
 3677.00    0.64060   0.61977   -1.000
 3678.00    0.60924   0.59139   -1.000
 3679.00    0.58703   0.57270   -1.000
 3680.00    0.58507   0.57185   -1.000
 3681.00    0.58360   0.58716  476.262
 3682.00    0.61084   0.60677  468.349
 3683.00    0.63021   0.61768   -1.000
 3684.00    0.61324   0.61033  447.179
 3685.00    0.58972   0.58577  451.651
 3686.00    0.56865   0.55617   -1.000
 3687.00    0.55396   0.54316   -1.000
 3688.00    0.58036   0.55785   -1.000
 3689.00    0.61808   0.59699   -1.000
 3690.00    0.64850   0.64283  470.352
 3691.00    0.66975   0.67383  439.008
 3692.00    0.66448   0.67711   -1.000
 3693.00    0.65238   0.66138   -1.000
 3694.00    0.63755   0.64609   -1.000
 3695.00    0.63967   0.64048  432.027
 3696.00    0.65165   0.64577  433.430
 3697.00    0.65045   0.66133   -1.000
 3698.00    0.67392   0.68558   -1.000
 3699.00    0.70406   0.70791   -1.000
 3700.00    0.71014   0.71740   -1.000
 3701.00    0.70653   0.70527  395.965
 3702.00    0.66843   0.66779  397.953
 3703.00    0.62763   0.61026   -1.000
 3704.00    0.59841   0.55301   -1.000
 3705.00    0.55741   0.51320   -1.000
 3706.00    0.54164   0.49996   -1.000
 3707.00    0.54310   0.50468   -1.000
 3708.00    0.54021   0.51718   -1.000
 3709.00    0.56248   0.53838   -1.000
 3710.00    0.60691   0.57108   -1.000
 3711.00    0.63015   0.61074   -1.000
 3712.00    0.64248   0.65202   -1.000
 3713.00    0.68184   0.68613   -1.000
 3714.00    0.71170   0.70316  409.859
 3715.00    0.71569   0.69912   -1.000
 3716.00    0.69903   0.67650   -1.000
 3717.00    0.65478   0.63531   -1.000
 3718.00    0.58337   0.57644  410.697
 3719.00    0.52139   0.50863   -1.000
 3720.00    0.49118   0.45152   -1.000
 3721.00    0.47345   0.43029   -1.000
 3722.00    0.46894   0.45081  103.393
 3723.00    0.51332   0.50005  119.266
 3724.00    0.57004   0.55736   -1.000
 3725.00    0.61120   0.59675   -1.000
 3726.00    0.63161   0.60394   -1.000
 3727.00    0.62606   0.59376   -1.000
 3728.00    0.62233   0.58991   -1.000
 3729.00    0.61751   0.59311   -1.000
 3730.00    0.60946   0.58762   -1.000
 3731.00    0.59630   0.55841   -1.000
 3732.00    0.54511   0.50414   -1.000
 3733.00    0.47876   0.44423   -1.000
 3734.00    0.43345   0.39647   -1.000
 3735.00    0.40340   0.37520   63.871
 3736.00    0.40607   0.38670   68.758
 3737.00    0.44311   0.42850   67.953
 3738.00    0.50371   0.48799   62.817
 3739.00    0.55096   0.54983  115.045
 3740.00    0.57059   0.59220   -1.000
 3741.00    0.58104   0.60176   -1.000
 3742.00    0.57351   0.57974  448.869
 3743.00    0.55310   0.54229   -1.000
 3744.00    0.51786   0.50455   -1.000
 3745.00    0.49100   0.47711   -1.000
 3746.00    0.48104   0.45528   -1.000
 3747.00    0.45542   0.43072   -1.000
 3748.00    0.42898   0.40853  104.457
 3749.00    0.42682   0.40407   63.046
 3750.00    0.45624   0.43098   65.315
 3751.00    0.50925   0.48593   -1.000
 3752.00    0.56667   0.54859   -1.000
 3753.00    0.62138   0.60521   -1.000
 3754.00    0.66660   0.64734   -1.000
 3755.00    0.68777   0.65802   -1.000
 3756.00    0.65594   0.62908   -1.000
 3757.00    0.58026   0.57507  412.251
 3758.00    0.53469   0.52727   -1.000
 3759.00    0.53166   0.51223   -1.000
 3760.00    0.53887   0.52448   -1.000
 3761.00    0.55748   0.54283   -1.000
 3762.00    0.56625   0.55218   -1.000
 3763.00    0.55585   0.55352  469.465
 3764.00    0.55372   0.55349  463.049
 3765.00    0.56778   0.55096   -1.000
 3766.00    0.56745   0.54486   -1.000
 3767.00    0.56322   0.54243   -1.000
 3768.00    0.57395   0.54750   -1.000
 3769.00    0.59055   0.55578   -1.000
 3770.00    0.60783   0.56647   -1.000
 3771.00    0.62217   0.58492   -1.000
 3772.00    0.64193   0.61027   -1.000
 3773.00    0.66588   0.63349   -1.000
 3774.00    0.66362   0.64596   -1.000
 3775.00    0.65480   0.64985  417.454
 3776.00    0.65615   0.65345  416.653
 3777.00    0.65315   0.66178   -1.000
 3778.00    0.66080   0.67592   -1.000
 3779.00    0.67447   0.69288   -1.000
 3780.00    0.69329   0.70862   -1.000
 3781.00    0.71611   0.71930  389.562
 3782.00    0.73132   0.72470  383.984
 3783.00    0.72319   0.72379  381.598
 3784.00    0.69370   0.70838   -1.000
 3785.00    0.65374   0.67383   -1.000
 3786.00    0.61456   0.62988   -1.000
 3787.00    0.60097   0.59064   -1.000
 3788.00    0.58056   0.56695   -1.000
 3789.00    0.55290   0.56376   -1.000
 3790.00    0.55227   0.57489   -1.000
 3791.00    0.56530   0.58627   -1.000
 3792.00    0.57428   0.58586   -1.000
 3793.00    0.57045   0.56915  462.374
 3794.00    0.54996   0.54521  475.081
 3795.00    0.52882   0.52206   -1.000
 3796.00    0.52153   0.49888   -1.000
 3797.00    0.51301   0.47518   -1.000
 3798.00    0.49354   0.46267   -1.000
 3799.00    0.50519   0.47758   -1.000
 3800.00    0.55791   0.52128   -1.000
 3801.00    0.59886   0.57568   -1.000
 3802.00    0.62438   0.62368  473.088
 3803.00    0.64499   0.65425   -1.000
 3804.00    0.64629   0.66353   -1.000
 3805.00    0.62695   0.65188   -1.000
 3806.00    0.59335   0.63129   -1.000
 3807.00    0.56828   0.62026   -1.000
 3808.00    0.57421   0.62914   -1.000
 3809.00    0.60266   0.65002   -1.000
 3810.00    0.62328   0.66440   -1.000
 3811.00    0.61701   0.65701   -1.000
 3812.00    0.60309   0.62510   -1.000
 3813.00    0.58213   0.58148  441.495
 3814.00    0.53398   0.54153  467.486
 3815.00    0.49209   0.51983   -1.000
 3816.00    0.49314   0.51925   -1.000
 3817.00    0.50665   0.52678   -1.000
 3818.00    0.50093   0.52203   -1.000
 3819.00    0.47222   0.49922   -1.000
 3820.00    0.44080   0.47862   -1.000
 3821.00    0.44288   0.47791   -1.000
 3822.00    0.46255   0.49113   -1.000
 3823.00    0.46843   0.49371   -1.000
 3824.00    0.45848   0.47403   -1.000
 3825.00    0.42602   0.44797   -1.000
 3826.00    0.39490   0.43232   -1.000
 3827.00    0.39811   0.43179   63.714
 3828.00    0.40375   0.44111   64.080
 3829.00    0.41492   0.45146   63.254
 3830.00    0.42458   0.45277   62.216
 3831.00    0.41892   0.43929   62.114
 3832.00    0.40252   0.41558   63.957
 3833.00    0.38981   0.39364   68.019
 3834.00    0.39831   0.38470   71.812
 3835.00    0.40996   0.38824   72.091
 3836.00    0.41941   0.39710   69.837
 3837.00    0.41685   0.40290   67.662
 3838.00    0.40497   0.40440   67.684
 3839.00    0.39827   0.41051   69.270
 3840.00    0.41612   0.43124   69.448
 3841.00    0.44522   0.46968   66.731
 3842.00    0.48596   0.51519  116.419
 3843.00    0.52786   0.55487   -1.000
 3844.00    0.53948   0.57885   -1.000
 3845.00    0.54520   0.58888   -1.000
 3846.00    0.53210   0.59282   -1.000
 3847.00    0.52446   0.59256   -1.000
 3848.00    0.53315   0.58412   -1.000
 3849.00    0.51357   0.57126   -1.000
 3850.00    0.50112   0.56499   -1.000
 3851.00    0.51660   0.57152   -1.000
 3852.00    0.53038   0.58210   -1.000
 3853.00    0.52514   0.58398   -1.000
 3854.00    0.50685   0.57368   -1.000
 3855.00    0.49781   0.55722   -1.000
 3856.00    0.49406   0.54014   -1.000
 3857.00    0.48161   0.52066   -1.000
 3858.00    0.45927   0.49889   -1.000
 3859.00    0.43357   0.48603   -1.000
 3860.00    0.43254   0.49504   -1.000
 3861.00    0.45816   0.52807   -1.000
 3862.00    0.50336   0.56781   -1.000
 3863.00    0.54798   0.59193   -1.000
 3864.00    0.56518   0.59391   -1.000
 3865.00    0.55059   0.58496   -1.000
 3866.00    0.53954   0.57813   -1.000
 3867.00    0.52986   0.57503   -1.000
 3868.00    0.50496   0.56911   -1.000
 3869.00    0.48417   0.55502   -1.000
 3870.00    0.46044   0.53323   -1.000
 3871.00    0.44842   0.51532   -1.000
 3872.00    0.46387   0.51318   -1.000
 3873.00    0.49785   0.53399   -1.000
 3874.00    0.54256   0.56876   -1.000
 3875.00    0.56844   0.59412   -1.000
 3876.00    0.55626   0.58931   -1.000
 3877.00    0.52627   0.56223   -1.000
 3878.00    0.49448   0.54018   -1.000
 3879.00    0.48348   0.53481   -1.000
 3880.00    0.49163   0.53912   -1.000
 3881.00    0.49573   0.54439   -1.000
 3882.00    0.50468   0.55000   -1.000
 3883.00    0.54041   0.55879   -1.000
 3884.00    0.57341   0.55975   -1.000
 3885.00    0.56817   0.53923   -1.000
 3886.00    0.54403   0.50616   -1.000
 3887.00    0.52784   0.47949   -1.000
 3888.00    0.54028   0.47507   -1.000
 3889.00    0.56773   0.49852   -1.000
 3890.00    0.60711   0.54423   -1.000
 3891.00    0.66625   0.59773   -1.000
 3892.00    0.70209   0.63915   -1.000
 3893.00    0.69966   0.65449   -1.000
 3894.00    0.68978   0.65133   -1.000
 3895.00    0.68612   0.64860   -1.000
 3896.00    0.68875   0.65340   -1.000
 3897.00    0.69714   0.65957   -1.000
 3898.00    0.69811   0.65950   -1.000
 3899.00    0.69404   0.65508   -1.000
 3900.00    0.69039   0.65511   -1.000
 3901.00    0.69611   0.65933   -1.000
 3902.00    0.69523   0.65887   -1.000
 3903.00    0.67992   0.64885   -1.000
 3904.00    0.66014   0.63276   -1.000
 3905.00    0.64268   0.62208   -1.000
 3906.00    0.64585   0.62862   -1.000
 3907.00    0.68042   0.65602   -1.000
 3908.00    0.71667   0.69242   -1.000
 3909.00    0.73879   0.72223   -1.000
 3910.00    0.75627   0.73993   -1.000
 3911.00    0.77339   0.74977   -1.000
 3912.00    0.77833   0.75312   -1.000
 3913.00    0.76436   0.74878   -1.000
 3914.00    0.76206   0.73809   -1.000
 3915.00    0.75887   0.72592   -1.000
 3916.00    0.73979   0.71407   -1.000
 3917.00    0.71500   0.69978   -1.000
 3918.00    0.69302   0.67839   -1.000
 3919.00    0.65148   0.64899  400.612
 3920.00    0.61304   0.62044  415.319
 3921.00    0.60380   0.60378  434.575
 3922.00    0.60939   0.60400   -1.000
 3923.00    0.61603   0.61306   -1.000
 3924.00    0.61359   0.61655  446.060
 3925.00    0.59608   0.60461  443.359
 3926.00    0.55701   0.57323   -1.000
 3927.00    0.50713   0.52828   -1.000
 3928.00    0.46105   0.47891   -1.000
 3929.00    0.39987   0.43328   -1.000
 3930.00    0.34078   0.39248   -1.000
 3931.00    0.29644   0.35202   -1.000
 3932.00    0.27382   0.31231   -1.000
 3933.00    0.25743   0.28412  116.201
 3934.00    0.23936   0.28273   -1.000
 3935.00    0.24592   0.31028   -1.000
 3936.00    0.29491   0.35534   -1.000
 3937.00    0.36552   0.40768   -1.000
 3938.00    0.43090   0.46219   86.057
 3939.00    0.48103   0.50999   71.516
 3940.00    0.50968   0.54552   -1.000
 3941.00    0.51930   0.56455   -1.000
 3942.00    0.52512   0.56837   -1.000
 3943.00    0.53404   0.57087   -1.000
 3944.00    0.55540   0.58645   -1.000
 3945.00    0.60164   0.61507   -1.000
 3946.00    0.64930   0.64446   -1.000
 3947.00    0.66684   0.66487  428.475
 3948.00    0.67967   0.67910  413.290
 3949.00    0.70731   0.69601   -1.000
 3950.00    0.73443   0.71320   -1.000
 3951.00    0.74697   0.71981   -1.000
 3952.00    0.74277   0.72044   -1.000
 3953.00    0.74875   0.72610   -1.000
 3954.00    0.76361   0.73266   -1.000
 3955.00    0.76102   0.73041   -1.000
 3956.00    0.74691   0.71962   -1.000
 3957.00    0.72889   0.70944   -1.000
 3958.00    0.72075   0.70378   -1.000
 3959.00    0.71250   0.68699   -1.000
 3960.00    0.66479   0.64331   -1.000
 3961.00    0.59124   0.58632   -1.000
 3962.00    0.52443   0.53747   -1.000
 3963.00    0.48873   0.50494   -1.000
 3964.00    0.47057   0.47711  506.816
 3965.00    0.43114   0.43648  123.103
 3966.00    0.37471   0.38097   67.298
 3967.00    0.31666   0.32281   80.673
 3968.00    0.28008   0.28347   99.255
 3969.00    0.28869   0.27808  116.327
 3970.00    0.32345   0.30643  118.676
 3971.00    0.37889   0.35791  103.823
 3972.00    0.44127   0.42065   85.368
 3973.00    0.50213   0.48507   70.775
 3974.00    0.56207   0.54721  106.429
 3975.00    0.61159   0.60356   -1.000
 3976.00    0.67566   0.65444   -1.000
 3977.00    0.74232   0.70198   -1.000
 3978.00    0.78467   0.74584   -1.000
 3979.00    0.82333   0.78223   -1.000
 3980.00    0.85135   0.80146   -1.000
 3981.00    0.84852   0.80265   -1.000
 3982.00    0.83627   0.79459   -1.000
 3983.00    0.83712   0.79108   -1.000
 3984.00    0.84040   0.80056   -1.000
 3985.00    0.84578   0.81794   -1.000
 3986.00    0.86983   0.83655   -1.000
 3987.00    0.89173   0.85407   -1.000
 3988.00    0.89978   0.86636   -1.000
 3989.00    0.90348   0.87084   -1.000
 3990.00    0.89249   0.87412   -1.000
 3991.00    0.90420   0.88331   -1.000
 3992.00    0.94215   0.89645   -1.000
 3993.00    0.94820   0.90410   -1.000
 3994.00    0.93304   0.89827   -1.000
 3995.00    0.91807   0.87974   -1.000
 3996.00    0.88387   0.85973   -1.000
 3997.00    0.86793   0.85423   -1.000
 3998.00    0.89458   0.86928   -1.000
 3999.00    0.93648   0.89787   -1.000
 4000.00    0.97397   0.92585   -1.000
 4001.00    0.98083   0.94485   -1.000
 4002.00    0.99039   0.94855   -1.000
 4003.00    0.99391   0.92913   -1.000
 4004.00    0.94518   0.88783   -1.000
 4005.00    0.88747   0.84967   -1.000
 4006.00    0.87158   0.84347   -1.000
 4007.00    0.90352   0.87241   -1.000
 4008.00    0.94813   0.91415   -1.000
 4009.00    0.98220   0.94378   -1.000
 4010.00    0.99677   0.95827   -1.000
 4011.00    1.00155   0.96426   -1.000
 4012.00    1.00491   0.96686   -1.000
 4013.00    0.99537   0.97157   -1.000
 4014.00    0.99824   0.97828   -1.000
 4015.00    1.03514   0.98113   -1.000
 4016.00    1.02304   0.97878   -1.000
 4017.00    0.99583   0.97756   -1.000
 4018.00    0.99817   0.98337  289.846
 4019.00    1.00393   0.99285  291.250
 4020.00    1.01773   0.99816   -1.000
 4021.00    1.02017   0.99465   -1.000
 4022.00    1.01419   0.98511   -1.000
 4023.00    0.99710   0.97358   -1.000
 4024.00    0.98612   0.96501   -1.000
 4025.00    1.00632   0.96852   -1.000
 4026.00    1.03660   0.98914   -1.000
 4027.00    1.07448   1.01325   -1.000
 4028.00    1.08512   1.01522   -1.000
 4029.00    1.04287   0.98014   -1.000
 4030.00    0.96955   0.92041   -1.000
 4031.00    0.91329   0.86688   -1.000
 4032.00    0.88242   0.83803   -1.000
 4033.00    0.88321   0.83819   -1.000
 4034.00    0.91277   0.86627   -1.000
 4035.00    0.97494   0.91740   -1.000
 4036.00    1.02327   0.97723   -1.000
 4037.00    1.05630   1.02731   -1.000
 4038.00    1.07621   1.04950   -1.000
 4039.00    1.07438   1.04338   -1.000
 4040.00    1.07073   1.02560   -1.000
 4041.00    1.05023   1.01014   -1.000
 4042.00    1.02976   0.98675   -1.000
 4043.00    0.98938   0.93367   -1.000
 4044.00    0.89826   0.85547   -1.000
 4045.00    0.81856   0.79454   -1.000
 4046.00    0.81611   0.79668   -1.000
 4047.00    0.89733   0.86015   -1.000
 4048.00    0.98901   0.93941   -1.000
 4049.00    1.04077   0.99920   -1.000
 4050.00    1.06210   1.02668   -1.000
 4051.00    1.06660   1.02743   -1.000
 4052.00    1.05044   1.01163   -1.000
 4053.00    1.02262   0.98812   -1.000
 4054.00    1.00000   0.96543   -1.000
 4055.00    0.97931   0.94693   -1.000
 4056.00    0.96198   0.93080   -1.000
 4057.00    0.95676   0.92103   -1.000
 4058.00    0.96586   0.92922   -1.000
 4059.00    0.98520   0.95310   -1.000
 4060.00    0.99515   0.96839   -1.000
 4061.00    0.98439   0.94857   -1.000
 4062.00    0.94525   0.89495   -1.000
 4063.00    0.89400   0.84630   -1.000
 4064.00    0.87767   0.83226   -1.000
 4065.00    0.90753   0.84975   -1.000
 4066.00    0.95052   0.88345   -1.000
 4067.00    0.98745   0.91919   -1.000
 4068.00    1.01690   0.94658   -1.000
 4069.00    1.02228   0.95293   -1.000
 4070.00    1.00096   0.92978   -1.000
 4071.00    0.97071   0.89753   -1.000
 4072.00    0.96346   0.89177   -1.000
 4073.00    0.98497   0.91368   -1.000
 4074.00    0.99508   0.93071   -1.000
 4075.00    0.97218   0.91342   -1.000
 4076.00    0.92468   0.87106   -1.000
 4077.00    0.88170   0.84417   -1.000
 4078.00    0.88850   0.85909   -1.000
 4079.00    0.95201   0.91332   -1.000
 4080.00    1.02017   0.97640   -1.000
 4081.00    1.06334   1.01542   -1.000
 4082.00    1.07301   1.01665   -1.000
 4083.00    1.04088   0.99374   -1.000
 4084.00    1.01218   0.97481   -1.000
 4085.00    1.01664   0.98021   -1.000
 4086.00    1.05453   1.01180   -1.000
 4087.00    1.09281   1.05290   -1.000
 4088.00    1.11954   1.08401   -1.000
 4089.00    1.13228   1.09219   -1.000
 4090.00    1.12962   1.07932   -1.000
 4091.00    1.11489   1.05993   -1.000
 4092.00    1.09395   1.04596   -1.000
 4093.00    1.08498   1.03337   -1.000
 4094.00    1.07883   1.01204   -1.000
 4095.00    1.04417   0.97969   -1.000
 4096.00    0.99337   0.94558   -1.000
 4097.00    0.97291   0.92052   -1.000
 4098.00    0.96155   0.89732   -1.000
 4099.00    0.93093   0.85904   -1.000
 4100.00    0.88760   0.80771   -1.000
 4101.00    0.84435   0.76845   -1.000
 4102.00    0.82844   0.76712   -1.000
 4103.00    0.86907   0.81063   -1.000
 4104.00    0.93508   0.87712   -1.000
 4105.00    0.99585   0.93834   -1.000
 4106.00    1.04354   0.97862   -1.000
 4107.00    1.05037   0.99602   -1.000
 4108.00    1.03370   0.99476   -1.000
 4109.00    1.00700   0.98342   -1.000
 4110.00    0.99362   0.97363   -1.000
 4111.00    0.99482   0.97538   -1.000
 4112.00    1.00478   0.99031  304.752
 4113.00    1.03172   1.01349   -1.000
 4114.00    1.06864   1.03660   -1.000
 4115.00    1.08345   1.05057   -1.000
 4116.00    1.06406   1.04774   -1.000
 4117.00    1.02525   1.02804  283.697
 4118.00    1.00606   1.00259  287.065
 4119.00    0.99476   0.98650  294.763
 4120.00    1.01296   0.98636   -1.000
 4121.00    1.03484   0.99433   -1.000
 4122.00    1.02779   1.00201   -1.000
 4123.00    1.01947   1.01074  297.250
 4124.00    1.04316   1.02178   -1.000
 4125.00    1.06256   1.02876   -1.000
 4126.00    1.04462   1.02372   -1.000
 4127.00    1.03033   1.00813   -1.000
 4128.00    1.02538   0.99211   -1.000
 4129.00    1.00266   0.97904   -1.000
 4130.00    0.98520   0.96039   -1.000
 4131.00    0.96488   0.93282   -1.000
 4132.00    0.92009   0.90843  310.023
 4133.00    0.90488   0.90779  319.998
 4134.00    0.93967   0.93715  326.441
 4135.00    0.98809   0.98210  322.378
 4136.00    1.03940   1.02436   -1.000
 4137.00    1.06444   1.05448  295.623
 4138.00    1.06007   1.07185   -1.000
 4139.00    1.06373   1.07579   -1.000
 4140.00    1.05137   1.05697  280.448
 4141.00    1.00661   1.00725  282.105
 4142.00    0.94132   0.94005  291.570
 4143.00    0.88196   0.89285   -1.000
 4144.00    0.87368   0.89337   -1.000
 4145.00    0.93683   0.93515  339.042
 4146.00    0.99683   0.98544   -1.000
 4147.00    1.02568   1.01237   -1.000
 4148.00    1.01727   1.01178  298.017
 4149.00    0.99553   0.99919  298.515
 4150.00    0.97890   0.98968   -1.000
 4151.00    0.96096   0.98620   -1.000
 4152.00    0.96101   0.98248   -1.000
 4153.00    0.96250   0.97427   -1.000
 4154.00    0.96002   0.96500  311.439
 4155.00    0.94718   0.96252   -1.000
 4156.00    0.93962   0.97239   -1.000
 4157.00    0.96292   0.99331   -1.000
 4158.00    1.12026   1.02048   -1.000
 4159.00    1.33233   1.04667   -1.000
 4160.00    1.11072   1.06638   -1.000
 4161.00    0.74552   1.08037   -1.000
 4162.00    0.94805   1.08976   -1.000
 4163.00    1.10764   1.09173   -1.000
 4164.00    1.05084   1.08248   -1.000
 4165.00    1.02546   1.06291   -1.000
 4166.00    1.00108   1.04026   -1.000
 4167.00    0.98397   1.02749   -1.000
 4168.00    0.98963   1.02926   -1.000
 4169.00    1.00275   1.03378   -1.000
 4170.00    0.99741   1.02061   -1.000
 4171.00    0.96474   0.98263   -1.000
 4172.00    0.92169   0.94051   -1.000
 4173.00    0.89697   0.92049   -1.000
 4174.00    0.89810   0.93003   -1.000
 4175.00    0.93542   0.95300   -1.000
 4176.00    0.95501   0.96955   -1.000
 4177.00    0.94576   0.97824   -1.000
 4178.00    0.94090   0.98773   -1.000
 4179.00    0.95099   0.99890   -1.000
 4180.00    0.96837   1.00537   -1.000
 4181.00    0.97974   1.00445   -1.000
 4182.00    0.97762   1.00597   -1.000
 4183.00    0.99567   1.02049   -1.000
 4184.00    1.03103   1.03755  305.828
 4185.00    1.03788   1.03878  299.877
 4186.00    1.01588   1.01969  296.762
 4187.00    0.97865   0.99843   -1.000
 4188.00    0.95481   0.99654   -1.000
 4189.00    0.98332   1.01109   -1.000
 4190.00    1.00754   1.02730   -1.000
 4191.00    1.02053   1.04149   -1.000
 4192.00    1.03453   1.05572   -1.000
 4193.00    1.04018   1.06322   -1.000
 4194.00    1.03124   1.04942   -1.000
 4195.00    0.99208   1.01110   -1.000
 4196.00    0.95912   0.96722   -1.000
 4197.00    0.92878   0.93604  318.444
 4198.00    0.92668   0.92264  326.979
 4199.00    0.93006   0.92132  330.715
 4200.00    0.93557   0.92594  329.654
 4201.00    0.94148   0.93368  325.273
 4202.00    0.94725   0.94684  321.620
 4203.00    0.97288   0.97124  320.423
 4204.00    0.99838   1.00556  317.181
 4205.00    1.01428   1.04021   -1.000
 4206.00    1.03627   1.06922   -1.000
 4207.00    1.05167   1.09011   -1.000
 4208.00    1.07573   1.09752   -1.000
 4209.00    1.09088   1.09320  291.577
 4210.00    1.07916   1.08822   -1.000
 4211.00    1.06927   1.08969   -1.000
 4212.00    1.07663   1.08906   -1.000
 4213.00    1.05335   1.06877   -1.000
 4214.00    1.00229   1.03108   -1.000
 4215.00    0.96268   1.00416   -1.000
 4216.00    0.98451   1.01336   -1.000
 4217.00    1.05729   1.05971  319.378
 4218.00    1.12220   1.11413  304.319
 4219.00    1.16260   1.15167  286.859
 4220.00    1.18028   1.16247   -1.000
 4221.00    1.17439   1.14451   -1.000
 4222.00    1.13048   1.09598   -1.000
 4223.00    1.06147   1.01729   -1.000
 4224.00    0.96911   0.91672   -1.000
 4225.00    0.84911   0.82174   -1.000
 4226.00    0.75332   0.77066   -1.000
 4227.00    0.75515   0.79529   -1.000
 4228.00    0.85968   0.88825   -1.000
 4229.00    1.00245   1.00136  361.384
 4230.00    1.10273   1.07829   -1.000
 4231.00    1.12998   1.10199   -1.000
 4232.00    1.10475   1.08868   -1.000
 4233.00    1.08744   1.06024   -1.000
 4234.00    1.06346   1.03252   -1.000
 4235.00    1.04050   1.01465   -1.000
 4236.00    1.02499   1.00837   -1.000
 4237.00    1.03703   1.01491   -1.000
 4238.00    1.05135   1.03440   -1.000
 4239.00    1.06443   1.06102  303.536
 4240.00    1.08388   1.08830  297.283
 4241.00    1.12006   1.11358  292.603
 4242.00    1.13541   1.13678  287.517
 4243.00    1.15165   1.16051   -1.000
 4244.00    1.18680   1.18008  282.156
 4245.00    1.18642   1.17864  276.768
 4246.00    1.15564   1.14565  273.989
 4247.00    1.10525   1.09272  280.586
 4248.00    1.05789   1.04156   -1.000
 4249.00    1.02627   1.01122   -1.000
 4250.00    1.01216   1.00779  308.807
 4251.00    1.03588   1.02451   -1.000
 4252.00    1.06255   1.04017   -1.000
 4253.00    1.07509   1.03928   -1.000
 4254.00    1.05045   1.03317   -1.000
 4255.00    1.05092   1.04527  297.101
 4256.00    1.09020   1.07622   -1.000
 4257.00    1.10954   1.09174   -1.000
 4258.00    1.08847   1.06587   -1.000
 4259.00    1.01947   1.01771  288.030
 4260.00    0.97627   0.99085   -1.000
 4261.00    0.99488   1.01510   -1.000
 4262.00    1.06552   1.08075   -1.000
 4263.00    1.14925   1.15277  300.514
 4264.00    1.19222   1.19849  283.099
 4265.00    1.19987   1.20968   -1.000
 4266.00    1.19262   1.19510  268.101
 4267.00    1.15934   1.16083  269.384
 4268.00    1.11843   1.10821  275.555
 4269.00    1.06320   1.04090   -1.000
 4270.00    0.99178   0.96793   -1.000
 4271.00    0.91939   0.91072  308.221
 4272.00    0.88171   0.88681  328.524
 4273.00    0.88855   0.89867   -1.000
 4274.00    0.92532   0.93685   -1.000
 4275.00    0.98196   0.99355   -1.000
 4276.00    1.05843   1.06165  322.872
 4277.00    1.12590   1.12122  305.811
 4278.00    1.15191   1.14424  287.699
 4279.00    1.12685   1.12857  279.049
 4280.00    1.08999   1.09998   -1.000
 4281.00    1.07398   1.08767   -1.000
 4282.00    1.08050   1.09421   -1.000
 4283.00    1.09647   1.09908  301.473
 4284.00    1.08224   1.09056  297.550
 4285.00    1.04426   1.07266   -1.000
 4286.00    1.01264   1.05297   -1.000
 4287.00    1.00162   1.02927   -1.000
 4288.00    0.98314   0.99362  318.259
 4289.00    0.93343   0.95453   -1.000
 4290.00    0.91299   0.93947   -1.000
 4291.00    0.95158   0.96355   -1.000
 4292.00    1.00819   1.00851  344.694
 4293.00    1.04410   1.03910  325.064
 4294.00    1.05485   1.04099   -1.000
 4295.00    1.04873   1.02337   -1.000
 4296.00    1.03101   0.99232   -1.000
 4297.00    0.98132   0.94389   -1.000
 4298.00    0.90256   0.88275   -1.000
 4299.00    0.83305   0.82780   -1.000
 4300.00    0.80068   0.79962  376.909
 4301.00    0.80584   0.80044   -1.000
 4302.00    0.82226   0.81596   -1.000
 4303.00    0.85161   0.83172   -1.000
 4304.00    0.86233   0.84018   -1.000
 4305.00    0.83963   0.83330   -1.000
 4306.00    0.81357   0.80674   -1.000
 4307.00    0.78284   0.77193   -1.000
 4308.00    0.75922   0.75205   -1.000
 4309.00    0.76607   0.76424   -1.000
 4310.00    0.79734   0.80679  414.512
 4311.00    0.84676   0.86603   -1.000
 4312.00    0.91406   0.92936   -1.000
 4313.00    0.97754   0.99892   -1.000
 4314.00    1.05482   1.08352   -1.000
 4315.00    1.15677   1.18008   -1.000
 4316.00    1.26033   1.27142   -1.000
 4317.00    1.33054   1.32962  274.629
 4318.00    1.34950   1.34314  257.775
 4319.00    1.33029   1.32432  252.058
 4320.00    1.29351   1.28805  253.670
 4321.00    1.24835   1.23494  258.391
 4322.00    1.18558   1.15930   -1.000
 4323.00    1.09921   1.06292   -1.000
 4324.00    0.99339   0.97475   -1.000
 4325.00    0.93027   0.94075   -1.000
 4326.00    0.95391   0.98688   -1.000
 4327.00    1.07495   1.09145   -1.000
 4328.00    1.20503   1.19967  311.553
 4329.00    1.26695   1.26365  281.643
 4330.00    1.28197   1.28285  266.677
 4331.00    1.28130   1.28571  264.144
 4332.00    1.29461   1.29512  264.671
 4333.00    1.32167   1.31097  262.027
 4334.00    1.32898   1.31624  257.919
 4335.00    1.31962   1.29101   -1.000
 4336.00    1.25522   1.22263   -1.000
 4337.00    1.17100   1.11880   -1.000
 4338.00    1.07612   1.01021   -1.000
 4339.00    0.98683   0.93891   -1.000
 4340.00    0.95212   0.92725   -1.000
 4341.00    0.98374   0.97305  363.989
 4342.00    1.08394   1.05341   -1.000
 4343.00    1.17603   1.13492   -1.000
 4344.00    1.22533   1.19559   -1.000
 4345.00    1.25705   1.23646   -1.000
 4346.00    1.27002   1.26761  276.874
 4347.00    1.27842   1.29586   -1.000
 4348.00    1.31638   1.31440  266.400
 4349.00    1.32962   1.29984   -1.000
 4350.00    1.26183   1.24180   -1.000
 4351.00    1.16618   1.16914  265.558
 4352.00    1.10591   1.12840   -1.000
 4353.00    1.13730   1.14377  298.733
 4354.00    1.18667   1.19458  296.744
 4355.00    1.23280   1.24521   -1.000
 4356.00    1.26891   1.27593  271.918
 4357.00    1.28698   1.28384  264.597
 4358.00    1.27584   1.27525  260.975
 4359.00    1.25284   1.26904   -1.000
 4360.00    1.26548   1.28289   -1.000
 4361.00    1.30426   1.31272   -1.000
 4362.00    1.34012   1.34329  262.253
 4363.00    1.35889   1.36604  255.715
 4364.00    1.36648   1.37904   -1.000
 4365.00    1.36347   1.37509   -1.000
 4366.00    1.33206   1.34595   -1.000
 4367.00    1.28439   1.30255   -1.000
 4368.00    1.25524   1.27111   -1.000
 4369.00    1.26121   1.26102  268.655
 4370.00    1.27061   1.25988  269.537
 4371.00    1.28050   1.25058   -1.000
 4372.00    1.25734   1.22363   -1.000
 4373.00    1.21317   1.18114   -1.000
 4374.00    1.16614   1.14172   -1.000
 4375.00    1.14581   1.13442  283.315
 4376.00    1.19006   1.16901   -1.000
 4377.00    1.25869   1.22321   -1.000
 4378.00    1.30541   1.25986   -1.000
 4379.00    1.29549   1.25836   -1.000
 4380.00    1.25809   1.21464   -1.000
 4381.00    1.21102   1.12862   -1.000
 4382.00    1.09901   1.01657   -1.000
 4383.00    0.97201   0.92660   -1.000
 4384.00    0.92189   0.90755   -1.000
 4385.00    0.99072   0.96738   -1.000
 4386.00    1.09849   1.06197   -1.000
 4387.00    1.17701   1.13149   -1.000
 4388.00    1.20300   1.15652   -1.000
 4389.00    1.20914   1.15695   -1.000
 4390.00    1.19970   1.15873   -1.000
 4391.00    1.20410   1.17222   -1.000
 4392.00    1.21951   1.19023   -1.000
 4393.00    1.23859   1.20076   -1.000
 4394.00    1.22718   1.20546   -1.000
 4395.00    1.22246   1.22285  273.602
 4396.00    1.28169   1.25957   -1.000
 4397.00    1.33306   1.29178   -1.000
 4398.00    1.33941   1.29162   -1.000
 4399.00    1.29803   1.26080   -1.000
 4400.00    1.25100   1.22947   -1.000
 4401.00    1.23334   1.21295   -1.000
 4402.00    1.23863   1.19346   -1.000
 4403.00    1.21410   1.15042   -1.000
 4404.00    1.13586   1.09669   -1.000
 4405.00    1.09016   1.07112   -1.000
 4406.00    1.10780   1.09022   -1.000
 4407.00    1.15902   1.13237   -1.000
 4408.00    1.18220   1.17960  286.034
 4409.00    1.21700   1.23491   -1.000
 4410.00    1.30090   1.29915  277.667
 4411.00    1.37260   1.34995   -1.000
 4412.00    1.38993   1.35619   -1.000
 4413.00    1.36612   1.31314   -1.000
 4414.00    1.29475   1.24796   -1.000
 4415.00    1.21689   1.20071   -1.000
 4416.00    1.20632   1.20489  271.957
 4417.00    1.25710   1.25704  278.097
 4418.00    1.31641   1.32277  273.492
 4419.00    1.36628   1.36626  262.991
 4420.00    1.38414   1.37106   -1.000
 4421.00    1.34430   1.34363  248.562
 4422.00    1.29727   1.31020   -1.000
 4423.00    1.28060   1.29528   -1.000
 4424.00    1.28310   1.30017   -1.000
 4425.00    1.28698   1.31085   -1.000
 4426.00    1.28332   1.31868   -1.000
 4427.00    1.28130   1.32488   -1.000
 4428.00    1.29180   1.32783   -1.000
 4429.00    1.29028   1.32424   -1.000
 4430.00    1.27553   1.31783   -1.000
 4431.00    1.26588   1.31557   -1.000
 4432.00    1.27210   1.31066   -1.000
 4433.00    1.25583   1.28657   -1.000
 4434.00    1.20919   1.25027   -1.000
 4435.00    1.18973   1.23567   -1.000
 4436.00    1.22491   1.26931   -1.000
 4437.00    1.30228   1.33977   -1.000
 4438.00    1.37661   1.40250   -1.000
 4439.00    1.41210   1.42165  249.105
 4440.00    1.38690   1.39127  241.660
 4441.00    1.31593   1.33675   -1.000
 4442.00    1.26649   1.29549   -1.000
 4443.00    1.25819   1.29537   -1.000
 4444.00    1.30518   1.33665   -1.000
 4445.00    1.37563   1.39307   -1.000
 4446.00    1.42642   1.43393  259.403
 4447.00    1.43460   1.44801   -1.000
 4448.00    1.42821   1.44661   -1.000
 4449.00    1.41926   1.44175   -1.000
 4450.00    1.41095   1.43376   -1.000
 4451.00    1.41531   1.41944  251.330
 4452.00    1.40580   1.39307   -1.000
 4453.00    1.35814   1.34805  251.412
 4454.00    1.29958   1.29151  255.392
 4455.00    1.25058   1.25024  265.925
 4456.00    1.23867   1.24000  276.514
 4457.00    1.26210   1.24877   -1.000
 4458.00    1.28632   1.25549   -1.000
 4459.00    1.26336   1.25136   -1.000
 4460.00    1.23582   1.24440  270.929
 4461.00    1.23404   1.24933   -1.000
 4462.00    1.26755   1.27655  275.614
 4463.00    1.31342   1.32040  275.843
 4464.00    1.36295   1.36013  268.445
 4465.00    1.38175   1.37991  258.774
 4466.00    1.38792   1.38007  254.466
 4467.00    1.38283   1.36980   -1.000
 4468.00    1.35916   1.35801  255.460
 4469.00    1.33805   1.35370   -1.000
 4470.00    1.34273   1.36808   -1.000
 4471.00    1.38303   1.40435   -1.000
 4472.00    1.44193   1.44918  258.008
 4473.00    1.47769   1.48685  249.423
 4474.00    1.50114   1.51096  241.270
 4475.00    1.50169   1.52752   -1.000
 4476.00    1.52202   1.54483   -1.000
 4477.00    1.55102   1.55359  234.794
 4478.00    1.54564   1.53253  232.778
 4479.00    1.48735   1.47574  232.381
 4480.00    1.40129   1.40819  236.370
 4481.00    1.35303   1.37021   -1.000
 4482.00    1.35013   1.38393   -1.000
 4483.00    1.40954   1.44072   -1.000
 4484.00    1.49298   1.50861   -1.000
 4485.00    1.55344   1.55575  244.033
 4486.00    1.55700   1.56352  235.954
 4487.00    1.53052   1.53137  232.527
 4488.00    1.48355   1.47841  234.439
 4489.00    1.42780   1.43792   -1.000
 4490.00    1.40599   1.43257   -1.000
 4491.00    1.43427   1.45518   -1.000
 4492.00    1.46846   1.47379  248.587
 4493.00    1.46217   1.46220  242.433
 4494.00    1.42438   1.43008  240.659
 4495.00    1.38027   1.40970   -1.000
 4496.00    1.39259   1.42281   -1.000
 4497.00    1.43603   1.46240   -1.000
 4498.00    1.47391   1.50260   -1.000
 4499.00    1.50842   1.52320   -1.000
 4500.00    1.50619   1.52423   -1.000
 4501.00    1.50141   1.52540   -1.000
 4502.00    1.51934   1.54512   -1.000
 4503.00    1.55884   1.58258   -1.000
 4504.00    1.59795   1.62139   -1.000
 4505.00    1.60715   1.64208   -1.000
 4506.00    1.59586   1.63773   -1.000
 4507.00    1.59429   1.62013   -1.000
 4508.00    1.60085   1.60701  228.332
 4509.00    1.60776   1.60582  229.909
 4510.00    1.61303   1.60978  229.491
 4511.00    1.59502   1.60499  227.668
 4512.00    1.57797   1.58403  226.980
 4513.00    1.55041   1.55494  229.748
 4514.00    1.52689   1.53185  234.338
 4515.00    1.51765   1.52150  237.810
 4516.00    1.52493   1.52009  238.474
 4517.00    1.51687   1.51991  237.411
 4518.00    1.50928   1.52237   -1.000
 4519.00    1.53569   1.53542  240.766
 4520.00    1.57009   1.55577   -1.000
 4521.00    1.58772   1.56767   -1.000
 4522.00    1.55868   1.55908  232.791
 4523.00    1.51748   1.53294   -1.000
 4524.00    1.49412   1.49992  240.611
 4525.00    1.46887   1.46264  244.745
 4526.00    1.41390   1.41753  247.185
 4527.00    1.35235   1.36864   -1.000
 4528.00    1.31546   1.33096   -1.000
 4529.00    1.32756   1.31959  266.361
 4530.00    1.36434   1.33617   -1.000
 4531.00    1.39003   1.36621   -1.000
 4532.00    1.37965   1.38787  260.325
 4533.00    1.37048   1.38753   -1.000
 4534.00    1.34411   1.37403   -1.000
 4535.00    1.34096   1.37516   -1.000
 4536.00    1.39028   1.41320   -1.000
 4537.00    1.48807   1.47719   -1.000
 4538.00    1.56190   1.53084   -1.000
 4539.00    1.56329   1.54812   -1.000
 4540.00    1.54167   1.53523  231.866
 4541.00    1.52397   1.51882  235.340
 4542.00    1.52606   1.51574  239.783
 4543.00    1.53080   1.52041  238.857
 4544.00    1.50344   1.51939   -1.000
 4545.00    1.49615   1.50923   -1.000
 4546.00    1.47725   1.49764   -1.000
 4547.00    1.17142   1.48817   -1.000
 4548.00    0.20125   1.47622   -1.000
 4549.00   -0.00183   1.46382    0.000
 4550.00    0.31992   1.46211   -1.000
 4551.00    0.99227   1.47396   -1.000
 4552.00    0.52245   1.48384   -1.000
 4553.00    1.19669   1.47791   -1.000
 4554.00    1.51121   1.46517   -1.000
 4555.00    1.46335   1.46721  252.738
 4556.00    1.49980   1.49733  253.536
 4557.00    1.55501   1.54746  248.118
 4558.00    1.60668   1.59410   -1.000
 4559.00    1.63200   1.62198  230.187
 4560.00    1.62266   1.63246  227.630
 4561.00    1.62505   1.62890  228.823
 4562.00    1.60588   1.60991  228.656
 4563.00    1.55554   1.57612   -1.000
 4564.00    1.51606   1.54123   -1.000
 4565.00    1.49299   1.52644   -1.000
 4566.00    1.51756   1.54252   -1.000
 4567.00    1.58710   1.57961  239.796
 4568.00    1.62249   1.61304  233.480
 4569.00    1.62502   1.62119  228.171
 4570.00    1.58954   1.60277   -1.000
 4571.00    1.54250   1.57548   -1.000
 4572.00    1.53663   1.56349   -1.000
 4573.00    1.57160   1.57857  241.133
 4574.00    1.61524   1.60705  237.712
 4575.00    1.63533   1.62628  231.130
 4576.00    1.63725   1.62761  228.790
 4577.00    1.61634   1.61364  229.287
 4578.00    1.58133   1.58529  230.447
 4579.00    1.52875   1.54532   -1.000
 4580.00    1.47954   1.50733   -1.000
 4581.00    1.48565   1.48832  243.949
 4582.00    1.51069   1.49135   -1.000
 4583.00    1.51943   1.50348   -1.000
 4584.00    1.52225   1.51092   -1.000
 4585.00    1.52726   1.51267   -1.000
 4586.00    1.53361   1.52128  242.634
 4587.00    1.55711   1.54762  243.115
 4588.00    1.59368   1.58445  238.836
 4589.00    1.63049   1.61150   -1.000
 4590.00    1.61604   1.61467  228.809
 4591.00    1.58019   1.59503   -1.000
 4592.00    1.55925   1.56556  233.224
 4593.00    1.53341   1.54177  237.571
 4594.00    1.52204   1.52991  240.871
 4595.00    1.52415   1.52589  240.412
 4596.00    1.52560   1.52742  238.293
 4597.00    1.54782   1.53527   -1.000
 4598.00    1.56757   1.54542   -1.000
 4599.00    1.56084   1.55162  235.655
 4600.00    1.54275   1.55226  235.679
 4601.00    1.53307   1.55137   -1.000
 4602.00    1.54068   1.55317  239.721
 4603.00    1.55637   1.55655  239.630
 4604.00    1.56448   1.55861  236.902
 4605.00    1.56197   1.56327  234.884
 4606.00    1.57532   1.58013  235.256
 4607.00    1.62622   1.61372  234.357
 4608.00    1.67534   1.65583   -1.000
 4609.00    1.69577   1.68899  226.498
 4610.00    1.68518   1.69799  222.091
 4611.00    1.67991   1.68369  220.332
 4612.00    1.64919   1.66109  221.915
 4613.00    1.63720   1.64610  224.957
 4614.00    1.64107   1.64690  227.206
 4615.00    1.65590   1.65949  228.086
 4616.00    1.67940   1.67235  226.642
 4617.00    1.67450   1.67824  224.811
 4618.00    1.66551   1.67745  224.463
 4619.00    1.66590   1.67474  226.120
 4620.00    1.67334   1.67646  227.416
 4621.00    1.70216   1.68443   -1.000
 4622.00    1.70007   1.69253  224.137
 4623.00    1.69562   1.69367  221.215
 4624.00    1.70526   1.68799   -1.000
 4625.00    1.69302   1.68075  222.010
 4626.00    1.67657   1.67534  222.767
 4627.00    1.67267   1.67301  224.598
 4628.00    1.66824   1.67365  224.931
 4629.00    1.67066   1.67634  225.100
 4630.00    1.68008   1.68089  226.445
 4631.00    1.69693   1.68519  226.548
 4632.00    1.68754   1.68274  225.030
 4633.00    1.65516   1.66987   -1.000
 4634.00    1.62680   1.65191   -1.000
 4635.00    1.62332   1.63645  227.955
 4636.00    1.60526   1.62243   -1.000
 4637.00    1.58762   1.60568   -1.000
 4638.00    1.58493   1.58859  232.163
 4639.00    1.57551   1.57905  234.887
 4640.00    1.59469   1.58480  235.481
 4641.00    1.65343   1.60535   -1.000
 4642.00    1.68821   1.62771   -1.000
 4643.00    1.67687   1.63402   -1.000
 4644.00    1.65293   1.61519   -1.000
 4645.00    1.61707   1.57632   -1.000
 4646.00    1.56221   1.53160   -1.000
 4647.00    1.51762   1.50246   -1.000
 4648.00    1.52890   1.50495   -1.000
 4649.00    1.57628   1.53703   -1.000
 4650.00    1.61995   1.58294   -1.000
 4651.00    1.64392   1.62320   -1.000
 4652.00    1.65173   1.64354  228.189
 4653.00    1.63912   1.63996  227.912
 4654.00    1.62713   1.61931  228.037
 4655.00    1.60382   1.59896  231.416
 4656.00    1.59073   1.59896  236.425
 4657.00    1.62100   1.62886  238.081
 4658.00    1.69523   1.68039   -1.000
 4659.00    1.77179   1.72975   -1.000
 4660.00    1.77866   1.75271   -1.000
 4661.00    1.74734   1.74112  214.751
 4662.00    1.70020   1.70640  215.306
 4663.00    1.66318   1.66531  218.623
 4664.00    1.64457   1.62515   -1.000
 4665.00    1.61738   1.57952   -1.000
 4666.00    1.56434   1.52485   -1.000
 4667.00    1.48051   1.47677  233.540
 4668.00    1.45472   1.46131  243.901
 4669.00    1.49077   1.49045  252.191
 4670.00    1.56921   1.54683   -1.000
 4671.00    1.64960   1.59943   -1.000
 4672.00    1.66074   1.62922   -1.000
 4673.00    1.65109   1.63838   -1.000
 4674.00    1.65971   1.64345   -1.000
 4675.00    1.66802   1.65574   -1.000
 4676.00    1.71145   1.66986   -1.000
 4677.00    1.70244   1.67018   -1.000
 4678.00    1.69035   1.64949   -1.000
 4679.00    1.65175   1.61686   -1.000
 4680.00    1.61067   1.58717   -1.000
 4681.00    1.59614   1.57282   -1.000
 4682.00    1.60548   1.57889   -1.000
 4683.00    1.63899   1.60023   -1.000
 4684.00    1.66629   1.62361   -1.000
 4685.00    1.67896   1.63752   -1.000
 4686.00    1.67230   1.63952   -1.000
 4687.00    1.66482   1.63400   -1.000
 4688.00    1.67191   1.62753   -1.000
 4689.00    1.67336   1.62353   -1.000
 4690.00    1.65308   1.62151   -1.000
 4691.00    1.64178   1.62093   -1.000
 4692.00    1.65202   1.62519   -1.000
 4693.00    1.69158   1.63873   -1.000
 4694.00    1.73041   1.65939   -1.000
 4695.00    1.75335   1.67789   -1.000
 4696.00    1.75609   1.68242   -1.000
 4697.00    1.72418   1.66473   -1.000
 4698.00    1.66417   1.62961   -1.000
 4699.00    1.61250   1.59395   -1.000
 4700.00    1.60288   1.57029   -1.000
 4701.00    1.61350   1.55599   -1.000
 4702.00    1.59720   1.54693   -1.000
 4703.00    1.58746   1.54821   -1.000
 4704.00    1.61919   1.56303   -1.000
 4705.00    1.64489   1.58192   -1.000
 4706.00    1.64876   1.58942   -1.000
 4707.00    1.62269   1.58089   -1.000
 4708.00    1.58572   1.56819   -1.000
 4709.00    1.58096   1.56853   -1.000
 4710.00    1.61665   1.58794   -1.000
 4711.00    1.67585   1.61576   -1.000
 4712.00    1.71819   1.63383   -1.000
 4713.00    1.69975   1.63236   -1.000
 4714.00    1.65094   1.62215   -1.000
 4715.00    1.64811   1.62528   -1.000
 4716.00    1.67952   1.65128   -1.000
 4717.00    1.71186   1.69099   -1.000
 4718.00    1.75571   1.72877   -1.000
 4719.00    1.77405   1.75482   -1.000
 4720.00    1.78252   1.76687   -1.000
 4721.00    1.77311   1.76566  217.497
 4722.00    1.74599   1.75688  217.178
 4723.00    1.74691   1.75225  219.128
 4724.00    1.75830   1.75517  220.197
 4725.00    1.77631   1.75089   -1.000
 4726.00    1.73507   1.72213   -1.000
 4727.00    1.65023   1.66860  217.851
 4728.00    1.59507   1.61126  223.909
 4729.00    1.58735   1.57674   -1.000
 4730.00    1.59349   1.57490   -1.000
 4731.00    1.59618   1.59709  234.634
 4732.00    1.63920   1.62840   -1.000
 4733.00    1.68382   1.65715   -1.000
 4734.00    1.70590   1.67534   -1.000
 4735.00    1.73803   1.68015   -1.000
 4736.00    1.70348   1.67769   -1.000
 4737.00    1.68579   1.67888  223.851
 4738.00    1.71035   1.68997   -1.000
 4739.00    1.73390   1.70539   -1.000
 4740.00    1.71329   1.71378  223.159
 4741.00    1.70070   1.71406  223.617
 4742.00    1.70310   1.71521  224.826
 4743.00    1.71700   1.72058  224.734
 4744.00    1.74179   1.72793   -1.000
 4745.00    1.75210   1.73835   -1.000
 4746.00    1.78044   1.75271   -1.000
 4747.00    1.77327   1.76835  221.149
 4748.00    1.76931   1.78125  219.302
 4749.00    1.78021   1.78933  217.319
 4750.00    1.77181   1.79211   -1.000
 4751.00    1.76348   1.78732   -1.000
 4752.00    1.74809   1.77262   -1.000
 4753.00    1.73038   1.75060   -1.000
 4754.00    1.71267   1.72869  222.026
 4755.00    1.69088   1.71451   -1.000
 4756.00    1.69155   1.71193   -1.000
 4757.00    1.69385   1.71987   -1.000
 4758.00    1.69971   1.73428   -1.000
 4759.00    1.72020   1.74912   -1.000
 4760.00    1.71399   1.75476   -1.000
 4761.00    1.68494   1.74177   -1.000
 4762.00    1.65213   1.71067   -1.000
 4763.00    1.61384   1.67349   -1.000
 4764.00    1.58526   1.64374   -1.000
 4765.00    1.59274   1.62535   -1.000
 4766.00    1.59247   1.61909   -1.000
 4767.00    1.61556   1.63201  236.999
 4768.00    1.66432   1.66825  235.030
 4769.00    1.71203   1.71532  231.382
 4770.00    1.73053   1.74969  226.306
 4771.00    1.70964   1.75860   -1.000
 4772.00    1.69477   1.75406   -1.000
 4773.00    1.71549   1.75890   -1.000
 4774.00    1.74363   1.78154   -1.000
 4775.00    1.76235   1.81004   -1.000
 4776.00    1.77341   1.82923   -1.000
 4777.00    1.77181   1.83669   -1.000
 4778.00    1.75920   1.83597   -1.000
 4779.00    1.76424   1.82732   -1.000
 4780.00    1.73962   1.81192   -1.000
 4781.00    1.73333   1.79343   -1.000
 4782.00    1.70807   1.77352   -1.000
 4783.00    1.68717   1.75413   -1.000
 4784.00    1.70251   1.74030   -1.000
 4785.00    1.70075   1.73324   -1.000
 4786.00    1.68125   1.72716   -1.000
 4787.00    1.66884   1.71982   -1.000
 4788.00    1.68700   1.71593   -1.000
 4789.00    1.68707   1.71763   -1.000
 4790.00    1.69182   1.72489   -1.000
 4791.00    1.71595   1.74159   -1.000
 4792.00    1.74676   1.77244   -1.000
 4793.00    1.76961   1.81581   -1.000
 4794.00    1.80322   1.86127   -1.000
 4795.00    1.82932   1.89308   -1.000
 4796.00    1.82926   1.89858   -1.000
 4797.00    1.78292   1.87532   -1.000
 4798.00    1.73881   1.83400   -1.000
 4799.00    1.72675   1.79604   -1.000
 4800.00    1.73367   1.78241   -1.000
 4801.00    1.75061   1.79913   -1.000
 4802.00    1.80089   1.83330   -1.000
 4803.00    1.82362   1.86005   -1.000
 4804.00    1.79799   1.86010   -1.000
 4805.00    1.75178   1.83676   -1.000
 4806.00    1.72426   1.80770   -1.000
 4807.00    1.72667   1.78702   -1.000
 4808.00    1.72206   1.77966   -1.000
 4809.00    1.73167   1.78590   -1.000
 4810.00    1.74831   1.80186   -1.000
 4811.00    1.76639   1.81888   -1.000
 4812.00    1.78046   1.82948   -1.000
 4813.00    1.77595   1.83378   -1.000
 4814.00    1.78481   1.83804   -1.000
 4815.00    1.80048   1.84809   -1.000
 4816.00    1.81259   1.86499   -1.000
 4817.00    1.82245   1.88526   -1.000
 4818.00    1.85144   1.90386   -1.000
 4819.00    1.84747   1.91610   -1.000
 4820.00    1.84903   1.91742   -1.000
 4821.00    1.83349   1.90160   -1.000
 4822.00    1.80187   1.86618   -1.000
 4823.00    1.77265   1.82204   -1.000
 4824.00    1.75452   1.79148   -1.000
 4825.00    1.75403   1.79075   -1.000
 4826.00    1.79683   1.81322  225.644
 4827.00    1.79904   1.83401   -1.000
 4828.00    1.77247   1.83677   -1.000
 4829.00    1.77691   1.82595   -1.000
 4830.00    1.75946   1.81123   -1.000
 4831.00    1.75783   1.79545   -1.000
 4832.00    1.74523   1.78284   -1.000
 4833.00    1.75588   1.78337   -1.000
 4834.00    1.79258   1.80096  225.613
 4835.00    1.81903   1.82582  221.864
 4836.00    1.82279   1.84249  219.203
 4837.00    1.80037   1.84377   -1.000
 4838.00    1.78796   1.83078   -1.000
 4839.00    1.76831   1.80832   -1.000
 4840.00    1.73651   1.78640   -1.000
 4841.00    1.74188   1.77459   -1.000
 4842.00    1.75593   1.77330  227.151
 4843.00    1.74416   1.77882   -1.000
 4844.00    1.75609   1.79338   -1.000
 4845.00    1.80734   1.81832  223.559
 4846.00    1.82807   1.84127  221.149
 4847.00    1.81530   1.84494   -1.000
 4848.00    1.79352   1.82875   -1.000
 4849.00    1.78597   1.81272   -1.000
 4850.00    1.79077   1.81329  224.935
 4851.00    1.80027   1.82473   -1.000
 4852.00    1.80544   1.82983  221.385
 4853.00    1.78845   1.81436   -1.000
 4854.00    1.74961   1.77536   -1.000
 4855.00    1.69686   1.72696   -1.000
 4856.00    1.66649   1.69278   -1.000
 4857.00    1.66858   1.67952  237.797
 4858.00    1.66032   1.66184  236.717
 4859.00    1.57012   1.60187   -1.000
 4860.00    1.43339   1.49508   -1.000
 4861.00    1.35825   1.39278   -1.000
 4862.00    1.37703   1.35833   -1.000
 4863.00    1.48175   1.41042   -1.000
 4864.00    1.59037   1.51000   -1.000
 4865.00    1.65604   1.60544   -1.000
 4866.00    1.68229   1.67469   -1.000
 4867.00    1.70587   1.71826  237.513
 4868.00    1.72114   1.73814  232.923
 4869.00    1.71254   1.73154  231.035
 4870.00    1.65694   1.69577   -1.000
 4871.00    1.61619   1.64315   -1.000
 4872.00    1.59999   1.60742  239.703
 4873.00    1.62965   1.61835   -1.000
 4874.00    1.68613   1.66675   -1.000
 4875.00    1.69581   1.71751  234.952
 4876.00    1.72265   1.75198   -1.000
 4877.00    1.73551   1.77702   -1.000
 4878.00    1.76312   1.80435   -1.000
 4879.00    1.78549   1.83205   -1.000
 4880.00    1.77812   1.84697   -1.000
 4881.00    1.75350   1.84026   -1.000
 4882.00    1.72575   1.81948   -1.000
 4883.00    1.72334   1.79985   -1.000
 4884.00    1.73758   1.78249   -1.000
 4885.00    1.71584   1.75795   -1.000
 4886.00    1.66942   1.73043   -1.000
 4887.00    1.66775   1.71462   -1.000
 4888.00    1.67885   1.70963   -1.000
 4889.00    1.67084   1.69763   -1.000
 4890.00    1.62966   1.66970   -1.000
 4891.00    1.61923   1.64683   -1.000
 4892.00    1.67374   1.66657  134.462
 4893.00    1.77667   1.74187   23.894
 4894.00    1.86911   1.84522   22.889
 4895.00    1.91149   1.93356   21.852
 4896.00    1.93008   1.98221   21.243
 4897.00    1.93445   1.99314   20.880
 4898.00    1.90319   1.97889   20.803
 4899.00    1.86227   1.95082   20.889
 4900.00    1.83195   1.92050   21.364
 4901.00    1.81435   1.89766   21.850
 4902.00    1.80924   1.88220   22.050
 4903.00    1.80299   1.87104   21.940
 4904.00    1.81987   1.87124   21.998
 4905.00    1.86170   1.89229   22.236
 4906.00    1.88873   1.92363   21.953
 4907.00    1.87665   1.93559   21.498
 4908.00    1.84189   1.91077   21.373
 4909.00    1.80589   1.85986   21.611
 4910.00    1.75704   1.81011   22.157
 4911.00    1.74411   1.78755   22.775
 4912.00    1.78819   1.80096   23.001
 4913.00    1.81879   1.83853   22.667
 4914.00    1.85026   1.88059   22.260
 4915.00    1.89338   1.91164   21.959
 4916.00    1.89305   1.91598   21.681
 4917.00    1.83077   1.87439   21.517
 4918.00    1.72575   1.78277   21.681
 4919.00    1.62470   1.67042   22.500
 4920.00    1.58618   1.58737   23.744
 4921.00    1.61202   1.57170   24.806
 4922.00    1.69063   1.61844   24.972
 4923.00    1.74432   1.68578   24.114
 4924.00    1.77342   1.73765   23.275
 4925.00    1.77916   1.77402   22.972
 4926.00    1.81027   1.81437   22.940
 4927.00    1.86230   1.86371   22.613
 4928.00    1.90498   1.91194   22.024
 4929.00    1.92610   1.95133   21.651
 4930.00    1.94533   1.97532   21.458
 4931.00    1.93779   1.97400   21.314
 4932.00    1.89481   1.94264   21.211
 4933.00    1.83042   1.89256   21.460
 4934.00    1.80540   1.85019   22.074
 4935.00    1.83017   1.83361   22.834
 4936.00    1.83327   1.82771   22.830
 4937.00    1.78258   1.80308   22.431
 4938.00    1.72440   1.75917   22.478
 4939.00    1.70447   1.73203   23.164
 4940.00    1.75694   1.75488   23.743
 4941.00    1.84468   1.82164   23.464
 4942.00    1.90963   1.89653   22.646
 4943.00    1.93433   1.94751   21.942
 4944.00    1.92803   1.96647   21.561
 4945.00    1.92662   1.96334   21.385
 4946.00    1.93835   1.95515   21.417
 4947.00    1.92476   1.95735   21.568
 4948.00    1.93802   1.97393   21.595
 4949.00    1.97050   1.99567   21.387
 4950.00    1.98382   2.01077   21.144
 4951.00    1.98245   2.01439   21.085
 4952.00    1.95788   2.00700   21.008
 4953.00    1.93459   1.99084   21.127
 4954.00    1.91655   1.96323   21.280
 4955.00    1.87650   1.91146   21.532
 4956.00    1.77319   1.82609   21.821
 4957.00    1.66255   1.72994   22.450
 4958.00    1.66606   1.68199   23.618
 4959.00    1.75731   1.71932   24.472
 4960.00    1.86548   1.81282   23.873
 4961.00    1.91280   1.90159   22.509
 4962.00    1.91038   1.94713   21.787
 4963.00    1.90704   1.94949   21.654
 4964.00    1.86821   1.92411   21.768
 4965.00    1.81477   1.88408   21.949
 4966.00    1.79084   1.84513   22.225
 4967.00    1.78602   1.82270   22.695
 4968.00    1.79823   1.81908   22.966
 4969.00    1.80224   1.82840   22.958
 4970.00    1.82391   1.84782   22.883
 4971.00    1.85171   1.87638   22.706
 4972.00    1.87931   1.91038   22.460
 4973.00    1.89042   1.94144   22.218
 4974.00    1.92660   1.96036   21.954
 4975.00    1.91266   1.96324   21.755
 4976.00    1.89747   1.94994   21.684
 4977.00    1.86703   1.92220   21.847
 4978.00    1.83176   1.88724   22.084
 4979.00    1.78320   1.85378   22.390
 4980.00    1.75553   1.82055   22.753
 4981.00    1.72999   1.77638   23.033
 4982.00    1.65751   1.71753   23.384
 4983.00    1.62949   1.66401   24.171
 4984.00    1.65750   1.64657   24.914
 4985.00    1.70951   1.67662   24.865
 4986.00    1.77544   1.73972   24.371
 4987.00    1.82256   1.80955   23.674
 4988.00    1.84923   1.86032   22.927
 4989.00    1.83430   1.87697   22.394
 4990.00    1.83141   1.86728   22.446
 4991.00    1.82551   1.85439   22.783
 4992.00    1.82859   1.85321   23.004
 4993.00    1.83647   1.86176   22.996
 4994.00    1.83409   1.87188   22.789
 4995.00    1.84478   1.88193   22.701
 4996.00    1.85727   1.89279   22.687
 4997.00    1.84806   1.89573   22.567
 4998.00    1.82251   1.87804   22.467
 4999.00    1.79881   1.83818   22.619
 5000.00    1.75570   1.79092   22.935
 5001.00    1.74233   1.75795   23.396
 5002.00    1.76636   1.74715   23.672
 5003.00    1.77819   1.74610   23.669
 5004.00    1.77182   1.73554   23.440
 5005.00    1.70858   1.70895   23.309
 5006.00    1.68585   1.68349   23.670
 5007.00    1.71169   1.68768   24.265
 5008.00    1.77338   1.73042   24.353
 5009.00    1.83560   1.78508   23.729
 5010.00    1.82324   1.81305   23.019
 5011.00    1.77068   1.79580   22.811
 5012.00    1.72867   1.74417   23.142
 5013.00    1.66785   1.68668   23.859
 5014.00    1.63091   1.65197   24.749
 5015.00    1.65595   1.65229   25.287
 5016.00    1.72381   1.67513   25.126
 5017.00    1.72809   1.69823   24.557
 5018.00    1.74437   1.71247   24.060
 5019.00    1.75358   1.72533   23.975
 5020.00    1.77855   1.74141   23.973
 5021.00    1.76096   1.75302   23.694
 5022.00    1.74765   1.75765   23.513
 5023.00    1.74463   1.76688   23.625
 5024.00    1.78521   1.78891   23.669
 5025.00    1.81133   1.81383   23.523
 5026.00    1.80380   1.82387   23.273
 5027.00    1.78344   1.81673   23.130
 5028.00    1.78559   1.81103   23.249
 5029.00    1.82099   1.82476   23.349
 5030.00    1.85974   1.85843   23.117
 5031.00    1.89134   1.90075   22.677
 5032.00    1.91147   1.93960   22.356
 5033.00    1.93577   1.96174   21.994
 5034.00    1.91536   1.95242   21.753
 5035.00    1.83988   1.90950   21.820
 5036.00    1.76707   1.85470   22.549
 5037.00    1.75791   1.81344   23.438
 5038.00    1.75938   1.78233   23.799
 5039.00    1.70831   1.73732   23.879
 5040.00    1.60796   1.67321   24.202
 5041.00    1.57353   1.62378   25.180
 5042.00    1.65259   1.63411   26.179
 5043.00    1.75903   1.71293   26.117
 5044.00    1.86397   1.82467   24.802
 5045.00    1.93518   1.92169   23.270
 5046.00    1.95411   1.97351   22.351
 5047.00    1.92089   1.97168   21.884
 5048.00    1.95331   1.92553   21.071
 5049.00    1.08375   1.86112   -1.000
 5050.00   -0.15885   1.81058    0.000
 5051.00    0.00228   1.79207   -1.000
 5052.00    0.55271   1.80536   -1.000
 5053.00    1.91512   1.84332   23.477
 5054.00    1.91824   1.89368   22.933
 5055.00    1.92793   1.93839   22.355
 5056.00    1.96805   1.96605   21.958
 5057.00    1.97544   1.97973   21.759
 5058.00    1.96778   1.98904   21.696
 5059.00    1.97146   2.00168   21.740
 5060.00    1.97671   2.01957   21.779
 5061.00    1.98545   2.03563   21.766
 5062.00    1.97806   2.03334   21.615
 5063.00    1.94754   1.99811   21.640
 5064.00    1.86885   1.93500   21.949
 5065.00    1.81592   1.87238   22.608
 5066.00    1.81170   1.83854   23.411
 5067.00    1.82771   1.83542   23.648
 5068.00    1.84089   1.84746   23.338
 5069.00    1.87073   1.86417   22.987
 5070.00    1.88738   1.88051   22.924
 5071.00    1.88568   1.88803   22.813
 5072.00    1.86569   1.88283   22.666
 5073.00    1.89267   1.87524   22.864
 5074.00    1.89787   1.87738   23.036
 5075.00    1.89748   1.88759   22.735
 5076.00    1.91041   1.89496   22.564
 5077.00    1.89449   1.88700   22.540
 5078.00    1.84026   1.85183   22.527
 5079.00    1.77574   1.79082   22.764
 5080.00    1.71895   1.73302   23.589
 5081.00    1.69824   1.71331   24.718
 5082.00    1.74535   1.73366   24.956
 5083.00    1.79615   1.77112   24.397
 5084.00    1.83112   1.81071   23.879
 5085.00    1.87822   1.84957   23.564
 5086.00    1.91638   1.88424   23.113
 5087.00    1.91559   1.90903   22.722
 5088.00    1.92209   1.92367   22.570
 5089.00    1.94196   1.93415   22.544
 5090.00    1.93953   1.94595   22.426
 5091.00    1.94881   1.96228   22.262
 5092.00    1.98261   1.98406   22.141
 5093.00    2.00371   2.00541   22.025
 5094.00    1.98678   2.01224   21.765
 5095.00    1.96843   1.99154   21.575
 5096.00    1.92438   1.94298   21.792
 5097.00    1.87022   1.88004   22.260
 5098.00    1.80634   1.82265   22.742
 5099.00    1.79738   1.79242   23.296
 5100.00    1.83531   1.80470   23.779
 5101.00    1.88805   1.85158   23.831
 5102.00    1.92638   1.90189   23.217
 5103.00    1.91075   1.92656   22.541
 5104.00    1.90206   1.92177   22.366
 5105.00    1.87276   1.90114   22.513
 5106.00    1.85677   1.87530   22.818
 5107.00    1.82702   1.84882   23.106
 5108.00    1.82558   1.82618   23.388
 5109.00    1.83488   1.81406   23.681
 5110.00    1.83402   1.81955   23.630
 5111.00    1.86221   1.84464   23.473
 5112.00    1.90508   1.88195   23.303
 5113.00    1.92624   1.91829   22.960
 5114.00    1.93961   1.94642   22.681
 5115.00    1.94198   1.96924   22.405
 5116.00    1.96381   1.99133   22.206
 5117.00    2.00256   2.01182   22.091
 5118.00    2.01483   2.02360   21.852
 5119.00    2.01077   2.01799   21.671
 5120.00    1.98178   1.99226   21.747
 5121.00    1.91672   1.95064   22.043
 5122.00    1.86643   1.89899   22.377
 5123.00    1.80617   1.84538   22.748
 5124.00    1.78569   1.80330   23.345
 5125.00    1.80280   1.78430   24.055
 5126.00    1.80850   1.78652   24.198
 5127.00    1.81939   1.79634   23.966
 5128.00    1.82074   1.80358   23.853
 5129.00    1.81574   1.81043   23.709
 5130.00    1.81858   1.82517   23.752
 5131.00    1.86272   1.85091   23.728
 5132.00    1.91235   1.88113   23.405
 5133.00    1.91833   1.90783   23.001
 5134.00    1.93626   1.92870   22.824
 5135.00    1.95549   1.94210   22.604
 5136.00    1.94677   1.93902   22.406
 5137.00    1.90844   1.90967   22.354
 5138.00    1.86656   1.86414   22.777
 5139.00    1.84999   1.83030   23.340
 5140.00    1.85678   1.82183   23.703
 5141.00    1.83908   1.82631   23.722
 5142.00    1.82847   1.82734   23.499
 5143.00    1.82597   1.82657   23.690
 5144.00    1.84500   1.83382   24.086
 5145.00    1.85935   1.84212   23.924
 5146.00    1.85047   1.83677   23.510
 5147.00    1.83066   1.82358   23.441
 5148.00    1.83920   1.82056   23.673
 5149.00    1.86835   1.83050   23.725
 5150.00    1.86809   1.83801   23.419
 5151.00    1.83986   1.83095   23.294
 5152.00    1.79435   1.81535   23.600
 5153.00    1.79547   1.80588   24.037
 5154.00    1.83654   1.81335   24.185
 5155.00    1.85200   1.84269   24.052
 5156.00    1.92224   1.88990   23.579
 5157.00    1.98268   1.94041   22.974
 5158.00    1.99258   1.97828   22.390
 5159.00    2.01888   1.99689   21.976
 5160.00    2.02317   1.99780   21.823
 5161.00    2.00393   1.98347   21.825
 5162.00    1.96956   1.95428   21.901
 5163.00    1.94236   1.90871   22.029
 5164.00    1.87853   1.84104   22.282
 5165.00    1.73489   1.74052   22.631
 5166.00    1.56393   1.60596   23.516
 5167.00    1.41715   1.47461   25.502
 5168.00    1.39542   1.40864   28.198
 5169.00    1.49753   1.42751   30.062
 5170.00    1.56963   1.47557   -1.000
 5171.00    1.50584   1.47491   27.639
 5172.00    1.37398   1.42038   27.310
 5173.00    1.35071   1.39130   29.148
 5174.00    1.50215   1.45503   31.147
 5175.00    1.69578   1.59555   -1.000
 5176.00    1.81565   1.73830   26.467
 5177.00    1.86235   1.82954   24.304
 5178.00    1.87344   1.86778   23.425
 5179.00    1.87004   1.86836   23.175
 5180.00    1.81661   1.83025   23.135
 5181.00    1.70103   1.73719   23.373
 5182.00    1.52829   1.59261   24.211
 5183.00    1.36272   1.44950   25.996
 5184.00    1.34889   1.38811   29.069
 5185.00    1.51362   1.45391   31.317
 5186.00    1.72610   1.60693   -1.000
 5187.00    1.86029   1.75887   -1.000
 5188.00    1.89247   1.85554   24.109
 5189.00    1.92899   1.89582   23.386
 5190.00    1.94337   1.89222   23.196
 5191.00    1.87423   1.85115   23.102
 5192.00    1.80227   1.79283   23.362
 5193.00    1.78885   1.75665   24.121
 5194.00    1.83309   1.76192   24.786
 5195.00    1.86451   1.79106   24.574
 5196.00    1.90254   1.82585   24.143
 5197.00    1.93658   1.86520   23.788
 5198.00    1.97434   1.90923   23.441
 5199.00    2.02037   1.94961   22.965
 5200.00    2.03693   1.97516   22.577
 5201.00    2.01839   1.97851   22.397
 5202.00    1.99394   1.95674   22.380
 5203.00    1.94819   1.90884   22.566
 5204.00    1.87386   1.83841   22.983
 5205.00    1.78035   1.76107   23.512
 5206.00    1.74707   1.69945   24.259
 5207.00    1.73285   1.66647   25.006
 5208.00    1.72769   1.65979   25.080
 5209.00    1.73974   1.67785   25.215
 5210.00    1.80915   1.72895   25.368
 5211.00    1.90447   1.81179   -1.000
 5212.00    1.98840   1.90209   24.158
 5213.00    2.04548   1.96671   23.180
 5214.00    2.05336   1.98419   22.274
 5215.00    2.00001   1.96021   21.822
 5216.00    1.95077   1.92620   22.081
 5217.00    1.96874   1.91780   22.612
 5218.00    2.00339   1.94675   22.882
 5219.00    2.03771   1.99608   22.681
 5220.00    2.09823   2.04064   22.183
 5221.00    2.11701   2.06289   21.850
 5222.00    2.07564   2.05377   21.686
 5223.00    2.01873   2.00965   21.600
 5224.00    1.93866   1.93243   21.889
 5225.00    1.86143   1.83517   22.567
 5226.00    1.78235   1.74952   23.507
 5227.00    1.78083   1.71667   24.613
 5228.00    1.86384   1.75780   -1.000
 5229.00    1.99196   1.85215   -1.000
 5230.00    2.07036   1.94587   -1.000
 5231.00    2.06707   1.98953   22.381
 5232.00    2.02992   1.97463   21.993
 5233.00    1.99415   1.93333   21.965
 5234.00    1.98461   1.91141   22.421
 5235.00    2.01767   1.93341   22.820
 5236.00    2.06871   1.98883   22.762
 5237.00    2.11091   2.04950   22.230
 5238.00    2.13304   2.09092   21.698
 5239.00    2.12406   2.10651   21.459
 5240.00    2.13719   2.10549   21.444
 5241.00    2.13974   2.09920   21.514
 5242.00    2.14381   2.09538   21.474
 5243.00    2.14860   2.09850   21.345
 5244.00    2.14090   2.10416   21.380
 5245.00    2.12013   2.09588   21.335
 5246.00    2.06819   2.06023   21.301
 5247.00    1.99650   2.00750   21.737
 5248.00    1.98648   1.96372   22.425
 5249.00    1.98223   1.94074   22.945
 5250.00    1.97051   1.93282   22.996
 5251.00    1.98308   1.93712   23.038
 5252.00    2.02218   1.95350   23.188
 5253.00    2.02714   1.97153   23.075
 5254.00    2.02780   1.98083   22.751
 5255.00    2.04165   1.98997   22.527
 5256.00    2.07764   2.02096   22.534
 5257.00    2.14216   2.07795   22.369
 5258.00    2.18875   2.13294   21.841
 5259.00    2.20723   2.15291   21.248
 5260.00    2.15396   2.12387   21.066
 5261.00    2.03501   2.05032   21.268
 5262.00    1.94402   1.94922   21.858
 5263.00    1.87411   1.84336   22.791
 5264.00    1.79907   1.75477   23.880
 5265.00    1.76064   1.70137   24.703
 5266.00    1.78121   1.68871   25.209
 5267.00    1.82596   1.69887   -1.000
 5268.00    1.81472   1.69450   -1.000
 5269.00    1.74014   1.66081   24.385
 5270.00    1.72078   1.63657   24.925
 5271.00    1.81817   1.67385   -1.000
 5272.00    1.95040   1.77199   -1.000
 5273.00    2.01800   1.87035   -1.000
 5274.00    2.01953   1.92056   22.934
 5275.00    2.00949   1.93952   22.706
 5276.00    2.05317   1.97128   22.720
 5277.00    2.13887   2.03225   -1.000
 5278.00    2.21155   2.09760   -1.000
 5279.00    2.20099   2.12856   21.464
 5280.00    2.17000   2.11032   21.066
 5281.00    2.09562   2.05865   21.197
 5282.00    2.04000   2.00161   21.711
 5283.00    2.01406   1.96686   22.278
 5284.00    2.04394   1.97713   22.685
 5285.00    2.12861   2.03700   22.796
 5286.00    2.23632   2.12002   -1.000
 5287.00    2.25574   2.18480   21.646
 5288.00    2.24142   2.21436   20.964
 5289.00    2.26073   2.22345   20.807
 5290.00    2.27733   2.22945   20.919
 5291.00    2.29059   2.23369   20.916
 5292.00    2.29361   2.22852   20.792
 5293.00    2.25951   2.21246   20.748
 5294.00    2.22935   2.18715   20.871
 5295.00    2.20179   2.14373   21.069
 5296.00    2.10251   2.07369   21.349
 5297.00    2.00251   1.99352   21.930
 5298.00    1.97461   1.94184   22.776
 5299.00    2.01576   1.94417   23.388
 5300.00    2.08160   1.98527   23.242
 5301.00    2.11549   2.03135   22.651
 5302.00    2.14043   2.07201   22.229
 5303.00    2.19502   2.11919   22.087
 5304.00    2.26356   2.17607   21.815
 5305.00    2.29901   2.22346   21.226
 5306.00    2.28856   2.24080   20.835
 5307.00    2.27151   2.23373   20.781
 5308.00    2.26901   2.22678   20.984
 5309.00    2.30089   2.23527   21.167
 5310.00    2.32880   2.25253   21.030
 5311.00    2.32403   2.26133   20.808
 5312.00    2.31495   2.25454   20.675
 5313.00    2.28883   2.23777   20.695
 5314.00    2.27636   2.21704   20.812
 5315.00    2.24681   2.19456   20.902
 5316.00    2.22591   2.17318   21.053
 5317.00    2.22525   2.16012   21.262
 5318.00    2.23346   2.16063   21.451
 5319.00    2.25182   2.16857   21.459
 5320.00    2.25777   2.17237   21.300
 5321.00    2.24650   2.16484   21.209
 5322.00    2.22826   2.14197   21.286
 5323.00    2.17580   2.10408   21.436
 5324.00    2.14171   2.06014   21.688
 5325.00    2.11651   2.01608   22.068
 5326.00    2.07215   1.95852   -1.000
 5327.00    1.96776   1.87608   22.267
 5328.00    1.85217   1.79773   22.874
 5329.00    1.87976   1.78258   24.347
 5330.00    2.00143   1.85691   -1.000
 5331.00    2.13276   1.97448   -1.000
 5332.00    2.17355   2.06878   -1.000
 5333.00    2.21138   2.12171   21.995
 5334.00    2.25987   2.15491   21.759
 5335.00    2.27586   2.18453   21.552
 5336.00    2.26755   2.20402   21.301
 5337.00    2.25330   2.20051   21.207
 5338.00    2.22344   2.16950   21.342
 5339.00    2.16868   2.11532   21.480
 5340.00    2.10863   2.05669   21.715
 5341.00    2.08980   2.02742   22.261
 5342.00    2.14266   2.04736   22.655
 5343.00    2.20200   2.09547   -1.000
 5344.00    2.22405   2.13310   21.872
 5345.00    2.22349   2.14275   21.476
 5346.00    2.21448   2.13174   21.469
 5347.00    2.20847   2.11308   21.609
 5348.00    2.18895   2.09451   21.748
 5349.00    2.17500   2.08568   21.855
 5350.00    2.21534   2.10063   -1.000
 5351.00    2.26942   2.14074   -1.000
 5352.00    2.28945   2.18944   21.771
 5353.00    2.31337   2.23091   21.266
 5354.00    2.34568   2.26321   20.997
 5355.00    2.36120   2.29228   20.927
 5356.00    2.38605   2.31738   20.764
 5357.00    2.39631   2.33130   20.500
 5358.00    2.39700   2.33229   20.344
 5359.00    2.38816   2.32252   20.359
 5360.00    2.36470   2.30140   20.390
 5361.00    2.33132   2.27021   20.464
 5362.00    2.28282   2.23616   20.702
 5363.00    2.26440   2.20598   21.048
 5364.00    2.23203   2.18118   21.358
 5365.00    2.19358   2.16094   21.511
 5366.00    2.21053   2.14641   21.636
 5367.00    2.22497   2.13640   21.767
 5368.00    2.21122   2.11731   21.704
 5369.00    2.15980   2.07196   21.701
 5370.00    2.07855   2.00700   21.917
 5371.00    2.05337   1.96033   22.459
 5372.00    2.10555   1.97315   -1.000
 5373.00    2.22374   2.04923   -1.000
 5374.00    2.32061   2.14842   -1.000
 5375.00    2.36561   2.22422   -1.000
 5376.00    2.35533   2.25731   20.828
 5377.00    2.33918   2.26021   20.667
 5378.00    2.33687   2.25565   20.725
 5379.00    2.33368   2.25265   20.735
 5380.00    2.31501   2.24538   20.775
 5381.00    2.28659   2.22769   20.894
 5382.00    2.26736   2.20506   21.099
 5383.00    2.26579   2.19086   21.308
 5384.00    2.28715   2.19377   21.414
 5385.00    2.32612   2.21035   -1.000
 5386.00    2.33559   2.22740   -1.000
 5387.00    2.32336   2.23060   21.076
 5388.00    2.29925   2.21336   21.030
 5389.00    2.25474   2.18033   21.123
 5390.00    2.23316   2.14344   21.325
 5391.00    2.21514   2.11467   21.650
 5392.00    2.19617   2.09888   21.895
 5393.00    2.20192   2.09260   -1.000
 5394.00    2.20778   2.08634   -1.000
 5395.00    2.18104   2.06827   -1.000
 5396.00    2.12576   2.03603   22.237
 5397.00    2.11489   2.00830   -1.000
 5398.00    2.15176   2.01223   -1.000
 5399.00    2.19733   2.05257   -1.000
 5400.00    2.24881   2.10548   -1.000
 5401.00    2.25680   2.14299   -1.000
 5402.00    2.24457   2.14843   21.554
 5403.00    2.18614   2.11377   21.591
 5404.00    2.10444   2.04338   21.760
 5405.00    2.04092   1.96686   22.410
 5406.00    2.03589   1.92929   -1.000
 5407.00    2.09209   1.94725   -1.000
 5408.00    2.13235   1.98921   -1.000
 5409.00    2.12339   2.01791   -1.000
 5410.00    2.13492   2.03261   -1.000
 5411.00    2.19507   2.06091   -1.000
 5412.00    2.25075   2.11315   -1.000
 5413.00    2.29641   2.16505   -1.000
 5414.00    2.31267   2.19555   -1.000
 5415.00    2.29846   2.21206   21.321
 5416.00    2.31691   2.23226   21.328
 5417.00    2.33533   2.25662   21.339
 5418.00    2.32427   2.26775   21.183
 5419.00    2.31008   2.25689   21.047
 5420.00    2.28864   2.23572   21.127
 5421.00    2.29226   2.21955   21.335
 5422.00    2.30742   2.21021   21.466
 5423.00    2.29553   2.19870   21.386
 5424.00    2.26386   2.18771   21.299
 5425.00    2.26724   2.19653   21.586
 5426.00    2.31704   2.22806   21.788
 5427.00    2.34035   2.25032   21.570
 5428.00    2.28549   2.22661   21.206
 5429.00    2.20111   2.16187   21.259
 5430.00    2.17199   2.10445   21.832
 5431.00    2.20530   2.08899   -1.000
 5432.00    2.22862   2.09975   -1.000
 5433.00    2.19995   2.09967   -1.000
 5434.00    2.16009   2.07847   22.178
 5435.00    2.14397   2.06311   22.487
 5436.00    2.17189   2.08302   22.750
 5437.00    2.25739   2.14138   -1.000
 5438.00    2.33673   2.21788   -1.000
 5439.00    2.37517   2.28637   21.628
 5440.00    2.40257   2.33157   21.170
 5441.00    2.42193   2.35293   20.869
 5442.00    2.40421   2.35633   20.693
 5443.00    2.38938   2.34051   20.653
 5444.00    2.32592   2.29477   20.651
 5445.00    2.25094   2.21618   20.861
 5446.00    2.15505   2.12846   21.407
 5447.00    2.12291   2.07600   22.282
 5448.00    2.18541   2.08719   23.029
 5449.00    2.27116   2.14826   -1.000
 5450.00    2.31554   2.21545   -1.000
 5451.00    2.34338   2.25096   21.550
 5452.00    2.30810   2.24602   21.329
 5453.00    2.25869   2.20788   21.326
 5454.00    2.18957   2.14656   21.502
 5455.00    2.13804   2.08680   21.992
 5456.00    2.16596   2.06724   22.624
 5457.00    2.24258   2.10876   -1.000
 5458.00    2.32333   2.18639   -1.000
 5459.00    2.35014   2.24670   -1.000
 5460.00    2.33634   2.25749   21.433
 5461.00    2.27930   2.22613   21.293
 5462.00    2.24480   2.18019   21.530
 5463.00    2.23067   2.14931   21.932
 5464.00    2.24744   2.14981   22.235
 5465.00    2.27701   2.17548   -1.000
 5466.00    2.30226   2.20670   22.102
 5467.00    2.32009   2.23007   21.842
 5468.00    2.33212   2.24216   21.732
 5469.00    2.31465   2.24145   21.497
 5470.00    2.28806   2.22887   21.399
 5471.00    2.29999   2.21049   21.589
 5472.00    2.28673   2.19249   21.815
 5473.00    2.26325   2.17430   21.900
 5474.00    2.24386   2.14809   22.010
 5475.00    2.19229   2.10810   22.230
 5476.00    2.13906   2.06404   22.543
 5477.00    2.13113   2.04375   23.019
 5478.00    2.20988   2.06846   -1.000
 5479.00    2.26160   2.11792   -1.000
 5480.00    2.24892   2.14720   -1.000
 5481.00    2.22886   2.14125   22.066
 5482.00    2.22432   2.12894   22.207
 5483.00    2.25115   2.14637   -1.000
 5484.00    2.31009   2.19424   -1.000
 5485.00    2.35449   2.23861   -1.000
 5486.00    2.33576   2.24953   21.626
 5487.00    2.28141   2.22766   21.425
 5488.00    2.25642   2.19933   21.614
 5489.00    2.26338   2.18979   21.924
 5490.00    2.28334   2.20295   22.061
 5491.00    2.31646   2.22414   22.071
 5492.00    2.32994   2.23711   21.922
 5493.00    2.32770   2.23832   21.762
 5494.00    2.33288   2.23474   21.677
 5495.00    2.34172   2.23193   -1.000
 5496.00    2.32819   2.22756   -1.000
 5497.00    2.30517   2.22179   21.728
 5498.00    2.31821   2.22454   21.878
 5499.00    2.35643   2.23714   -1.000
 5500.00    2.35803   2.24182   -1.000
 5501.00    2.31487   2.22479   21.686
 5502.00    2.29116   2.19629   21.835
 5503.00    2.29315   2.17781   -1.000
 5504.00    2.30521   2.17372   -1.000
 5505.00    2.29625   2.16840   -1.000
 5506.00    2.26204   2.15587   -1.000
 5507.00    2.25272   2.15153   -1.000
 5508.00    2.28519   2.16857   -1.000
 5509.00    2.30534   2.19569   -1.000
 5510.00    2.30156   2.20477   -1.000
 5511.00    2.26927   2.18181   21.871
 5512.00    2.22475   2.14081   22.004
 5513.00    2.20676   2.10836   -1.000
 5514.00    2.21786   2.10294   -1.000
 5515.00    2.26000   2.12421   -1.000
 5516.00    2.31090   2.16078   -1.000
 5517.00    2.36028   2.20358   -1.000
 5518.00    2.39549   2.24720   -1.000
 5519.00    2.41391   2.28420   -1.000
 5520.00    2.43098   2.30506   -1.000
 5521.00    2.42729   2.30815   -1.000
 5522.00    2.41942   2.30326   -1.000
 5523.00    2.40794   2.29883   -1.000
 5524.00    2.38913   2.29140   21.330
 5525.00    2.36098   2.26993   21.369
 5526.00    2.31765   2.22752   21.491
 5527.00    2.24794   2.17306   21.774
 5528.00    2.22033   2.13238   22.265
 5529.00    2.24808   2.13200   -1.000
 5530.00    2.31155   2.17220   -1.000
 5531.00    2.35133   2.22316   -1.000
 5532.00    2.35978   2.25374   -1.000
 5533.00    2.36018   2.25620   -1.000
 5534.00    2.35372   2.24377   -1.000
 5535.00    2.34312   2.23156   -1.000
 5536.00    2.34733   2.22732   -1.000
 5537.00    2.36752   2.23308   -1.000
 5538.00    2.36728   2.24764   -1.000
 5539.00    2.38725   2.26931   -1.000
 5540.00    2.42960   2.29414   -1.000
 5541.00    2.43373   2.31140   -1.000
 5542.00    2.42960   2.31041   -1.000
 5543.00    2.39568   2.29397   -1.000
 5544.00    2.38890   2.27650   -1.000
 5545.00    2.39393   2.26927   -1.000
 5546.00    2.39129   2.27390   -1.000
 5547.00    2.41092   2.28932   -1.000
 5548.00    2.43608   2.31436   -1.000
 5549.00    2.46317   2.34187   -1.000
 5550.00    2.48120   2.36032   -1.000
 5551.00    2.47408   2.36286   -1.000
 5552.00    2.45379   2.34962   -1.000
 5553.00    2.42467   2.32617   21.117
 5554.00    2.40255   2.30370   21.298
 5555.00    2.40829   2.29278   -1.000
 5556.00    2.41687   2.29395   -1.000
 5557.00    2.41750   2.29909   -1.000
 5558.00    2.42060   2.30190   -1.000
 5559.00    2.42168   2.30291   -1.000
 5560.00    2.42107   2.30271   -1.000
 5561.00    2.40556   2.29615   -1.000
 5562.00    2.39672   2.28046   -1.000
 5563.00    2.38139   2.26197   -1.000
 5564.00    2.34199   2.24863   21.835
 5565.00    2.34104   2.24131   -1.000
 5566.00    2.35181   2.23587   -1.000
 5567.00    2.35171   2.23067   -1.000
 5568.00    2.36429   2.22842   -1.000
 5569.00    2.37061   2.23107   -1.000
 5570.00    2.37459   2.23676   -1.000
 5571.00    2.37609   2.24070   -1.000
 5572.00    2.36469   2.23968   -1.000
 5573.00    2.35908   2.23773   -1.000
 5574.00    2.37744   2.24468   -1.000
 5575.00    2.38504   2.26411   -1.000
 5576.00    2.29318   2.28573   21.843
 5577.00    1.89914   2.29922   -1.000
 5578.00    1.19255   2.30784   -1.000
 5579.00    0.92074   2.31706   -1.000
 5580.00    1.28278   2.32382   -1.000
 5581.00    1.99142   2.32305   -1.000
 5582.00    2.46944   2.31392   -1.000
 5583.00    2.47579   2.29959   -1.000
 5584.00    2.41448   2.27906   -1.000
 5585.00    2.36042   2.24190   -1.000
 5586.00    2.28920   2.18329   -1.000
 5587.00    2.22549   2.11858   -1.000
 5588.00    2.20081   2.07500   -1.000
 5589.00    2.21698   2.07072   -1.000
 5590.00    2.26363   2.10080   -1.000
 5591.00    2.30288   2.14321   -1.000
 5592.00    2.30686   2.17619   -1.000
 5593.00    2.30588   2.19389   -1.000
 5594.00    2.33116   2.20901   -1.000
 5595.00    2.35217   2.23491   -1.000
 5596.00    2.38663   2.26554   -1.000
 5597.00    2.38123   2.27740   -1.000
 5598.00    2.34143   2.25807   22.009
 5599.00    2.32184   2.21996   -1.000
 5600.00    2.29991   2.18232   -1.000
 5601.00    2.27917   2.15561   -1.000
 5602.00    2.28322   2.14640   -1.000
 5603.00    2.30759   2.16562   -1.000
 5604.00    2.34972   2.21904   -1.000
 5605.00    2.42176   2.29101   -1.000
 5606.00    2.47818   2.35279   -1.000
 5607.00    2.49352   2.38767   -1.000
 5608.00    2.49770   2.39854   -1.000
 5609.00    2.50180   2.39809   -1.000
 5610.00    2.50088   2.39868   -1.000
 5611.00    2.49779   2.40313   21.325
 5612.00    2.49671   2.39872   -1.000
 5613.00    2.45082   2.36402   21.246
 5614.00    2.37194   2.29183   21.330
 5615.00    2.28907   2.20856   21.742
 5616.00    2.27723   2.16080   -1.000
 5617.00    2.32027   2.17076   -1.000
 5618.00    2.37453   2.21571   -1.000
 5619.00    2.38239   2.25782   -1.000
 5620.00    2.39449   2.28337   -1.000
 5621.00    2.40762   2.30020   -1.000
 5622.00    2.42021   2.30464   -1.000
 5623.00    2.38393   2.28321   -1.000
 5624.00    2.32270   2.24167   21.846
 5625.00    2.31376   2.20933   -1.000
 5626.00    2.35317   2.21266   -1.000
 5627.00    2.39221   2.24929   -1.000
 5628.00    2.42875   2.29531   -1.000
 5629.00    2.46278   2.33455   -1.000
 5630.00    2.48815   2.36285   -1.000
 5631.00    2.49529   2.37713   -1.000
 5632.00    2.50234   2.37592   -1.000
 5633.00    2.48210   2.36217   -1.000
 5634.00    2.45973   2.34059   -1.000
 5635.00    2.42612   2.31524   -1.000
 5636.00    2.40016   2.29045   -1.000
 5637.00    2.39096   2.27230   -1.000
 5638.00    2.39426   2.26565   -1.000
 5639.00    2.39443   2.26766   -1.000
 5640.00    2.39346   2.26855   -1.000
 5641.00    2.38592   2.26330   -1.000
 5642.00    2.38621   2.25846   -1.000
 5643.00    2.39576   2.26355   -1.000
 5644.00    2.40796   2.27829   -1.000
 5645.00    2.41652   2.29475   -1.000
 5646.00    2.43451   2.30811   -1.000
 5647.00    2.45079   2.31611   -1.000
 5648.00    2.45994   2.31625   -1.000
 5649.00    2.45873   2.31086   -1.000
 5650.00    2.45847   2.30906   -1.000
 5651.00    2.46986   2.31770   -1.000
 5652.00    2.47182   2.33102   -1.000
 5653.00    2.47166   2.33460   -1.000
 5654.00    2.45326   2.32237   -1.000
 5655.00    2.42132   2.30072   -1.000
 5656.00    2.39943   2.27258   -1.000
 5657.00    2.33966   2.23361   -1.000
 5658.00    2.27361   2.18969   22.339
 5659.00    2.27985   2.16398   -1.000
 5660.00    2.34300   2.17360   -1.000
 5661.00    2.37497   2.20335   -1.000
 5662.00    2.36636   2.22626   -1.000
 5663.00    2.38087   2.24323   -1.000
 5664.00    2.42541   2.26922   -1.000
 5665.00    2.45189   2.29792   -1.000
 5666.00    2.45350   2.31093   -1.000
 5667.00    2.43228   2.30385   -1.000
 5668.00    2.40153   2.29002   -1.000
 5669.00    2.40595   2.28528   -1.000
 5670.00    2.42231   2.29438   -1.000
 5671.00    2.44655   2.31494   -1.000
 5672.00    2.47095   2.34389   -1.000
 5673.00    2.50545   2.37342   -1.000
 5674.00    2.51403   2.39291   -1.000
 5675.00    2.51332   2.39958   -1.000
 5676.00    2.52554   2.39965   -1.000
 5677.00    2.52016   2.39824   -1.000
 5678.00    2.51261   2.39329   -1.000
 5679.00    2.49469   2.38025   -1.000
 5680.00    2.49111   2.35990   -1.000
 5681.00    2.46853   2.33508   -1.000
 5682.00    2.42298   2.30806   -1.000
 5683.00    2.40703   2.28714   -1.000
 5684.00    2.43070   2.28273   -1.000
 5685.00    2.43759   2.28995   -1.000
 5686.00    2.42337   2.29206   -1.000
 5687.00    2.39161   2.28422   -1.000
 5688.00    2.38451   2.27885   -1.000
 5689.00    2.41648   2.28980   -1.000
 5690.00    2.46628   2.31798   -1.000
 5691.00    2.51100   2.35167   -1.000
 5692.00    2.53670   2.37862   -1.000
 5693.00    2.54394   2.39286   -1.000
 5694.00    2.54198   2.39464   -1.000
 5695.00    2.52715   2.38890   -1.000
 5696.00    2.51379   2.37922   -1.000
 5697.00    2.49074   2.36397   -1.000
 5698.00    2.46545   2.34184   -1.000
 5699.00    2.43211   2.31687   -1.000
 5700.00    2.39623   2.29392   -1.000
 5701.00    2.38591   2.27611   -1.000
 5702.00    2.38878   2.26964   -1.000
 5703.00    2.39951   2.27898   -1.000
 5704.00    2.41382   2.29363   -1.000
 5705.00    2.40934   2.29437   -1.000
 5706.00    2.36212   2.27243   -1.000
 5707.00    2.30876   2.23549   22.168
 5708.00    2.28257   2.19930   22.467
 5709.00    2.28556   2.17469   -1.000
 5710.00    2.28322   2.16609   -1.000
 5711.00    2.29861   2.17726   -1.000
 5712.00    2.34724   2.21013   -1.000
 5713.00    2.40565   2.26087   -1.000
 5714.00    2.46813   2.31536   -1.000
 5715.00    2.50162   2.35615   -1.000
 5716.00    2.51582   2.37961   -1.000
 5717.00    2.53417   2.39372   -1.000
 5718.00    2.54617   2.40493   -1.000
 5719.00    2.55180   2.41739   -1.000
 5720.00    2.56383   2.43330   -1.000
 5721.00    2.56950   2.45117   -1.000
 5722.00    2.58041   2.46724   -1.000
 5723.00    2.59200   2.47749   -1.000
 5724.00    2.59133   2.47714   -1.000
 5725.00    2.57881   2.46194   -1.000
 5726.00    2.53744   2.43519   -1.000
 5727.00    2.50896   2.41134   -1.000
 5728.00    2.52084   2.40473   -1.000
 5729.00    2.54548   2.41296   -1.000
 5730.00    2.54287   2.41908   -1.000
 5731.00    2.53743   2.41496   -1.000
 5732.00    2.53445   2.41204   -1.000
 5733.00    2.57039   2.42405   -1.000
 5734.00    2.59988   2.44757   -1.000
 5735.00    2.58789   2.46469   -1.000
 5736.00    2.58085   2.46480   -1.000
 5737.00    2.56750   2.45422   -1.000
 5738.00    2.55545   2.44444   -1.000
 5739.00    2.55264   2.44084   -1.000
 5740.00    2.54806   2.44040   -1.000
 5741.00    2.55163   2.43842   -1.000
 5742.00    2.55994   2.43586   -1.000
 5743.00    2.56452   2.43891   -1.000
 5744.00    2.58183   2.45148   -1.000
 5745.00    2.57901   2.46598   -1.000
 5746.00    2.57478   2.46776   -1.000
 5747.00    2.55928   2.45260   -1.000
 5748.00    2.53667   2.43534   -1.000
 5749.00    2.54968   2.43391   -1.000
 5750.00    2.56974   2.44418   -1.000
 5751.00    2.55486   2.44223   -1.000
 5752.00    2.50786   2.41295   -1.000
 5753.00    2.47132   2.37047   -1.000
 5754.00    2.47166   2.34872   -1.000
 5755.00    2.51727   2.36768   -1.000
 5756.00    2.56683   2.41606   -1.000
 5757.00    2.60608   2.46308   -1.000
 5758.00    2.60599   2.48298   -1.000
 5759.00    2.57224   2.46983   -1.000
 5760.00    2.55070   2.43284   -1.000
 5761.00    2.51222   2.38967   -1.000
 5762.00    2.47875   2.36083   -1.000
 5763.00    2.48785   2.36331   -1.000
 5764.00    2.53646   2.39994   -1.000
 5765.00    2.59050   2.45190   -1.000
 5766.00    2.62638   2.49220   -1.000
 5767.00    2.60900   2.51046   -1.000
 5768.00    2.61383   2.51320   -1.000
 5769.00    2.61261   2.50722   -1.000
 5770.00    2.60414   2.49644   -1.000
 5771.00    2.57981   2.48397   -1.000
 5772.00    2.55820   2.47155   21.132
 5773.00    2.55415   2.46005   -1.000
 5774.00    2.53838   2.45178   21.374
 5775.00    2.54805   2.45012   -1.000
 5776.00    2.55931   2.45585   -1.000
 5777.00    2.56957   2.46158   -1.000
 5778.00    2.54849   2.45287   -1.000
 5779.00    2.49421   2.41953   21.298
 5780.00    2.39840   2.36559   21.355
 5781.00    2.32020   2.30992   21.631
 5782.00    2.28662   2.27340   22.101
 5783.00    2.28908   2.26183   22.425
 5784.00    2.31977   2.26486   22.431
 5785.00    2.35662   2.27485   22.344
 5786.00    2.41651   2.29932   -1.000
 5787.00    2.50318   2.34103   -1.000
 5788.00    2.54894   2.38365   -1.000
 5789.00    2.55501   2.40907   -1.000
 5790.00    2.53754   2.41483   -1.000
 5791.00    2.53373   2.41341   -1.000
 5792.00    2.55294   2.42183   -1.000
 5793.00    2.58350   2.44672   -1.000
 5794.00    2.60738   2.47811   -1.000
 5795.00    2.60129   2.49761   -1.000
 5796.00    2.57940   2.49466   21.118
 5797.00    2.55173   2.47655   21.085
 5798.00    2.53841   2.46519   21.192
 5799.00    2.57966   2.47829   -1.000
 5800.00    2.64044   2.51166   -1.000
 5801.00    2.67471   2.54354   -1.000
 5802.00    2.65955   2.55315   -1.000
 5803.00    2.62466   2.53595   20.640
 5804.00    2.60841   2.50449   -1.000
 5805.00    2.59476   2.47819   -1.000
 5806.00    2.60320   2.46931   -1.000
 5807.00    2.62038   2.47591   -1.000
 5808.00    2.63059   2.48942   -1.000
 5809.00    2.63080   2.50347   -1.000
 5810.00    2.64014   2.51577   -1.000
 5811.00    2.64362   2.52425   -1.000
 5812.00    2.63796   2.52518   -1.000
 5813.00    2.63987   2.51533   -1.000
 5814.00    2.61705   2.49480   -1.000
 5815.00    2.59718   2.47013   -1.000
 5816.00    2.59146   2.45558   -1.000
 5817.00    2.59961   2.46449   -1.000
 5818.00    2.63363   2.49507   -1.000
 5819.00    2.66644   2.52947   -1.000
 5820.00    2.68603   2.55053   -1.000
 5821.00    2.69496   2.55385   -1.000
 5822.00    2.69655   2.54624   -1.000
 5823.00    2.67970   2.53755   -1.000
 5824.00    2.68717   2.53430   -1.000
 5825.00    2.69019   2.53693   -1.000
 5826.00    2.68854   2.54201   -1.000
 5827.00    2.69408   2.54721   -1.000
 5828.00    2.69680   2.55267   -1.000
 5829.00    2.70435   2.55860   -1.000
 5830.00    2.71173   2.56262   -1.000
 5831.00    2.69976   2.56187   -1.000
 5832.00    2.69030   2.55597   -1.000
 5833.00    2.68831   2.54598   -1.000
 5834.00    2.68482   2.53420   -1.000
 5835.00    2.68200   2.52573   -1.000
 5836.00    2.68437   2.52405   -1.000
 5837.00    2.67790   2.52609   -1.000
 5838.00    2.67471   2.52856   -1.000
 5839.00    2.67519   2.53532   -1.000
 5840.00    2.67352   2.54983   -1.000
 5841.00    2.70045   2.56717   -1.000
 5842.00    2.71338   2.57856   -1.000
 5843.00    2.71241   2.57834   -1.000
 5844.00    2.69639   2.56603   -1.000
 5845.00    2.66559   2.54483   -1.000
 5846.00    2.63267   2.52012   -1.000
 5847.00    2.62806   2.49940   -1.000
 5848.00    2.63527   2.48904   -1.000
 5849.00    2.63538   2.48870   -1.000
 5850.00    2.62453   2.48859   -1.000
 5851.00    2.60216   2.47712   -1.000
 5852.00    2.57825   2.45372   -1.000
 5853.00    2.55869   2.43057   -1.000
 5854.00    2.56242   2.41758   -1.000
 5855.00    2.56931   2.40913   -1.000
 5856.00    2.54741   2.39082   -1.000
 5857.00    2.51539   2.36242   -1.000
 5858.00    2.50798   2.34468   -1.000
 5859.00    2.54413   2.35578   -1.000
 5860.00    2.58292   2.38986   -1.000
 5861.00    2.58965   2.42453   -1.000
 5862.00    2.59787   2.44489   -1.000
 5863.00    2.62309   2.45331   -1.000
 5864.00    2.62011   2.45590   -1.000
 5865.00    2.60656   2.45333   -1.000
 5866.00    2.59534   2.44535   -1.000
 5867.00    2.58324   2.44088   -1.000
 5868.00    2.61176   2.45202   -1.000
 5869.00    2.64396   2.47682   -1.000
 5870.00    2.68953   2.49977   -1.000
 5871.00    2.68289   2.50970   -1.000
 5872.00    2.66290   2.50748   -1.000
 5873.00    2.65853   2.50104   -1.000
 5874.00    2.66420   2.49723   -1.000
 5875.00    2.66295   2.49593   -1.000
 5876.00    2.66177   2.49154   -1.000
 5877.00    2.64240   2.47849   -1.000
 5878.00    2.62111   2.45714   -1.000
 5879.00    2.60041   2.43353   -1.000
 5880.00    2.59419   2.41571   -1.000
 5881.00    2.59758   2.40917   -1.000
 5882.00    2.60060   2.41103   -1.000
 5883.00    2.59787   2.41197   -1.000
 5884.00    2.59284   2.40748   -1.000
 5885.00    2.58837   2.39792   -1.000
 5886.00    2.53552   2.36870   -1.000
 5887.00    2.40063   2.28786   -1.000
 5888.00    2.14280   2.14060   21.877
 5889.00    1.74130   1.96506   -1.000
 5890.00    1.36209   1.84284   -1.000
 5891.00    1.17402   1.83417   -1.000
 5892.00    1.35204   1.91746   -1.000
 5893.00    1.73593   2.00670   -1.000
 5894.00    1.95300   2.02791   24.680
 5895.00    1.86074   1.98540   24.093
 5896.00    1.62696   1.94917   -1.000
 5897.00    1.53863   1.98498   -1.000
 5898.00    1.73838   2.08901   -1.000
 5899.00    2.07769   2.20361   24.341
 5900.00    2.35767   2.29118   23.480
 5901.00    2.51307   2.34976   -1.000
 5902.00    2.56528   2.38635   -1.000
 5903.00    2.58334   2.40583   -1.000
 5904.00    2.59305   2.41343   -1.000
 5905.00    2.58257   2.41488   -1.000
 5906.00    2.58218   2.41693   -1.000
 5907.00    2.59985   2.42499   -1.000
 5908.00    2.60562   2.43805   -1.000
 5909.00    2.60709   2.45055   -1.000
 5910.00    2.60943   2.45899   -1.000
 5911.00    2.60927   2.46047   -1.000
 5912.00    2.59654   2.44889   -1.000
 5913.00    2.55935   2.42191   -1.000
 5914.00    2.52685   2.38892   -1.000
 5915.00    2.51575   2.36732   -1.000
 5916.00    2.53386   2.36815   -1.000
 5917.00    2.57416   2.38786   -1.000
 5918.00    2.60197   2.41495   -1.000
 5919.00    2.61853   2.43874   -1.000
 5920.00    2.61867   2.45206   -1.000
 5921.00    2.60320   2.45440   -1.000
 5922.00    2.60378   2.45117   -1.000
 5923.00    2.60916   2.45091   -1.000
 5924.00    2.62160   2.45850   -1.000
 5925.00    2.62945   2.47081   -1.000
 5926.00    2.63002   2.47956   -1.000
 5927.00    2.62575   2.47695   -1.000
 5928.00    2.60520   2.46101   -1.000
 5929.00    2.59291   2.43998   -1.000
 5930.00    2.58729   2.42914   -1.000
 5931.00    2.60822   2.43635   -1.000
 5932.00    2.63970   2.45138   -1.000
 5933.00    2.63587   2.45600   -1.000
 5934.00    2.63022   2.44727   -1.000
 5935.00    2.61299   2.44067   -1.000
 5936.00    2.61941   2.44979   -1.000
 5937.00    2.65080   2.47064   -1.000
 5938.00    2.65277   2.48688   -1.000
 5939.00    2.63904   2.48759   -1.000
 5940.00    2.62414   2.47291   -1.000
 5941.00    2.61327   2.45149   -1.000
 5942.00    2.60232   2.43788   -1.000
 5943.00    2.61787   2.44209   -1.000
 5944.00    2.64026   2.46040   -1.000
 5945.00    2.64318   2.47894   -1.000
 5946.00    2.63409   2.48523   -1.000
 5947.00    2.62967   2.47453   -1.000
 5948.00    2.62201   2.45403   -1.000
 5949.00    2.60394   2.43947   -1.000
 5950.00    2.59012   2.43894   -1.000
 5951.00    2.60577   2.44382   -1.000
 5952.00    2.59163   2.44288   -1.000
 5953.00    2.56991   2.43909   -1.000
 5954.00    2.58905   2.44023   -1.000
 5955.00    2.60143   2.44403   -1.000
 5956.00    2.60440   2.44227   -1.000
 5957.00    2.60270   2.43677   -1.000
 5958.00    2.60219   2.44017   -1.000
 5959.00    2.60900   2.45902   -1.000
 5960.00    2.63518   2.48588   -1.000
 5961.00    2.66738   2.50905   -1.000
 5962.00    2.66880   2.52124   -1.000
 5963.00    2.66386   2.52107   -1.000
 5964.00    2.66401   2.51183   -1.000
 5965.00    2.64973   2.49967   -1.000
 5966.00    2.64946   2.49317   -1.000
 5967.00    2.65941   2.49804   -1.000
 5968.00    2.67073   2.51125   -1.000
 5969.00    2.68197   2.52501   -1.000
 5970.00    2.68472   2.53585   -1.000
 5971.00    2.68051   2.54325   -1.000
 5972.00    2.67265   2.54499   -1.000
 5973.00    2.66556   2.53787   -1.000
 5974.00    2.65128   2.51964   -1.000
 5975.00    2.62741   2.49165   -1.000
 5976.00    2.61196   2.46228   -1.000
 5977.00    2.60029   2.44417   -1.000
 5978.00    2.59526   2.44505   -1.000
 5979.00    2.62562   2.46215   -1.000
 5980.00    2.65756   2.48378   -1.000
 5981.00    2.66039   2.49348   -1.000
 5982.00    2.62732   2.48055   -1.000
 5983.00    2.59004   2.44988   -1.000
 5984.00    2.58638   2.42153   -1.000
 5985.00    2.59029   2.41516   -1.000
 5986.00    2.60194   2.43327   -1.000
 5987.00    2.63297   2.46111   -1.000
 5988.00    2.65071   2.48405   -1.000
 5989.00    2.65984   2.49810   -1.000
 5990.00    2.66216   2.50393   -1.000
 5991.00    2.65574   2.50597   -1.000
 5992.00    2.65289   2.51302   -1.000
 5993.00    2.67172   2.52872   -1.000
 5994.00    2.68688   2.54343   -1.000
 5995.00    2.68232   2.54308   -1.000
 5996.00    2.65498   2.52471   -1.000
 5997.00    2.63852   2.49964   -1.000
 5998.00    2.64202   2.48389   -1.000
 5999.00    2.63665   2.48418   -1.000
 6000.00    2.63075   2.49336   -1.000
 6001.00    2.63787   2.49854   -1.000
 6002.00    2.63230   2.49456   -1.000
 6003.00    2.61611   2.48776   -1.000
 6004.00    2.63193   2.48555   -1.000
 6005.00    2.62812   2.48329   -1.000
 6006.00    2.61107   2.46868   -1.000
 6007.00    2.58128   2.44377   -1.000
 6008.00    2.56586   2.42904   -1.000
 6009.00    2.57639   2.44110   -1.000
 6010.00    2.59165   2.47104   -1.000
 6011.00    2.60032   2.49145   -1.000
 6012.00    2.58444   2.48811   -1.000
 6013.00    2.58882   2.47307   -1.000
 6014.00    2.60408   2.46385   -1.000
 6015.00    2.60188   2.46401   -1.000
 6016.00    2.59959   2.46547   -1.000
 6017.00    2.60193   2.46381   -1.000
 6018.00    2.59855   2.46061   -1.000
 6019.00    2.58942   2.45408   -1.000
 6020.00    2.58252   2.44412   -1.000
 6021.00    2.58262   2.43942   -1.000
 6022.00    2.58989   2.44669   -1.000
 6023.00    2.61729   2.46295   -1.000
 6024.00    2.64544   2.48280   -1.000
 6025.00    2.64498   2.50285   -1.000
 6026.00    2.65775   2.52070   -1.000
 6027.00    2.68446   2.53584   -1.000
 6028.00    2.69292   2.55037   -1.000
 6029.00    2.69758   2.56439   -1.000
 6030.00    2.70023   2.57463   -1.000
 6031.00    2.71087   2.58133   -1.000
 6032.00    2.72711   2.58883   -1.000
 6033.00    2.73721   2.59894   -1.000
 6034.00    2.73697   2.60970   -1.000
 6035.00    2.73009   2.61755   -1.000
 6036.00    2.71682   2.61921   -1.000
 6037.00    2.71412   2.61380   -1.000
 6038.00    2.70796   2.60333   -1.000
 6039.00    2.68150   2.59131   -1.000
 6040.00    2.66537   2.58192   -1.000
 6041.00    2.67606   2.57821   -1.000
 6042.00    2.70574   2.58126   -1.000
 6043.00    2.71918   2.59118   -1.000
 6044.00    2.71443   2.60617   -1.000
 6045.00    2.72563   2.62058   -1.000
 6046.00    2.74121   2.62966   -1.000
 6047.00    2.73184   2.63412   -1.000
 6048.00    2.71585   2.63620   21.297
 6049.00    2.71934   2.63703   -1.000
 6050.00    2.73020   2.63618   -1.000
 6051.00    2.73657   2.63139   -1.000
 6052.00    2.72660   2.61979   -1.000
 6053.00    2.70833   2.60202   -1.000
 6054.00    2.70257   2.58237   -1.000
 6055.00    2.70014   2.56529   -1.000
 6056.00    2.69165   2.55522   -1.000
 6057.00    2.69418   2.55650   -1.000
 6058.00    2.71200   2.56871   -1.000
 6059.00    2.71956   2.58460   -1.000
 6060.00    2.73021   2.59468   -1.000
 6061.00    2.73498   2.59167   -1.000
 6062.00    2.70067   2.57317   -1.000
 6063.00    2.67247   2.54358   -1.000
 6064.00    2.64986   2.51488   -1.000
 6065.00    2.64322   2.50397   -1.000
 6066.00    2.66944   2.52190   -1.000
 6067.00    2.62294   2.56276   -1.000
 6068.00    2.30712   2.60632    9.246
 6069.00    2.38234   2.63613   12.044
 6070.00    2.67170   2.65082   22.815
 6071.00    2.76211   2.65674   -1.000
 6072.00    2.80555   2.65662   -1.000
 6073.00    2.56765   2.65217   20.813
 6074.00    1.24318   2.64697   -1.000
 6075.00    1.76366   2.63951   -1.000
 6076.00    2.67649   2.62298   21.377
 6077.00    2.72679   2.59783   -1.000
 6078.00    2.67465   2.57279   -1.000
 6079.00    2.65518   2.55540   -1.000
 6080.00    2.63571   2.54517   -1.000
 6081.00    2.63520   2.53672   -1.000
 6082.00    2.65294   2.52987   -1.000
 6083.00    2.65597   2.52878   -1.000
 6084.00    2.66004   2.53366   -1.000
 6085.00    2.65926   2.54133   -1.000
 6086.00    2.66703   2.55027   -1.000
 6087.00    2.66789   2.55812   -1.000
 6088.00    2.66823   2.55896   -1.000
 6089.00    2.65511   2.54882   -1.000
 6090.00    2.63542   2.53276   -1.000
 6091.00    2.63752   2.52241   -1.000
 6092.00    2.65136   2.52525   -1.000
 6093.00    2.66453   2.54015   -1.000
 6094.00    2.69668   2.56092   -1.000
 6095.00    2.72738   2.57941   -1.000
 6096.00    2.72844   2.59020   -1.000
 6097.00    2.71588   2.59555   -1.000
 6098.00    2.71154   2.59984   -1.000
 6099.00    2.69604   2.59716   -1.000
 6100.00    2.66539   2.57254   -1.000
 6101.00    2.61262   2.52139   -1.000
 6102.00    2.56180   2.46568   -1.000
 6103.00    2.55166   2.44156   -1.000
 6104.00    2.59320   2.46387   -1.000
 6105.00    2.65640   2.51091   -1.000
 6106.00    2.69632   2.55168   -1.000
 6107.00    2.70039   2.57417   -1.000
 6108.00    2.68393   2.58583   -1.000
 6109.00    2.69221   2.59426   -1.000
 6110.00    2.70958   2.59878   -1.000
 6111.00    2.69636   2.59976   -1.000
 6112.00    2.68156   2.60356   -1.000
 6113.00    2.70519   2.61309   -1.000
 6114.00    2.72128   2.62149   -1.000
 6115.00    2.70637   2.62084   -1.000
 6116.00    2.68923   2.61252   -1.000
 6117.00    2.67043   2.60218   21.779
 6118.00    2.65870   2.58688   21.911
 6119.00    2.64381   2.55737   -1.000
 6120.00    2.60606   2.51297   -1.000
 6121.00    2.56749   2.46898   -1.000
 6122.00    2.56816   2.44924   -1.000
 6123.00    2.60371   2.46631   -1.000
 6124.00    2.64166   2.50610   -1.000
 6125.00    2.66236   2.53947   -1.000
 6126.00    2.65250   2.55104   -1.000
 6127.00    2.63514   2.54812   -1.000
 6128.00    2.63625   2.54670   -1.000
 6129.00    2.64563   2.55878   -1.000
 6130.00    2.67307   2.58435   -1.000
 6131.00    2.69767   2.61096   -1.000
 6132.00    2.70066   2.62214   -1.000
 6133.00    2.68396   2.60416   -1.000
 6134.00    2.62915   2.54964   -1.000
 6135.00    2.55065   2.46662   -1.000
 6136.00    2.47714   2.38774   -1.000
 6137.00    2.46594   2.35572   -1.000
 6138.00    2.51534   2.38664   -1.000
 6139.00    2.56926   2.45180   -1.000
 6140.00    2.60651   2.50562   -1.000
 6141.00    2.62491   2.52980   -1.000
 6142.00    2.64177   2.54283   -1.000
 6143.00    2.65929   2.56514   -1.000
 6144.00    2.67886   2.59311   -1.000
 6145.00    2.68078   2.61125   22.370
 6146.00    2.68053   2.61122   22.103
 6147.00    2.67932   2.59570   -1.000
 6148.00    2.65841   2.57307   -1.000
 6149.00    2.62378   2.55300   22.200
 6150.00    2.62638   2.54352   -1.000
 6151.00    2.63741   2.54684   -1.000
 6152.00    2.65920   2.55611   -1.000
 6153.00    2.65014   2.55927   -1.000
 6154.00    2.62058   2.55066   22.339
 6155.00    2.60830   2.53652   22.268
 6156.00    2.60918   2.52577   -1.000
 6157.00    2.59788   2.51704   -1.000
 6158.00    2.56335   2.49758   22.587
 6159.00    2.52998   2.45231   -1.000
 6160.00    2.46738   2.37746   -1.000
 6161.00    2.36988   2.29336   -1.000
 6162.00    2.31447   2.23834   -1.000
 6163.00    2.33467   2.23907   -1.000
 6164.00    2.40431   2.28773   -1.000
 6165.00    2.46411   2.35132   -1.000
 6166.00    2.49283   2.39767   -1.000
 6167.00    2.47962   2.41001   -1.000
 6168.00    2.43402   2.39177   23.510
 6169.00    2.40838   2.36549   23.530
 6170.00    2.42461   2.36086   23.765
 6171.00    2.46782   2.38898   -1.000
 6172.00    2.51138   2.43228   -1.000
 6173.00    2.52689   2.46581   -1.000
 6174.00    2.52150   2.48175   23.215
 6175.00    2.53047   2.48705   23.135
 6176.00    2.54440   2.48999   23.170
 6177.00    2.54373   2.49650   23.134
 6178.00    2.54873   2.50819   23.083
 6179.00    2.56033   2.52156   23.028
 6180.00    2.57277   2.53375   22.929
 6181.00    2.57674   2.54564   22.834
 6182.00    2.58085   2.55597   22.760
 6183.00    2.58746   2.55889   22.664
 6184.00    2.58126   2.54999   22.590
 6185.00    2.55733   2.52981   22.605
 6186.00    2.52459   2.50282   22.679
 6187.00    2.50093   2.47534   22.828
 6188.00    2.47728   2.44976   23.062
 6189.00    2.46079   2.42200   23.308
 6190.00    2.44802   2.39185   23.535
 6191.00    2.43503   2.37379   23.721
 6192.00    2.45250   2.38565   -1.000
 6193.00    2.49978   2.42690   -1.000
 6194.00    2.54535   2.47736   -1.000
 6195.00    2.56637   2.51612   23.541
 6196.00    2.58402   2.53399   23.079
 6197.00    2.58200   2.53027   22.874
 6198.00    2.54830   2.50965   22.815
 6199.00    2.52116   2.48656   22.909
 6200.00    2.51322   2.47998   23.147
 6201.00    2.53620   2.49675   23.368
 6202.00    2.56225   2.52581   23.409
 6203.00    2.56315   2.55154   23.231
 6204.00    2.56603   2.56667   22.947
 6205.00    2.57313   2.57371   22.808
 6206.00    2.57531   2.57817   22.801
 6207.00    2.58235   2.58148   22.777
 6208.00    2.58248   2.58046   22.761
 6209.00    2.57547   2.57131   22.823
 6210.00    2.56644   2.55199   22.856
 6211.00    2.54501   2.52096   22.917
 6212.00    2.50910   2.47815   23.099
 6213.00    2.46844   2.43088   23.294
 6214.00    2.43149   2.39431   23.505
 6215.00    2.42491   2.38070   23.825
 6216.00    2.44840   2.38875   -1.000
 6217.00    2.46974   2.40418   -1.000
 6218.00    2.47424   2.41143   -1.000
 6219.00    2.46598   2.40759   23.825
 6220.00    2.46545   2.40400   -1.000
 6221.00    2.46978   2.41149   23.939
 6222.00    2.49339   2.42773   -1.000
 6223.00    2.52421   2.44334   -1.000
 6224.00    2.52603   2.45393   -1.000
 6225.00    2.49189   2.46080   25.197
 6226.00    2.46942   2.46291   23.977
 6227.00    2.49918   2.45298   23.565
 6228.00    2.49507   2.42354   -1.000
 6229.00    2.43923   2.37774   -1.000
 6230.00    2.39148   2.33470   23.967
 6231.00    2.39406   2.31890   -1.000
 6232.00    2.43457   2.34099   -1.000
 6233.00    2.47598   2.39078   -1.000
 6234.00    2.51929   2.44625   -1.000
 6235.00    2.55701   2.48528   -1.000
 6236.00    2.56973   2.49531   -1.000
 6237.00    2.55327   2.47851   -1.000
 6238.00    2.52694   2.44772   -1.000
 6239.00    2.48988   2.41695   -1.000
 6240.00    2.46767   2.39464   -1.000
 6241.00    2.45817   2.38032   -1.000
 6242.00    2.43439   2.36765   -1.000
 6243.00    2.42640   2.35435   -1.000
 6244.00    2.43123   2.34665   -1.000
 6245.00    2.42951   2.35254   -1.000
 6246.00    2.44782   2.37523   -1.000
 6247.00    2.48951   2.41098   -1.000
 6248.00    2.52519   2.44715   -1.000
 6249.00    2.53469   2.46686   -1.000
 6250.00    2.51555   2.45949   -1.000
 6251.00    2.47850   2.42780   23.688
 6252.00    2.43205   2.38738   23.833
 6253.00    2.40314   2.35632   24.209
 6254.00    2.40298   2.34056   -1.000
 6255.00    2.40462   2.33144   -1.000
 6256.00    2.39164   2.31922   -1.000
 6257.00    2.36760   2.30668   -1.000
 6258.00    2.36803   2.30739   -1.000
 6259.00    2.40116   2.33123   -1.000
 6260.00    2.44556   2.37468   -1.000
 6261.00    2.50132   2.42438   -1.000
 6262.00    2.53977   2.46551   -1.000
 6263.00    2.54666   2.48780   -1.000
 6264.00    2.53437   2.49056   23.886
 6265.00    2.52566   2.48441   23.673
 6266.00    2.52929   2.48235   23.763
 6267.00    2.53223   2.48666   23.947
 6268.00    2.54145   2.48980   23.934
 6269.00    2.54138   2.48861   23.770
 6270.00    2.52985   2.48919   23.757
 6271.00    2.53021   2.49665   23.879
 6272.00    2.53751   2.50738   23.904
 6273.00    2.54391   2.51274   23.832
 6274.00    2.54449   2.50688   23.764
 6275.00    2.54303   2.49024   23.785
 6276.00    2.53879   2.46638   -1.000
 6277.00    2.51914   2.43857   -1.000
 6278.00    2.48042   2.41019   -1.000
 6279.00    2.42461   2.38685   24.975
 6280.00    2.35886   2.37666   25.508
 6281.00    2.32315   2.38618   25.769
 6282.00    2.32209   2.41424   25.754
 6283.00    2.33702   2.45130   25.450
 6284.00    2.34377   2.48643   25.010
 6285.00    2.34105   2.51485   24.607
 6286.00    2.35831   2.53796   24.282
 6287.00    2.41082   2.55646   24.052
 6288.00    2.48109   2.56590   23.844
 6289.00    2.51647   2.56085   23.657
 6290.00    2.52269   2.54271   23.568
 6291.00    2.53241   2.52071   23.634
 6292.00    2.52785   2.50466   23.815
 6293.00    2.51693   2.49694   24.006
 6294.00    2.50854   2.49081   24.101
 6295.00    2.50847   2.47757   24.128
 6296.00    2.50463   2.45737   24.164
 6297.00    2.49363   2.44065   24.297
 6298.00    2.51348   2.43519   -1.000
 6299.00    2.55833   2.43582   -1.000
 6300.00    2.59072   2.43247   -1.000
 6301.00    2.66029   2.42542   -1.000
 6302.00    2.80284   2.42606   -1.000
 6303.00    2.89588   2.44200   -1.000
 6304.00    2.84625   2.46922   -1.000
 6305.00    2.72312   2.49969   -1.000
 6306.00    2.64596   2.52898   -1.000
 6307.00    2.63150   2.55398   -1.000
 6308.00    2.61472   2.56859   23.772
 6309.00    2.59682   2.56770   23.565
 6310.00    2.58952   2.55410   23.456
 6311.00    2.56513   2.53649   23.514
 6312.00    2.54914   2.52063   23.658
 6313.00    2.55076   2.50514   23.779
 6314.00    2.52577   2.48668   23.870
 6315.00    2.50143   2.46705   23.924
 6316.00    2.49436   2.45094   24.062
 6317.00    2.48997   2.44088   24.214
 6318.00    2.48851   2.44087   24.230
 6319.00    2.50704   2.45646   24.205
 6320.00    2.53881   2.48468   24.216
 6321.00    2.55288   2.51440   24.179
 6322.00    2.57495   2.53941   23.960
 6323.00    2.60968   2.56118   23.694
 6324.00    2.63651   2.58015   23.551
 6325.00    2.64812   2.59298   23.474
 6326.00    2.64329   2.59815   23.366
 6327.00    2.64277   2.59895   23.268
 6328.00    2.64624   2.59929   23.235
 6329.00    2.65223   2.60016   23.162
 6330.00    2.65920   2.60268   23.123
 6331.00    2.65583   2.60840   23.149
 6332.00    2.65432   2.61201   23.164
 6333.00    2.65012   2.60120   23.121
 6334.00    2.62540   2.57039   23.058
 6335.00    2.58423   2.53162   23.083
 6336.00    2.56272   2.50680   23.148
 6337.00    2.57494   2.50837   -1.000
 6338.00    2.60145   2.53126   -1.000
 6339.00    2.63080   2.56182   -1.000
 6340.00    2.66126   2.58663   -1.000
 6341.00    2.67665   2.59539   -1.000
 6342.00    2.66301   2.58583   -1.000
 6343.00    2.63931   2.56775   -1.000
 6344.00    2.63522   2.55758   -1.000
 6345.00    2.65275   2.56544   -1.000
 6346.00    2.68506   2.58793   -1.000
 6347.00    2.70872   2.61463   -1.000
 6348.00    2.71493   2.63780   -1.000
 6349.00    2.72283   2.65403   -1.000
 6350.00    2.72135   2.66176   22.695
 6351.00    2.71584   2.65971   22.666
 6352.00    2.70557   2.64660   22.643
 6353.00    2.68689   2.62374   22.631
 6354.00    2.66015   2.59787   22.701
 6355.00    2.63667   2.57705   22.806
 6356.00    2.63344   2.56126   -1.000
 6357.00    2.62307   2.54295   -1.000
 6358.00    2.60056   2.51888   -1.000
 6359.00    2.58506   2.49455   -1.000
 6360.00    2.57850   2.47608   -1.000
 6361.00    2.58385   2.46549   -1.000
 6362.00    2.59890   2.46448   -1.000
 6363.00    2.63272   2.47595   -1.000
 6364.00    2.68842   2.49992   -1.000
 6365.00    2.74391   2.53196   -1.000
 6366.00    2.79907   2.56613   -1.000
 6367.00    2.83089   2.59688   -1.000
 6368.00    2.81100   2.61938   -1.000
 6369.00    2.77215   2.63232   -1.000
 6370.00    2.73957   2.64056   -1.000
 6371.00    2.72320   2.65081   -1.000
 6372.00    2.73912   2.66447   -1.000
 6373.00    2.75350   2.67669   -1.000
 6374.00    2.74519   2.68241   -1.000
 6375.00    2.73519   2.68089   22.574
 6376.00    2.72820   2.67339   22.618
 6377.00    2.72196   2.66061   22.650
 6378.00    2.71186   2.64506   -1.000
 6379.00    2.69024   2.63210   22.825
 6380.00    2.67948   2.62608   22.965
 6381.00    2.69605   2.62757   -1.000
 6382.00    2.70536   2.63351   -1.000
 6383.00    2.70407   2.63960   -1.000
 6384.00    2.70740   2.64440   -1.000
 6385.00    2.70047   2.65028   23.134
 6386.00    2.70086   2.65855   23.165
 6387.00    2.71632   2.66659   23.251
 6388.00    2.70524   2.67075   23.260
 6389.00    2.68116   2.66797   23.288
 6390.00    2.66750   2.65371   23.366
 6391.00    2.64063   2.62470   23.507
 6392.00    2.60135   2.58801   23.702
 6393.00    2.56604   2.56340   23.935
 6394.00    2.55004   2.56879   24.264
 6395.00    2.56886   2.60061   24.549
 6396.00    2.59174   2.63361   24.591
 6397.00    2.59036   2.64144   24.339
 6398.00    2.57322   2.61692   24.140
 6399.00    2.53488   2.57894   24.221
 6400.00    2.49881   2.56054   24.499
 6401.00    2.50702   2.58132   24.987
 6402.00    2.54582   2.62922   25.358
 6403.00    2.57574   2.67441   25.278
 6404.00    2.58515   2.69562   24.917
 6405.00    2.57443   2.68940   24.663
 6406.00    2.54342   2.66539   24.659
 6407.00    2.49752   2.63987   24.772
 6408.00    2.46805   2.62601   25.032
 6409.00    2.45883   2.62391   25.420
 6410.00    2.44534   2.62389   25.741
 6411.00    2.42744   2.62091   -1.000
 6412.00    2.40706   2.61969   -1.000
 6413.00    2.39663   2.62542   -1.000
 6414.00    2.39218   2.63678   -1.000
 6415.00    2.38401   2.64880   -1.000
 6416.00    2.37823   2.65590   -1.000
 6417.00    2.36607   2.65171   -1.000
 6418.00    2.34453   2.63248   -1.000
 6419.00    2.31863   2.60401   -1.000
 6420.00    2.27829   2.58288   -1.000
 6421.00    2.24781   2.58590   -1.000
 6422.00    2.25614   2.61483   -1.000
 6423.00    2.26936   2.65405   -1.000
 6424.00    2.26243   2.68650   -1.000
 6425.00    2.25361   2.70689   -1.000
 6426.00    2.25203   2.71710   -1.000
 6427.00    2.24733   2.71484   -1.000
 6428.00    2.21881   2.69375   -1.000
