###################################################################
## OUTPUT of StarlightChains_v04.for    [Cid@UFSC - 01/Apr/2007] ##
###################################################################

## Some input info
NGC5904_a_1.cxt                          [arq_obs]
Base.BC03.S                              [arq_base]
NGC5904_a_1.msk                          [arq_masks]
StCv04.C11.config                        [arq_config]
  150                                    [N_base]
    0                                    [N_YAV_components = # of components with extra extinction!]
    0                                    [i_FitPowerLaw (1/0 = Yes/No)]
-9.99                                    [alpha_PowerLaw]
CCM                                      [red_law_option]
 1.458241                                [q_norm = A(l_norm)/A(V)]

## (Re)Sampling Parameters
 3359.00                                 [l_ini (A)]
 6428.00                                 [l_fin (A)]
    1.00                                 [dl    (A)]     (OBS: dl_cushion =    50.00 A)

## Normalization info
 4020.00                                 [l_norm (A) - for base]
 4010.00                                 [llow_norm (A) - window for f_obs]
 4060.00                                 [lupp_norm (A) - window for f_obs]
5.027376E-14                             [fobs_norm (in input units)]

## S/N
 4730.00                                 [llow_SN (A) - window for S/N]
 4780.00                                 [lupp_SN (A) - window for S/N]
  94.495                                 [S/N in S/N window]
  88.383                                 [S/N in norm. window]
 203.063                                 [S/N_err in S/N window]
 189.929                                 [S/N_err in norm. window]
  1.0000                                 [fscale_chi2]

## etc...
  2147483635                             [idum_orig]
  3069                                   [NOl_eff]
  1056                                   [Nl_eff]
  2013    NSIGMA                         [Ntot_cliped & clip_method]
  1336790                                [Nglobal_steps]
   7                                     [N_chains]
  16                                     [NEX0s_base = N_base in EX0s-fits]
 0   0   1      257   2.0   3.991E+02    [Clip-Bug, RC-Crash & Burn-In warning-flags, n_censored_weights, wei_nsig_threshold & wei_limit]
    70     70.856     70.844      0.012  [idt_all, wdt_TotTime, wdt_UsrTime & wdt_SysTime (sec)]

## Synthesis Results - Best model ##

 2.76410E+00                             [chi2/Nl_eff]
     0.92747                             [adev (%)]

   102.35206                             [sum-of-x (%)]
 6.53524E-14                             [Flux_tot (units of input spectrum!)]
 5.65647E-10                             [Mini_tot (???)]
 3.03541E-10                             [Mcor_tot (???)]

 -14.80                                  [v0_min  (km/s)]
  65.60                                  [vd_min  (km/s)]
 0.1780                                  [AV_min  (mag)]
 0.0000                                  [YAV_min (mag)]

# j     x_j(%)      Mini_j(%)     Mcor_j(%)     age_j(yr)     Z_j      (L/M)_j    YAV?  Mstars   component_j        a/Fe...       SSP_chi2r SSP_adev(%)   SSP_AV   SSP_x(%)
  1      0.0000     0.0000E+00    0.0000E+00    1.000000E+06  0.00010  8.160E-03    0   1.0000   age020_m22            0.0000     8.6846E+02    14.7406   3.6282    77.7169
  2     20.3675     4.8311E-02    9.0026E-02    3.160000E+06  0.00010  4.759E-02    0   1.0000   age045_m22            0.0000     1.3115E+02     5.9657   1.5877    96.7180
  3      0.0000     0.0000E+00    0.0000E+00    5.010000E+06  0.00010  1.932E-02    0   0.9582   age055_m22            0.0000     7.6583E+02    14.0017   1.9298    83.8835
  4      0.0000     0.0000E+00    0.0000E+00    6.610000E+06  0.00010  9.973E-03    0   0.9297   age061_m22            0.0000     8.5034E+02    14.7951   3.5912    80.5690
  5      0.0000     0.0000E+00    0.0000E+00    8.710000E+06  0.00010  7.690E-03    0   0.9030   age067_m22            0.0000     8.0500E+02    14.4308   3.5816    80.9932
  6      0.0000     0.0000E+00    0.0000E+00    1.000000E+07  0.00010  6.375E-03    0   0.8902   age070_m22            0.0000     7.6783E+02    14.1147   3.5971    81.1268
  7      0.0000     0.0000E+00    0.0000E+00    1.445000E+07  0.00010  4.874E-03    0   0.8589   age078_m22            0.0000     5.7253E+02    12.4067   3.4080    83.8752
  8      0.0000     0.0000E+00    0.0000E+00    2.512000E+07  0.00010  4.103E-03    0   0.8174   age090_m22            0.0000     2.6884E+02     8.9560   2.9845    90.0294
  9      0.0000     0.0000E+00    0.0000E+00    4.000000E+07  0.00010  3.654E-03    0   0.7830   age104_m22            0.0000     1.7214E+02     6.4610   2.6748    94.5382
 10      0.0000     0.0000E+00    0.0000E+00    5.500000E+07  0.00010  3.093E-03    0   0.7597   age110_m22            0.0000     1.5763E+02     5.6385   2.5639    96.1738
 11      0.0000     0.0000E+00    0.0000E+00    1.015200E+08  0.00010  2.431E-03    0   0.7138   age116_m22            0.0000     1.9043E+02     5.3346   2.2099    99.1107
 12      0.0000     0.0000E+00    0.0000E+00    1.609000E+08  0.00010  1.319E-03    0   0.6775   age120_m22            0.0000     1.8519E+02     4.8850   1.7198   101.6603
 13      0.0000     0.0000E+00    0.0000E+00    2.861200E+08  0.00010  1.075E-03    0   0.6412   age125_m22            0.0000     5.0871E+02     7.6666   1.7576   105.6105
 14      0.0000     0.0000E+00    0.0000E+00    5.088000E+08  0.00010  7.183E-04    0   0.6083   age130_m22            0.0000     6.4612E+02     8.9416   1.5137   107.6080
 15      0.0000     0.0000E+00    0.0000E+00    9.047900E+08  0.00010  4.524E-04    0   0.5785   age135_m22            0.0000     6.5808E+02     9.1019   1.3118   108.8664
 16      0.0000     0.0000E+00    0.0000E+00    1.278050E+09  0.00010  3.018E-04    0   0.5588   age138_m22            0.0000     2.8079E+02     5.8543   0.7893   106.7937
 17      0.0000     0.0000E+00    0.0000E+00    1.434000E+09  0.00010  2.691E-04    0   0.5532   age139_m22            0.0000     2.1926E+02     5.1865   0.6340   106.1770
 18      0.0000     0.0000E+00    0.0000E+00    2.500000E+09  0.00010  1.582E-04    0   0.5296   age150_m22            0.0000     1.8511E+02     4.8077   0.5319   106.6843
 19      0.0000     0.0000E+00    0.0000E+00    4.250000E+09  0.00010  1.007E-04    0   0.5110   age158_m22            0.0000     8.5172E+01     3.3678   0.3839   104.9091
 20      0.0000     0.0000E+00    0.0000E+00    6.250000E+09  0.00010  6.869E-05    0   0.4985   age166_m22            0.0000     3.2114E+01     2.2117   0.3288   102.1305
 21      0.0000     0.0000E+00    0.0000E+00    7.500000E+09  0.00010  5.873E-05    0   0.4931   age171_m22            0.0000     3.2566E+01     2.3462   0.3215   101.5296
 22      0.0000     0.0000E+00    0.0000E+00    1.000000E+10  0.00010  4.481E-05    0   0.4854   age181_m22            0.0000     2.9997E+01     2.2618   0.2828   101.1685
 23      0.0000     0.0000E+00    0.0000E+00    1.300000E+10  0.00010  3.489E-05    0   0.4791   age193_m22            0.0000     2.4618E+01     2.0858   0.2243   100.6308
 24      0.0000     0.0000E+00    0.0000E+00    1.500000E+10  0.00010  3.035E-05    0   0.4766   age201_m22            0.0000     2.2370E+01     2.0203   0.1845   100.4352
 25      0.0000     0.0000E+00    0.0000E+00    1.800000E+10  0.00010  2.510E-05    0   0.4735   age213_m22            0.0000     1.9159E+01     1.9421   0.1151    99.8158
 26      0.0000     0.0000E+00    0.0000E+00    1.000000E+06  0.00040  8.458E-03    0   1.0000   age020_m32            0.0000     8.5163E+02    14.6494   3.6441    78.4041
 27      0.0000     0.0000E+00    0.0000E+00    3.160000E+06  0.00040  3.973E-02    0   1.0000   age045_m32            0.0000     3.0147E+02     9.3783   2.8854    89.9736
 28      0.0000     0.0000E+00    0.0000E+00    5.010000E+06  0.00040  1.935E-02    0   0.9532   age055_m32            0.0000     6.4998E+02    13.2846   3.1343    84.1987
 29      0.0000     0.0000E+00    0.0000E+00    6.610000E+06  0.00040  1.204E-02    0   0.9243   age061_m32            0.0000     7.1173E+02    13.6922   3.4464    82.4534
 30      0.0000     0.0000E+00    0.0000E+00    8.710000E+06  0.00040  9.433E-03    0   0.9001   age067_m32            0.0000     6.3850E+02    13.0464   3.4176    83.2963
 31      0.0000     0.0000E+00    0.0000E+00    1.000000E+07  0.00040  8.053E-03    0   0.8877   age070_m32            0.0000     6.1021E+02    12.7862   3.3792    83.7605
 32      0.0000     0.0000E+00    0.0000E+00    1.445000E+07  0.00040  7.027E-03    0   0.8578   age078_m32            0.0000     3.8158E+02    10.5501   2.8499    88.6520
 33      0.0000     0.0000E+00    0.0000E+00    2.512000E+07  0.00040  4.707E-03    0   0.8166   age090_m32            0.0000     2.3740E+02     8.4688   2.5410    92.5302
 34      0.0000     0.0000E+00    0.0000E+00    4.000000E+07  0.00040  3.714E-03    0   0.7827   age104_m32            0.0000     1.6526E+02     6.5005   2.3282    95.8127
 35      0.0000     0.0000E+00    0.0000E+00    5.500000E+07  0.00040  2.982E-03    0   0.7593   age110_m32            0.0000     1.5704E+02     5.8401   2.2610    97.0294
 36      0.0000     0.0000E+00    0.0000E+00    1.015200E+08  0.00040  2.188E-03    0   0.7143   age116_m32            0.0000     2.5368E+02     5.5300   1.9691   101.6335
 37      0.0000     0.0000E+00    0.0000E+00    1.609000E+08  0.00040  1.690E-03    0   0.6856   age120_m32            0.0000     3.9191E+02     6.6172   1.7480   104.5330
 38      0.0000     0.0000E+00    0.0000E+00    2.861200E+08  0.00040  1.152E-03    0   0.6509   age125_m32            0.0000     5.4133E+02     7.9899   1.5055   106.8506
 39      0.0000     0.0000E+00    0.0000E+00    5.088000E+08  0.00040  7.331E-04    0   0.6182   age130_m32            0.0000     5.9645E+02     8.6138   1.3333   107.7384
 40      0.0000     0.0000E+00    0.0000E+00    9.047900E+08  0.00040  3.960E-04    0   0.5890   age135_m32            0.0000     2.9476E+02     6.1940   0.8706   106.2617
 41      0.0000     0.0000E+00    0.0000E+00    1.278050E+09  0.00040  2.854E-04    0   0.5687   age138_m32            0.0000     2.1784E+02     5.1826   0.5939   107.7281
 42      0.0000     0.0000E+00    0.0000E+00    1.434000E+09  0.00040  2.531E-04    0   0.5632   age139_m32            0.0000     2.1048E+02     5.0996   0.5338   107.6755
 43     11.4079     8.6541E+00    8.6860E+00    2.500000E+09  0.00040  1.488E-04    0   0.5386   age150_m32            0.0000     1.2563E+02     3.9600   0.2754   105.9422
 44     28.2249     3.5081E+01    3.3987E+01    4.250000E+09  0.00040  9.082E-05    0   0.5199   age158_m32            0.0000     2.1891E+01     1.7555   0.1805   102.4928
 45      0.0403     7.1458E-02    6.7593E-02    6.250000E+09  0.00040  6.362E-05    0   0.5076   age166_m32            0.0000     2.4845E+01     2.2493   0.1470    98.9391
 46      0.1340     2.8592E-01    2.6784E-01    7.500000E+09  0.00040  5.289E-05    0   0.5027   age171_m32            0.0000     3.1274E+01     2.4462   0.1085    97.7183
 47      2.6163     7.4352E+00    6.8557E+00    1.000000E+10  0.00040  3.972E-05    0   0.4948   age181_m32            0.0000     3.5750E+01     2.4738   0.0420    96.4344
 48      0.0000     0.0000E+00    0.0000E+00    1.300000E+10  0.00040  3.283E-05    0   0.4870   age193_m32            0.0000     1.1720E+01     1.5103  -0.0064    99.1670
 49      0.0000     0.0000E+00    0.0000E+00    1.500000E+10  0.00040  2.925E-05    0   0.4854   age201_m32            0.0000     9.3167E+00     1.2929  -0.0269   100.7616
 50      0.0001     5.3825E-04    4.8336E-04    1.800000E+10  0.00040  2.469E-05    0   0.4819   age213_m32            0.0000     1.0350E+01     1.3023  -0.0694   101.2855
 51      0.0000     0.0000E+00    0.0000E+00    1.000000E+06  0.00400  1.114E-02    0   1.0000   age020_m42            0.0000     8.1505E+02    14.2908   3.5683    78.8847
 52      0.0000     0.0000E+00    0.0000E+00    3.160000E+06  0.00400  4.073E-02    0   0.9999   age045_m42            0.0000     1.9710E+02     7.5930   2.5721    92.7068
 53      0.0000     0.0000E+00    0.0000E+00    5.010000E+06  0.00400  2.534E-02    0   0.9488   age055_m42            0.0000     4.3695E+02    10.9631   2.9941    86.4706
 54      0.0000     0.0000E+00    0.0000E+00    6.610000E+06  0.00400  2.583E-02    0   0.9220   age061_m42            0.0000     1.6841E+02     6.8929   2.3857    93.3824
 55      0.0000     0.0000E+00    0.0000E+00    8.710000E+06  0.00400  1.706E-02    0   0.8983   age067_m42            0.0000     2.7375E+02     9.0307   2.2203    91.3918
 56      0.0000     0.0000E+00    0.0000E+00    1.000000E+07  0.00400  1.271E-02    0   0.8862   age070_m42            0.0000     3.8923E+02    10.7530   2.2144    89.8263
 57      0.0000     0.0000E+00    0.0000E+00    1.445000E+07  0.00400  7.666E-03    0   0.8571   age078_m42            0.0000     4.9924E+02    11.7776   2.6150    86.9016
 58      0.0000     0.0000E+00    0.0000E+00    2.512000E+07  0.00400  5.070E-03    0   0.8174   age090_m42            0.0000     3.2781E+02     9.9375   2.0687    91.6551
 59      0.0000     0.0000E+00    0.0000E+00    4.000000E+07  0.00400  3.505E-03    0   0.7851   age104_m42            0.0000     1.9356E+02     7.6790   1.7297    94.8180
 60      0.0000     0.0000E+00    0.0000E+00    5.500000E+07  0.00400  3.059E-03    0   0.7629   age110_m42            0.0000     1.0987E+02     4.5756   1.7658    99.5981
 61      0.0000     0.0000E+00    0.0000E+00    1.015200E+08  0.00400  2.268E-03    0   0.7207   age116_m42            0.0000     3.2529E+02     5.8147   1.6526   105.1719
 62      0.2837     1.8619E-02    2.4045E-02    1.609000E+08  0.00400  1.720E-03    0   0.6930   age120_m42            0.0000     3.6173E+02     6.3025   1.5004   107.0617
 63      0.0000     0.0000E+00    0.0000E+00    2.861200E+08  0.00400  1.079E-03    0   0.6613   age125_m42            0.0000     3.8509E+02     6.8250   1.1456   107.5608
 64      0.0000     0.0000E+00    0.0000E+00    5.088000E+08  0.00400  6.261E-04    0   0.6313   age130_m42            0.0000     4.5674E+02     7.3739   0.9527   110.3943
 65      0.0153     4.8947E-03    5.4946E-03    9.047900E+08  0.00400  3.535E-04    0   0.6024   age135_m42            0.0000     2.3496E+02     5.4660   0.5493   110.4728
 66      0.0002     7.4338E-05    8.0859E-05    1.278050E+09  0.00400  2.677E-04    0   0.5837   age138_m42            0.0000     9.2381E+01     4.6427  -0.1643   107.7582
 67      2.6575     1.5706E+00    1.6729E+00    1.434000E+09  0.00400  1.910E-04    0   0.5716   age139_m42            0.0000     9.8915E+01     4.4766   0.0058   108.7927
 68     25.9634     2.9851E+01    3.0389E+01    2.500000E+09  0.00400  9.818E-05    0   0.5463   age150_m42            0.0000     6.3311E+01     3.9419  -0.2698   103.8120
 69      0.0002     4.7686E-04    4.6821E-04    4.250000E+09  0.00400  5.491E-05    0   0.5269   age158_m42            0.0000     9.9161E+01     4.2981  -0.3905   100.8469
 70      0.0000     0.0000E+00    0.0000E+00    6.250000E+09  0.00400  3.857E-05    0   0.5151   age166_m42            0.0000     1.5381E+02     5.1651  -0.5224    99.4173
 71      0.0000     0.0000E+00    0.0000E+00    7.500000E+09  0.00400  3.243E-05    0   0.5110   age171_m42            0.0000     1.9147E+02     5.7096  -0.6056    98.8421
 72      0.0000     0.0000E+00    0.0000E+00    1.000000E+10  0.00400  2.424E-05    0   0.5028   age181_m42            0.0000     2.4836E+02     6.4210  -0.6900    98.1976
 73      0.0000     0.0000E+00    0.0000E+00    1.300000E+10  0.00400  1.883E-05    0   0.4927   age193_m42            0.0000     2.9673E+02     6.9445  -0.7326    97.8861
 74      0.0000     0.0000E+00    0.0000E+00    1.500000E+10  0.00400  1.685E-05    0   0.4919   age201_m42            0.0000     2.8301E+02     6.7698  -0.7268    97.8999
 75      0.0000     0.0000E+00    0.0000E+00    1.800000E+10  0.00400  1.452E-05    0   0.4874   age213_m42            0.0000     2.5852E+02     6.4645  -0.7098    98.1592
 76      0.0000     0.0000E+00    0.0000E+00    1.000000E+06  0.00800  1.286E-02    0   1.0000   age020_m52            0.0000     7.1835E+02    13.5104   3.5455    80.6410
 77      0.0000     0.0000E+00    0.0000E+00    3.160000E+06  0.00800  3.147E-02    0   0.9966   age045_m52            0.0000     6.8773E+02    13.3148   3.4546    82.1582
 78      0.0000     0.0000E+00    0.0000E+00    5.010000E+06  0.00800  2.664E-02    0   0.9443   age055_m52            0.0000     5.0321E+02    11.5230   3.1142    85.5401
 79      0.0000     0.0000E+00    0.0000E+00    6.610000E+06  0.00800  2.151E-02    0   0.9177   age061_m52            0.0000     3.1022E+02     9.0803   1.7887    91.8030
 80      0.0000     0.0000E+00    0.0000E+00    8.710000E+06  0.00800  1.628E-02    0   0.8948   age067_m52            0.0000     3.0881E+02     9.5199   2.1669    91.9683
 81      0.0000     0.0000E+00    0.0000E+00    1.000000E+07  0.00800  1.215E-02    0   0.8827   age070_m52            0.0000     3.8418E+02    10.5508   2.5114    90.1200
 82      0.0000     0.0000E+00    0.0000E+00    1.445000E+07  0.00800  8.739E-03    0   0.8552   age078_m52            0.0000     3.1591E+02     9.6004   2.5492    91.3967
 83      0.0000     0.0000E+00    0.0000E+00    2.512000E+07  0.00800  5.676E-03    0   0.8162   age090_m52            0.0000     2.2150E+02     7.7704   2.1390    96.0176
 84      0.0000     0.0000E+00    0.0000E+00    4.000000E+07  0.00800  3.939E-03    0   0.7841   age104_m52            0.0000     1.7256E+02     6.1713   1.9682    98.6819
 85      0.0000     0.0000E+00    0.0000E+00    5.500000E+07  0.00800  3.155E-03    0   0.7627   age110_m52            0.0000     1.7044E+02     5.2400   1.9276   100.6012
 86      0.0000     0.0000E+00    0.0000E+00    1.015200E+08  0.00800  2.206E-03    0   0.7226   age116_m52            0.0000     2.4071E+02     5.0079   1.7175   104.8353
 87      0.0000     0.0000E+00    0.0000E+00    1.609000E+08  0.00800  1.596E-03    0   0.6963   age120_m52            0.0000     2.9902E+02     5.6213   1.4914   106.7327
 88      0.0000     0.0000E+00    0.0000E+00    2.861200E+08  0.00800  1.002E-03    0   0.6665   age125_m52            0.0000     4.9450E+02     8.0167   1.1693   110.0404
 89      0.0000     0.0000E+00    0.0000E+00    5.088000E+08  0.00800  5.759E-04    0   0.6377   age130_m52            0.0000     5.3303E+02     8.9140   0.7961   114.4147
 90      0.0000     0.0000E+00    0.0000E+00    9.047900E+08  0.00800  2.972E-04    0   0.6086   age135_m52            0.0000     2.6886E+02     7.1208   0.2447   113.2318
 91      0.0000     0.0000E+00    0.0000E+00    1.278050E+09  0.00800  2.242E-04    0   0.5907   age138_m52            0.0000     1.4331E+02     5.8463  -0.3688   111.1937
 92      0.0000     0.0000E+00    0.0000E+00    1.434000E+09  0.00800  1.645E-04    0   0.5787   age139_m52            0.0000     1.0883E+02     5.0945  -0.2151   110.5807
 93      0.0000     0.0000E+00    0.0000E+00    2.500000E+09  0.00800  7.723E-05    0   0.5519   age150_m52            0.0000     1.4942E+02     5.6929  -0.5561   106.4870
 94      2.4290     6.6053E+00    6.5484E+00    4.250000E+09  0.00800  4.151E-05    0   0.5320   age158_m52            0.0000     1.7719E+02     5.8616  -0.6214   103.7544
 95      0.0000     0.0000E+00    0.0000E+00    6.250000E+09  0.00800  3.010E-05    0   0.5197   age166_m52            0.0000     2.7356E+02     7.0187  -0.8244   102.3134
 96      0.0000     0.0000E+00    0.0000E+00    7.500000E+09  0.00800  2.467E-05    0   0.5139   age171_m52            0.0000     3.0168E+02     7.3408  -0.8692   101.9173
 97      0.0000     0.0000E+00    0.0000E+00    1.000000E+10  0.00800  1.862E-05    0   0.5054   age181_m52            0.0000     3.8815E+02     8.2890  -1.0000   101.3912
 98      0.0000     0.0000E+00    0.0000E+00    1.300000E+10  0.00800  1.433E-05    0   0.4988   age193_m52            0.0000     5.0961E+02     9.0911  -1.0000   100.0648
 99      0.0000     0.0000E+00    0.0000E+00    1.500000E+10  0.00800  1.244E-05    0   0.4936   age201_m52            0.0000     5.6364E+02     9.4094  -1.0000    99.8963
100      0.0000     0.0000E+00    0.0000E+00    1.800000E+10  0.00800  1.070E-05    0   0.4888   age213_m52            0.0000     6.1108E+02     9.6441  -1.0000    99.0038
101      0.0000     0.0000E+00    0.0000E+00    1.000000E+06  0.02000  1.989E-02    0   1.0000   age020_m62            0.0000     8.0509E+02    14.0797   3.5218    79.8463
102      0.0000     0.0000E+00    0.0000E+00    3.160000E+06  0.02000  3.772E-02    0   0.9858   age045_m62            0.0000     7.3146E+02    13.5792   3.3747    81.9806
103      0.0000     0.0000E+00    0.0000E+00    5.010000E+06  0.02000  3.227E-02    0   0.9342   age055_m62            0.0000     3.0553E+02     9.3554   2.8352    89.3983
104      0.0000     0.0000E+00    0.0000E+00    6.610000E+06  0.02000  2.387E-02    0   0.9090   age061_m62            0.0000     4.6960E+02    11.5881   2.5913    88.6410
105      0.0000     0.0000E+00    0.0000E+00    8.710000E+06  0.02000  1.102E-02    0   0.8861   age067_m62            0.0000     1.2182E+03    18.2861   2.2195    83.8548
106      0.0000     0.0000E+00    0.0000E+00    1.000000E+07  0.02000  1.011E-02    0   0.8751   age070_m62            0.0000     8.6464E+02    15.5017   2.2322    86.4875
107      0.0000     0.0000E+00    0.0000E+00    1.445000E+07  0.02000  7.331E-03    0   0.8472   age078_m62            0.0000     6.2057E+02    13.1685   2.2409    88.1341
108      0.0000     0.0000E+00    0.0000E+00    2.512000E+07  0.02000  4.206E-03    0   0.8099   age090_m62            0.0000     6.2879E+02    13.1041   2.1427    87.7290
109      0.0000     0.0000E+00    0.0000E+00    4.000000E+07  0.02000  3.373E-03    0   0.7799   age104_m62            0.0000     1.9847E+02     7.5309   1.9194    96.7139
110      0.0000     0.0000E+00    0.0000E+00    5.500000E+07  0.02000  2.747E-03    0   0.7595   age110_m62            0.0000     1.6518E+02     5.6151   1.8412   100.3543
111      0.0000     0.0000E+00    0.0000E+00    1.015200E+08  0.02000  1.878E-03    0   0.7221   age116_m62            0.0000     3.0489E+02     5.7124   1.6845   105.4946
112      0.0000     0.0000E+00    0.0000E+00    1.609000E+08  0.02000  1.378E-03    0   0.6978   age120_m62            0.0000     4.5533E+02     6.9138   1.5168   108.4180
113      0.0000     0.0000E+00    0.0000E+00    2.861200E+08  0.02000  8.869E-04    0   0.6700   age125_m62            0.0000     7.3687E+02     9.3005   1.1222   113.1916
114      0.0000     0.0000E+00    0.0000E+00    5.088000E+08  0.02000  4.834E-04    0   0.6430   age130_m62            0.0000     6.1469E+02     9.4529   0.6558   116.0575
115      0.0000     0.0000E+00    0.0000E+00    9.047900E+08  0.02000  2.312E-04    0   0.6152   age135_m62            0.0000     2.3049E+02     6.7772   0.0417   115.1335
116      0.0000     0.0000E+00    0.0000E+00    1.278050E+09  0.02000  1.387E-04    0   0.5927   age138_m62            0.0000     1.0603E+02     5.1030  -0.3397   110.2803
117      0.0000     0.0000E+00    0.0000E+00    1.434000E+09  0.02000  1.168E-04    0   0.5865   age139_m62            0.0000     1.0338E+02     4.9941  -0.3641   108.5760
118      0.0000     0.0000E+00    0.0000E+00    2.500000E+09  0.02000  5.505E-05    0   0.5610   age150_m62            0.0000     2.0831E+02     6.5471  -0.7522   105.4443
119      0.0000     0.0000E+00    0.0000E+00    4.250000E+09  0.02000  3.070E-05    0   0.5407   age158_m62            0.0000     4.0095E+02     8.5875  -1.0000   104.1487
120      0.0000     0.0000E+00    0.0000E+00    6.250000E+09  0.02000  2.104E-05    0   0.5277   age166_m62            0.0000     5.7405E+02     9.5228  -1.0000   101.7920
121      0.0000     0.0000E+00    0.0000E+00    7.500000E+09  0.02000  1.770E-05    0   0.5223   age171_m62            0.0000     6.9834E+02    10.3198  -1.0000   100.2349
122      0.0000     0.0000E+00    0.0000E+00    1.000000E+10  0.02000  1.297E-05    0   0.5121   age181_m62            0.0000     1.0047E+03    12.6562  -1.0000    97.0964
123      0.0000     0.0000E+00    0.0000E+00    1.300000E+10  0.02000  9.691E-06    0   0.5047   age193_m62            0.0000     1.2197E+03    14.0887  -1.0000    95.4642
124      0.0000     0.0000E+00    0.0000E+00    1.500000E+10  0.02000  8.360E-06    0   0.4999   age201_m62            0.0000     1.4162E+03    15.2825  -1.0000    93.9814
125      0.0000     0.0000E+00    0.0000E+00    1.800000E+10  0.02000  6.911E-06    0   0.4946   age213_m62            0.0000     1.6529E+03    16.5700  -1.0000    92.3889
126      0.0000     0.0000E+00    0.0000E+00    1.000000E+06  0.05000  2.651E-02    0   0.9998   age020_m72            0.0000     7.5103E+02    13.4667   3.5204    80.7646
127      0.0000     0.0000E+00    0.0000E+00    3.160000E+06  0.05000  4.817E-02    0   0.9577   age045_m72            0.0000     5.2911E+02    11.6223   3.2231    85.1622
128      0.0000     0.0000E+00    0.0000E+00    5.010000E+06  0.05000  3.101E-02    0   0.9147   age055_m72            0.0000     4.9788E+02    11.4949   2.8566    87.7624
129      0.0000     0.0000E+00    0.0000E+00    6.610000E+06  0.05000  1.472E-02    0   0.8877   age061_m72            0.0000     9.8564E+02    16.1353   2.4131    85.6684
130      0.0000     0.0000E+00    0.0000E+00    8.710000E+06  0.05000  1.050E-02    0   0.8638   age067_m72            0.0000     6.8927E+02    13.3387   2.8041    86.4471
131      0.0000     0.0000E+00    0.0000E+00    1.000000E+07  0.05000  8.954E-03    0   0.8524   age070_m72            0.0000     5.0909E+02    11.2634   3.0806    86.7286
132      0.0000     0.0000E+00    0.0000E+00    1.445000E+07  0.05000  6.392E-03    0   0.8262   age078_m72            0.0000     4.3413E+02    10.4204   3.0207    87.8398
133      0.0000     0.0000E+00    0.0000E+00    2.512000E+07  0.05000  4.207E-03    0   0.7902   age090_m72            0.0000     2.5771E+02     8.2786   2.6178    92.4463
134      0.0000     0.0000E+00    0.0000E+00    4.000000E+07  0.05000  3.198E-03    0   0.7618   age104_m72            0.0000     1.8674E+02     4.8934   2.0577   100.9875
135      0.0000     0.0000E+00    0.0000E+00    5.500000E+07  0.05000  2.593E-03    0   0.7432   age110_m72            0.0000     2.4240E+02     5.2269   1.9572   103.0355
136      0.0000     0.0000E+00    0.0000E+00    1.015200E+08  0.05000  1.716E-03    0   0.7092   age116_m72            0.0000     3.7529E+02     6.3300   1.7531   106.0007
137      0.0000     0.0000E+00    0.0000E+00    1.609000E+08  0.05000  1.218E-03    0   0.6876   age120_m72            0.0000     5.4031E+02     7.6354   1.4716   109.1059
138      0.0000     0.0000E+00    0.0000E+00    2.861200E+08  0.05000  7.047E-04    0   0.6618   age125_m72            0.0000     6.8034E+02     9.4802   0.8870   113.9084
139      0.0000     0.0000E+00    0.0000E+00    5.088000E+08  0.05000  3.590E-04    0   0.6356   age130_m72            0.0000     4.8206E+02     8.9161   0.2772   117.1173
140      0.0000     0.0000E+00    0.0000E+00    9.047900E+08  0.05000  1.484E-04    0   0.6088   age135_m72            0.0000     1.7895E+02     6.6842  -0.4633   110.1021
141      5.9815     7.1563E+00    7.9001E+00    1.278050E+09  0.05000  9.435E-05    0   0.5924   age138_m72            0.0000     2.8928E+02     8.0905  -0.8905   107.0429
142      2.2301     3.2163E+00    3.5044E+00    1.434000E+09  0.05000  7.827E-05    0   0.5847   age139_m72            0.0000     2.9184E+02     7.9668  -0.8727   106.3101
143      0.0000     0.0000E+00    0.0000E+00    2.500000E+09  0.05000  3.759E-05    0   0.5583   age150_m72            0.0000     5.4381E+02     9.4328  -1.0000   101.2835
144      0.0000     0.0000E+00    0.0000E+00    4.250000E+09  0.05000  1.842E-05    0   0.5374   age158_m72            0.0000     1.0625E+03    13.3475  -1.0000    93.8333
145      0.0000     0.0000E+00    0.0000E+00    6.250000E+09  0.05000  1.207E-05    0   0.5242   age166_m72            0.0000     1.6805E+03    17.0184  -1.0000    87.9189
146      0.0000     0.0000E+00    0.0000E+00    7.500000E+09  0.05000  9.993E-06    0   0.5183   age171_m72            0.0000     1.7997E+03    17.6331  -1.0000    86.8217
147      0.0000     0.0000E+00    0.0000E+00    1.000000E+10  0.05000  7.291E-06    0   0.5081   age181_m72            0.0000     2.2188E+03    19.5389  -1.0000    83.7231
148      0.0000     0.0000E+00    0.0000E+00    1.300000E+10  0.05000  5.316E-06    0   0.5018   age193_m72            0.0000     2.9119E+03    22.1795  -1.0000    79.1103
149      0.0000     0.0000E+00    0.0000E+00    1.500000E+10  0.05000  4.497E-06    0   0.4972   age201_m72            0.0000     3.2248E+03    23.2223  -1.0000    77.4901
150      0.0000     0.0000E+00    0.0000E+00    1.800000E+10  0.05000  3.739E-06    0   0.4924   age213_m72            0.0000     3.6719E+03    24.6070  -1.0000    75.0239


## Synthesis Results - Average & Chains ##

# j      x_j: min, <> & last-chain-values for 1 ...  7 chains
  1      0.0000      0.0014      0.0000      0.0000      0.0000      0.0000      0.0000      0.0000      0.0000
  2     20.3675     20.0434     20.5738     20.2951     20.3505     20.2830     20.0609     20.3357     19.9678
  3      0.0000      0.0024      0.0000      0.0000      0.0000      0.0000      0.0000      0.0000      0.0000
  4      0.0000      0.0003      0.0000      0.0000      0.0000      0.0000      0.0000      0.0000      0.0000
  5      0.0000      0.0005      0.0000      0.0000      0.0000      0.0000      0.0000      0.0000      0.0000
  6      0.0000      0.0003      0.0000      0.0000      0.0000      0.0000      0.0000      0.0000      0.0000
  7      0.0000      0.0013      0.0000      0.0000      0.0000      0.0000      0.0000      0.0000      0.0000
  8      0.0000      0.0016      0.0007      0.0000      0.0000      0.0000      0.0000      0.0000      0.0000
  9      0.0000      0.0068      0.0000      0.0000      0.0000      0.0000      0.0000      0.0000      0.0000
 10      0.0000      0.0128      0.0000      0.0000      0.0000      0.0000      0.0701      0.0752      0.0000
 11      0.0000      0.0156      0.0000      0.0000      0.0000      0.0000      0.0000      0.0000      0.0000
 12      0.0000      0.0147      0.0000      0.0000      0.0000      0.0000      0.0536      0.0000      0.0000
 13      0.0000      0.0316      0.0000      0.0000      0.0000      0.0000      0.0000      0.0323      0.0000
 14      0.0000      0.0111      0.0000      0.0000      0.0000      0.0000      0.0000      0.0000      0.0000
 15      0.0000      0.0095      0.0000      0.0000      0.0000      0.0000      0.0000      0.0000      0.0012
 16      0.0000      0.0268      0.0000      0.0000      0.0000      0.0000      0.1669      0.0000      0.0000
 17      0.0000      0.0523      0.0970      0.0175      0.0000      0.0619      0.0000      0.1491      0.0000
 18      0.0000      0.0287      0.1060      0.0000      0.0000      0.0000      0.0000      0.0000      0.0000
 19      0.0000      0.0895      0.0000      0.4602      0.0684      0.1422      0.0000      0.0000      0.0000
 20      0.0000      0.1732      0.0000      0.0000      0.8261      0.3014      0.2481      0.2387      0.0000
 21      0.0000      0.1210      0.1303      0.0214      0.0000      0.0000      0.2515      0.0000      0.0326
 22      0.0000      0.1732      0.0000      0.1174      0.0290      0.0000      0.0381      0.0000      0.0251
 23      0.0000      0.1477      0.0000      0.0000      0.0347      0.0802      0.1847      0.0000      0.0000
 24      0.0000      0.2176      0.5211      0.0584      0.0000      0.0095      0.0000      0.5272      0.0526
 25      0.0000      0.2014      0.0000      0.0000      0.0000      0.0000      0.1941      0.0640      0.0315
 26      0.0000      0.0010      0.0000      0.0000      0.0000      0.0000      0.0000      0.0000      0.0000
 27      0.0000      0.0014      0.0000      0.0000      0.0000      0.0000      0.0000      0.0000      0.0000
 28      0.0000      0.0010      0.0000      0.0000      0.0000      0.0000      0.0000      0.0000      0.0000
 29      0.0000      0.0004      0.0000      0.0000      0.0000      0.0000      0.0000      0.0000      0.0000
 30      0.0000      0.0007      0.0000      0.0000      0.0000      0.0000      0.0000      0.0000      0.0000
 31      0.0000      0.0009      0.0000      0.0000      0.0000      0.0000      0.0000      0.0000      0.0000
 32      0.0000      0.0013      0.0000      0.0000      0.0000      0.0000      0.0000      0.0000      0.0000
 33      0.0000      0.0036      0.0000      0.0000      0.0000      0.0002      0.0000      0.0000      0.0000
 34      0.0000      0.0050      0.0000      0.0000      0.0000      0.0000      0.0000      0.0000      0.0000
 35      0.0000      0.0088      0.0000      0.0000      0.0808      0.0326      0.0077      0.0000      0.0000
 36      0.0000      0.0429      0.0000      0.0000      0.0290      0.1002      0.0107      0.0000      0.0000
 37      0.0000      0.0418      0.2365      0.0000      0.0000      0.0000      0.0000      0.1033      0.0000
 38      0.0000      0.0239      0.0000      0.0977      0.0000      0.0000      0.0000      0.0000      0.0000
 39      0.0000      0.0180      0.0000      0.0000      0.0000      0.0076      0.0000      0.0000      0.0000
 40      0.0000      0.0267      0.0000      0.0651      0.0150      0.0000      0.0000      0.0000      0.0000
 41      0.0000      0.0457      0.0000      0.0324      0.0702      0.0169      0.0449      0.0000      0.2128
 42      0.0000      0.0726      0.2914      0.2769      0.0000      0.0000      0.0000      0.0000      0.0000
 43     11.4079     12.3405     12.8381     12.3980     12.5783     12.5632     12.5163     13.4447     12.2031
 44     28.2249     25.4985     25.6529     25.3334     25.6830     25.2789     25.6169     25.0802     26.4517
 45      0.0403      0.5271      0.5180      0.9214      0.2055      1.3730      0.3305      0.4959      0.7598
 46      0.1340      0.3025      0.0418      0.2165      0.4950      0.4375      0.0947      0.2185      0.3932
 47      2.6163      2.4946      2.5938      1.8297      2.1969      2.2357      2.8131      2.3700      2.5766
 48      0.0000      0.2943      0.0000      0.5641      0.0000      0.0000      0.3749      0.0000      0.0000
 49      0.0000      0.2741      0.0021      0.1870      0.0635      0.4987      0.8256      0.4440      0.0848
 50      0.0001      0.1554      0.2222      0.0763      0.5753      0.0000      0.0000      0.1935      0.4465
 51      0.0000      0.0008      0.0000      0.0000      0.0000      0.0000      0.0000      0.0000      0.0000
 52      0.0000      0.0077      0.0000      0.0000      0.0000      0.0000      0.0000      0.0000      0.0000
 53      0.0000      0.0016      0.0000      0.0000      0.0000      0.0000      0.0000      0.0000      0.0000
 54      0.0000      0.0097      0.0000      0.0000      0.0713      0.0000      0.0000      0.0000      0.0000
 55      0.0000      0.0033      0.0000      0.0000      0.0000      0.0000      0.0000      0.0000      0.0000
 56      0.0000      0.0078      0.0000      0.0000      0.0000      0.0000      0.0000      0.0000      0.0000
 57      0.0000      0.0018      0.0000      0.0000      0.0000      0.0000      0.0000      0.0000      0.0000
 58      0.0000      0.0052      0.0000      0.0000      0.0000      0.0000      0.0000      0.0000      0.0000
 59      0.0000      0.0019      0.0000      0.0000      0.0000      0.0000      0.0000      0.0000      0.0000
 60      0.0000      0.0089      0.0224      0.0000      0.0000      0.0000      0.0000      0.0000      0.0000
 61      0.0000      0.0311      0.0000      0.0461      0.0000      0.0000      0.0210      0.0587      0.2207
 62      0.2837      0.0851      0.0164      0.0934      0.0000      0.0000      0.1712      0.0911      0.3956
 63      0.0000      0.0165      0.0000      0.0000      0.0000      0.0277      0.0312      0.0917      0.0000
 64      0.0000      0.0989      0.0000      0.2390      0.0000      0.0000      0.1059      0.0077      0.0000
 65      0.0153      0.0927      0.0298      0.5223      0.0000      0.0713      0.1840      0.0616      0.3426
 66      0.0002      0.1878      0.2347      0.0000      0.2659      0.0000      0.0166      0.0000      1.0427
 67      2.6575      1.1197      1.3049      0.9363      1.5749      2.7594      1.2709      0.8997      0.9026
 68     25.9634     23.9062     23.4167     25.8073     24.2389     24.0672     23.8363     25.3702     24.2938
 69      0.0002      0.1993      0.2413      0.3238      0.0656      0.3623      0.2877      0.0000      0.4146
 70      0.0000      0.4325      0.5439      0.4936      0.4521      0.4137      0.3793      0.4761      0.1796
 71      0.0000      0.1121      0.2332      0.1519      0.2016      0.0127      0.0000      0.0545      0.0554
 72      0.0000      0.0613      0.2399      0.0000      0.0000      0.0000      0.0000      0.0000      0.0000
 73      0.0000      0.0312      0.0925      0.0000      0.0000      0.0000      0.0000      0.0000      0.0000
 74      0.0000      0.0356      0.0616      0.0000      0.0000      0.0824      0.0359      0.0000      0.0000
 75      0.0000      0.0305      0.0003      0.2103      0.0000      0.0000      0.0000      0.0000      0.0230
 76      0.0000      0.0016      0.0000      0.0017      0.0000      0.0000      0.0000      0.0000      0.0000
 77      0.0000      0.0010      0.0000      0.0000      0.0000      0.0000      0.0000      0.0000      0.0000
 78      0.0000      0.0009      0.0000      0.0000      0.0000      0.0000      0.0000      0.0000      0.0000
 79      0.0000      0.0038      0.0000      0.0000      0.0000      0.0200      0.0000      0.0000      0.0000
 80      0.0000      0.0026      0.0000      0.0000      0.0000      0.0000      0.0000      0.0000      0.0000
 81      0.0000      0.0026      0.0000      0.0000      0.0000      0.0000      0.0000      0.0000      0.0000
 82      0.0000      0.0017      0.0000      0.0047      0.0000      0.0000      0.0000      0.0000      0.0000
 83      0.0000      0.0052      0.0000      0.0000      0.0000      0.0000      0.0000      0.0000      0.0000
 84      0.0000      0.0081      0.0000      0.0000      0.0000      0.0000      0.0000      0.0000      0.0000
 85      0.0000      0.0140      0.0000      0.0000      0.0000      0.0000      0.0000      0.0000      0.0000
 86      0.0000      0.0253      0.0000      0.0000      0.0937      0.0000      0.0223      0.0000      0.0000
 87      0.0000      0.0304      0.0000      0.0000      0.0000      0.0000      0.0000      0.0000      0.0000
 88      0.0000      0.0265      0.0000      0.0000      0.0000      0.0069      0.0154      0.0000      0.0000
 89      0.0000      0.0206      0.0000      0.0218      0.0165      0.0000      0.0145      0.0000      0.0000
 90      0.0000      0.0568      0.0033      0.0000      0.0005      0.0238      0.0000      0.0599      0.0377
 91      0.0000      0.0476      0.0000      0.0000      0.0000      0.0000      0.0146      0.1000      0.0492
 92      0.0000      0.0774      0.0000      0.0422      0.0576      0.0174      0.0265      0.0000      0.0000
 93      0.0000      0.1766      0.2377      0.0000      0.6053      0.1523      0.0000      0.0415      0.2181
 94      2.4290      2.3823      2.3979      2.4656      2.4257      2.3851      2.5729      2.4251      2.5765
 95      0.0000      0.0815      0.0020      0.1363      0.0841      0.0000      0.0000      0.1555      0.2225
 96      0.0000      0.0681      0.1995      0.0000      0.1757      0.0000      0.0000      0.0000      0.0000
 97      0.0000      0.0770      0.0000      0.2899      0.0295      0.2102      0.1670      0.0481      0.0000
 98      0.0000      0.0884      0.0000      0.0000      0.1005      0.0270      0.0726      0.0917      0.1909
 99      0.0000      0.0637      0.0282      0.0525      0.0000      0.0510      0.0000      0.1360      0.0275
100      0.0000      0.0419      0.0000      0.1215      0.0575      0.0000      0.0970      0.0000      0.0767
101      0.0000      0.0004      0.0000      0.0000      0.0000      0.0000      0.0000      0.0000      0.0000
102      0.0000      0.0009      0.0000      0.0000      0.0000      0.0000      0.0000      0.0000      0.0000
103      0.0000      0.0016      0.0000      0.0000      0.0000      0.0000      0.0000      0.0000      0.0000
104      0.0000      0.0017      0.0000      0.0000      0.0000      0.0000      0.0000      0.0000      0.0000
105      0.0000      0.0005      0.0000      0.0000      0.0000      0.0000      0.0000      0.0000      0.0000
106      0.0000      0.0006      0.0000      0.0000      0.0000      0.0000      0.0000      0.0000      0.0000
107      0.0000      0.0026      0.0000      0.0000      0.0000      0.0000      0.0000      0.0000      0.0000
108      0.0000      0.0008      0.0000      0.0000      0.0000      0.0000      0.0000      0.0000      0.0000
109      0.0000      0.0017      0.0000      0.0000      0.0000      0.0222      0.0000      0.0000      0.0000
110      0.0000      0.0058      0.0000      0.0000      0.0000      0.0000      0.0000      0.0000      0.0000
111      0.0000      0.0059      0.0000      0.0000      0.0000      0.0000      0.0000      0.0000      0.0000
112      0.0000      0.0094      0.0000      0.0000      0.0000      0.0000      0.0000      0.0000      0.0000
113      0.0000      0.0086      0.1309      0.0000      0.0000      0.0000      0.0000      0.0000      0.0000
114      0.0000      0.0235      0.0038      0.0000      0.0000      0.0000      0.0000      0.0000      0.0000
115      0.0000      0.0849      0.3140      0.0000      0.0000      0.0042      0.0000      0.1341      0.0287
116      0.0000      0.0613      0.0000      0.0000      0.1028      0.0564      0.0000      0.0000      0.0341
117      0.0000      0.0333      0.0000      0.0000      0.0278      0.0000      0.0000      0.0000      0.0000
118      0.0000      0.0435      0.0000      0.0210      0.0000      0.0000      0.0000      0.0000      0.0000
119      0.0000      0.0290      0.0000      0.0000      0.0000      0.0000      0.1662      0.0085      0.0000
120      0.0000      0.0207      0.1263      0.0000      0.0000      0.0000      0.0000      0.0000      0.0000
121      0.0000      0.0216      0.0000      0.0000      0.0000      0.0000      0.0000      0.0000      0.0028
122      0.0000      0.0086      0.0000      0.0000      0.0000      0.0735      0.0000      0.0000      0.0000
123      0.0000      0.0057      0.0000      0.0000      0.0000      0.0000      0.0000      0.0000      0.0397
124      0.0000      0.0113      0.0000      0.0000      0.0000      0.0000      0.0000      0.0000      0.0000
125      0.0000      0.0031      0.0000      0.0000      0.0000      0.0000      0.0000      0.0000      0.0000
126      0.0000      0.0002      0.0000      0.0000      0.0000      0.0000      0.0000      0.0000      0.0000
127      0.0000      0.0012      0.0000      0.0000      0.0000      0.0000      0.0000      0.0000      0.0000
128      0.0000      0.0031      0.0000      0.0000      0.0000      0.0000      0.0000      0.0000      0.0000
129      0.0000      0.0017      0.0000      0.0000      0.0000      0.0000      0.0000      0.0000      0.0000
130      0.0000      0.0010      0.0000      0.0000      0.0000      0.0000      0.0000      0.0000      0.0000
131      0.0000      0.0004      0.0000      0.0000      0.0000      0.0000      0.0000      0.0000      0.0000
132      0.0000      0.0008      0.0000      0.0000      0.0000      0.0000      0.0000      0.0000      0.0086
133      0.0000      0.0013      0.0000      0.0000      0.0000      0.0000      0.0000      0.0000      0.0000
134      0.0000      0.0033      0.0000      0.0068      0.0000      0.0000      0.0000      0.0000      0.0000
135      0.0000      0.0051      0.0000      0.0000      0.0000      0.0000      0.0000      0.0000      0.0000
136      0.0000      0.0090      0.0000      0.0000      0.0000      0.0000      0.0000      0.0000      0.0000
137      0.0000      0.0167      0.0000      0.0000      0.0000      0.0740      0.0000      0.0000      0.0000
138      0.0000      0.0271      0.0000      0.0119      0.0000      0.0000      0.0811      0.0000      0.0000
139      0.0000      0.0518      0.0000      0.0000      0.0000      0.0000      0.0000      0.0000      0.0322
140      0.0000      0.9475      0.7375      0.0000      1.1048      0.3966      1.1475      0.4303      0.0000
141      5.9815      5.5228      6.0237      5.5373      5.6292      5.4159      5.6720      5.6469      5.6108
142      2.2301      1.9380      1.8804      1.7921      1.6439      2.0200      2.0033      2.1349      2.0056
143      0.0000      0.0368      0.0000      0.0000      0.0000      0.1454      0.0000      0.0000      0.0686
144      0.0000      0.0032      0.0000      0.0000      0.0000      0.0000      0.0000      0.0000      0.0000
145      0.0000      0.0023      0.0000      0.0218      0.0000      0.0000      0.0000      0.0000      0.0000
146      0.0000      0.0045      0.0000      0.0000      0.0000      0.0000      0.0000      0.0000      0.0000
147      0.0000      0.0007      0.0000      0.0000      0.0000      0.0000      0.0000      0.0000      0.0000
148      0.0000      0.0076      0.0000      0.0000      0.0000      0.0000      0.0000      0.0526      0.0000
149      0.0000      0.0013      0.0000      0.0000      0.0000      0.0000      0.0000      0.0000      0.0000
150      0.0000      0.0010      0.0000      0.0000      0.0000      0.0000      0.0000      0.0000      0.0000

# j      m_j: min, <> & last-chain-values for 1 ...  7 chains
  1  0.0000E+00  3.2428E-05  0.0000E+00  0.0000E+00  0.0000E+00  0.0000E+00  0.0000E+00  0.0000E+00  0.0000E+00
  2  9.0026E-02  8.2463E-02  8.6545E-02  8.4155E-02  8.6084E-02  8.5813E-02  8.2660E-02  8.4573E-02  8.3426E-02
  3  0.0000E+00  2.3593E-05  0.0000E+00  0.0000E+00  0.0000E+00  0.0000E+00  0.0000E+00  0.0000E+00  0.0000E+00
  4  0.0000E+00  5.0236E-06  0.0000E+00  0.0000E+00  0.0000E+00  0.0000E+00  0.0000E+00  0.0000E+00  0.0000E+00
  5  0.0000E+00  1.1005E-05  0.0000E+00  0.0000E+00  0.0000E+00  0.0000E+00  0.0000E+00  0.0000E+00  0.0000E+00
  6  0.0000E+00  9.1054E-06  0.0000E+00  0.0000E+00  0.0000E+00  0.0000E+00  0.0000E+00  0.0000E+00  0.0000E+00
  7  0.0000E+00  4.5924E-05  0.0000E+00  0.0000E+00  0.0000E+00  0.0000E+00  0.0000E+00  0.0000E+00  0.0000E+00
  8  0.0000E+00  6.3485E-05  2.6103E-05  0.0000E+00  0.0000E+00  0.0000E+00  0.0000E+00  0.0000E+00  0.0000E+00
  9  0.0000E+00  2.8524E-04  0.0000E+00  0.0000E+00  0.0000E+00  0.0000E+00  0.0000E+00  0.0000E+00  0.0000E+00
 10  0.0000E+00  6.1647E-04  0.0000E+00  0.0000E+00  0.0000E+00  0.0000E+00  3.3766E-03  3.6571E-03  0.0000E+00
 11  0.0000E+00  8.9572E-04  0.0000E+00  0.0000E+00  0.0000E+00  0.0000E+00  0.0000E+00  0.0000E+00  0.0000E+00
 12  0.0000E+00  1.4779E-03  0.0000E+00  0.0000E+00  0.0000E+00  0.0000E+00  5.3989E-03  0.0000E+00  0.0000E+00
 13  0.0000E+00  3.6888E-03  0.0000E+00  0.0000E+00  0.0000E+00  0.0000E+00  0.0000E+00  3.8084E-03  0.0000E+00
 14  0.0000E+00  1.8459E-03  0.0000E+00  0.0000E+00  0.0000E+00  0.0000E+00  0.0000E+00  0.0000E+00  0.0000E+00
 15  0.0000E+00  2.3890E-03  0.0000E+00  0.0000E+00  0.0000E+00  0.0000E+00  0.0000E+00  0.0000E+00  2.9410E-04
 16  0.0000E+00  9.7197E-03  0.0000E+00  0.0000E+00  0.0000E+00  0.0000E+00  6.0585E-02  0.0000E+00  0.0000E+00
 17  0.0000E+00  2.1035E-02  3.9928E-02  7.1020E-03  0.0000E+00  2.5603E-02  0.0000E+00  6.0683E-02  0.0000E+00
 18  0.0000E+00  1.8823E-02  7.1031E-02  0.0000E+00  0.0000E+00  0.0000E+00  0.0000E+00  0.0000E+00  0.0000E+00
 19  0.0000E+00  8.8951E-02  0.0000E+00  4.6086E-01  6.9876E-02  1.4530E-01  0.0000E+00  0.0000E+00  0.0000E+00
 20  0.0000E+00  2.4617E-01  0.0000E+00  0.0000E+00  1.2069E+00  4.4036E-01  3.5305E-01  3.4285E-01  0.0000E+00
 21  0.0000E+00  1.9895E-01  2.1898E-01  3.5466E-02  0.0000E+00  0.0000E+00  4.1412E-01  0.0000E+00  5.4368E-02
 22  0.0000E+00  3.6739E-01  0.0000E+00  2.5101E-01  6.3243E-02  0.0000E+00  8.0885E-02  0.0000E+00  5.4143E-02
 23  0.0000E+00  3.9701E-01  0.0000E+00  0.0000E+00  9.5787E-02  2.2174E-01  4.9735E-01  0.0000E+00  0.0000E+00
 24  0.0000E+00  6.6920E-01  1.6383E+00  1.8100E-01  0.0000E+00  2.9981E-02  0.0000E+00  1.6385E+00  1.6437E-01
 25  0.0000E+00  7.4405E-01  0.0000E+00  0.0000E+00  0.0000E+00  0.0000E+00  7.1814E-01  2.3897E-01  1.1803E-01
 26  0.0000E+00  2.2071E-05  0.0000E+00  0.0000E+00  0.0000E+00  0.0000E+00  0.0000E+00  0.0000E+00  0.0000E+00
 27  0.0000E+00  6.8964E-06  0.0000E+00  0.0000E+00  0.0000E+00  0.0000E+00  0.0000E+00  0.0000E+00  0.0000E+00
 28  0.0000E+00  9.4259E-06  0.0000E+00  0.0000E+00  0.0000E+00  0.0000E+00  0.0000E+00  0.0000E+00  0.0000E+00
 29  0.0000E+00  6.1840E-06  0.0000E+00  0.0000E+00  0.0000E+00  0.0000E+00  0.0000E+00  0.0000E+00  0.0000E+00
 30  0.0000E+00  1.2358E-05  0.0000E+00  0.0000E+00  0.0000E+00  0.0000E+00  0.0000E+00  0.0000E+00  0.0000E+00
 31  0.0000E+00  1.9557E-05  0.0000E+00  0.0000E+00  0.0000E+00  0.0000E+00  0.0000E+00  0.0000E+00  0.0000E+00
 32  0.0000E+00  3.0192E-05  0.0000E+00  0.0000E+00  0.0000E+00  0.0000E+00  0.0000E+00  0.0000E+00  0.0000E+00
 33  0.0000E+00  1.2153E-04  0.0000E+00  0.0000E+00  0.0000E+00  5.5100E-06  0.0000E+00  0.0000E+00  0.0000E+00
 34  0.0000E+00  2.0617E-04  0.0000E+00  0.0000E+00  0.0000E+00  0.0000E+00  0.0000E+00  0.0000E+00  0.0000E+00
 35  0.0000E+00  4.3841E-04  0.0000E+00  0.0000E+00  4.1410E-03  1.6732E-03  3.8430E-04  0.0000E+00  0.0000E+00
 36  0.0000E+00  2.7438E-03  0.0000E+00  0.0000E+00  1.9034E-03  6.5895E-03  6.8289E-04  0.0000E+00  0.0000E+00
 37  0.0000E+00  3.3174E-03  1.9207E-02  0.0000E+00  0.0000E+00  0.0000E+00  0.0000E+00  8.2924E-03  0.0000E+00
 38  0.0000E+00  2.6442E-03  0.0000E+00  1.0891E-02  0.0000E+00  0.0000E+00  0.0000E+00  0.0000E+00  0.0000E+00
 39  0.0000E+00  2.9785E-03  0.0000E+00  0.0000E+00  0.0000E+00  1.2979E-03  0.0000E+00  0.0000E+00  0.0000E+00
 40  0.0000E+00  7.7779E-03  0.0000E+00  1.9105E-02  4.4957E-03  0.0000E+00  0.0000E+00  0.0000E+00  0.0000E+00
 41  0.0000E+00  1.7817E-02  0.0000E+00  1.2757E-02  2.8142E-02  6.7763E-03  1.7559E-02  0.0000E+00  8.4327E-02
 42  0.0000E+00  3.1620E-02  1.2981E-01  1.2159E-01  0.0000E+00  0.0000E+00  0.0000E+00  0.0000E+00  0.0000E+00
 43  8.6860E+00  8.7457E+00  9.3027E+00  8.8556E+00  9.1654E+00  9.1559E+00  8.8839E+00  9.6317E+00  8.7825E+00
 44  3.3987E+01  2.8580E+01  2.9398E+01  2.8618E+01  2.9597E+01  2.9136E+01  2.8756E+01  2.8416E+01  3.0108E+01
 45  6.7593E-02  8.2344E-01  8.2736E-01  1.4507E+00  3.3009E-01  2.2057E+00  5.1716E-01  7.8307E-01  1.2053E+00
 46  2.6784E-01  5.6285E-01  7.9455E-02  4.0603E-01  9.4715E-01  8.3715E-01  1.7650E-01  4.1101E-01  7.4317E-01
 47  6.8557E+00  6.0844E+00  6.4685E+00  4.4979E+00  5.5093E+00  5.6076E+00  6.8717E+00  5.8434E+00  6.3820E+00
 48  0.0000E+00  8.5490E-01  0.0000E+00  1.6512E+00  0.0000E+00  0.0000E+00  1.0904E+00  0.0000E+00  0.0000E+00
 49  0.0000E+00  8.9069E-01  7.0168E-03  6.1223E-01  2.1209E-01  1.6663E+00  2.6865E+00  1.4581E+00  2.7984E-01
 50  4.8336E-04  5.9397E-01  8.6826E-01  2.9399E-01  2.2603E+00  0.0000E+00  0.0000E+00  7.4740E-01  1.7326E+00
 51  0.0000E+00  1.4798E-05  0.0000E+00  0.0000E+00  0.0000E+00  0.0000E+00  0.0000E+00  0.0000E+00  0.0000E+00
 52  0.0000E+00  3.6881E-05  0.0000E+00  0.0000E+00  0.0000E+00  0.0000E+00  0.0000E+00  0.0000E+00  0.0000E+00
 53  0.0000E+00  1.1762E-05  0.0000E+00  0.0000E+00  0.0000E+00  0.0000E+00  0.0000E+00  0.0000E+00  0.0000E+00
 54  0.0000E+00  6.7866E-05  0.0000E+00  0.0000E+00  5.1266E-04  0.0000E+00  0.0000E+00  0.0000E+00  0.0000E+00
 55  0.0000E+00  3.3613E-05  0.0000E+00  0.0000E+00  0.0000E+00  0.0000E+00  0.0000E+00  0.0000E+00  0.0000E+00
 56  0.0000E+00  1.0697E-04  0.0000E+00  0.0000E+00  0.0000E+00  0.0000E+00  0.0000E+00  0.0000E+00  0.0000E+00
 57  0.0000E+00  3.9414E-05  0.0000E+00  0.0000E+00  0.0000E+00  0.0000E+00  0.0000E+00  0.0000E+00  0.0000E+00
 58  0.0000E+00  1.6490E-04  0.0000E+00  0.0000E+00  0.0000E+00  0.0000E+00  0.0000E+00  0.0000E+00  0.0000E+00
 59  0.0000E+00  8.5188E-05  0.0000E+00  0.0000E+00  0.0000E+00  0.0000E+00  0.0000E+00  0.0000E+00  0.0000E+00
 60  0.0000E+00  4.3282E-04  1.1206E-03  0.0000E+00  0.0000E+00  0.0000E+00  0.0000E+00  0.0000E+00  0.0000E+00
 61  0.0000E+00  1.9334E-03  0.0000E+00  2.8904E-03  0.0000E+00  0.0000E+00  1.3088E-03  3.6909E-03  1.3942E-02
 62  2.4045E-02  6.7160E-03  1.3212E-03  7.4233E-03  0.0000E+00  0.0000E+00  1.3529E-02  7.2607E-03  3.1689E-02
 63  0.0000E+00  1.9769E-03  0.0000E+00  0.0000E+00  0.0000E+00  3.4136E-03  3.7539E-03  1.1129E-02  0.0000E+00
 64  0.0000E+00  1.9528E-02  0.0000E+00  4.7547E-02  0.0000E+00  0.0000E+00  2.0931E-02  1.5388E-03  0.0000E+00
 65  5.4946E-03  3.0944E-02  1.0176E-02  1.7563E-01  0.0000E+00  2.4462E-02  6.1469E-02  2.0775E-02  1.1610E-01
 66  8.0859E-05  8.0191E-02  1.0244E-01  0.0000E+00  1.1670E-01  0.0000E+00  7.0967E-03  0.0000E+00  4.5206E-01
 67  1.6729E+00  6.5610E-01  7.8177E-01  5.5294E-01  9.4879E-01  1.6627E+00  7.4582E-01  5.3289E-01  5.3707E-01
 68  3.0389E+01  2.6045E+01  2.6084E+01  2.8337E+01  2.7151E+01  2.6963E+01  2.6008E+01  2.7940E+01  2.6878E+01
 69  4.6821E-04  3.7450E-01  4.6359E-01  6.1308E-01  1.2671E-01  6.9994E-01  5.4143E-01  0.0000E+00  7.9097E-01
 70  0.0000E+00  1.1309E+00  1.4541E+00  1.3008E+00  1.2154E+00  1.1123E+00  9.9318E-01  1.2585E+00  4.7704E-01
 71  0.0000E+00  3.4590E-01  7.3554E-01  4.7238E-01  6.3952E-01  4.0441E-02  0.0000E+00  1.6999E-01  1.7364E-01
 72  0.0000E+00  2.4884E-01  9.9603E-01  0.0000E+00  0.0000E+00  0.0000E+00  0.0000E+00  0.0000E+00  0.0000E+00
 73  0.0000E+00  1.5992E-01  4.8449E-01  0.0000E+00  0.0000E+00  0.0000E+00  0.0000E+00  0.0000E+00  0.0000E+00
 74  0.0000E+00  2.0334E-01  3.6002E-01  0.0000E+00  0.0000E+00  4.8441E-01  2.0526E-01  0.0000E+00  0.0000E+00
 75  0.0000E+00  2.0074E-01  2.0594E-03  1.3931E+00  0.0000E+00  0.0000E+00  0.0000E+00  0.0000E+00  1.5327E-01
 76  0.0000E+00  2.4423E-05  0.0000E+00  2.6816E-05  0.0000E+00  0.0000E+00  0.0000E+00  0.0000E+00  0.0000E+00
 77  0.0000E+00  6.4085E-06  0.0000E+00  0.0000E+00  0.0000E+00  0.0000E+00  0.0000E+00  0.0000E+00  0.0000E+00
 78  0.0000E+00  5.9350E-06  0.0000E+00  0.0000E+00  0.0000E+00  0.0000E+00  0.0000E+00  0.0000E+00  0.0000E+00
 79  0.0000E+00  3.1863E-05  0.0000E+00  0.0000E+00  0.0000E+00  1.7143E-04  0.0000E+00  0.0000E+00  0.0000E+00
 80  0.0000E+00  2.8308E-05  0.0000E+00  0.0000E+00  0.0000E+00  0.0000E+00  0.0000E+00  0.0000E+00  0.0000E+00
 81  0.0000E+00  3.6837E-05  0.0000E+00  0.0000E+00  0.0000E+00  0.0000E+00  0.0000E+00  0.0000E+00  0.0000E+00
 82  0.0000E+00  3.3450E-05  0.0000E+00  9.0439E-05  0.0000E+00  0.0000E+00  0.0000E+00  0.0000E+00  0.0000E+00
 83  0.0000E+00  1.4675E-04  0.0000E+00  0.0000E+00  0.0000E+00  0.0000E+00  0.0000E+00  0.0000E+00  0.0000E+00
 84  0.0000E+00  3.1400E-04  0.0000E+00  0.0000E+00  0.0000E+00  0.0000E+00  0.0000E+00  0.0000E+00  0.0000E+00
 85  0.0000E+00  6.6263E-04  0.0000E+00  0.0000E+00  0.0000E+00  0.0000E+00  0.0000E+00  0.0000E+00  0.0000E+00
 86  0.0000E+00  1.6215E-03  0.0000E+00  0.0000E+00  6.1798E-03  0.0000E+00  1.4307E-03  0.0000E+00  0.0000E+00
 87  0.0000E+00  2.5983E-03  0.0000E+00  0.0000E+00  0.0000E+00  0.0000E+00  0.0000E+00  0.0000E+00  0.0000E+00
 88  0.0000E+00  3.4467E-03  0.0000E+00  0.0000E+00  0.0000E+00  9.2068E-04  2.0142E-03  0.0000E+00  0.0000E+00
 89  0.0000E+00  4.4643E-03  0.0000E+00  4.7635E-03  3.6832E-03  0.0000E+00  3.1452E-03  0.0000E+00  0.0000E+00
 90  0.0000E+00  2.2776E-02  1.3537E-03  0.0000E+00  1.9581E-04  9.8005E-03  0.0000E+00  2.4268E-02  1.5330E-02
 91  0.0000E+00  2.4580E-02  0.0000E+00  0.0000E+00  0.0000E+00  0.0000E+00  7.5519E-03  5.2169E-02  2.5799E-02
 92  0.0000E+00  5.3332E-02  0.0000E+00  2.9277E-02  4.0793E-02  1.2346E-02  1.8257E-02  0.0000E+00  0.0000E+00
 93  0.0000E+00  2.4716E-01  3.4000E-01  0.0000E+00  8.7078E-01  2.1908E-01  0.0000E+00  5.8699E-02  3.0993E-01
 94  6.5484E+00  5.9780E+00  6.1523E+00  6.2356E+00  6.2584E+00  6.1546E+00  6.4661E+00  6.1514E+00  6.5657E+00
 95  0.0000E+00  2.7560E-01  6.8570E-03  4.6446E-01  2.9228E-01  0.0000E+00  0.0000E+00  5.3135E-01  7.6390E-01
 96  0.0000E+00  2.7790E-01  8.3204E-01  0.0000E+00  7.3669E-01  0.0000E+00  0.0000E+00  0.0000E+00  0.0000E+00
 97  0.0000E+00  4.0936E-01  0.0000E+00  1.5528E+00  1.6121E-01  1.1486E+00  8.8900E-01  2.5856E-01  0.0000E+00
 98  0.0000E+00  6.0244E-01  0.0000E+00  0.0000E+00  7.0427E-01  1.8956E-01  4.9555E-01  6.3165E-01  1.3212E+00
 99  0.0000E+00  4.9498E-01  2.2414E-01  4.1094E-01  0.0000E+00  4.0780E-01  0.0000E+00  1.0683E+00  2.1678E-01
100  0.0000E+00  3.7502E-01  0.0000E+00  1.0956E+00  5.2844E-01  0.0000E+00  8.6869E-01  0.0000E+00  6.9659E-01
101  0.0000E+00  3.5660E-06  0.0000E+00  0.0000E+00  0.0000E+00  0.0000E+00  0.0000E+00  0.0000E+00  0.0000E+00
102  0.0000E+00  4.8067E-06  0.0000E+00  0.0000E+00  0.0000E+00  0.0000E+00  0.0000E+00  0.0000E+00  0.0000E+00
103  0.0000E+00  9.0562E-06  0.0000E+00  0.0000E+00  0.0000E+00  0.0000E+00  0.0000E+00  0.0000E+00  0.0000E+00
104  0.0000E+00  1.2994E-05  0.0000E+00  0.0000E+00  0.0000E+00  0.0000E+00  0.0000E+00  0.0000E+00  0.0000E+00
105  0.0000E+00  7.5617E-06  0.0000E+00  0.0000E+00  0.0000E+00  0.0000E+00  0.0000E+00  0.0000E+00  0.0000E+00
106  0.0000E+00  9.7544E-06  0.0000E+00  0.0000E+00  0.0000E+00  0.0000E+00  0.0000E+00  0.0000E+00  0.0000E+00
107  0.0000E+00  5.9389E-05  0.0000E+00  0.0000E+00  0.0000E+00  0.0000E+00  0.0000E+00  0.0000E+00  0.0000E+00
108  0.0000E+00  2.9017E-05  0.0000E+00  0.0000E+00  0.0000E+00  0.0000E+00  0.0000E+00  0.0000E+00  0.0000E+00
109  0.0000E+00  7.5949E-05  0.0000E+00  0.0000E+00  0.0000E+00  1.0335E-03  0.0000E+00  0.0000E+00  0.0000E+00
110  0.0000E+00  3.1273E-04  0.0000E+00  0.0000E+00  0.0000E+00  0.0000E+00  0.0000E+00  0.0000E+00  0.0000E+00
111  0.0000E+00  4.4702E-04  0.0000E+00  0.0000E+00  0.0000E+00  0.0000E+00  0.0000E+00  0.0000E+00  0.0000E+00
112  0.0000E+00  9.3105E-04  0.0000E+00  0.0000E+00  0.0000E+00  0.0000E+00  0.0000E+00  0.0000E+00  0.0000E+00
113  0.0000E+00  1.2715E-03  1.9790E-02  0.0000E+00  0.0000E+00  0.0000E+00  0.0000E+00  0.0000E+00  0.0000E+00
114  0.0000E+00  6.1283E-03  1.0130E-03  0.0000E+00  0.0000E+00  0.0000E+00  0.0000E+00  0.0000E+00  0.0000E+00
115  0.0000E+00  4.4256E-02  1.6726E-01  0.0000E+00  0.0000E+00  2.2530E-03  0.0000E+00  7.0610E-02  1.5161E-02
116  0.0000E+00  5.1263E-02  0.0000E+00  0.0000E+00  8.8462E-02  4.8556E-02  0.0000E+00  0.0000E+00  2.8998E-02
117  0.0000E+00  3.2785E-02  0.0000E+00  0.0000E+00  2.8126E-02  0.0000E+00  0.0000E+00  0.0000E+00  0.0000E+00
118  0.0000E+00  8.6885E-02  0.0000E+00  4.2218E-02  0.0000E+00  0.0000E+00  0.0000E+00  0.0000E+00  0.0000E+00
119  0.0000E+00  9.9915E-02  0.0000E+00  0.0000E+00  0.0000E+00  0.0000E+00  5.7390E-01  2.9665E-02  0.0000E+00
120  0.0000E+00  1.0144E-01  6.3414E-01  0.0000E+00  0.0000E+00  0.0000E+00  0.0000E+00  0.0000E+00  0.0000E+00
121  0.0000E+00  1.2487E-01  0.0000E+00  0.0000E+00  0.0000E+00  0.0000E+00  0.0000E+00  0.0000E+00  1.6514E-02
122  0.0000E+00  6.6636E-02  0.0000E+00  0.0000E+00  0.0000E+00  5.8429E-01  0.0000E+00  0.0000E+00  0.0000E+00
123  0.0000E+00  5.8360E-02  0.0000E+00  0.0000E+00  0.0000E+00  0.0000E+00  0.0000E+00  0.0000E+00  4.1063E-01
124  0.0000E+00  1.3259E-01  0.0000E+00  0.0000E+00  0.0000E+00  0.0000E+00  0.0000E+00  0.0000E+00  0.0000E+00
125  0.0000E+00  4.3973E-02  0.0000E+00  0.0000E+00  0.0000E+00  0.0000E+00  0.0000E+00  0.0000E+00  0.0000E+00
126  0.0000E+00  1.1500E-06  0.0000E+00  0.0000E+00  0.0000E+00  0.0000E+00  0.0000E+00  0.0000E+00  0.0000E+00
127  0.0000E+00  4.6056E-06  0.0000E+00  0.0000E+00  0.0000E+00  0.0000E+00  0.0000E+00  0.0000E+00  0.0000E+00
128  0.0000E+00  1.7936E-05  0.0000E+00  0.0000E+00  0.0000E+00  0.0000E+00  0.0000E+00  0.0000E+00  0.0000E+00
129  0.0000E+00  1.9502E-05  0.0000E+00  0.0000E+00  0.0000E+00  0.0000E+00  0.0000E+00  0.0000E+00  0.0000E+00
130  0.0000E+00  1.5688E-05  0.0000E+00  0.0000E+00  0.0000E+00  0.0000E+00  0.0000E+00  0.0000E+00  0.0000E+00
131  0.0000E+00  7.5960E-06  0.0000E+00  0.0000E+00  0.0000E+00  0.0000E+00  0.0000E+00  0.0000E+00  0.0000E+00
132  0.0000E+00  2.1013E-05  0.0000E+00  0.0000E+00  0.0000E+00  0.0000E+00  0.0000E+00  0.0000E+00  2.2126E-04
133  0.0000E+00  4.9373E-05  0.0000E+00  0.0000E+00  0.0000E+00  0.0000E+00  0.0000E+00  0.0000E+00  0.0000E+00
134  0.0000E+00  1.5176E-04  0.0000E+00  3.1849E-04  0.0000E+00  0.0000E+00  0.0000E+00  0.0000E+00  0.0000E+00
135  0.0000E+00  2.8480E-04  0.0000E+00  0.0000E+00  0.0000E+00  0.0000E+00  0.0000E+00  0.0000E+00  0.0000E+00
136  0.0000E+00  7.2660E-04  0.0000E+00  0.0000E+00  0.0000E+00  0.0000E+00  0.0000E+00  0.0000E+00  0.0000E+00
137  0.0000E+00  1.8449E-03  0.0000E+00  0.0000E+00  0.0000E+00  8.4134E-03  0.0000E+00  0.0000E+00  0.0000E+00
138  0.0000E+00  4.9856E-03  0.0000E+00  2.2007E-03  0.0000E+00  0.0000E+00  1.4936E-02  0.0000E+00  0.0000E+00
139  0.0000E+00  1.7972E-02  0.0000E+00  0.0000E+00  0.0000E+00  0.0000E+00  0.0000E+00  0.0000E+00  1.1325E-02
140  0.0000E+00  7.6109E-01  6.0566E-01  0.0000E+00  9.1245E-01  3.2760E-01  9.2315E-01  3.4936E-01  0.0000E+00
141  7.9001E+00  6.7895E+00  7.5714E+00  6.8608E+00  7.1152E+00  6.8467E+00  6.9835E+00  7.0173E+00  7.0046E+00
142  3.5044E+00  2.8346E+00  2.8121E+00  2.6419E+00  2.4722E+00  3.0382E+00  2.9345E+00  3.1565E+00  2.9789E+00
143  0.0000E+00  1.0705E-01  0.0000E+00  0.0000E+00  0.0000E+00  4.3490E-01  0.0000E+00  0.0000E+00  2.0267E-01
144  0.0000E+00  1.8385E-02  0.0000E+00  0.0000E+00  0.0000E+00  0.0000E+00  0.0000E+00  0.0000E+00  0.0000E+00
145  0.0000E+00  1.9761E-02  0.0000E+00  1.8693E-01  0.0000E+00  0.0000E+00  0.0000E+00  0.0000E+00  0.0000E+00
146  0.0000E+00  4.5271E-02  0.0000E+00  0.0000E+00  0.0000E+00  0.0000E+00  0.0000E+00  0.0000E+00  0.0000E+00
147  0.0000E+00  9.2613E-03  0.0000E+00  0.0000E+00  0.0000E+00  0.0000E+00  0.0000E+00  0.0000E+00  0.0000E+00
148  0.0000E+00  1.3976E-01  0.0000E+00  0.0000E+00  0.0000E+00  0.0000E+00  0.0000E+00  9.8324E-01  0.0000E+00
149  0.0000E+00  2.8974E-02  0.0000E+00  0.0000E+00  0.0000E+00  0.0000E+00  0.0000E+00  0.0000E+00  0.0000E+00
150  0.0000E+00  2.5747E-02  0.0000E+00  0.0000E+00  0.0000E+00  0.0000E+00  0.0000E+00  0.0000E+00  0.0000E+00

# AV, chi2 & Mass for <> & i_chain = 1 ...  7 solutions
AV       0.1780      0.1759      0.1764      0.1759      0.1761      0.1779      0.1743      0.1749      0.1737
chi2 2.7641E+00  2.8080E+00  2.7971E+00  2.7865E+00  2.7919E+00  2.7872E+00  2.7951E+00  2.7884E+00  2.7822E+00
Mass 3.0354E-10  3.2519E-10  3.1828E-10  3.2267E-10  3.1638E-10  3.1708E-10  3.2401E-10  3.2128E-10  3.1930E-10
 -14.80                                  [v0_min (km/s) before EX0s...]
  65.60                                  [vd_min (km/s) before EX0s...]


## Synthetic spectrum (Best Model) ##l_obs f_obs f_syn wei
 3070    [Nl_obs]
 3359.00    0.15448   0.46909   -1.000
 3360.00    0.27405   0.45365   -1.000
 3361.00    0.27348   0.46129   -1.000
 3362.00    0.28661   0.48731   -1.000
 3363.00    0.31002   0.51831   -1.000
 3364.00    0.33095   0.53757   -1.000
 3365.00    0.34387   0.53750   -1.000
 3366.00    0.34780   0.52450   -1.000
 3367.00    0.34238   0.50812   -1.000
 3368.00    0.33999   0.49464   -1.000
 3369.00    0.33587   0.48457   -1.000
 3370.00    0.32856   0.47525   -1.000
 3371.00    0.32691   0.46889   -1.000
 3372.00    0.33144   0.47192   -1.000
 3373.00    0.34460   0.48807   -1.000
 3374.00    0.36061   0.51309   -1.000
 3375.00    0.37355   0.53798   -1.000
 3376.00    0.39041   0.55078   -1.000
 3377.00    0.40531   0.54568   -1.000
 3378.00    0.41251   0.52839   -1.000
 3379.00    0.40490   0.51248   -1.000
 3380.00    0.39434   0.50829   -1.000
 3381.00    0.39673   0.51543   -1.000
 3382.00    0.40255   0.52710   -1.000
 3383.00    0.40746   0.53734   -1.000
 3384.00    0.41402   0.54542   -1.000
 3385.00    0.42115   0.55151   -1.000
 3386.00    0.42824   0.55200   -1.000
 3387.00    0.43389   0.54778   -1.000
 3388.00    0.43499   0.54548   -1.000
 3389.00    0.43897   0.54709   -1.000
 3390.00    0.44420   0.54798   -1.000
 3391.00    0.44754   0.54325   -1.000
 3392.00    0.44568   0.53413   -1.000
 3393.00    0.44080   0.53051   -1.000
 3394.00    0.44988   0.53862   -1.000
 3395.00    0.46213   0.55529   -1.000
 3396.00    0.46931   0.57397   -1.000
 3397.00    0.48714   0.58912   -1.000
 3398.00    0.50456   0.59745   -1.000
 3399.00    0.51018   0.59630   -1.000
 3400.00    0.50922   0.58662   -1.000
 3401.00    0.50545   0.57119   -1.000
 3402.00    0.49006   0.55468   -1.000
 3403.00    0.47735   0.54424   -1.000
 3404.00    0.47352   0.54122   -1.000
 3405.00    0.47139   0.54119   -1.000
 3406.00    0.46822   0.53763   -1.000
 3407.00    0.46361   0.53020   -1.000
 3408.00    0.46384   0.52549   -1.000
 3409.00    0.46103   0.52946   -1.000
 3410.00    0.45908   0.53784   -1.000
 3411.00    0.46697   0.54094   -1.000
 3412.00    0.47159   0.53669   -1.000
 3413.00    0.46901   0.53041   -1.000
 3414.00    0.46625   0.53007   -1.000
 3415.00    0.46804   0.53761   -1.000
 3416.00    0.47663   0.54945   -1.000
 3417.00    0.49504   0.56259   -1.000
 3418.00    0.50331   0.57520   -1.000
 3419.00    0.50836   0.58481   -1.000
 3420.00    0.51692   0.58804   -1.000
 3421.00    0.52066   0.58258   -1.000
 3422.00    0.51511   0.57128   52.336
 3423.00    0.50653   0.56099   53.685
 3424.00    0.50784   0.55687   53.296
 3425.00    0.51119   0.55887   51.818
 3426.00    0.51546   0.56499   51.078
 3427.00    0.52182   0.57652   -1.000
 3428.00    0.52802   0.59313   -1.000
 3429.00    0.53337   0.60637   -1.000
 3430.00    0.54022   0.60577   -1.000
 3431.00    0.54554   0.59071   -1.000
 3432.00    0.53854   0.57388   84.085
 3433.00    0.52789   0.56789   50.978
 3434.00    0.52605   0.57498   -1.000
 3435.00    0.53305   0.58546   -1.000
 3436.00    0.53741   0.58749   -1.000
 3437.00    0.53288   0.57838   52.145
 3438.00    0.51867   0.56119   54.993
 3439.00    0.50434   0.53944   58.911
 3440.00    0.48994   0.51697   62.310
 3441.00    0.47525   0.50005   63.430
 3442.00    0.46908   0.49448   63.307
 3443.00    0.47455   0.49993   61.726
 3444.00    0.48750   0.51220   58.716
 3445.00    0.50588   0.52858   55.472
 3446.00    0.52225   0.54883   53.066
 3447.00    0.53687   0.57070   -1.000
 3448.00    0.54731   0.58874   -1.000
 3449.00    0.55296   0.59535   -1.000
 3450.00    0.55353   0.58581   -1.000
 3451.00    0.55234   0.56667   -1.000
 3452.00    0.55107   0.55052  399.090
 3453.00    0.54802   0.54574  399.090
 3454.00    0.54410   0.55097  399.090
 3455.00    0.55651   0.55872  399.090
 3456.00    0.57090   0.56123   -1.000
 3457.00    0.56575   0.55575   -1.000
 3458.00    0.55492   0.54529   83.081
 3459.00    0.54692   0.53388   51.356
 3460.00    0.54190   0.52537   51.456
 3461.00    0.53928   0.52632  104.679
 3462.00    0.54373   0.53874  399.090
 3463.00    0.55811   0.55297  399.090
 3464.00    0.57015   0.55885   -1.000
 3465.00    0.57475   0.55780   -1.000
 3466.00    0.57478   0.55857   -1.000
 3467.00    0.57361   0.56623   -1.000
 3468.00    0.57931   0.57819  399.090
 3469.00    0.58758   0.58809  399.090
 3470.00    0.59309   0.59048  399.090
 3471.00    0.58902   0.58417  399.090
 3472.00    0.57860   0.57089   -1.000
 3473.00    0.56826   0.55213   -1.000
 3474.00    0.55366   0.53275   83.389
 3475.00    0.53240   0.52075   52.485
 3476.00    0.52408   0.52186   52.643
 3477.00    0.53541   0.53487  106.364
 3478.00    0.55820   0.55179  399.090
 3479.00    0.58035   0.56629   -1.000
 3480.00    0.59379   0.57479   -1.000
 3481.00    0.59811   0.57518   -1.000
 3482.00    0.59482   0.56941   -1.000
 3483.00    0.59078   0.56359   -1.000
 3484.00    0.58655   0.56498   -1.000
 3485.00    0.58776   0.57589   -1.000
 3486.00    0.60143   0.58789   -1.000
 3487.00    0.61016   0.58950   -1.000
 3488.00    0.59923   0.57836   -1.000
 3489.00    0.58181   0.56111   -1.000
 3490.00    0.56590   0.54950   -1.000
 3491.00    0.56020   0.55003   -1.000
 3492.00    0.56615   0.55651   -1.000
 3493.00    0.57056   0.55863   -1.000
 3494.00    0.57048   0.55221   -1.000
 3495.00    0.56525   0.54070   -1.000
 3496.00    0.55689   0.53406   -1.000
 3497.00    0.55397   0.54087   -1.000
 3498.00    0.56977   0.55707   -1.000
 3499.00    0.59211   0.57112   -1.000
 3500.00    0.60933   0.57625   -1.000
 3501.00    0.61072   0.57685   -1.000
 3502.00    0.60684   0.57929   -1.000
 3503.00    0.61073   0.58140   -1.000
 3504.00    0.61046   0.57817   -1.000
 3505.00    0.60758   0.57077   -1.000
 3506.00    0.60010   0.56504   -1.000
 3507.00    0.59756   0.56310   -1.000
 3508.00    0.60180   0.56255   -1.000
 3509.00    0.59803   0.56033   -1.000
 3510.00    0.59095   0.55556   -1.000
 3511.00    0.58421   0.54971   -1.000
 3512.00    0.57753   0.54347   -1.000
 3513.00    0.57348   0.53926   -1.000
 3514.00    0.56978   0.54269   -1.000
 3515.00    0.57080   0.55687   -1.000
 3516.00    0.58638   0.57763   -1.000
 3517.00    0.60575   0.59359   -1.000
 3518.00    0.60981   0.59554   -1.000
 3519.00    0.60235   0.58384   -1.000
 3520.00    0.58775   0.56710   -1.000
 3521.00    0.57341   0.55351   -1.000
 3522.00    0.56503   0.54337   -1.000
 3523.00    0.55794   0.53271   81.815
 3524.00    0.54316   0.52156   51.997
 3525.00    0.53519   0.51679   52.576
 3526.00    0.53512   0.52524  108.692
 3527.00    0.54438   0.54439  399.090
 3528.00    0.56500   0.56604  399.090
 3529.00    0.59109   0.58189   -1.000
 3530.00    0.59990   0.58825   -1.000
 3531.00    0.59643   0.58788   -1.000
 3532.00    0.59558   0.58481   -1.000
 3533.00    0.59675   0.58201   -1.000
 3534.00    0.59792   0.58148   -1.000
 3535.00    0.59991   0.58453   -1.000
 3536.00    0.60027   0.59171   -1.000
 3537.00    0.60273   0.60132  399.090
 3538.00    0.60990   0.61033  399.090
 3539.00    0.61743   0.61519  399.090
 3540.00    0.61865   0.61432  399.090
 3541.00    0.61163   0.61140  399.090
 3542.00    0.60695   0.61172  399.090
 3543.00    0.60867   0.61625  399.090
 3544.00    0.61628   0.62041  399.090
 3545.00    0.61583   0.61996  399.090
 3546.00    0.60832   0.61636   -1.000
 3547.00    0.60410   0.61356   -1.000
 3548.00    0.60244   0.61395   -1.000
 3549.00    0.60556   0.61680   -1.000
 3550.00    0.60973   0.61931   -1.000
 3551.00    0.60436   0.61811   -1.000
 3552.00    0.59106   0.61148   -1.000
 3553.00    0.58301   0.60335   -1.000
 3554.00    0.57894   0.59928   -1.000
 3555.00    0.57862   0.60065   -1.000
 3556.00    0.58123   0.60515   -1.000
 3557.00    0.58485   0.60902   -1.000
 3558.00    0.58301   0.60946   -1.000
 3559.00    0.58118   0.60852   -1.000
 3560.00    0.58609   0.61045   -1.000
 3561.00    0.58927   0.61531   -1.000
 3562.00    0.59198   0.61633   -1.000
 3563.00    0.59290   0.60501   -1.000
 3564.00    0.57500   0.58166   81.549
 3565.00    0.54371   0.55859   52.682
 3566.00    0.52781   0.54631   53.198
 3567.00    0.52700   0.54379   52.760
 3568.00    0.53092   0.54243   53.699
 3569.00    0.52727   0.53597   55.048
 3570.00    0.51650   0.52781   54.409
 3571.00    0.51730   0.52511   52.247
 3572.00    0.52630   0.52877  108.174
 3573.00    0.53566   0.53428  399.090
 3574.00    0.54568   0.53927  399.090
 3575.00    0.54997   0.54486  399.090
 3576.00    0.55276   0.55120  399.090
 3577.00    0.55412   0.55583  399.090
 3578.00    0.55075   0.55376   84.186
 3579.00    0.54332   0.54248   55.619
 3580.00    0.52475   0.52754   59.260
 3581.00    0.50882   0.51653   60.802
 3582.00    0.50374   0.51312   61.096
 3583.00    0.51012   0.51314   62.113
 3584.00    0.50788   0.50697   63.978
 3585.00    0.49013   0.49353   65.378
 3586.00    0.48214   0.48248   63.716
 3587.00    0.48381   0.48304   60.365
 3588.00    0.49474   0.49690   57.328
 3589.00    0.51255   0.51911   53.092
 3590.00    0.53234   0.54200  107.910
 3591.00    0.55412   0.55887  399.090
 3592.00    0.56893   0.56757  399.090
 3593.00    0.56991   0.57149  399.090
 3594.00    0.57310   0.57689  399.090
 3595.00    0.58008   0.58685  399.090
 3596.00    0.58729   0.59814   -1.000
 3597.00    0.59455   0.60724   -1.000
 3598.00    0.59972   0.61325   -1.000
 3599.00    0.60904   0.61497  384.861
 3600.00    0.61251   0.60902  397.805
 3601.00    0.60196   0.59427   -1.000
 3602.00    0.58353   0.57641  399.090
 3603.00    0.56576   0.56357  399.090
 3604.00    0.56043   0.56053  399.090
 3605.00    0.56471   0.56373  399.090
 3606.00    0.56761   0.56515  399.090
 3607.00    0.56477   0.56091  399.090
 3608.00    0.55300   0.55328  399.090
 3609.00    0.54283   0.54870  399.090
 3610.00    0.54405   0.55068  399.090
 3611.00    0.55573   0.55674  399.090
 3612.00    0.56064   0.56356  399.090
 3613.00    0.56001   0.57097   -1.000
 3614.00    0.56922   0.58149   -1.000
 3615.00    0.58234   0.59190   -1.000
 3616.00    0.58449   0.59094  399.090
 3617.00    0.56807   0.57529   -1.000
 3618.00    0.54226   0.55684   79.690
 3619.00    0.53277   0.55074  108.170
 3620.00    0.54920   0.56126   -1.000
 3621.00    0.57458   0.57924  399.090
 3622.00    0.59360   0.59433  399.090
 3623.00    0.59941   0.60442  396.799
 3624.00    0.59777   0.61545   -1.000
 3625.00    0.60514   0.63214   -1.000
 3626.00    0.62106   0.65062   -1.000
 3627.00    0.63166   0.66068   -1.000
 3628.00    0.63087   0.65180   -1.000
 3629.00    0.61328   0.62350   -1.000
 3630.00    0.57991   0.58847   -1.000
 3631.00    0.55189   0.56427   -1.000
 3632.00    0.54417   0.56050   -1.000
 3633.00    0.55230   0.57239   -1.000
 3634.00    0.56731   0.58702   -1.000
 3635.00    0.57932   0.59578   -1.000
 3636.00    0.59186   0.60160   -1.000
 3637.00    0.60263   0.61117   -1.000
 3638.00    0.61229   0.62443   -1.000
 3639.00    0.62034   0.63502   -1.000
 3640.00    0.62281   0.63634   -1.000
 3641.00    0.61574   0.62693   -1.000
 3642.00    0.60278   0.61095   -1.000
 3643.00    0.58916   0.59560  399.090
 3644.00    0.57695   0.58579   -1.000
 3645.00    0.57335   0.58091   -1.000
 3646.00    0.57531   0.57812  399.090
 3647.00    0.56910   0.57686   -1.000
 3648.00    0.56491   0.57795   -1.000
 3649.00    0.57032   0.58230   -1.000
 3650.00    0.58201   0.59096   -1.000
 3651.00    0.59335   0.60379   -1.000
 3652.00    0.60658   0.61852   -1.000
 3653.00    0.61640   0.63170   -1.000
 3654.00    0.62425   0.64193   -1.000
 3655.00    0.62925   0.65048   -1.000
 3656.00    0.63462   0.65811   -1.000
 3657.00    0.63990   0.66342   -1.000
 3658.00    0.64091   0.66509   -1.000
 3659.00    0.64264   0.66314   -1.000
 3660.00    0.64072   0.65789   -1.000
 3661.00    0.63697   0.65026   -1.000
 3662.00    0.62779   0.64249   -1.000
 3663.00    0.62110   0.63749   -1.000
 3664.00    0.62473   0.63701   -1.000
 3665.00    0.63327   0.63892  361.950
 3666.00    0.63135   0.63921   -1.000
 3667.00    0.62591   0.63515   -1.000
 3668.00    0.61652   0.62844   -1.000
 3669.00    0.60613   0.62526   -1.000
 3670.00    0.60830   0.62912   -1.000
 3671.00    0.62193   0.63841   -1.000
 3672.00    0.63017   0.64759   -1.000
 3673.00    0.63409   0.65127   -1.000
 3674.00    0.63662   0.64831   -1.000
 3675.00    0.63324   0.63934  365.236
 3676.00    0.62512   0.62583  376.711
 3677.00    0.61323   0.61138  388.266
 3678.00    0.60050   0.60110  398.891
 3679.00    0.58926   0.59869   -1.000
 3680.00    0.58885   0.60301   -1.000
 3681.00    0.59911   0.61012   -1.000
 3682.00    0.60640   0.61585   -1.000
 3683.00    0.60734   0.61620   -1.000
 3684.00    0.60418   0.60913  395.144
 3685.00    0.59376   0.59688  399.090
 3686.00    0.58271   0.58797  399.090
 3687.00    0.57954   0.59146   -1.000
 3688.00    0.58822   0.60884   -1.000
 3689.00    0.60838   0.63127   -1.000
 3690.00    0.62615   0.64765   -1.000
 3691.00    0.63381   0.65373   -1.000
 3692.00    0.63951   0.65364   -1.000
 3693.00    0.64557   0.65315  365.035
 3694.00    0.64450   0.65275   -1.000
 3695.00    0.63755   0.65015   -1.000
 3696.00    0.63005   0.64636   -1.000
 3697.00    0.63200   0.64932   -1.000
 3698.00    0.64802   0.66536   -1.000
 3699.00    0.67161   0.68796   -1.000
 3700.00    0.68159   0.70082   -1.000
 3701.00    0.67304   0.68935   -1.000
 3702.00    0.64417   0.65382   -1.000
 3703.00    0.60282   0.60952   -1.000
 3704.00    0.57128   0.57550  399.090
 3705.00    0.56391   0.56415  399.090
 3706.00    0.57458   0.57339  399.090
 3707.00    0.59083   0.59077  399.090
 3708.00    0.60218   0.60331  399.090
 3709.00    0.60808   0.60488  399.090
 3710.00    0.60489   0.59987  383.990
 3711.00    0.60367   0.60001  363.711
 3712.00    0.61475   0.61453  345.034
 3713.00    0.64342   0.64324  333.559
 3714.00    0.68050   0.67662  329.869
 3715.00    0.70315   0.70198  334.946
 3716.00    0.71107   0.71201  347.773
 3717.00    0.69935   0.70297  374.160
 3718.00    0.66389   0.67015   -1.000
 3719.00    0.60944   0.61613   -1.000
 3720.00    0.55224   0.55981   79.381
 3721.00    0.51886   0.52640  113.902
 3722.00    0.52392   0.52977  399.090
 3723.00    0.56575   0.56744  398.875
 3724.00    0.62369   0.62121  373.359
 3725.00    0.66974   0.66353  369.428
 3726.00    0.68400   0.68285  378.197
 3727.00    0.67905   0.68959   -1.000
 3728.00    0.67798   0.69486   -1.000
 3729.00    0.68211   0.69697   -1.000
 3730.00    0.67327   0.68404   -1.000
 3731.00    0.64450   0.64578  399.090
 3732.00    0.59483   0.58711   77.236
 3733.00    0.53419   0.52744   54.390
 3734.00    0.48856   0.48747   58.212
 3735.00    0.47758   0.48114   57.156
 3736.00    0.50034   0.50993   52.648
 3737.00    0.54800   0.56235  111.415
 3738.00    0.60933   0.62313   -1.000
 3739.00    0.66192   0.67712   -1.000
 3740.00    0.69557   0.71035   -1.000
 3741.00    0.70679   0.71797   -1.000
 3742.00    0.69878   0.70568  399.090
 3743.00    0.67932   0.68334  399.090
 3744.00    0.65166   0.65745  399.090
 3745.00    0.62540   0.62929  399.090
 3746.00    0.59867   0.59645   78.499
 3747.00    0.56481   0.55735   53.508
 3748.00    0.51962   0.51804   55.196
 3749.00    0.48646   0.49452  122.587
 3750.00    0.50101   0.50305  399.090
 3751.00    0.55262   0.54576   -1.000
 3752.00    0.61568   0.60777   -1.000
 3753.00    0.67244   0.66920  351.456
 3754.00    0.71792   0.71471  340.339
 3755.00    0.74688   0.73539   -1.000
 3756.00    0.74254   0.72792   -1.000
 3757.00    0.71047   0.70080   -1.000
 3758.00    0.67863   0.67342  399.090
 3759.00    0.67235   0.66165   -1.000
 3760.00    0.68826   0.66672   -1.000
 3761.00    0.70743   0.68020   -1.000
 3762.00    0.71655   0.69358   -1.000
 3763.00    0.71487   0.70120   -1.000
 3764.00    0.71249   0.69952   -1.000
 3765.00    0.70292   0.68752   -1.000
 3766.00    0.68245   0.66629   -1.000
 3767.00    0.65726   0.63695   -1.000
 3768.00    0.63157   0.60257   -1.000
 3769.00    0.60142   0.57117   -1.000
 3770.00    0.57927   0.55611   -1.000
 3771.00    0.58896   0.56921   -1.000
 3772.00    0.63006   0.60635   -1.000
 3773.00    0.67525   0.64922   -1.000
 3774.00    0.70148   0.68277   -1.000
 3775.00    0.72142   0.70567   -1.000
 3776.00    0.74442   0.72543   -1.000
 3777.00    0.76532   0.74871   -1.000
 3778.00    0.78751   0.77516   -1.000
 3779.00    0.80637   0.80014  328.177
 3780.00    0.82100   0.81937  324.017
 3781.00    0.83182   0.83010  322.012
 3782.00    0.83631   0.83252  321.418
 3783.00    0.83808   0.82815   -1.000
 3784.00    0.83540   0.81616   -1.000
 3785.00    0.81702   0.79513   -1.000
 3786.00    0.78604   0.76890   -1.000
 3787.00    0.76367   0.74579   -1.000
 3788.00    0.75664   0.73299   -1.000
 3789.00    0.75479   0.73052   -1.000
 3790.00    0.74848   0.73181   -1.000
 3791.00    0.73810   0.72831   -1.000
 3792.00    0.72165   0.71369   -1.000
 3793.00    0.69213   0.68599  399.090
 3794.00    0.65737   0.64722   -1.000
 3795.00    0.61998   0.60227   -1.000
 3796.00    0.57854   0.55704   -1.000
 3797.00    0.54143   0.52205   -1.000
 3798.00    0.52735   0.51466   -1.000
 3799.00    0.55586   0.54542   -1.000
 3800.00    0.61400   0.60517   -1.000
 3801.00    0.67515   0.67162  373.413
 3802.00    0.72291   0.72557  362.366
 3803.00    0.75558   0.75956  358.226
 3804.00    0.77517   0.77481  361.059
 3805.00    0.78245   0.77579  371.932
 3806.00    0.77657   0.77353  381.822
 3807.00    0.78067   0.78068  377.916
 3808.00    0.80199   0.80011  364.700
 3809.00    0.82395   0.82330  356.959
 3810.00    0.83551   0.83630  360.076
 3811.00    0.83254   0.82821  375.140
 3812.00    0.81238   0.79978   -1.000
 3813.00    0.78546   0.76475   -1.000
 3814.00    0.76557   0.74064   -1.000
 3815.00    0.75367   0.73776   -1.000
 3816.00    0.76201   0.75150   -1.000
 3817.00    0.78296   0.76557   -1.000
 3818.00    0.78387   0.76496   -1.000
 3819.00    0.75687   0.74877   -1.000
 3820.00    0.73249   0.73198  399.090
 3821.00    0.73875   0.72799   -1.000
 3822.00    0.75500   0.73148   -1.000
 3823.00    0.74929   0.72499   -1.000
 3824.00    0.72203   0.70277   79.699
 3825.00    0.69169   0.67743   53.938
 3826.00    0.67480   0.66114   54.044
 3827.00    0.66925   0.65384   53.299
 3828.00    0.66430   0.64899   52.423
 3829.00    0.65730   0.64043   52.535
 3830.00    0.64320   0.62283   54.318
 3831.00    0.61061   0.59209   58.015
 3832.00    0.56702   0.54904   60.861
 3833.00    0.52564   0.50310   60.706
 3834.00    0.49723   0.46987   58.649
 3835.00    0.48985   0.45929   56.972
 3836.00    0.50430   0.47130   57.317
 3837.00    0.52699   0.49898   58.675
 3838.00    0.55156   0.53346   58.493
 3839.00    0.58112   0.57045   55.903
 3840.00    0.61488   0.61113  124.802
 3841.00    0.65915   0.65532  399.090
 3842.00    0.71024   0.69871   -1.000
 3843.00    0.75289   0.73529   -1.000
 3844.00    0.77819   0.76137   -1.000
 3845.00    0.78690   0.77924   -1.000
 3846.00    0.79351   0.79311  399.090
 3847.00    0.80009   0.80246  399.090
 3848.00    0.79942   0.80407  399.090
 3849.00    0.79017   0.80095   -1.000
 3850.00    0.78606   0.80199   -1.000
 3851.00    0.79832   0.81245   -1.000
 3852.00    0.81590   0.82656   -1.000
 3853.00    0.82371   0.83339   -1.000
 3854.00    0.81874   0.82881   -1.000
 3855.00    0.80544   0.81690   -1.000
 3856.00    0.79200   0.80297   -1.000
 3857.00    0.78267   0.78961   74.927
 3858.00    0.76732   0.77851   52.407
 3859.00    0.74893   0.77571   52.804
 3860.00    0.74981   0.78699   -1.000
 3861.00    0.78011   0.80866   -1.000
 3862.00    0.81905   0.82892   -1.000
 3863.00    0.84309   0.83847  399.090
 3864.00    0.84802   0.83808   -1.000
 3865.00    0.83959   0.83446  399.090
 3866.00    0.83009   0.83360  399.090
 3867.00    0.82611   0.83666   -1.000
 3868.00    0.82637   0.83818   -1.000
 3869.00    0.81359   0.83015   -1.000
 3870.00    0.79048   0.81015   75.827
 3871.00    0.76958   0.78495  118.900
 3872.00    0.75479   0.76718   -1.000
 3873.00    0.76152   0.76696  399.090
 3874.00    0.78606   0.78112  397.737
 3875.00    0.80404   0.79254   -1.000
 3876.00    0.79590   0.78649   -1.000
 3877.00    0.76446   0.76624  399.090
 3878.00    0.73617   0.74839   -1.000
 3879.00    0.72868   0.74316   -1.000
 3880.00    0.73022   0.74476   -1.000
 3881.00    0.72031   0.74154   -1.000
 3882.00    0.70750   0.72985   -1.000
 3883.00    0.69930   0.71166   -1.000
 3884.00    0.68924   0.68481  399.090
 3885.00    0.65839   0.64451   -1.000
 3886.00    0.61748   0.59362   -1.000
 3887.00    0.57613   0.54599   -1.000
 3888.00    0.54329   0.51897   -1.000
 3889.00    0.54428   0.52438   -1.000
 3890.00    0.58711   0.56211   -1.000
 3891.00    0.64836   0.61690   -1.000
 3892.00    0.69405   0.66599   -1.000
 3893.00    0.71952   0.69735   -1.000
 3894.00    0.73018   0.71525   -1.000
 3895.00    0.74278   0.73002   -1.000
 3896.00    0.76442   0.74650   -1.000
 3897.00    0.78501   0.76102   -1.000
 3898.00    0.79024   0.76946   -1.000
 3899.00    0.78822   0.77497   -1.000
 3900.00    0.79982   0.78408   -1.000
 3901.00    0.81412   0.79600   -1.000
 3902.00    0.82216   0.80321   -1.000
 3903.00    0.82343   0.80145   -1.000
 3904.00    0.81817   0.79467   -1.000
 3905.00    0.80439   0.79202   -1.000
 3906.00    0.80224   0.80147  353.180
 3907.00    0.82332   0.82535  330.153
 3908.00    0.85460   0.85601  317.412
 3909.00    0.87537   0.88098  313.092
 3910.00    0.88827   0.89408  310.198
 3911.00    0.89515   0.89568  307.976
 3912.00    0.88986   0.88791  309.771
 3913.00    0.87401   0.87493  315.332
 3914.00    0.86343   0.86348  322.508
 3915.00    0.86403   0.85789  327.811
 3916.00    0.86230   0.85592  332.084
 3917.00    0.85638   0.85227  340.014
 3918.00    0.84723   0.84426  353.409
 3919.00    0.83334   0.83389  370.001
 3920.00    0.82125   0.82610  381.104
 3921.00    0.81562   0.82428  381.342
 3922.00    0.81732   0.82738   -1.000
 3923.00    0.82161   0.83031  374.936
 3924.00    0.82145   0.82620  388.356
 3925.00    0.80698   0.80941  399.090
 3926.00    0.77370   0.77812  399.090
 3927.00    0.73354   0.73475   82.097
 3928.00    0.68785   0.68248   62.279
 3929.00    0.63171   0.62234   72.928
 3930.00    0.56960   0.55232   85.938
 3931.00    0.49733   0.47341  100.989
 3932.00    0.42005   0.39908  113.159
 3933.00    0.37034   0.35498  113.452
 3934.00    0.37464   0.36211  101.577
 3935.00    0.43133   0.41770   85.192
 3936.00    0.51262   0.49879   70.081
 3937.00    0.59337   0.58310   58.489
 3938.00    0.65859   0.65753  129.655
 3939.00    0.70731   0.71555  399.090
 3940.00    0.74361   0.75490   -1.000
 3941.00    0.76684   0.77634   -1.000
 3942.00    0.77667   0.78543   -1.000
 3943.00    0.78112   0.79112   -1.000
 3944.00    0.79091   0.80025   -1.000
 3945.00    0.81463   0.81388  357.754
 3946.00    0.83772   0.82695   -1.000
 3947.00    0.84094   0.83374  345.485
 3948.00    0.83800   0.83486  336.105
 3949.00    0.84395   0.83429   -1.000
 3950.00    0.85287   0.83367   -1.000
 3951.00    0.85426   0.83334   -1.000
 3952.00    0.84992   0.83558   -1.000
 3953.00    0.85483   0.84083   -1.000
 3954.00    0.86499   0.84318   -1.000
 3955.00    0.85440   0.83700   -1.000
 3956.00    0.82998   0.82553  332.243
 3957.00    0.81505   0.81709  330.009
 3958.00    0.81676   0.81221  333.023
 3959.00    0.81590   0.80050   -1.000
 3960.00    0.78726   0.77336   -1.000
 3961.00    0.74020   0.73398  399.090
 3962.00    0.69722   0.69165  399.090
 3963.00    0.66069   0.64923   76.929
 3964.00    0.61346   0.59867   58.707
 3965.00    0.54364   0.53028   71.112
 3966.00    0.45552   0.44542   87.326
 3967.00    0.36572   0.36194  100.204
 3968.00    0.30430   0.30695   98.657
 3969.00    0.29722   0.29967   84.287
 3970.00    0.34284   0.34038   69.275
 3971.00    0.41948   0.41292   57.634
 3972.00    0.50366   0.49566  128.586
 3973.00    0.58082   0.57306   -1.000
 3974.00    0.64769   0.63969   -1.000
 3975.00    0.70362   0.69522   -1.000
 3976.00    0.74594   0.74101  330.897
 3977.00    0.78403   0.77937  312.893
 3978.00    0.82005   0.81226  296.172
 3979.00    0.84997   0.83687   -1.000
 3980.00    0.86874   0.84891   -1.000
 3981.00    0.87405   0.85044   -1.000
 3982.00    0.87181   0.85065   -1.000
 3983.00    0.87814   0.85802   -1.000
 3984.00    0.89415   0.87231   -1.000
 3985.00    0.90625   0.88695   -1.000
 3986.00    0.91752   0.89795   -1.000
 3987.00    0.93024   0.90723   -1.000
 3988.00    0.93763   0.91656   -1.000
 3989.00    0.94259   0.92478   -1.000
 3990.00    0.94639   0.93289   -1.000
 3991.00    0.95563   0.94282   -1.000
 3992.00    0.97004   0.95285   -1.000
 3993.00    0.97202   0.95755   -1.000
 3994.00    0.96824   0.95229   -1.000
 3995.00    0.95594   0.93806   -1.000
 3996.00    0.93691   0.92270   -1.000
 3997.00    0.92770   0.91664   -1.000
 3998.00    0.93976   0.92422   -1.000
 3999.00    0.96159   0.94077   -1.000
 4000.00    0.98040   0.95744   -1.000
 4001.00    0.99378   0.96669   -1.000
 4002.00    1.00084   0.96487   -1.000
 4003.00    0.98942   0.95227   -1.000
 4004.00    0.95991   0.93341   -1.000
 4005.00    0.93426   0.92006   -1.000
 4006.00    0.93569   0.92438   -1.000
 4007.00    0.96360   0.94460   -1.000
 4008.00    0.98622   0.96754   -1.000
 4009.00    0.99640   0.98234   -1.000
 4010.00    0.99924   0.98732   -1.000
 4011.00    1.00135   0.98649   -1.000
 4012.00    0.99947   0.98464   -1.000
 4013.00    0.99476   0.98566  245.369
 4014.00    0.99868   0.98982  242.355
 4015.00    1.00815   0.99466   -1.000
 4016.00    1.01183   0.99902   -1.000
 4017.00    1.00476   1.00399  245.616
 4018.00    1.00375   1.01076  242.574
 4019.00    1.01047   1.01723  241.737
 4020.00    1.01186   1.01899  244.398
 4021.00    1.00891   1.01383  246.562
 4022.00    1.00622   1.00374  248.100
 4023.00    0.99933   0.99298  249.949
 4024.00    0.99329   0.98746  246.289
 4025.00    0.99624   0.99270  238.213
 4026.00    1.00774   1.00633  232.198
 4027.00    1.02142   1.01587  232.168
 4028.00    1.01901   1.00989  239.432
 4029.00    0.99590   0.98913  253.872
 4030.00    0.97029   0.96365  266.891
 4031.00    0.95534   0.94512  272.597
 4032.00    0.95085   0.94005   -1.000
 4033.00    0.95465   0.94774  263.879
 4034.00    0.96983   0.96515  252.079
 4035.00    0.99159   0.98952  239.567
 4036.00    1.01808   1.01665  230.080
 4037.00    1.03927   1.03837  226.966
 4038.00    1.04402   1.04655  230.070
 4039.00    1.03547   1.04179  235.467
 4040.00    1.02208   1.03249  239.017
 4041.00    1.01644   1.02379  240.593
 4042.00    1.01304   1.01106  248.846
 4043.00    0.99615   0.98621  269.338
 4044.00    0.95540   0.95373  292.291
 4045.00    0.92145   0.93304   -1.000
 4046.00    0.92629   0.93937   -1.000
 4047.00    0.96245   0.96860  247.605
 4048.00    1.00093   1.00134  238.152
 4049.00    1.02018   1.02186  234.210
 4050.00    1.02145   1.02795  234.509
 4051.00    1.02388   1.02335  239.498
 4052.00    1.01455   1.01162  245.903
 4053.00    0.99867   0.99842  250.531
 4054.00    0.98794   0.98960  253.096
 4055.00    0.98769   0.98563  254.883
 4056.00    0.98768   0.98443  257.263
 4057.00    0.98452   0.98713  256.009
 4058.00    0.98716   0.99644  248.521
 4059.00    1.00000   1.00801  242.255
 4060.00    1.01265   1.00924  243.648
 4061.00    1.00477   0.99348  257.256
 4062.00    0.96941   0.96772  275.704
 4063.00    0.93411   0.94519   -1.000
 4064.00    0.93456   0.93580  267.410
 4065.00    0.95756   0.93986   -1.000
 4066.00    0.97297   0.95082   -1.000
 4067.00    0.98098   0.96259   -1.000
 4068.00    0.99594   0.97074   -1.000
 4069.00    1.00706   0.96928   -1.000
 4070.00    0.99022   0.95656   -1.000
 4071.00    0.96593   0.94191   -1.000
 4072.00    0.96188   0.93754   -1.000
 4073.00    0.97423   0.94296   -1.000
 4074.00    0.98255   0.94365   -1.000
 4075.00    0.96789   0.92843   -1.000
 4076.00    0.93216   0.90335   -1.000
 4077.00    0.90834   0.88660   -1.000
 4078.00    0.91393   0.89275   -1.000
 4079.00    0.93964   0.91999   -1.000
 4080.00    0.97112   0.95091   -1.000
 4081.00    0.99216   0.96792   -1.000
 4082.00    0.98911   0.96667   -1.000
 4083.00    0.96956   0.95491   -1.000
 4084.00    0.95714   0.94439   -1.000
 4085.00    0.95825   0.94352   -1.000
 4086.00    0.96978   0.95346   -1.000
 4087.00    0.98291   0.96821   -1.000
 4088.00    0.99274   0.97880   -1.000
 4089.00    0.99011   0.97958  227.052
 4090.00    0.98074   0.97176  231.496
 4091.00    0.97161   0.96071  234.634
 4092.00    0.95708   0.94842  235.566
 4093.00    0.94632   0.93294   -1.000
 4094.00    0.93159   0.91257   -1.000
 4095.00    0.90273   0.88718   -1.000
 4096.00    0.87487   0.85821   -1.000
 4097.00    0.85329   0.82482   -1.000
 4098.00    0.82417   0.78238   -1.000
 4099.00    0.77414   0.72747   -1.000
 4100.00    0.70422   0.66863   -1.000
 4101.00    0.64465   0.62947   -1.000
 4102.00    0.64082   0.63223  301.782
 4103.00    0.69714   0.67839   -1.000
 4104.00    0.77194   0.74584   -1.000
 4105.00    0.82991   0.80690   -1.000
 4106.00    0.86337   0.84787   -1.000
 4107.00    0.88271   0.87045   -1.000
 4108.00    0.89202   0.88173  253.308
 4109.00    0.89828   0.88905  257.470
 4110.00    0.90606   0.89805  256.340
 4111.00    0.91697   0.91145  251.215
 4112.00    0.93800   0.92889  246.458
 4113.00    0.95861   0.94825  242.549
 4114.00    0.96696   0.96630  239.777
 4115.00    0.97591   0.97795  239.919
 4116.00    0.98084   0.97916  243.905
 4117.00    0.97004   0.97104  251.320
 4118.00    0.95553   0.96011  255.997
 4119.00    0.95410   0.95355  254.558
 4120.00    0.96300   0.95364  251.681
 4121.00    0.96328   0.95706  251.094
 4122.00    0.96442   0.96128  249.299
 4123.00    0.97363   0.96789  245.334
 4124.00    0.98424   0.97658  243.432
 4125.00    0.99310   0.98176  245.534
 4126.00    0.99168   0.97895   -1.000
 4127.00    0.97945   0.97067  253.419
 4128.00    0.97129   0.96342  254.900
 4129.00    0.97054   0.95925  257.535
 4130.00    0.96420   0.95374  264.245
 4131.00    0.94955   0.94483  272.687
 4132.00    0.93710   0.93895  275.767
 4133.00    0.93545   0.94464  269.420
 4134.00    0.94519   0.96265   -1.000
 4135.00    0.96730   0.98599   -1.000
 4136.00    0.99021   1.00746   -1.000
 4137.00    1.00697   1.02416   -1.000
 4138.00    1.02035   1.03603   -1.000
 4139.00    1.02476   1.04024   -1.000
 4140.00    1.01901   1.03108   -1.000
 4141.00    0.99803   1.00794  269.024
 4142.00    0.96049   0.97961   -1.000
 4143.00    0.92904   0.96105   -1.000
 4144.00    0.93355   0.96321   -1.000
 4145.00    0.96543   0.98149   -1.000
 4146.00    0.99100   1.00013  250.915
 4147.00    0.99717   1.00801  253.591
 4148.00    0.99261   1.00640   -1.000
 4149.00    0.98479   1.00327   -1.000
 4150.00    0.98305   1.00308   -1.000
 4151.00    0.98564   1.00322   -1.000
 4152.00    0.98345   0.99907   -1.000
 4153.00    0.96801   0.99061   -1.000
 4154.00    1.01361   0.98288   -1.000
 4155.00    1.07508   0.98145   -1.000
 4156.00    0.99610   0.98792  262.303
 4157.00    0.90762   0.99973   -1.000
 4158.00    0.94322   1.01229   -1.000
 4159.00    1.00084   1.02108   -1.000
 4160.00    1.01222   1.02493   -1.000
 4161.00    1.01136   1.02674   -1.000
 4162.00    1.00849   1.02984   -1.000
 4163.00    1.00819   1.03443   -1.000
 4164.00    1.00908   1.03787   -1.000
 4165.00    1.00381   1.03701   -1.000
 4166.00    0.99777   1.03172   -1.000
 4167.00    0.99398   1.02598   -1.000
 4168.00    0.99633   1.02161   -1.000
 4169.00    0.99936   1.01298   -1.000
 4170.00    0.98295   0.99279  268.011
 4171.00    0.95307   0.96297   -1.000
 4172.00    0.92398   0.93754   -1.000
 4173.00    0.91412   0.93081   -1.000
 4174.00    0.92729   0.94359   -1.000
 4175.00    0.94825   0.96223   -1.000
 4176.00    0.96010   0.97238   -1.000
 4177.00    0.95787   0.97356   -1.000
 4178.00    0.95704   0.97542   -1.000
 4179.00    0.97015   0.98348   -1.000
 4180.00    0.98113   0.99263   -1.000
 4181.00    0.97760   0.99594   -1.000
 4182.00    0.97306   0.99583   -1.000
 4183.00    0.97522   0.99843   -1.000
 4184.00    0.97749   1.00257   -1.000
 4185.00    0.97909   1.00211   -1.000
 4186.00    0.97290   0.99544   -1.000
 4187.00    0.95930   0.98891   -1.000
 4188.00    0.95969   0.98945   -1.000
 4189.00    0.97080   0.99565   -1.000
 4190.00    0.97659   1.00219   -1.000
 4191.00    0.98024   1.00828   -1.000
 4192.00    0.99088   1.01478   -1.000
 4193.00    1.00171   1.01817   -1.000
 4194.00    1.00068   1.01248   -1.000
 4195.00    0.98274   0.99614   -1.000
 4196.00    0.96077   0.97480   -1.000
 4197.00    0.93921   0.95601   -1.000
 4198.00    0.92586   0.94435   -1.000
 4199.00    0.92737   0.94126   -1.000
 4200.00    0.93631   0.94425  271.376
 4201.00    0.93971   0.94859  269.954
 4202.00    0.94070   0.95349   -1.000
 4203.00    0.94577   0.96166   -1.000
 4204.00    0.95189   0.97322   -1.000
 4205.00    0.95718   0.98614   -1.000
 4206.00    0.96340   0.99886   -1.000
 4207.00    0.97796   1.00859   -1.000
 4208.00    0.98617   1.01283   -1.000
 4209.00    0.98732   1.01363   -1.000
 4210.00    0.98503   1.01571   -1.000
 4211.00    0.98745   1.02021   -1.000
 4212.00    0.99480   1.02155   -1.000
 4213.00    0.98871   1.01264   -1.000
 4214.00    0.96341   0.99495   -1.000
 4215.00    0.94104   0.97951   -1.000
 4216.00    0.94079   0.97767   -1.000
 4217.00    0.96274   0.99125   -1.000
 4218.00    0.98530   1.01081   -1.000
 4219.00    0.99606   1.02576   -1.000
 4220.00    1.00266   1.03166   -1.000
 4221.00    1.00352   1.02641   -1.000
 4222.00    0.99106   1.00720   -1.000
 4223.00    0.96150   0.97304   -1.000
 4224.00    0.92533   0.92951  307.546
 4225.00    0.87372   0.89056   -1.000
 4226.00    0.83009   0.87417   -1.000
 4227.00    0.83815   0.89239   -1.000
 4228.00    0.89627   0.93803   -1.000
 4229.00    0.95457   0.98562   -1.000
 4230.00    0.98411   1.01190   -1.000
 4231.00    0.98523   1.01218   -1.000
 4232.00    0.97022   0.99719   -1.000
 4233.00    0.95843   0.98062   -1.000
 4234.00    0.95688   0.97072   -1.000
 4235.00    0.95047   0.96802   -1.000
 4236.00    0.94249   0.96945   -1.000
 4237.00    0.94457   0.97444   -1.000
 4238.00    0.94853   0.98340   -1.000
 4239.00    0.95745   0.99492   -1.000
 4240.00    0.97202   1.00661   -1.000
 4241.00    0.97919   1.01629   -1.000
 4242.00    0.98265   1.02321   -1.000
 4243.00    0.98471   1.02680   -1.000
 4244.00    0.98604   1.02459   -1.000
 4245.00    0.98286   1.01342   -1.000
 4246.00    0.96612   0.99489   -1.000
 4247.00    0.94383   0.97711   -1.000
 4248.00    0.93326   0.96718   -1.000
 4249.00    0.92862   0.96587   -1.000
 4250.00    0.92945   0.97132   -1.000
 4251.00    0.94183   0.98112   -1.000
 4252.00    0.96290   0.98952   -1.000
 4253.00    0.96614   0.99181   -1.000
 4254.00    0.95310   0.99172   -1.000
 4255.00    0.95395   0.99553   -1.000
 4256.00    0.97356   1.00098   -1.000
 4257.00    0.97844   0.99862   -1.000
 4258.00    0.96176   0.98462   -1.000
 4259.00    0.94335   0.96825   -1.000
 4260.00    0.92840   0.96355   -1.000
 4261.00    0.93339   0.97685   -1.000
 4262.00    0.96024   1.00220   -1.000
 4263.00    0.98999   1.02675   -1.000
 4264.00    1.00391   1.04044   -1.000
 4265.00    1.00818   1.04180   -1.000
 4266.00    1.00249   1.03471   -1.000
 4267.00    0.98682   1.02165   -1.000
 4268.00    0.97452   1.00235   -1.000
 4269.00    0.95998   0.97694   -1.000
 4270.00    0.93105   0.94906   -1.000
 4271.00    0.89719   0.92704   -1.000
 4272.00    0.88473   0.91915   -1.000
 4273.00    0.89532   0.92618   -1.000
 4274.00    0.90651   0.94332   -1.000
 4275.00    0.92416   0.96717   -1.000
 4276.00    0.95612   0.99358   -1.000
 4277.00    0.98370   1.01370   -1.000
 4278.00    0.98950   1.01982   -1.000
 4279.00    0.97195   1.01284   -1.000
 4280.00    0.94787   1.00092   -1.000
 4281.00    0.94175   0.99214   -1.000
 4282.00    0.94735   0.98843   -1.000
 4283.00    0.95012   0.98672   -1.000
 4284.00    0.94725   0.98359   -1.000
 4285.00    0.93537   0.97600   -1.000
 4286.00    0.92487   0.96180   -1.000
 4287.00    0.91609   0.94113   -1.000
 4288.00    0.89649   0.91739   -1.000
 4289.00    0.86692   0.89951   -1.000
 4290.00    0.85913   0.89817   -1.000
 4291.00    0.87822   0.91349   -1.000
 4292.00    0.90986   0.93187   -1.000
 4293.00    0.92619   0.93942   -1.000
 4294.00    0.92314   0.93548   -1.000
 4295.00    0.91709   0.92684  269.617
 4296.00    0.90819   0.91433  281.357
 4297.00    0.88523   0.89340  303.274
 4298.00    0.85203   0.86419   -1.000
 4299.00    0.81748   0.83510   -1.000
 4300.00    0.80184   0.81652   -1.000
 4301.00    0.80649   0.81251  323.269
 4302.00    0.81526   0.81994  318.429
 4303.00    0.82625   0.83373  314.324
 4304.00    0.83567   0.84672   -1.000
 4305.00    0.83951   0.84987   -1.000
 4306.00    0.82853   0.84079   -1.000
 4307.00    0.80435   0.82764   -1.000
 4308.00    0.78825   0.82281   -1.000
 4309.00    0.79781   0.83267   -1.000
 4310.00    0.82154   0.85205   -1.000
 4311.00    0.84038   0.87003   -1.000
 4312.00    0.85574   0.88217   -1.000
 4313.00    0.86832   0.89524   -1.000
 4314.00    0.88354   0.91949   -1.000
 4315.00    0.92010   0.95676   -1.000
 4316.00    0.96959   0.99615   -1.000
 4317.00    0.99984   1.02284   -1.000
 4318.00    1.00595   1.03038   -1.000
 4319.00    0.99729   1.02284   -1.000
 4320.00    0.98584   1.00759   -1.000
 4321.00    0.97149   0.98799   -1.000
 4322.00    0.94852   0.96248   -1.000
 4323.00    0.91614   0.93059   -1.000
 4324.00    0.87586   0.90078   -1.000
 4325.00    0.85690   0.88948   -1.000
 4326.00    0.86958   0.90616   -1.000
 4327.00    0.90838   0.93954   -1.000
 4328.00    0.94487   0.96750   -1.000
 4329.00    0.95696   0.97807   -1.000
 4330.00    0.94813   0.97612   -1.000
 4331.00    0.94112   0.97216   -1.000
 4332.00    0.94088   0.96954   -1.000
 4333.00    0.94146   0.96346   -1.000
 4334.00    0.93863   0.94683  218.769
 4335.00    0.91818   0.91321  230.351
 4336.00    0.87826   0.85889   -1.000
 4337.00    0.81700   0.78869   -1.000
 4338.00    0.74879   0.71844   -1.000
 4339.00    0.68272   0.66799   -1.000
 4340.00    0.64329   0.65396  293.767
 4341.00    0.66745   0.68266   -1.000
 4342.00    0.73958   0.74163  247.177
 4343.00    0.81063   0.80601  237.769
 4344.00    0.85432   0.85897  231.159
 4345.00    0.88292   0.89933   -1.000
 4346.00    0.90608   0.93171   -1.000
 4347.00    0.92631   0.95607   -1.000
 4348.00    0.94419   0.96715   -1.000
 4349.00    0.94988   0.96012  229.659
 4350.00    0.92983   0.93926  246.097
 4351.00    0.89484   0.92054   -1.000
 4352.00    0.88584   0.91971   -1.000
 4353.00    0.91104   0.93911   -1.000
 4354.00    0.94312   0.96752   -1.000
 4355.00    0.96938   0.99161   -1.000
 4356.00    0.98327   1.00492   -1.000
 4357.00    0.98334   1.00822   -1.000
 4358.00    0.97625   1.00703   -1.000
 4359.00    0.97134   1.00891   -1.000
 4360.00    0.97976   1.01784   -1.000
 4361.00    0.99550   1.03094   -1.000
 4362.00    1.00587   1.04296   -1.000
 4363.00    1.01114   1.05116   -1.000
 4364.00    1.01471   1.05366   -1.000
 4365.00    1.01303   1.04787   -1.000
 4366.00    1.00037   1.03402   -1.000
 4367.00    0.98308   1.01778   -1.000
 4368.00    0.97904   1.00617   -1.000
 4369.00    0.98235   1.00130   -1.000
 4370.00    0.98320   0.99960   -1.000
 4371.00    0.98613   0.99478  226.067
 4372.00    0.98860   0.98202  233.724
 4373.00    0.97063   0.96292  243.251
 4374.00    0.94300   0.94795  245.618
 4375.00    0.93841   0.94979  237.606
 4376.00    0.95752   0.96991  225.958
 4377.00    0.98491   0.99597  220.239
 4378.00    1.00300   1.01348  220.463
 4379.00    1.00843   1.01533  223.888
 4380.00    1.00593   0.99979  232.979
 4381.00    0.98561   0.96682   -1.000
 4382.00    0.93600   0.92307   -1.000
 4383.00    0.88135   0.88698  294.461
 4384.00    0.86477   0.87790   -1.000
 4385.00    0.89748   0.89782  247.189
 4386.00    0.94017   0.92994  235.682
 4387.00    0.96766   0.95575  234.263
 4388.00    0.97788   0.96872  236.397
 4389.00    0.97370   0.97268  237.609
 4390.00    0.97222   0.97432  234.166
 4391.00    0.98014   0.97724  228.954
 4392.00    0.98879   0.97820  228.961
 4393.00    0.98589   0.97283   -1.000
 4394.00    0.97042   0.96594  233.954
 4395.00    0.96350   0.96832  225.245
 4396.00    0.98153   0.98086  217.702
 4397.00    1.00248   0.99092  218.681
 4398.00    1.00269   0.98821   -1.000
 4399.00    0.98069   0.97724  233.022
 4400.00    0.96302   0.97064  232.416
 4401.00    0.97078   0.97277  228.367
 4402.00    0.98681   0.97535  233.588
 4403.00    0.97963   0.97043  246.304
 4404.00    0.95678   0.96211  251.250
 4405.00    0.94631   0.95944   -1.000
 4406.00    0.95966   0.96430  240.103
 4407.00    0.96859   0.97187  237.746
 4408.00    0.96765   0.98093  230.153
 4409.00    0.97808   0.99510   -1.000
 4410.00    1.00221   1.01329  212.458
 4411.00    1.02432   1.02661  208.939
 4412.00    1.03754   1.02612  212.838
 4413.00    1.02913   1.00934   -1.000
 4414.00    0.99797   0.98299   -1.000
 4415.00    0.97112   0.96124  233.904
 4416.00    0.96451   0.95650  227.024
 4417.00    0.97226   0.97092  217.783
 4418.00    0.99160   0.99661  210.983
 4419.00    1.01406   1.02044  210.664
 4420.00    1.02559   1.03132  215.415
 4421.00    1.01704   1.02897  219.798
 4422.00    1.00969   1.02286  219.672
 4423.00    1.01280   1.02055  218.468
 4424.00    1.01420   1.02111  218.885
 4425.00    1.01167   1.02077  219.903
 4426.00    1.00151   1.01972   -1.000
 4427.00    0.99925   1.02033   -1.000
 4428.00    1.00661   1.02256   -1.000
 4429.00    1.01163   1.02458  220.527
 4430.00    1.00759   1.02541   -1.000
 4431.00    1.01239   1.02430  216.655
 4432.00    1.01505   1.01911  221.898
 4433.00    1.00157   1.00842  232.206
 4434.00    0.97860   0.99747   -1.000
 4435.00    0.96518   0.99711   -1.000
 4436.00    0.98162   1.01297   -1.000
 4437.00    1.01665   1.03764   -1.000
 4438.00    1.04147   1.05628  204.042
 4439.00    1.04968   1.05744  209.104
 4440.00    1.03954   1.03963  218.564
 4441.00    1.01097   1.01184  228.179
 4442.00    0.97589   0.98912  230.871
 4443.00    0.95789   0.98449   -1.000
 4444.00    0.97116   1.00028   -1.000
 4445.00    0.99830   1.02551   -1.000
 4446.00    1.01553   1.04525   -1.000
 4447.00    1.02137   1.05330   -1.000
 4448.00    1.02311   1.05274   -1.000
 4449.00    1.01986   1.04881   -1.000
 4450.00    1.01471   1.04507   -1.000
 4451.00    1.01538   1.04173   -1.000
 4452.00    1.01701   1.03428   -1.000
 4453.00    1.00373   1.01894   -1.000
 4454.00    0.97905   1.00049   -1.000
 4455.00    0.96503   0.98962   -1.000
 4456.00    0.97294   0.99083   -1.000
 4457.00    0.98937   0.99781  228.323
 4458.00    0.99143   1.00240  229.357
 4459.00    0.98500   1.00255   -1.000
 4460.00    0.97977   1.00157   -1.000
 4461.00    0.97580   1.00390   -1.000
 4462.00    0.98471   1.01137   -1.000
 4463.00    1.00088   1.02111   -1.000
 4464.00    1.01282   1.02819   -1.000
 4465.00    1.01581   1.02928  214.996
 4466.00    1.01230   1.02339  216.964
 4467.00    1.00346   1.01236  220.849
 4468.00    0.99064   1.00288  222.841
 4469.00    0.98465   1.00313   -1.000
 4470.00    0.99419   1.01574   -1.000
 4471.00    1.01191   1.03563   -1.000
 4472.00    1.03187   1.05522   -1.000
 4473.00    1.04732   1.06937   -1.000
 4474.00    1.05829   1.07710   -1.000
 4475.00    1.05847   1.08039   -1.000
 4476.00    1.05738   1.08133   -1.000
 4477.00    1.06412   1.07842  197.177
 4478.00    1.06272   1.06679  203.365
 4479.00    1.04346   1.04489  212.375
 4480.00    1.01660   1.02091  219.206
 4481.00    0.99498   1.00875  218.505
 4482.00    0.99490   1.01630   -1.000
 4483.00    1.01459   1.03908   -1.000
 4484.00    1.03750   1.06439   -1.000
 4485.00    1.05718   1.08039   -1.000
 4486.00    1.06235   1.08114   -1.000
 4487.00    1.05506   1.06826  207.437
 4488.00    1.03386   1.05044   -1.000
 4489.00    1.01591   1.03898   -1.000
 4490.00    1.01464   1.03971   -1.000
 4491.00    1.02961   1.04870   -1.000
 4492.00    1.04321   1.05628  204.927
 4493.00    1.03879   1.05619   -1.000
 4494.00    1.02906   1.05178   -1.000
 4495.00    1.02010   1.05061   -1.000
 4496.00    1.02189   1.05550   -1.000
 4497.00    1.03741   1.06290   -1.000
 4498.00    1.04924   1.06713   -1.000
 4499.00    1.05370   1.06455  200.747
 4500.00    1.05071   1.05850  202.180
 4501.00    1.04042   1.05847   -1.000
 4502.00    1.04798   1.07009   -1.000
 4503.00    1.07192   1.08851  187.548
 4504.00    1.08600   1.10332   -1.000
 4505.00    1.08334   1.10791   -1.000
 4506.00    1.07290   1.10290   -1.000
 4507.00    1.06547   1.09453   -1.000
 4508.00    1.06246   1.09006   -1.000
 4509.00    1.06976   1.09188   -1.000
 4510.00    1.07606   1.09563   -1.000
 4511.00    1.07379   1.09540   -1.000
 4512.00    1.06729   1.08957   -1.000
 4513.00    1.05600   1.08048   -1.000
 4514.00    1.04837   1.07166   -1.000
 4515.00    1.04702   1.06622   -1.000
 4516.00    1.04563   1.06435   -1.000
 4517.00    1.04313   1.06303   -1.000
 4518.00    1.04181   1.06048   -1.000
 4519.00    1.04614   1.05857  197.362
 4520.00    1.05107   1.05834  197.027
 4521.00    1.04992   1.05700  200.937
 4522.00    1.03779   1.05197  205.231
 4523.00    1.02628   1.04519   -1.000
 4524.00    1.02472   1.03928  210.572
 4525.00    1.02300   1.03276  216.464
 4526.00    1.01478   1.02250  222.749
 4527.00    0.99943   1.00892  226.162
 4528.00    0.98506   0.99773  225.348
 4529.00    0.98627   0.99484  221.784
 4530.00    0.99673   1.00011  217.723
 4531.00    1.00463   1.00567  216.060
 4532.00    1.00561   1.00303  220.694
 4533.00    0.99168   0.99330  228.064
 4534.00    0.97105   0.98783   -1.000
 4535.00    0.97099   0.99725   -1.000
 4536.00    0.99835   1.02095   -1.000
 4537.00    1.03678   1.04826  196.494
 4538.00    1.05962   1.06685  197.007
 4539.00    1.05832   1.07155  201.302
 4540.00    1.05164   1.06674  202.174
 4541.00    1.04212   1.06106   -1.000
 4542.00    1.08570   1.05916   -1.000
 4543.00    0.80310   1.05891   -1.000
 4544.00    0.15256   1.05664   -1.000
 4545.00   -0.01538   1.05249    0.000
 4546.00    0.33456   1.04709   -1.000
 4547.00    0.66296   1.03736   -1.000
 4548.00    0.36828   1.02205   -1.000
 4549.00    0.81292   1.00886   -1.000
 4550.00    1.00119   1.00787  214.156
 4551.00    1.01456   1.01736  209.247
 4552.00    1.02109   1.02425  212.124
 4553.00    1.01301   1.02077  214.394
 4554.00    1.00151   1.01321  212.192
 4555.00    1.00128   1.01337  205.255
 4556.00    1.01972   1.02620  197.062
 4557.00    1.04624   1.04588  192.692
 4558.00    1.06056   1.06350  192.916
 4559.00    1.06478   1.07567  193.100
 4560.00    1.06419   1.08253   -1.000
 4561.00    1.06216   1.08190   -1.000
 4562.00    1.05556   1.07172   -1.000
 4563.00    1.03874   1.05663   -1.000
 4564.00    1.02522   1.04679   -1.000
 4565.00    1.02732   1.04862   -1.000
 4566.00    1.04253   1.05989   -1.000
 4567.00    1.05492   1.07254   -1.000
 4568.00    1.06536   1.07876  193.063
 4569.00    1.06620   1.07489  197.468
 4570.00    1.04815   1.06267  202.680
 4571.00    1.02695   1.04966   -1.000
 4572.00    1.02961   1.04626   -1.000
 4573.00    1.04556   1.05525  193.760
 4574.00    1.06131   1.06762  193.335
 4575.00    1.06252   1.07384  194.109
 4576.00    1.06170   1.07296  195.200
 4577.00    1.05663   1.06794  198.104
 4578.00    1.05068   1.05918  203.575
 4579.00    1.04153   1.04671  208.214
 4580.00    1.02862   1.03345  208.587
 4581.00    1.02369   1.02279  206.040
 4582.00    1.02486   1.01565  204.210
 4583.00    1.02530   1.01322  204.414
 4584.00    1.02419   1.01714  205.598
 4585.00    1.02930   1.02614  203.580
 4586.00    1.03838   1.03639  198.663
 4587.00    1.04647   1.04505  194.211
 4588.00    1.05349   1.05064  193.167
 4589.00    1.05472   1.05243  195.425
 4590.00    1.05114   1.05074  198.965
 4591.00    1.04219   1.04710  202.517
 4592.00    1.03521   1.04426  203.377
 4593.00    1.03517   1.04467  201.979
 4594.00    1.04042   1.04829  200.339
 4595.00    1.04739   1.05346  199.600
 4596.00    1.05127   1.05853  199.172
 4597.00    1.05309   1.06190  198.730
 4598.00    1.05605   1.06212  200.046
 4599.00    1.05516   1.05889  201.871
 4600.00    1.04829   1.05375  202.685
 4601.00    1.04155   1.04956  201.049
 4602.00    1.04019   1.04833  198.776
 4603.00    1.04445   1.04992  198.599
 4604.00    1.05008   1.05310  198.431
 4605.00    1.05404   1.05737  196.617
 4606.00    1.05932   1.06330  193.038
 4607.00    1.07049   1.07093  188.934
 4608.00    1.07844   1.07861  186.348
 4609.00    1.08077   1.08357  186.607
 4610.00    1.07831   1.08362  188.883
 4611.00    1.07276   1.07963  191.106
 4612.00    1.06654   1.07492  192.512
 4613.00    1.06131   1.07230  191.977
 4614.00    1.06379   1.07148  190.382
 4615.00    1.06586   1.07017  189.427
 4616.00    1.06114   1.06696  190.314
 4617.00    1.05941   1.06249  191.731
 4618.00    1.05813   1.05891  191.863
 4619.00    1.05582   1.05897  190.323
 4620.00    1.06219   1.06419  187.499
 4621.00    1.07328   1.07282  186.859
 4622.00    1.08189   1.08025  187.268
 4623.00    1.07995   1.08299  187.662
 4624.00    1.07590   1.08148  189.129
 4625.00    1.06961   1.07811  189.858
 4626.00    1.06959   1.07441  189.849
 4627.00    1.07225   1.07016  190.818
 4628.00    1.06603   1.06575  191.404
 4629.00    1.06023   1.06379  190.693
 4630.00    1.06310   1.06651  188.702
 4631.00    1.07148   1.07145  188.948
 4632.00    1.07215   1.07335  191.391
 4633.00    1.06630   1.07006  193.666
 4634.00    1.06308   1.06485  193.920
 4635.00    1.06317   1.06167  195.131
 4636.00    1.06001   1.06071  197.559
 4637.00    1.05756   1.06047  198.731
 4638.00    1.05459   1.06112  198.634
 4639.00    1.05624   1.06427  195.822
 4640.00    1.06592   1.07030  191.246
 4641.00    1.07570   1.07722  188.215
 4642.00    1.08188   1.08151  188.373
 4643.00    1.08004   1.08024  191.413
 4644.00    1.07205   1.07300  196.512
 4645.00    1.05947   1.06142  202.010
 4646.00    1.04695   1.04908  203.768
 4647.00    1.04313   1.04165  200.924
 4648.00    1.04740   1.04333  196.370
 4649.00    1.05831   1.05254  193.308
 4650.00    1.06584   1.06349  192.562
 4651.00    1.05907   1.07082  192.202
 4652.00    1.05508   1.07212   -1.000
 4653.00    1.05336   1.06765  198.126
 4654.00    1.04450   1.06010  200.877
 4655.00    1.03782   1.05369  199.872
 4656.00    1.03722   1.05311  194.292
 4657.00    1.05280   1.06137  186.993
 4658.00    1.07741   1.07698  182.235
 4659.00    1.09451   1.09243  181.360
 4660.00    1.09822   1.09966  183.213
 4661.00    1.09150   1.09648  187.344
 4662.00    1.08211   1.08681  191.245
 4663.00    1.07465   1.07509  192.294
 4664.00    1.07405   1.06234  194.909
 4665.00    1.06895   1.04667   -1.000
 4666.00    1.05078   1.02854   -1.000
 4667.00    1.03004   1.01404   -1.000
 4668.00    1.01743   1.01044  207.317
 4669.00    1.02183   1.01890  198.942
 4670.00    1.04447   1.03429  193.000
 4671.00    1.06395   1.04980  191.147
 4672.00    1.06975   1.06105  191.111
 4673.00    1.07125   1.06783  190.989
 4674.00    1.07194   1.07289  188.907
 4675.00    1.07465   1.07762  186.093
 4676.00    1.08010   1.07949  186.343
 4677.00    1.08091   1.07505  189.881
 4678.00    1.07284   1.06491  193.753
 4679.00    1.05874   1.05369  197.069
 4680.00    1.04974   1.04581  199.217
 4681.00    1.04878   1.04322  197.506
 4682.00    1.05501   1.04583  192.897
 4683.00    1.06342   1.05172  189.916
 4684.00    1.07224   1.05771   -1.000
 4685.00    1.07616   1.06132   -1.000
 4686.00    1.07582   1.06242  191.145
 4687.00    1.07127   1.06226  191.363
 4688.00    1.07182   1.06175  191.365
 4689.00    1.07300   1.06069  192.505
 4690.00    1.07246   1.05872  193.102
 4691.00    1.06656   1.05706  191.271
 4692.00    1.06736   1.05796  188.485
 4693.00    1.07691   1.06168   -1.000
 4694.00    1.08997   1.06602   -1.000
 4695.00    1.09787   1.06838   -1.000
 4696.00    1.09603   1.06642   -1.000
 4697.00    1.08764   1.05899   -1.000
 4698.00    1.07316   1.04837   -1.000
 4699.00    1.06411   1.03856   -1.000
 4700.00    1.06133   1.03105   -1.000
 4701.00    1.05910   1.02471   -1.000
 4702.00    1.05092   1.01976   -1.000
 4703.00    1.04346   1.01904   -1.000
 4704.00    1.04909   1.02374   -1.000
 4705.00    1.05488   1.02955   -1.000
 4706.00    1.05402   1.03043   -1.000
 4707.00    1.04398   1.02562   -1.000
 4708.00    1.03487   1.02089   -1.000
 4709.00    1.03588   1.02235  195.887
 4710.00    1.04930   1.03039   -1.000
 4711.00    1.06722   1.04002   -1.000
 4712.00    1.07782   1.04540   -1.000
 4713.00    1.07460   1.04489   -1.000
 4714.00    1.06359   1.04254   -1.000
 4715.00    1.06130   1.04420   -1.000
 4716.00    1.07049   1.05151   -1.000
 4717.00    1.07963   1.06073   -1.000
 4718.00    1.08217   1.06765  183.885
 4719.00    1.08607   1.07099   -1.000
 4720.00    1.08723   1.07161   -1.000
 4721.00    1.08409   1.07080  185.827
 4722.00    1.08171   1.07047  185.150
 4723.00    1.08040   1.07202  183.265
 4724.00    1.08608   1.07400  183.143
 4725.00    1.08776   1.07251   -1.000
 4726.00    1.07895   1.06498  193.637
 4727.00    1.06419   1.05289  198.553
 4728.00    1.05306   1.04093  198.674
 4729.00    1.05428   1.03297   -1.000
 4730.00    1.05808   1.02973   -1.000
 4731.00    1.05837   1.03098   -1.000
 4732.00    1.05929   1.03631   -1.000
 4733.00    1.06157   1.04303   -1.000
 4734.00    1.06928   1.04715   -1.000
 4735.00    1.07127   1.04728   -1.000
 4736.00    1.06243   1.04570   -1.000
 4737.00    1.06276   1.04567   -1.000
 4738.00    1.06839   1.04801   -1.000
 4739.00    1.06934   1.05092   -1.000
 4740.00    1.06823   1.05288   -1.000
 4741.00    1.06583   1.05453  188.720
 4742.00    1.06921   1.05714  186.725
 4743.00    1.07499   1.06054   -1.000
 4744.00    1.08022   1.06368   -1.000
 4745.00    1.07799   1.06628  185.778
 4746.00    1.07996   1.06908  183.955
 4747.00    1.07993   1.07278  183.313
 4748.00    1.08315   1.07683  183.500
 4749.00    1.08321   1.08041  183.656
 4750.00    1.08484   1.08270  184.787
 4751.00    1.08239   1.08239  186.779
 4752.00    1.07923   1.07838  188.452
 4753.00    1.07581   1.07181  189.785
 4754.00    1.07069   1.06558  189.722
 4755.00    1.06720   1.06240  190.262
 4756.00    1.06437   1.06320  191.580
 4757.00    1.06135   1.06676  192.002
 4758.00    1.06491   1.07081  190.690
 4759.00    1.07017   1.07291  190.115
 4760.00    1.06773   1.07021  192.543
 4761.00    1.06256   1.06079  197.114
 4762.00    1.05194   1.04652  200.087
 4763.00    1.04381   1.03314  200.738
 4764.00    1.03929   1.02601  200.415
 4765.00    1.04371   1.02680   -1.000
 4766.00    1.05087   1.03407   -1.000
 4767.00    1.05931   1.04563  192.407
 4768.00    1.06671   1.05875  189.433
 4769.00    1.07268   1.06925  189.279
 4770.00    1.07503   1.07341  190.708
 4771.00    1.07076   1.07195  192.403
 4772.00    1.06588   1.06983  190.824
 4773.00    1.06790   1.07175  186.991
 4774.00    1.08037   1.07769  185.239
 4775.00    1.08846   1.08383  185.183
 4776.00    1.08919   1.08688  185.678
 4777.00    1.08742   1.08597  186.787
 4778.00    1.07928   1.08142  188.756
 4779.00    1.07152   1.07521  190.050
 4780.00    1.06783   1.07088  190.621
 4781.00    1.06973   1.06966  191.474
 4782.00    1.06550   1.06893  192.928
 4783.00    1.06140   1.06648  193.125
 4784.00    1.06610   1.06274  193.637
 4785.00    1.06455   1.05858  195.371
 4786.00    1.05639   1.05462  196.649
 4787.00    1.04874   1.05242  196.661
 4788.00    1.04727   1.05297  195.802
 4789.00    1.05072   1.05575  194.625
 4790.00    1.05245   1.06044  192.725
 4791.00    1.06008   1.06757  189.733
 4792.00    1.07007   1.07717  185.661
 4793.00    1.07959   1.08784  182.307
 4794.00    1.08827   1.09665  181.248
 4795.00    1.09250   1.10007  182.693
 4796.00    1.08716   1.09640  186.115
 4797.00    1.07545   1.08744  189.673
 4798.00    1.06377   1.07773  192.140
 4799.00    1.05920   1.07219  191.085
 4800.00    1.06380   1.07338  187.516
 4801.00    1.07275   1.07958  184.621
 4802.00    1.07878   1.08531  184.430
 4803.00    1.08017   1.08504  186.577
 4804.00    1.07290   1.07830  189.011
 4805.00    1.06593   1.07030  190.845
 4806.00    1.06495   1.06627  191.078
 4807.00    1.06766   1.06703  190.648
 4808.00    1.06896   1.07043  189.847
 4809.00    1.07036   1.07419  188.256
 4810.00    1.07450   1.07679  186.840
 4811.00    1.07262   1.07824  185.826
 4812.00    1.07544   1.08015  185.523
 4813.00    1.08024   1.08373  185.121
 4814.00    1.08218   1.08830  184.486
 4815.00    1.08248   1.09249  183.398
 4816.00    1.08298   1.09576  182.253
 4817.00    1.08524   1.09790  181.450
 4818.00    1.08780   1.09864  181.281
 4819.00    1.08651   1.09784  181.284
 4820.00    1.08310   1.09459  182.627
 4821.00    1.07927   1.08666  186.962
 4822.00    1.07064   1.07329  190.794
 4823.00    1.06230   1.05879  191.061
 4824.00    1.05773   1.05080  188.110
 4825.00    1.05813   1.05300  185.103
 4826.00    1.06587   1.06101  185.294
 4827.00    1.07165   1.06732  187.304
 4828.00    1.07039   1.06841  188.655
 4829.00    1.06461   1.06590  188.788
 4830.00    1.05935   1.06231  190.242
 4831.00    1.05669   1.05865  190.816
 4832.00    1.05480   1.05599  188.270
 4833.00    1.06157   1.05575  185.652
 4834.00    1.06918   1.05765  184.688
 4835.00    1.07111   1.05961  184.853
 4836.00    1.07164   1.05999  185.656
 4837.00    1.07099   1.05828  187.942
 4838.00    1.06622   1.05417  191.209
 4839.00    1.05302   1.04830  191.861
 4840.00    1.04784   1.04295  191.502
 4841.00    1.04645   1.04024  190.623
 4842.00    1.04864   1.04003  189.266
 4843.00    1.05001   1.04102  187.443
 4844.00    1.05080   1.04268  184.655
 4845.00    1.05832   1.04437  183.383
 4846.00    1.06101   1.04340   -1.000
 4847.00    1.05233   1.03769  189.384
 4848.00    1.04047   1.03005  189.808
 4849.00    1.03540   1.02568  187.526
 4850.00    1.03523   1.02552  186.713
 4851.00    1.03288   1.02518  187.564
 4852.00    1.02913   1.01925  189.094
 4853.00    1.02022   1.00463   -1.000
 4854.00    1.00039   0.98255   -1.000
 4855.00    0.97541   0.95891   -1.000
 4856.00    0.96310   0.93876   -1.000
 4857.00    0.95656   0.91820   -1.000
 4858.00    0.92977   0.88411   -1.000
 4859.00    0.86389   0.82731   -1.000
 4860.00    0.76798   0.75964  257.638
 4861.00    0.71240   0.71323  246.028
 4862.00    0.74173   0.71570   -1.000
 4863.00    0.82114   0.76361   -1.000
 4864.00    0.89005   0.82802   -1.000
 4865.00    0.93335   0.88366   -1.000
 4866.00    0.96177   0.92394   -1.000
 4867.00    0.97956   0.95168   -1.000
 4868.00    0.99416   0.96855   -1.000
 4869.00    1.00065   0.97355   -1.000
 4870.00    0.98961   0.96775   -1.000
 4871.00    0.97530   0.95873   -1.000
 4872.00    0.97742   0.95745   -1.000
 4873.00    0.99427   0.96830   -1.000
 4874.00    1.01438   0.98513   -1.000
 4875.00    1.02481   0.99880   -1.000
 4876.00    1.02396   1.00641   -1.000
 4877.00    1.02463   1.01186  189.934
 4878.00    1.02980   1.01995  187.771
 4879.00    1.03675   1.03088  188.858
 4880.00    1.04399   1.03995  191.794
 4881.00    1.04596   1.04225  193.282
 4882.00    1.03987   1.03784  192.895
 4883.00    1.04021   1.03104  193.649
 4884.00    1.04042   1.02548   -1.000
 4885.00    1.03381   1.02218  197.747
 4886.00    1.03024   1.02095  197.007
 4887.00    1.03275   1.02035  196.594
 4888.00    1.03065   1.01731  199.004
 4889.00    1.02382   1.00947   -1.000
 4890.00    1.00496   0.99974  202.839
 4891.00    1.00008   0.99732  195.695
 4892.00    1.02235   1.01018  186.700
 4893.00    1.05408   1.03577   -1.000
 4894.00    1.07689   1.06288  176.998
 4895.00    1.08511   1.08204  175.763
 4896.00    1.09119   1.09095  175.964
 4897.00    1.09188   1.09138  179.242
 4898.00    1.08397   1.08559  183.475
 4899.00    1.07418   1.07663  185.888
 4900.00    1.06349   1.06867  185.432
 4901.00    1.06438   1.06412  185.483
 4902.00    1.06048   1.06169  187.470
 4903.00    1.05359   1.06043  186.141
 4904.00    1.05719   1.06302  182.408
 4905.00    1.06911   1.07076  180.574
 4906.00    1.07700   1.07853  181.769
 4907.00    1.07519   1.07935  185.758
 4908.00    1.06650   1.07114  191.037
 4909.00    1.05610   1.05737  193.986
 4910.00    1.04621   1.04455  192.203
 4911.00    1.04815   1.03929  188.826
 4912.00    1.05693   1.04400  186.096
 4913.00    1.06467   1.05531  183.656
 4914.00    1.07115   1.06715  181.908
 4915.00    1.07664   1.07369  182.380
 4916.00    1.07629   1.06957  187.892
 4917.00    1.06111   1.05168  197.665
 4918.00    1.03277   1.02315  207.401
 4919.00    0.99945   0.99415  211.012
 4920.00    0.98319   0.97632  205.544
 4921.00    0.99237   0.97435   -1.000
 4922.00    1.01189   0.98265   -1.000
 4923.00    1.02014   0.99264   -1.000
 4924.00    1.02068   1.00272   -1.000
 4925.00    1.03494   1.01689   -1.000
 4926.00    1.05316   1.03556   -1.000
 4927.00    1.06667   1.05400  181.589
 4928.00    1.07698   1.06822  180.280
 4929.00    1.08042   1.07690  179.169
 4930.00    1.08375   1.07881  180.482
 4931.00    1.07966   1.07200  184.928
 4932.00    1.06389   1.05665  191.440
 4933.00    1.04249   1.03867  192.981
 4934.00    1.02885   1.02748  190.075
 4935.00    1.03913   1.02673  189.396
 4936.00    1.04942   1.02909   -1.000
 4937.00    1.04367   1.02550   -1.000
 4938.00    1.02405   1.01765  198.995
 4939.00    1.02055   1.01577  192.926
 4940.00    1.03523   1.02625  186.631
 4941.00    1.05688   1.04549  182.785
 4942.00    1.06984   1.06438  180.857
 4943.00    1.07432   1.07607  180.715
 4944.00    1.07855   1.07939  181.838
 4945.00    1.07380   1.07733  182.385
 4946.00    1.06733   1.07462  181.051
 4947.00    1.07403   1.07516  178.964
 4948.00    1.07716   1.07938  178.172
 4949.00    1.07928   1.08430  177.462
 4950.00    1.08218   1.08661  178.124
 4951.00    1.08124   1.08556  179.315
 4952.00    1.07929   1.08245  181.266
 4953.00    1.07506   1.07810  183.509
 4954.00    1.07472   1.07018  188.009
 4955.00    1.06159   1.05362  197.015
 4956.00    1.03223   1.02811  205.393
 4957.00    1.00473   1.00527  203.181
 4958.00    1.00409   1.00116  192.555
 4959.00    1.03287   1.01910   -1.000
 4960.00    1.06143   1.04613   -1.000
 4961.00    1.07617   1.06717  183.539
 4962.00    1.08075   1.07685  184.926
 4963.00    1.07372   1.07718  187.011
 4964.00    1.06684   1.07101  190.725
 4965.00    1.06038   1.06123  193.469
 4966.00    1.05190   1.05188  193.893
 4967.00    1.04855   1.04616  193.407
 4968.00    1.05233   1.04456  192.106
 4969.00    1.05565   1.04651  190.141
 4970.00    1.05816   1.05157  188.096
 4971.00    1.06178   1.05853  185.879
 4972.00    1.06683   1.06562  184.049
 4973.00    1.07197   1.07134  183.148
 4974.00    1.07624   1.07456  184.116
 4975.00    1.08047   1.07450  185.969
 4976.00    1.07394   1.07088  188.418
 4977.00    1.06609   1.06437  191.422
 4978.00    1.05995   1.05654  193.908
 4979.00    1.05596   1.04770  196.595
 4980.00    1.04507   1.03530  202.508
 4981.00    1.02084   1.01726  209.143
 4982.00    1.00322   0.99703  210.208
 4983.00    0.99522   0.98316  206.816
 4984.00    0.99906   0.98274   -1.000
 4985.00    1.01576   0.99574   -1.000
 4986.00    1.03238   1.01592   -1.000
 4987.00    1.04780   1.03508  189.331
 4988.00    1.05582   1.04628  191.752
 4989.00    1.04810   1.04692  193.879
 4990.00    1.03495   1.04056  194.255
 4991.00    1.03592   1.03399  192.783
 4992.00    1.04128   1.03180  191.819
 4993.00    1.04311   1.03415  191.625
 4994.00    1.04572   1.03917  190.774
 4995.00    1.05131   1.04512  189.813
 4996.00    1.05756   1.04947  190.646
 4997.00    1.05827   1.04847  193.002
 4998.00    1.04690   1.03933  196.722
 4999.00    1.03459   1.02392  199.435
 5000.00    1.02414   1.00973   -1.000
 5001.00    1.02374   1.00379   -1.000
 5002.00    1.02968   1.00546   -1.000
 5003.00    1.03290   1.00785   -1.000
 5004.00    1.02912   1.00456   -1.000
 5005.00    1.01225   0.99559   -1.000
 5006.00    0.99889   0.98871  201.532
 5007.00    1.01084   0.99213   -1.000
 5008.00    1.03265   1.00503   -1.000
 5009.00    1.04886   1.01768   -1.000
 5010.00    1.04919   1.02059   -1.000
 5011.00    1.03093   1.01155   -1.000
 5012.00    1.00872   0.99581  212.707
 5013.00    0.99058   0.98206  212.565
 5014.00    0.98689   0.97662  208.358
 5015.00    1.00007   0.97880   -1.000
 5016.00    1.01077   0.98187   -1.000
 5017.00    1.00953   0.98066   -1.000
 5018.00    1.00532   0.97822   -1.000
 5019.00    1.01068   0.98169   -1.000
 5020.00    1.02232   0.99199   -1.000
 5021.00    1.02774   1.00291   -1.000
 5022.00    1.02751   1.01048   -1.000
 5023.00    1.02994   1.01675  196.929
 5024.00    1.03699   1.02394  195.488
 5025.00    1.04119   1.02991  196.096
 5026.00    1.03946   1.03154  197.052
 5027.00    1.03108   1.02993  195.648
 5028.00    1.03429   1.02896  192.211
 5029.00    1.03978   1.03091  189.329
 5030.00    1.05177   1.03579   -1.000
 5031.00    1.05678   1.04302  184.027
 5032.00    1.05886   1.05063  183.980
 5033.00    1.06115   1.05390  189.077
 5034.00    1.05393   1.04871  196.439
 5035.00    1.03288   1.03680  200.385
 5036.00    1.01908   1.02466  201.446
 5037.00    1.01747   1.01574  203.668
 5038.00    1.01268   1.00590  210.898
 5039.00    0.99826   0.98973  219.510
 5040.00    0.97132   0.97090  220.893
 5041.00    0.95914   0.96194  211.628
 5042.00    0.97806   0.97198  198.842
 5043.00    1.01343   0.99761   -1.000
 5044.00    1.04282   1.02681   -1.000
 5045.00    1.04326   1.04877  178.954
 5046.00    1.16272   1.05859   -1.000
 5047.00    0.47202   1.05578   -1.000
 5048.00    0.58193   1.04309   -1.000
 5049.00    1.00516   1.02621   -1.000
 5050.00    1.02566   1.01157   -1.000
 5051.00    1.02073   1.00429   -1.000
 5052.00    1.03253   1.00799   -1.000
 5053.00    1.04798   1.02213   -1.000
 5054.00    1.06264   1.03963   -1.000
 5055.00    1.07105   1.05263   -1.000
 5056.00    1.07418   1.05948   -1.000
 5057.00    1.07730   1.06322  183.840
 5058.00    1.07324   1.06644  183.824
 5059.00    1.06690   1.06960  182.726
 5060.00    1.06716   1.07193  182.637
 5061.00    1.07038   1.07185  184.788
 5062.00    1.06816   1.06693  189.802
 5063.00    1.05291   1.05558  196.441
 5064.00    1.03491   1.04060  199.370
 5065.00    1.02342   1.02858  197.550
 5066.00    1.02705   1.02380  194.602
 5067.00    1.03588   1.02466  193.667
 5068.00    1.04035   1.02717  192.801
 5069.00    1.04534   1.02950   -1.000
 5070.00    1.05080   1.03109   -1.000
 5071.00    1.05203   1.03072   -1.000
 5072.00    1.04793   1.02824   -1.000
 5073.00    1.04587   1.02596   -1.000
 5074.00    1.04709   1.02590   -1.000
 5075.00    1.04881   1.02724   -1.000
 5076.00    1.05211   1.02676   -1.000
 5077.00    1.04681   1.02056   -1.000
 5078.00    1.02323   1.00741   -1.000
 5079.00    0.99972   0.99239  210.435
 5080.00    0.99042   0.98402  206.828
 5081.00    1.00452   0.98572   -1.000
 5082.00    1.01618   0.99363   -1.000
 5083.00    1.02154   1.00322   -1.000
 5084.00    1.03075   1.01327   -1.000
 5085.00    1.04747   1.02334   -1.000
 5086.00    1.05787   1.03163   -1.000
 5087.00    1.05667   1.03701   -1.000
 5088.00    1.05352   1.04051  188.208
 5089.00    1.06127   1.04380   -1.000
 5090.00    1.06047   1.04755  186.150
 5091.00    1.05961   1.05178  184.145
 5092.00    1.07315   1.05625   -1.000
 5093.00    1.07833   1.05958   -1.000
 5094.00    1.07369   1.05891   -1.000
 5095.00    1.06762   1.05175   -1.000
 5096.00    1.05556   1.03823   -1.000
 5097.00    1.04038   1.02191   -1.000
 5098.00    1.02507   1.00861   -1.000
 5099.00    1.02061   1.00398   -1.000
 5100.00    1.03101   1.00996   -1.000
 5101.00    1.04937   1.02244   -1.000
 5102.00    1.06204   1.03403   -1.000
 5103.00    1.05875   1.03957   -1.000
 5104.00    1.05329   1.03837   -1.000
 5105.00    1.04988   1.03172   -1.000
 5106.00    1.03611   1.02152   -1.000
 5107.00    1.02033   1.01109  199.594
 5108.00    1.01619   1.00448  198.412
 5109.00    1.02074   1.00396   -1.000
 5110.00    1.02267   1.00936   -1.000
 5111.00    1.03413   1.01923   -1.000
 5112.00    1.04699   1.03084   -1.000
 5113.00    1.05602   1.04090   -1.000
 5114.00    1.06246   1.04794   -1.000
 5115.00    1.06363   1.05290  184.827
 5116.00    1.06808   1.05722  183.225
 5117.00    1.07328   1.06065  183.523
 5118.00    1.07310   1.06123  185.722
 5119.00    1.06757   1.05727  188.492
 5120.00    1.06009   1.04889  191.580
 5121.00    1.05295   1.03749   -1.000
 5122.00    1.03679   1.02468  202.159
 5123.00    1.01860   1.01268  204.131
 5124.00    1.01054   1.00441  202.658
 5125.00    1.01920   1.00122   -1.000
 5126.00    1.02092   1.00110   -1.000
 5127.00    1.01936   1.00096   -1.000
 5128.00    1.01934   1.00021   -1.000
 5129.00    1.02366   1.00097   -1.000
 5130.00    1.03020   1.00503   -1.000
 5131.00    1.03408   1.01159   -1.000
 5132.00    1.03719   1.01830   -1.000
 5133.00    1.03961   1.02391   -1.000
 5134.00    1.04704   1.02805   -1.000
 5135.00    1.05175   1.02919   -1.000
 5136.00    1.04589   1.02509   -1.000
 5137.00    1.03243   1.01583   -1.000
 5138.00    1.01419   1.00524  200.281
 5139.00    1.00452   0.99813  198.690
 5140.00    1.00764   0.99636  199.788
 5141.00    1.01029   0.99776  202.879
 5142.00    1.00637   0.99983  202.209
 5143.00    1.00811   1.00287  199.007
 5144.00    1.02160   1.00725   -1.000
 5145.00    1.02877   1.01057   -1.000
 5146.00    1.02507   1.01065   -1.000
 5147.00    1.02439   1.00911   -1.000
 5148.00    1.02919   1.00863   -1.000
 5149.00    1.03255   1.00854   -1.000
 5150.00    1.02664   1.00602   -1.000
 5151.00    1.01419   1.00075   -1.000
 5152.00    1.01094   0.99578   -1.000
 5153.00    1.01790   0.99453   -1.000
 5154.00    1.02577   0.99886   -1.000
 5155.00    1.03666   1.00879   -1.000
 5156.00    1.04987   1.02182   -1.000
 5157.00    1.06160   1.03379   -1.000
 5158.00    1.06572   1.04167   -1.000
 5159.00    1.06767   1.04481   -1.000
 5160.00    1.06590   1.04382   -1.000
 5161.00    1.06243   1.03940   -1.000
 5162.00    1.05462   1.03201   -1.000
 5163.00    1.05106   1.02041   -1.000
 5164.00    1.04010   0.99983   -1.000
 5165.00    1.00550   0.96519   -1.000
 5166.00    0.94863   0.92017   -1.000
 5167.00    0.89970   0.88101   -1.000
 5168.00    0.89438   0.86488   -1.000
 5169.00    0.92497   0.87223   -1.000
 5170.00    0.94975   0.88458   -1.000
 5171.00    0.93610   0.88549   -1.000
 5172.00    0.90310   0.88037   -1.000
 5173.00    0.90831   0.88911   -1.000
 5174.00    0.95723   0.92113   -1.000
 5175.00    1.01059   0.96427   -1.000
 5176.00    1.04266   0.99985   -1.000
 5177.00    1.05395   1.02003   -1.000
 5178.00    1.05719   1.02716   -1.000
 5179.00    1.05020   1.02374   -1.000
 5180.00    1.04026   1.00724   -1.000
 5181.00    1.01499   0.97451   -1.000
 5182.00    0.96283   0.93105   -1.000
 5183.00    0.91239   0.89506   -1.000
 5184.00    0.90711   0.88681   -1.000
 5185.00    0.95383   0.91001   -1.000
 5186.00    1.00813   0.94727   -1.000
 5187.00    1.03112   0.97731   -1.000
 5188.00    1.03098   0.99227   -1.000
 5189.00    1.02917   0.99607   -1.000
 5190.00    1.02652   0.99285   -1.000
 5191.00    1.01161   0.98452   -1.000
 5192.00    0.99303   0.97568   -1.000
 5193.00    0.99434   0.97221   -1.000
 5194.00    1.00419   0.97511   -1.000
 5195.00    1.00855   0.98078   -1.000
 5196.00    1.01829   0.98703   -1.000
 5197.00    1.02868   0.99491   -1.000
 5198.00    1.04046   1.00516   -1.000
 5199.00    1.04725   1.01558   -1.000
 5200.00    1.04942   1.02226   -1.000
 5201.00    1.05157   1.02194   -1.000
 5202.00    1.04245   1.01321   -1.000
 5203.00    1.02399   0.99698   -1.000
 5204.00    1.00313   0.97713   -1.000
 5205.00    0.98825   0.95981   -1.000
 5206.00    0.98291   0.94975   -1.000
 5207.00    0.98756   0.94703   -1.000
 5208.00    0.98379   0.94948   -1.000
 5209.00    0.98857   0.95743   -1.000
 5210.00    1.00835   0.97274   -1.000
 5211.00    1.03051   0.99357   -1.000
 5212.00    1.05479   1.01321   -1.000
 5213.00    1.06802   1.02417   -1.000
 5214.00    1.06100   1.02318   -1.000
 5215.00    1.04540   1.01399   -1.000
 5216.00    1.03228   1.00572   -1.000
 5217.00    1.03130   1.00632   -1.000
 5218.00    1.04794   1.01667   -1.000
 5219.00    1.06374   1.03114   -1.000
 5220.00    1.07148   1.04295   -1.000
 5221.00    1.07370   1.04817   -1.000
 5222.00    1.07174   1.04522   -1.000
 5223.00    1.05726   1.03268   -1.000
 5224.00    1.03211   1.00961   -1.000
 5225.00    1.00339   0.97948   -1.000
 5226.00    0.97551   0.95354   -1.000
 5227.00    0.97002   0.94564   -1.000
 5228.00    0.99523   0.95984   -1.000
 5229.00    1.02668   0.98515   -1.000
 5230.00    1.04839   1.00499   -1.000
 5231.00    1.05338   1.01054   -1.000
 5232.00    1.04466   1.00408   -1.000
 5233.00    1.03135   0.99473   -1.000
 5234.00    1.02680   0.99219   -1.000
 5235.00    1.04037   1.00029   -1.000
 5236.00    1.05679   1.01517   -1.000
 5237.00    1.06756   1.02977   -1.000
 5238.00    1.07052   1.03942   -1.000
 5239.00    1.07251   1.04372   -1.000
 5240.00    1.07312   1.04467   -1.000
 5241.00    1.07222   1.04434   -1.000
 5242.00    1.07341   1.04420   -1.000
 5243.00    1.07178   1.04508   -1.000
 5244.00    1.07161   1.04578   -1.000
 5245.00    1.06893   1.04305   -1.000
 5246.00    1.05507   1.03515   -1.000
 5247.00    1.03765   1.02464  194.152
 5248.00    1.03274   1.01568   -1.000
 5249.00    1.03023   1.01015   -1.000
 5250.00    1.02383   1.00794   -1.000
 5251.00    1.02320   1.00889   -1.000
 5252.00    1.03320   1.01196   -1.000
 5253.00    1.03951   1.01466   -1.000
 5254.00    1.03805   1.01621   -1.000
 5255.00    1.03997   1.01967   -1.000
 5256.00    1.05405   1.02808   -1.000
 5257.00    1.07053   1.03957   -1.000
 5258.00    1.07748   1.04787   -1.000
 5259.00    1.07636   1.04697   -1.000
 5260.00    1.06338   1.03454   -1.000
 5261.00    1.03937   1.01247   -1.000
 5262.00    1.01154   0.98571   -1.000
 5263.00    0.98784   0.96045   -1.000
 5264.00    0.97422   0.94210   -1.000
 5265.00    0.96876   0.93381   -1.000
 5266.00    0.97661   0.93406   -1.000
 5267.00    0.99271   0.93557   -1.000
 5268.00    0.98683   0.93093   -1.000
 5269.00    0.95772   0.92213   -1.000
 5270.00    0.94833   0.92094   -1.000
 5271.00    0.97903   0.93520   -1.000
 5272.00    1.01475   0.95801   -1.000
 5273.00    1.02805   0.97588   -1.000
 5274.00    1.02651   0.98409   -1.000
 5275.00    1.02442   0.98890   -1.000
 5276.00    1.03742   0.99842   -1.000
 5277.00    1.05547   1.01377   -1.000
 5278.00    1.06906   1.02822   -1.000
 5279.00    1.07634   1.03375   -1.000
 5280.00    1.06555   1.02815   -1.000
 5281.00    1.04769   1.01566   -1.000
 5282.00    1.03392   1.00307   -1.000
 5283.00    1.02796   0.99707   -1.000
 5284.00    1.03266   1.00231   -1.000
 5285.00    1.04950   1.01810   -1.000
 5286.00    1.07046   1.03740   -1.000
 5287.00    1.08201   1.05210   -1.000
 5288.00    1.08061   1.05953   -1.000
 5289.00    1.07976   1.06234   -1.000
 5290.00    1.08104   1.06323   -1.000
 5291.00    1.08094   1.06258   -1.000
 5292.00    1.07794   1.06034   -1.000
 5293.00    1.07604   1.05666   -1.000
 5294.00    1.07258   1.05030   -1.000
 5295.00    1.06299   1.03915   -1.000
 5296.00    1.04197   1.02351   -1.000
 5297.00    1.01995   1.00851  196.348
 5298.00    1.01594   1.00113   -1.000
 5299.00    1.03171   1.00360   -1.000
 5300.00    1.04297   1.01166   -1.000
 5301.00    1.04208   1.02013   -1.000
 5302.00    1.04371   1.02798   -1.000
 5303.00    1.05709   1.03671   -1.000
 5304.00    1.06974   1.04538   -1.000
 5305.00    1.07721   1.05060   -1.000
 5306.00    1.07253   1.05112   -1.000
 5307.00    1.06636   1.04975   -1.000
 5308.00    1.07058   1.05044   -1.000
 5309.00    1.07790   1.05420   -1.000
 5310.00    1.07928   1.05855   -1.000
 5311.00    1.07948   1.06044   -1.000
 5312.00    1.08150   1.05861   -1.000
 5313.00    1.07962   1.05310   -1.000
 5314.00    1.07570   1.04421   -1.000
 5315.00    1.06588   1.03335   -1.000
 5316.00    1.05453   1.02447   -1.000
 5317.00    1.05414   1.02244   -1.000
 5318.00    1.05984   1.02820   -1.000
 5319.00    1.06701   1.03697   -1.000
 5320.00    1.06960   1.04217   -1.000
 5321.00    1.06534   1.04019   -1.000
 5322.00    1.05614   1.03140   -1.000
 5323.00    1.04358   1.01906   -1.000
 5324.00    1.03602   1.00680   -1.000
 5325.00    1.03538   0.99462   -1.000
 5326.00    1.02413   0.97873   -1.000
 5327.00    0.98852   0.95911   -1.000
 5328.00    0.96109   0.94568   -1.000
 5329.00    0.97536   0.95031   -1.000
 5330.00    1.01388   0.97245   -1.000
 5331.00    1.04332   0.99867   -1.000
 5332.00    1.05153   1.01693   -1.000
 5333.00    1.05016   1.02580   -1.000
 5334.00    1.05714   1.02960   -1.000
 5335.00    1.06308   1.03079   -1.000
 5336.00    1.05757   1.02931   -1.000
 5337.00    1.05553   1.02498   -1.000
 5338.00    1.05272   1.01773   -1.000
 5339.00    1.03964   1.00841   -1.000
 5340.00    1.02536   1.00093   -1.000
 5341.00    1.02268   1.00074   -1.000
 5342.00    1.03934   1.00895   -1.000
 5343.00    1.05939   1.01980   -1.000
 5344.00    1.06158   1.02611   -1.000
 5345.00    1.05908   1.02574   -1.000
 5346.00    1.05356   1.02136   -1.000
 5347.00    1.04790   1.01657   -1.000
 5348.00    1.04819   1.01379   -1.000
 5349.00    1.04493   1.01469   -1.000
 5350.00    1.04936   1.02011   -1.000
 5351.00    1.06384   1.02862   -1.000
 5352.00    1.07103   1.03718   -1.000
 5353.00    1.07050   1.04411   -1.000
 5354.00    1.07687   1.05017   -1.000
 5355.00    1.08313   1.05617   -1.000
 5356.00    1.08552   1.06113   -1.000
 5357.00    1.08611   1.06369   -1.000
 5358.00    1.08691   1.06352   -1.000
 5359.00    1.08615   1.06068   -1.000
 5360.00    1.07815   1.05484   -1.000
 5361.00    1.06915   1.04599   -1.000
 5362.00    1.06222   1.03564   -1.000
 5363.00    1.05573   1.02624   -1.000
 5364.00    1.04879   1.01967   -1.000
 5365.00    1.04518   1.01647   -1.000
 5366.00    1.04693   1.01550   -1.000
 5367.00    1.05095   1.01369   -1.000
 5368.00    1.04713   1.00750   -1.000
 5369.00    1.03541   0.99586   -1.000
 5370.00    1.01587   0.98287   -1.000
 5371.00    1.00518   0.97688   -1.000
 5372.00    1.01636   0.98430   -1.000
 5373.00    1.04693   1.00317   -1.000
 5374.00    1.07109   1.02436   -1.000
 5375.00    1.08176   1.03937   -1.000
 5376.00    1.08138   1.04596   -1.000
 5377.00    1.07960   1.04659   -1.000
 5378.00    1.07645   1.04399   -1.000
 5379.00    1.07287   1.03923   -1.000
 5380.00    1.06436   1.03301   -1.000
 5381.00    1.05679   1.02694   -1.000
 5382.00    1.05300   1.02313   -1.000
 5383.00    1.05460   1.02310   -1.000
 5384.00    1.05524   1.02712   -1.000
 5385.00    1.06476   1.03364   -1.000
 5386.00    1.07426   1.03941   -1.000
 5387.00    1.07142   1.04129   -1.000
 5388.00    1.06677   1.03829   -1.000
 5389.00    1.06226   1.03170   -1.000
 5390.00    1.05363   1.02391   -1.000
 5391.00    1.05043   1.01690   -1.000
 5392.00    1.04607   1.01161   -1.000
 5393.00    1.04106   1.00787   -1.000
 5394.00    1.03787   1.00389   -1.000
 5395.00    1.03009   0.99713   -1.000
 5396.00    1.01686   0.98823   -1.000
 5397.00    1.01012   0.98272   -1.000
 5398.00    1.02214   0.98588   -1.000
 5399.00    1.04057   0.99647   -1.000
 5400.00    1.05181   1.00767   -1.000
 5401.00    1.05466   1.01304   -1.000
 5402.00    1.05091   1.00937   -1.000
 5403.00    1.03885   0.99672   -1.000
 5404.00    1.01409   0.97973   -1.000
 5405.00    0.99707   0.96704   -1.000
 5406.00    1.00544   0.96516   -1.000
 5407.00    1.02190   0.97237   -1.000
 5408.00    1.03065   0.98077   -1.000
 5409.00    1.02596   0.98530   -1.000
 5410.00    1.02576   0.98864   -1.000
 5411.00    1.03363   0.99542   -1.000
 5412.00    1.05003   1.00486   -1.000
 5413.00    1.05937   1.01229   -1.000
 5414.00    1.05210   1.01590   -1.000
 5415.00    1.04843   1.01846   -1.000
 5416.00    1.05610   1.02258   -1.000
 5417.00    1.06464   1.02711   -1.000
 5418.00    1.06221   1.02947   -1.000
 5419.00    1.06206   1.02904   -1.000
 5420.00    1.05753   1.02708   -1.000
 5421.00    1.05806   1.02426   -1.000
 5422.00    1.05852   1.01998   -1.000
 5423.00    1.04882   1.01470   -1.000
 5424.00    1.03859   1.01161   -1.000
 5425.00    1.03965   1.01395   -1.000
 5426.00    1.05039   1.01971   -1.000
 5427.00    1.05579   1.02139   -1.000
 5428.00    1.04237   1.01421   -1.000
 5429.00    1.01936   1.00268   -1.000
 5430.00    1.01215   0.99556   -1.000
 5431.00    1.02445   0.99552   -1.000
 5432.00    1.03046   0.99690   -1.000
 5433.00    1.02316   0.99444   -1.000
 5434.00    1.01340   0.99048   -1.000
 5435.00    1.01420   0.99178   -1.000
 5436.00    1.03091   1.00167   -1.000
 5437.00    1.04810   1.01718   -1.000
 5438.00    1.06271   1.03242   -1.000
 5439.00    1.07084   1.04320   -1.000
 5440.00    1.07268   1.04884   -1.000
 5441.00    1.07365   1.05052   -1.000
 5442.00    1.07314   1.04840   -1.000
 5443.00    1.06744   1.04073   -1.000
 5444.00    1.05253   1.02596   -1.000
 5445.00    1.02828   1.00650   -1.000
 5446.00    1.00806   0.99013   -1.000
 5447.00    1.00651   0.98549   -1.000
 5448.00    1.02729   0.99482   -1.000
 5449.00    1.05631   1.01164   -1.000
 5450.00    1.06700   1.02636   -1.000
 5451.00    1.06735   1.03313   -1.000
 5452.00    1.06218   1.03050   -1.000
 5453.00    1.05327   1.01953   -1.000
 5454.00    1.03345   1.00427   -1.000
 5455.00    1.01367   0.99270   -1.000
 5456.00    1.01384   0.99286   -1.000
 5457.00    1.03862   1.00541   -1.000
 5458.00    1.06162   1.02213   -1.000
 5459.00    1.07069   1.03322   -1.000
 5460.00    1.06037   1.03448   -1.000
 5461.00    1.05491   1.02782   -1.000
 5462.00    1.04419   1.01849   -1.000
 5463.00    1.03968   1.01226   -1.000
 5464.00    1.04216   1.01239   -1.000
 5465.00    1.05174   1.01761   -1.000
 5466.00    1.05269   1.02403   -1.000
 5467.00    1.05327   1.02899   -1.000
 5468.00    1.05352   1.03206   -1.000
 5469.00    1.05722   1.03331   -1.000
 5470.00    1.05601   1.03234   -1.000
 5471.00    1.05200   1.02910   -1.000
 5472.00    1.05025   1.02402   -1.000
 5473.00    1.04567   1.01692   -1.000
 5474.00    1.03570   1.00694   -1.000
 5475.00    1.01982   0.99466   -1.000
 5476.00    1.00802   0.98437   -1.000
 5477.00    1.00517   0.98218   -1.000
 5478.00    1.02194   0.98965   -1.000
 5479.00    1.04188   1.00084   -1.000
 5480.00    1.04463   1.00832   -1.000
 5481.00    1.03764   1.01087   -1.000
 5482.00    1.03571   1.01301   -1.000
 5483.00    1.04047   1.01823   -1.000
 5484.00    1.04954   1.02532   -1.000
 5485.00    1.05357   1.03014   -1.000
 5486.00    1.05149   1.02992   -1.000
 5487.00    1.04950   1.02586   -1.000
 5488.00    1.04227   1.02182   -1.000
 5489.00    1.04213   1.02078   -1.000
 5490.00    1.04607   1.02262   -1.000
 5491.00    1.04289   1.02534   -1.000
 5492.00    1.04829   1.02717   -1.000
 5493.00    1.05140   1.02748   -1.000
 5494.00    1.04961   1.02630   -1.000
 5495.00    1.04918   1.02347   -1.000
 5496.00    1.04473   1.01935   -1.000
 5497.00    1.03629   1.01600   -1.000
 5498.00    1.03398   1.01537   -1.000
 5499.00    1.04280   1.01614   -1.000
 5500.00    1.04258   1.01471   -1.000
 5501.00    1.03493   1.01038   -1.000
 5502.00    1.03349   1.00679   -1.000
 5503.00    1.03736   1.00655   -1.000
 5504.00    1.04363   1.00722   -1.000
 5505.00    1.03584   1.00518   -1.000
 5506.00    1.02434   1.00125   -1.000
 5507.00    1.02459   0.99988   -1.000
 5508.00    1.03701   1.00327   -1.000
 5509.00    1.04234   1.00824   -1.000
 5510.00    1.04443   1.00999   -1.000
 5511.00    1.03577   1.00708   -1.000
 5512.00    1.02513   1.00209   -1.000
 5513.00    1.02245   0.99904   -1.000
 5514.00    1.02278   1.00039   -1.000
 5515.00    1.03339   1.00589   -1.000
 5516.00    1.04572   1.01364   -1.000
 5517.00    1.05202   1.02171   -1.000
 5518.00    1.05681   1.02860   -1.000
 5519.00    1.06204   1.03299   -1.000
 5520.00    1.06014   1.03446   -1.000
 5521.00    1.05765   1.03394   -1.000
 5522.00    1.05645   1.03265   -1.000
 5523.00    1.05625   1.03030   -1.000
 5524.00    1.05411   1.02486   -1.000
 5525.00    1.04488   1.01453   -1.000
 5526.00    1.02918   1.00038   -1.000
 5527.00    1.01315   0.98747   -1.000
 5528.00    1.00800   0.98231   -1.000
 5529.00    1.01810   0.98781   -1.000
 5530.00    1.03562   1.00026   -1.000
 5531.00    1.04619   1.01179   -1.000
 5532.00    1.04562   1.01659   -1.000
 5533.00    1.04362   1.01466   -1.000
 5534.00    1.03847   1.01042   -1.000
 5535.00    1.03260   1.00876   -1.000
 5536.00    1.03841   1.01158   -1.000
 5537.00    1.04704   1.01713   -1.000
 5538.00    1.04968   1.02269   -1.000
 5539.00    1.05361   1.02704   -1.000
 5540.00    1.05831   1.02987   -1.000
 5541.00    1.05844   1.03042   -1.000
 5542.00    1.05350   1.02815   -1.000
 5543.00    1.04846   1.02433   -1.000
 5544.00    1.04443   1.02147   -1.000
 5545.00    1.04503   1.02118   -1.000
 5546.00    1.04723   1.02340   -1.000
 5547.00    1.04846   1.02738   -1.000
 5548.00    1.05250   1.03227   -1.000
 5549.00    1.05687   1.03651   -1.000
 5550.00    1.06194   1.03844   -1.000
 5551.00    1.05963   1.03753   -1.000
 5552.00    1.05495   1.03454   -1.000
 5553.00    1.05010   1.03091   -1.000
 5554.00    1.04927   1.02824   -1.000
 5555.00    1.04502   1.02755   -1.000
 5556.00    1.04771   1.02846   -1.000
 5557.00    1.05193   1.02971   -1.000
 5558.00    1.05225   1.03053   -1.000
 5559.00    1.05298   1.03065   -1.000
 5560.00    1.05492   1.02946   -1.000
 5561.00    1.05046   1.02642   -1.000
 5562.00    1.03991   1.02225   -1.000
 5563.00    1.03538   1.01854   -1.000
 5564.00    1.03165   1.01617   -1.000
 5565.00    1.03161   1.01461   -1.000
 5566.00    1.03265   1.01303   -1.000
 5567.00    1.03236   1.01123   -1.000
 5568.00    1.02906   1.00942   -1.000
 5569.00    1.02569   1.00795   -1.000
 5570.00    1.02611   1.00671   -1.000
 5571.00    1.02578   1.00503   -1.000
 5572.00    1.02252   1.00317   -1.000
 5573.00    1.01612   1.00305  184.238
 5574.00    1.00379   1.00581  182.700
 5575.00    1.07965   1.01006   -1.000
 5576.00    1.21466   1.01396   -1.000
 5577.00    1.26881   1.01725   -1.000
 5578.00    1.20214   1.02022   -1.000
 5579.00    1.10148   1.02227   -1.000
 5580.00    1.06385   1.02261   -1.000
 5581.00    1.04409   1.02157   -1.000
 5582.00    1.04062   1.02021   -1.000
 5583.00    1.04008   1.01819   -1.000
 5584.00    1.03902   1.01300   -1.000
 5585.00    1.02884   1.00236   -1.000
 5586.00    1.01139   0.98757   -1.000
 5587.00    0.99168   0.97382   -1.000
 5588.00    0.98159   0.96663   -1.000
 5589.00    0.98899   0.96810   -1.000
 5590.00    1.00343   0.97607   -1.000
 5591.00    1.01352   0.98565   -1.000
 5592.00    1.01836   0.99240   -1.000
 5593.00    1.01628   0.99550   -1.000
 5594.00    1.01247   0.99766   -1.000
 5595.00    1.02001   1.00103   -1.000
 5596.00    1.03033   1.00394   -1.000
 5597.00    1.02511   1.00315   -1.000
 5598.00    1.01087   0.99853  192.881
 5599.00    1.01210   0.99272   -1.000
 5600.00    1.01390   0.98736   -1.000
 5601.00    1.00899   0.98337   -1.000
 5602.00    1.00043   0.98354   -1.000
 5603.00    1.00565   0.99074   -1.000
 5604.00    1.02291   1.00403   -1.000
 5605.00    1.04254   1.01872   -1.000
 5606.00    1.05183   1.03001   -1.000
 5607.00    1.05332   1.03629   -1.000
 5608.00    1.05508   1.03893   -1.000
 5609.00    1.05278   1.04003  179.903
 5610.00    1.04739   1.04064  179.323
 5611.00    1.05200   1.03975  180.227
 5612.00    1.05473   1.03440   -1.000
 5613.00    1.04511   1.02232   -1.000
 5614.00    1.02284   1.00581   -1.000
 5615.00    1.00420   0.99245  193.157
 5616.00    1.00390   0.98939   -1.000
 5617.00    1.02071   0.99654   -1.000
 5618.00    1.03395   1.00725   -1.000
 5619.00    1.03658   1.01566   -1.000
 5620.00    1.03927   1.02046   -1.000
 5621.00    1.04255   1.02202   -1.000
 5622.00    1.03803   1.01990   -1.000
 5623.00    1.02741   1.01427   -1.000
 5624.00    1.01969   1.00816  190.863
 5625.00    1.01716   1.00596  187.532
 5626.00    1.02698   1.00932   -1.000
 5627.00    1.04067   1.01600   -1.000
 5628.00    1.04515   1.02261   -1.000
 5629.00    1.04833   1.02738   -1.000
 5630.00    1.05006   1.03021   -1.000
 5631.00    1.04961   1.03137   -1.000
 5632.00    1.05254   1.03080   -1.000
 5633.00    1.05251   1.02857   -1.000
 5634.00    1.04464   1.02510   -1.000
 5635.00    1.04173   1.02104   -1.000
 5636.00    1.03782   1.01720   -1.000
 5637.00    1.03565   1.01431   -1.000
 5638.00    1.03325   1.01260   -1.000
 5639.00    1.03208   1.01140   -1.000
 5640.00    1.03104   1.01003   -1.000
 5641.00    1.02968   1.00905   -1.000
 5642.00    1.03013   1.00970   -1.000
 5643.00    1.03348   1.01211   -1.000
 5644.00    1.03609   1.01521   -1.000
 5645.00    1.03779   1.01802   -1.000
 5646.00    1.04094   1.01998   -1.000
 5647.00    1.04180   1.02073   -1.000
 5648.00    1.04396   1.02030   -1.000
 5649.00    1.04435   1.01940   -1.000
 5650.00    1.04258   1.01909   -1.000
 5651.00    1.03953   1.01962   -1.000
 5652.00    1.04030   1.01982   -1.000
 5653.00    1.04142   1.01824   -1.000
 5654.00    1.03532   1.01416   -1.000
 5655.00    1.03133   1.00708   -1.000
 5656.00    1.02437   0.99681   -1.000
 5657.00    1.00763   0.98533   -1.000
 5658.00    0.99231   0.97768   -1.000
 5659.00    0.99292   0.97777   -1.000
 5660.00    1.00838   0.98376   -1.000
 5661.00    1.01605   0.99049   -1.000
 5662.00    1.01783   0.99571   -1.000
 5663.00    1.02144   1.00091   -1.000
 5664.00    1.02792   1.00667   -1.000
 5665.00    1.03563   1.01056   -1.000
 5666.00    1.03257   1.01046   -1.000
 5667.00    1.02606   1.00773   -1.000
 5668.00    1.02676   1.00575   -1.000
 5669.00    1.03031   1.00670   -1.000
 5670.00    1.03395   1.01042   -1.000
 5671.00    1.03776   1.01547   -1.000
 5672.00    1.04169   1.02018   -1.000
 5673.00    1.04611   1.02337   -1.000
 5674.00    1.04981   1.02477   -1.000
 5675.00    1.04631   1.02513   -1.000
 5676.00    1.04513   1.02537   -1.000
 5677.00    1.04696   1.02538   -1.000
 5678.00    1.04573   1.02418   -1.000
 5679.00    1.04422   1.02105   -1.000
 5680.00    1.04078   1.01585   -1.000
 5681.00    1.03953   1.00903   -1.000
 5682.00    1.03312   1.00210   -1.000
 5683.00    1.02470   0.99745   -1.000
 5684.00    1.02579   0.99641   -1.000
 5685.00    1.02771   0.99774   -1.000
 5686.00    1.02671   0.99891   -1.000
 5687.00    1.02469   0.99881   -1.000
 5688.00    1.02320   0.99881   -1.000
 5689.00    1.02618   1.00089   -1.000
 5690.00    1.03380   1.00553   -1.000
 5691.00    1.03997   1.01132   -1.000
 5692.00    1.03891   1.01630   -1.000
 5693.00    1.04270   1.01940   -1.000
 5694.00    1.04285   1.02077   -1.000
 5695.00    1.04087   1.02093   -1.000
 5696.00    1.03765   1.01999   -1.000
 5697.00    1.03126   1.01757   -1.000
 5698.00    1.02805   1.01346   -1.000
 5699.00    1.02441   1.00826   -1.000
 5700.00    1.01887   1.00337   -1.000
 5701.00    1.01354   1.00036   -1.000
 5702.00    1.01569   1.00018   -1.000
 5703.00    1.01865   1.00200   -1.000
 5704.00    1.02251   1.00318   -1.000
 5705.00    1.02021   1.00120   -1.000
 5706.00    1.01222   0.99562   -1.000
 5707.00    1.00517   0.98770   -1.000
 5708.00    0.99423   0.97940   -1.000
 5709.00    0.98417   0.97324  197.210
 5710.00    0.98372   0.97174  195.075
 5711.00    0.98929   0.97593   -1.000
 5712.00    1.00303   0.98469   -1.000
 5713.00    1.01639   0.99518   -1.000
 5714.00    1.02673   1.00426   -1.000
 5715.00    1.03173   1.01033   -1.000
 5716.00    1.03060   1.01389   -1.000
 5717.00    1.03177   1.01638   -1.000
 5718.00    1.03662   1.01888   -1.000
 5719.00    1.04006   1.02176   -1.000
 5720.00    1.03916   1.02471   -1.000
 5721.00    1.04050   1.02721  178.327
 5722.00    1.04460   1.02890   -1.000
 5723.00    1.04388   1.02946   -1.000
 5724.00    1.04242   1.02842   -1.000
 5725.00    1.04021   1.02550   -1.000
 5726.00    1.03340   1.02156  183.532
 5727.00    1.02641   1.01832  182.352
 5728.00    1.02765   1.01694  181.267
 5729.00    1.03670   1.01699   -1.000
 5730.00    1.03558   1.01727   -1.000
 5731.00    1.03187   1.01743   -1.000
 5732.00    1.03085   1.01841  180.168
 5733.00    1.03417   1.02092  179.089
 5734.00    1.03970   1.02396   -1.000
 5735.00    1.04164   1.02583   -1.000
 5736.00    1.03683   1.02604  180.133
 5737.00    1.03530   1.02542  180.224
 5738.00    1.03789   1.02489  180.648
 5739.00    1.03911   1.02463   -1.000
 5740.00    1.03638   1.02424  181.327
 5741.00    1.03638   1.02347  180.821
 5742.00    1.03650   1.02279   -1.000
 5743.00    1.03385   1.02299  179.239
 5744.00    1.03673   1.02389  178.319
 5745.00    1.04010   1.02421   -1.000
 5746.00    1.03983   1.02298   -1.000
 5747.00    1.03211   1.02103  181.893
 5748.00    1.03139   1.02011  180.680
 5749.00    1.02828   1.02053  180.188
 5750.00    1.03256   1.02014  181.776
 5751.00    1.02877   1.01661  184.049
 5752.00    1.01974   1.01049  185.851
 5753.00    1.01252   1.00539  185.654
 5754.00    1.01723   1.00500  183.096
 5755.00    1.02534   1.00993   -1.000
 5756.00    1.03321   1.01744   -1.000
 5757.00    1.03859   1.02382   -1.000
 5758.00    1.04091   1.02646   -1.000
 5759.00    1.03745   1.02460  182.871
 5760.00    1.03092   1.01931  185.386
 5761.00    1.02556   1.01320  186.166
 5762.00    1.01994   1.00969  183.922
 5763.00    1.01981   1.01126  180.539
 5764.00    1.03064   1.01735  178.434
 5765.00    1.03740   1.02451  178.007
 5766.00    1.03908   1.02938  177.841
 5767.00    1.04151   1.03103  177.525
 5768.00    1.04023   1.03039  177.951
 5769.00    1.04007   1.02863  178.554
 5770.00    1.04034   1.02643   -1.000
 5771.00    1.03926   1.02402   -1.000
 5772.00    1.03546   1.02155   -1.000
 5773.00    1.03284   1.01926   -1.000
 5774.00    1.03614   1.01762   -1.000
 5775.00    1.03446   1.01712   -1.000
 5776.00    1.03070   1.01742  179.825
 5777.00    1.03225   1.01683   -1.000
 5778.00    1.03204   1.01350   -1.000
 5779.00    1.02508   1.00724   -1.000
 5780.00    1.01902   0.99983   -1.000
 5781.00    1.01568   0.99382   -1.000
 5782.00    1.01641   0.99083   -1.000
 5783.00    1.02003   0.99064   -1.000
 5784.00    1.02048   0.99206   -1.000
 5785.00    1.02248   0.99457   -1.000
 5786.00    1.02563   0.99837   -1.000
 5787.00    1.02992   1.00302   -1.000
 5788.00    1.03136   1.00693   -1.000
 5789.00    1.03199   1.00870   -1.000
 5790.00    1.03023   1.00861   -1.000
 5791.00    1.03127   1.00868   -1.000
 5792.00    1.03212   1.01079   -1.000
 5793.00    1.03758   1.01488   -1.000
 5794.00    1.03990   1.01908   -1.000
 5795.00    1.04021   1.02131   -1.000
 5796.00    1.03645   1.02084   -1.000
 5797.00    1.03211   1.01911  179.318
 5798.00    1.03390   1.01870   -1.000
 5799.00    1.03733   1.02084   -1.000
 5800.00    1.04061   1.02427   -1.000
 5801.00    1.04374   1.02674   -1.000
 5802.00    1.04434   1.02681   -1.000
 5803.00    1.03864   1.02452   -1.000
 5804.00    1.03461   1.02132  179.396
 5805.00    1.03393   1.01915   -1.000
 5806.00    1.03583   1.01903   -1.000
 5807.00    1.03793   1.02056   -1.000
 5808.00    1.03751   1.02264   -1.000
 5809.00    1.03704   1.02456  177.528
 5810.00    1.04203   1.02615   -1.000
 5811.00    1.04690   1.02712   -1.000
 5812.00    1.04949   1.02687   -1.000
 5813.00    1.05047   1.02501   -1.000
 5814.00    1.04542   1.02194   -1.000
 5815.00    1.03900   1.01915   -1.000
 5816.00    1.03814   1.01858   -1.000
 5817.00    1.04493   1.02098   -1.000
 5818.00    1.05052   1.02506   -1.000
 5819.00    1.04876   1.02861   -1.000
 5820.00    1.04863   1.03047   -1.000
 5821.00    1.05220   1.03091   -1.000
 5822.00    1.05088   1.03078   -1.000
 5823.00    1.04851   1.03059   -1.000
 5824.00    1.04929   1.03050   -1.000
 5825.00    1.04918   1.03058   -1.000
 5826.00    1.05158   1.03094   -1.000
 5827.00    1.05125   1.03159   -1.000
 5828.00    1.05159   1.03232   -1.000
 5829.00    1.05465   1.03278   -1.000
 5830.00    1.05405   1.03268   -1.000
 5831.00    1.05070   1.03193   -1.000
 5832.00    1.04962   1.03053   -1.000
 5833.00    1.04972   1.02866   -1.000
 5834.00    1.04690   1.02703   -1.000
 5835.00    1.04921   1.02643   -1.000
 5836.00    1.04697   1.02709   -1.000
 5837.00    1.04660   1.02848   -1.000
 5838.00    1.04675   1.03001   -1.000
 5839.00    1.05079   1.03143   -1.000
 5840.00    1.04977   1.03258   -1.000
 5841.00    1.05412   1.03305   -1.000
 5842.00    1.04967   1.03242   -1.000
 5843.00    1.04967   1.03064   -1.000
 5844.00    1.05264   1.02798   -1.000
 5845.00    1.04836   1.02491   -1.000
 5846.00    1.04477   1.02212   -1.000
 5847.00    1.04374   1.02035   -1.000
 5848.00    1.04210   1.01967   -1.000
 5849.00    1.04348   1.01903   -1.000
 5850.00    1.04599   1.01685   -1.000
 5851.00    1.04416   1.01239   -1.000
 5852.00    1.03442   1.00666   -1.000
 5853.00    1.02516   1.00165   -1.000
 5854.00    1.02659   0.99811   -1.000
 5855.00    1.02799   0.99451   -1.000
 5856.00    1.02354   0.98952   -1.000
 5857.00    1.01696   0.98485   -1.000
 5858.00    1.01501   0.98399   -1.000
 5859.00    1.02412   0.98799   -1.000
 5860.00    1.03255   0.99450   -1.000
 5861.00    1.03689   1.00049   -1.000
 5862.00    1.03659   1.00478   -1.000
 5863.00    1.03574   1.00753   -1.000
 5864.00    1.03870   1.00866   -1.000
 5865.00    1.03585   1.00795   -1.000
 5866.00    1.03197   1.00647   -1.000
 5867.00    1.03188   1.00628   -1.000
 5868.00    1.03653   1.00845   -1.000
 5869.00    1.04075   1.01211   -1.000
 5870.00    1.04206   1.01540   -1.000
 5871.00    1.04260   1.01692   -1.000
 5872.00    1.04500   1.01648   -1.000
 5873.00    1.04539   1.01487   -1.000
 5874.00    1.04330   1.01293   -1.000
 5875.00    1.04388   1.01104   -1.000
 5876.00    1.04517   1.00917   -1.000
 5877.00    1.04466   1.00697   -1.000
 5878.00    1.03979   1.00417   -1.000
 5879.00    1.02997   1.00104   -1.000
 5880.00    1.02539   0.99814   -1.000
 5881.00    1.02598   0.99547   -1.000
 5882.00    1.02355   0.99247   -1.000
 5883.00    1.02270   0.98897   -1.000
 5884.00    1.02197   0.98520   -1.000
 5885.00    1.01654   0.97972   -1.000
 5886.00    1.00147   0.96769   -1.000
 5887.00    0.97718   0.94398   -1.000
 5888.00    0.94309   0.91074   -1.000
 5889.00    0.92131   0.88063   -1.000
 5890.00    0.92538   0.86829   -1.000
 5891.00    0.94774   0.87643   -1.000
 5892.00    0.96783   0.89270   -1.000
 5893.00    0.97145   0.90130   -1.000
 5894.00    0.95797   0.89682   -1.000
 5895.00    0.94327   0.88765   -1.000
 5896.00    0.94673   0.88700   -1.000
 5897.00    0.96582   0.90032   -1.000
 5898.00    0.98919   0.92199   -1.000
 5899.00    0.99870   0.94338   -1.000
 5900.00    1.00902   0.96025   -1.000
 5901.00    1.02064   0.97244   -1.000
 5902.00    1.01993   0.98074   -1.000
 5903.00    1.02384   0.98580   -1.000
 5904.00    1.02266   0.98852   -1.000
 5905.00    1.02088   0.99010   -1.000
 5906.00    1.02306   0.99154   -1.000
 5907.00    1.02106   0.99320   -1.000
 5908.00    1.02169   0.99494   -1.000
 5909.00    1.02034   0.99629   -1.000
 5910.00    1.02324   0.99659   -1.000
 5911.00    1.02580   0.99505   -1.000
 5912.00    1.02357   0.99115   -1.000
 5913.00    1.01275   0.98557   -1.000
 5914.00    1.00487   0.98042   -1.000
 5915.00    1.00274   0.97784   -1.000
 5916.00    1.00506   0.97848   -1.000
 5917.00    1.00924   0.98156   -1.000
 5918.00    1.00684   0.98565   -1.000
 5919.00    1.01097   0.98926   -1.000
 5920.00    1.01387   0.99140   -1.000
 5921.00    1.01400   0.99207   -1.000
 5922.00    1.01499   0.99212   -1.000
 5923.00    1.01624   0.99265   -1.000
 5924.00    1.02123   0.99416   -1.000
 5925.00    1.02597   0.99605   -1.000
 5926.00    1.02861   0.99696   -1.000
 5927.00    1.02443   0.99572   -1.000
 5928.00    1.02058   0.99249   -1.000
 5929.00    1.01623   0.98915   -1.000
 5930.00    1.01262   0.98792   -1.000
 5931.00    1.01794   0.98915   -1.000
 5932.00    1.02245   0.99101   -1.000
 5933.00    1.02225   0.99170   -1.000
 5934.00    1.02073   0.99147   -1.000
 5935.00    1.01444   0.99190   -1.000
 5936.00    1.01581   0.99363   -1.000
 5937.00    1.02362   0.99541   -1.000
 5938.00    1.02052   0.99555   -1.000
 5939.00    1.01275   0.99354   -1.000
 5940.00    1.00843   0.99037   -1.000
 5941.00    1.00725   0.98770   -1.000
 5942.00    1.00487   0.98680   -1.000
 5943.00    1.00506   0.98786   -1.000
 5944.00    1.00884   0.98985   -1.000
 5945.00    1.01285   0.99105   -1.000
 5946.00    1.01276   0.99028   -1.000
 5947.00    1.00676   0.98797   -1.000
 5948.00    1.00224   0.98599   -1.000
 5949.00    1.00070   0.98582   -1.000
 5950.00    1.00208   0.98698   -1.000
 5951.00    1.01062   0.98793   -1.000
 5952.00    1.01138   0.98802   -1.000
 5953.00    1.01154   0.98781   -1.000
 5954.00    1.00655   0.98757   -1.000
 5955.00    1.00474   0.98683   -1.000
 5956.00    1.00078   0.98577   -1.000
 5957.00    1.00077   0.98570   -1.000
 5958.00    1.00712   0.98762   -1.000
 5959.00    1.01832   0.99117   -1.000
 5960.00    1.02235   0.99501   -1.000
 5961.00    1.02234   0.99790   -1.000
 5962.00    1.02323   0.99907   -1.000
 5963.00    1.02108   0.99837   -1.000
 5964.00    1.01596   0.99631   -1.000
 5965.00    1.01315   0.99408   -1.000
 5966.00    1.00830   0.99291   -1.000
 5967.00    1.01392   0.99326   -1.000
 5968.00    1.01546   0.99472   -1.000
 5969.00    1.02000   0.99665   -1.000
 5970.00    1.02346   0.99855   -1.000
 5971.00    1.02286   0.99988   -1.000
 5972.00    1.02530   1.00000   -1.000
 5973.00    1.02096   0.99838   -1.000
 5974.00    1.01273   0.99492   -1.000
 5975.00    1.00566   0.99039   -1.000
 5976.00    1.00132   0.98650   -1.000
 5977.00    1.00255   0.98490   -1.000
 5978.00    1.00604   0.98607   -1.000
 5979.00    1.01068   0.98898   -1.000
 5980.00    1.01461   0.99143   -1.000
 5981.00    1.01506   0.99133   -1.000
 5982.00    1.00942   0.98820   -1.000
 5983.00    1.00233   0.98368   -1.000
 5984.00    0.99685   0.98048   -1.000
 5985.00    0.99986   0.98031   -1.000
 5986.00    1.00312   0.98276   -1.000
 5987.00    1.00540   0.98609   -1.000
 5988.00    1.00514   0.98866   -1.000
 5989.00    1.00662   0.98977   -1.000
 5990.00    1.00735   0.98989   -1.000
 5991.00    1.00922   0.99043   -1.000
 5992.00    1.00814   0.99247   -1.000
 5993.00    1.00915   0.99539   -1.000
 5994.00    1.01557   0.99720   -1.000
 5995.00    1.01216   0.99654   -1.000
 5996.00    1.00638   0.99398  184.073
 5997.00    1.00567   0.99138   -1.000
 5998.00    1.00683   0.99017   -1.000
 5999.00    1.00642   0.99023   -1.000
 6000.00    1.00579   0.99030   -1.000
 6001.00    1.00695   0.98946   -1.000
 6002.00    1.00286   0.98798   -1.000
 6003.00    0.99923   0.98676  185.270
 6004.00    0.99730   0.98584  185.507
 6005.00    0.99814   0.98408   -1.000
 6006.00    0.99835   0.98085   -1.000
 6007.00    0.99142   0.97764   -1.000
 6008.00    0.98899   0.97702  186.188
 6009.00    0.99113   0.97975  184.340
 6010.00    0.99725   0.98362   -1.000
 6011.00    1.00276   0.98571   -1.000
 6012.00    1.00297   0.98536   -1.000
 6013.00    1.00053   0.98414   -1.000
 6014.00    0.99609   0.98349  186.146
 6015.00    0.99687   0.98333   -1.000
 6016.00    0.99430   0.98289  187.342
 6017.00    0.99731   0.98175   -1.000
 6018.00    0.99566   0.97987   -1.000
 6019.00    0.98724   0.97759  188.766
 6020.00    0.98551   0.97577  187.724
 6021.00    0.98620   0.97523  186.411
 6022.00    0.98635   0.97607  186.155
 6023.00    0.99068   0.97793  185.916
 6024.00    0.98915   0.98067  184.655
 6025.00    0.99151   0.98404  184.226
 6026.00    0.99501   0.98745  182.932
 6027.00    0.99887   0.99042  182.218
 6028.00    0.99680   0.99289  182.039
 6029.00    1.00058   0.99488  182.124
 6030.00    1.00159   0.99636  182.608
 6031.00    1.00119   0.99744  182.143
 6032.00    1.00374   0.99837  181.272
 6033.00    1.00580   0.99936  180.880
 6034.00    1.00832   1.00036  180.851
 6035.00    1.00629   1.00098  180.459
 6036.00    1.00490   1.00072  180.756
 6037.00    1.00414   0.99941  181.916
 6038.00    1.00077   0.99726  182.150
 6039.00    0.99957   0.99461  182.791
 6040.00    1.00069   0.99168  182.226
 6041.00    0.99764   0.98863  182.036
 6042.00    0.99854   0.98641  180.973
 6043.00    0.99762   0.98681  179.465
 6044.00    1.00304   0.99029  179.834
 6045.00    0.99971   0.99485  179.820
 6046.00    0.99962   0.99830  179.478
 6047.00    1.00275   1.00003  179.741
 6048.00    0.99863   1.00042  180.436
 6049.00    1.00024   0.99997  180.790
 6050.00    1.00032   0.99916  180.923
 6051.00    1.00071   0.99808  181.305
 6052.00    0.99722   0.99642  182.110
 6053.00    0.99765   0.99397  182.624
 6054.00    0.99728   0.99113  183.728
 6055.00    0.99202   0.98873  184.191
 6056.00    0.99004   0.98769  183.753
 6057.00    0.98855   0.98833  182.686
 6058.00    0.99578   0.99014  181.770
 6059.00    0.99150   0.99201  182.170
 6060.00    1.03814   0.99267   -1.000
 6061.00    1.01905   0.99106   -1.000
 6062.00    0.98048   0.98688  189.320
 6063.00    1.00555   0.98107   -1.000
 6064.00    0.63164   0.97594   -1.000
 6065.00    0.66399   0.97434   -1.000
 6066.00    1.00505   0.97753   -1.000
 6067.00    0.97843   0.98381  182.279
 6068.00    0.98888   0.99007  182.513
 6069.00    1.00862   0.99445   -1.000
 6070.00    1.00777   0.99694  175.038
 6071.00    0.99345   0.99833  179.754
 6072.00    0.99387   0.99918  180.437
 6073.00    0.99566   0.99946  180.538
 6074.00    0.99582   0.99875  181.230
 6075.00    0.99370   0.99673  182.214
 6076.00    0.98794   0.99353  183.267
 6077.00    0.98226   0.98987  184.757
 6078.00    0.97848   0.98682  185.826
 6079.00    0.97859   0.98495  185.774
 6080.00    0.97814   0.98383  185.979
 6081.00    0.97578   0.98261  186.569
 6082.00    0.97529   0.98113  186.459
 6083.00    0.97210   0.98003  186.318
 6084.00    0.97433   0.97986  186.111
 6085.00    0.97674   0.98073  185.516
 6086.00    0.97626   0.98233  184.741
 6087.00    0.97772   0.98386  185.285
 6088.00    0.97822   0.98433  186.508
 6089.00    0.97493   0.98336  187.229
 6090.00    0.97237   0.98167  187.005
 6091.00    0.97095   0.98056  185.648
 6092.00    0.97216   0.98094  184.788
 6093.00    0.97653   0.98277  183.709
 6094.00    0.97991   0.98528  182.958
 6095.00    0.97890   0.98773  183.152
 6096.00    0.98066   0.98973  183.653
 6097.00    0.98114   0.99100  183.710
 6098.00    0.97866   0.99061  183.723
 6099.00    0.98052   0.98690  186.272
 6100.00    0.97352   0.97886  191.177
 6101.00    0.95897   0.96824  193.935
 6102.00    0.94639   0.95983  191.899
 6103.00    0.94976   0.95817  187.976
 6104.00    0.96170   0.96350  185.300
 6105.00    0.97139   0.97190  184.966
 6106.00    0.97312   0.97930  185.833
 6107.00    0.97057   0.98437  186.225
 6108.00    0.96895   0.98768  186.076
 6109.00    0.96991   0.98965   -1.000
 6110.00    0.97180   0.99022  184.758
 6111.00    0.96968   0.98977   -1.000
 6112.00    0.97557   0.98926  183.698
 6113.00    0.97643   0.98925  183.366
 6114.00    0.97443   0.98948  184.239
 6115.00    0.96995   0.98945  185.513
 6116.00    0.97056   0.98888  185.620
 6117.00    0.96843   0.98715  186.655
 6118.00    0.96915   0.98292  189.627
 6119.00    0.96114   0.97521  192.003
 6120.00    0.94935   0.96506  193.735
 6121.00    0.94340   0.95612  193.629
 6122.00    0.94050   0.95280  190.041
 6123.00    0.94687   0.95648  187.771
 6124.00    0.95468   0.96411  188.047
 6125.00    0.96074   0.97109  189.264
 6126.00    0.96235   0.97470  188.802
 6127.00    0.95893   0.97518  188.387
 6128.00    0.95663   0.97507  186.674
 6129.00    0.96215   0.97711  184.910
 6130.00    0.96554   0.98154  184.736
 6131.00    0.96656   0.98600   -1.000
 6132.00    0.96696   0.98743   -1.000
 6133.00    0.95984   0.98322   -1.000
 6134.00    0.94839   0.97218   -1.000
 6135.00    0.93260   0.95660   -1.000
 6136.00    0.91370   0.94286   -1.000
 6137.00    0.90750   0.93719   -1.000
 6138.00    0.91949   0.93993   -1.000
 6139.00    0.93816   0.94583  189.354
 6140.00    0.94719   0.95045  189.977
 6141.00    0.94139   0.95437  190.218
 6142.00    0.94101   0.96012  187.967
 6143.00    0.94766   0.96760   -1.000
 6144.00    0.95742   0.97392  185.748
 6145.00    0.96345   0.97658  186.739
 6146.00    0.95837   0.97549  187.962
 6147.00    0.95585   0.97234  189.343
 6148.00    0.95430   0.96933  190.391
 6149.00    0.95182   0.96803  190.240
 6150.00    0.94961   0.96883   -1.000
 6151.00    0.94612   0.97085   -1.000
 6152.00    0.95195   0.97241   -1.000
 6153.00    0.95796   0.97218  189.869
 6154.00    0.95956   0.97015  190.698
 6155.00    0.95774   0.96750  190.736
 6156.00    0.95504   0.96523  191.665
 6157.00    0.95581   0.96283  193.903
 6158.00    0.94994   0.95819  197.869
 6159.00    0.94234   0.94887  204.205
 6160.00    0.93204   0.93494  209.987
 6161.00    0.91392   0.92089  211.339
 6162.00    0.90086   0.91313  207.490
 6163.00    0.90387   0.91469  201.477
 6164.00    0.91952   0.92289  198.847
 6165.00    0.93200   0.93219  198.281
 6166.00    0.93286   0.93807  199.002
 6167.00    0.93139   0.93878  201.898
 6168.00    0.92390   0.93588  203.744
 6169.00    0.91462   0.93347   -1.000
 6170.00    0.91867   0.93519  197.487
 6171.00    0.93026   0.94112  194.990
 6172.00    0.93555   0.94847  195.595
 6173.00    0.93533   0.95465   -1.000
 6174.00    0.93988   0.95881   -1.000
 6175.00    0.94571   0.96123  194.756
 6176.00    0.94386   0.96264   -1.000
 6177.00    0.94314   0.96367   -1.000
 6178.00    0.94676   0.96461  192.521
 6179.00    0.94664   0.96555  191.906
 6180.00    0.94625   0.96677   -1.000
 6181.00    0.94692   0.96831   -1.000
 6182.00    0.94811   0.96963   -1.000
 6183.00    0.95206   0.96998  191.811
 6184.00    0.94880   0.96894   -1.000
 6185.00    0.94816   0.96655  195.688
 6186.00    0.94678   0.96311  197.674
 6187.00    0.94292   0.95878  199.525
 6188.00    0.93533   0.95317   -1.000
 6189.00    0.92988   0.94614  203.751
 6190.00    0.92276   0.93951  204.713
 6191.00    0.91215   0.93680   -1.000
 6192.00    0.91327   0.94015   -1.000
 6193.00    0.92821   0.94793   -1.000
 6194.00    0.94164   0.95639  192.745
 6195.00    0.94558   0.96269  192.597
 6196.00    0.94411   0.96572   -1.000
 6197.00    0.94141   0.96542   -1.000
 6198.00    0.93529   0.96286   -1.000
 6199.00    0.92658   0.96032   -1.000
 6200.00    0.92359   0.96011   -1.000
 6201.00    0.92738   0.96273   -1.000
 6202.00    0.93491   0.96681   -1.000
 6203.00    0.94196   0.97060   -1.000
 6204.00    0.94337   0.97319   -1.000
 6205.00    0.94247   0.97458   -1.000
 6206.00    0.94288   0.97515   -1.000
 6207.00    0.94141   0.97508   -1.000
 6208.00    0.93906   0.97421   -1.000
 6209.00    0.93922   0.97209   -1.000
 6210.00    0.93819   0.96821   -1.000
 6211.00    0.93044   0.96239   -1.000
 6212.00    0.92453   0.95533   -1.000
 6213.00    0.91712   0.94878   -1.000
 6214.00    0.90959   0.94451   -1.000
 6215.00    0.91302   0.94303   -1.000
 6216.00    0.91432   0.94317   -1.000
 6217.00    0.92123   0.94319   -1.000
 6218.00    0.91978   0.94247   -1.000
 6219.00    0.91134   0.94195   -1.000
 6220.00    0.91140   0.94298   -1.000
 6221.00    0.92434   0.94568   -1.000
 6222.00    0.92731   0.94883   -1.000
 6223.00    0.93061   0.95124   -1.000
 6224.00    0.92568   0.95264   -1.000
 6225.00    0.92357   0.95306   -1.000
 6226.00    0.92489   0.95188   -1.000
 6227.00    0.92364   0.94795   -1.000
 6228.00    0.91784   0.94083   -1.000
 6229.00    0.90517   0.93225   -1.000
 6230.00    0.89407   0.92581   -1.000
 6231.00    0.89243   0.92472   -1.000
 6232.00    0.89571   0.92946   -1.000
 6233.00    0.91164   0.93743   -1.000
 6234.00    0.92222   0.94470   -1.000
 6235.00    0.92162   0.94828   -1.000
 6236.00    0.92592   0.94749   -1.000
 6237.00    0.91898   0.94381   -1.000
 6238.00    0.91322   0.93964   -1.000
 6239.00    0.91180   0.93672   -1.000
 6240.00    0.90588   0.93517   -1.000
 6241.00    0.90421   0.93371   -1.000
 6242.00    0.89902   0.93099   -1.000
 6243.00    0.89551   0.92687   -1.000
 6244.00    0.89284   0.92272   -1.000
 6245.00    0.89386   0.92074   -1.000
 6246.00    0.89881   0.92263   -1.000
 6247.00    0.90268   0.92818   -1.000
 6248.00    0.90880   0.93483   -1.000
 6249.00    0.90935   0.93898   -1.000
 6250.00    0.90684   0.93826   -1.000
 6251.00    0.89900   0.93315   -1.000
 6252.00    0.88553   0.92656   -1.000
 6253.00    0.87960   0.92154   -1.000
 6254.00    0.87888   0.91919   -1.000
 6255.00    0.87820   0.91865   -1.000
 6256.00    0.87626   0.91873   -1.000
 6257.00    0.87611   0.91930   -1.000
 6258.00    0.87675   0.92125   -1.000
 6259.00    0.88375   0.92530   -1.000
 6260.00    0.89298   0.93113   -1.000
 6261.00    0.89836   0.93741   -1.000
 6262.00    0.90061   0.94243   -1.000
 6263.00    0.90301   0.94513   -1.000
 6264.00    0.90236   0.94586   -1.000
 6265.00    0.89692   0.94609   -1.000
 6266.00    0.89529   0.94671   -1.000
 6267.00    0.90185   0.94721   -1.000
 6268.00    0.90377   0.94662   -1.000
 6269.00    0.90085   0.94505   -1.000
 6270.00    0.90020   0.94357   -1.000
 6271.00    0.89821   0.94271   -1.000
 6272.00    0.89928   0.94156   -1.000
 6273.00    0.89525   0.93855   -1.000
 6274.00    0.88457   0.93288   -1.000
 6275.00    0.86903   0.92529   -1.000
 6276.00    0.85401   0.91751   -1.000
 6277.00    0.84755   0.91119   -1.000
 6278.00    0.84825   0.90739   -1.000
 6279.00    0.85265   0.90676   -1.000
 6280.00    0.85747   0.90960   -1.000
 6281.00    0.86219   0.91559   -1.000
 6282.00    0.87365   0.92346   -1.000
 6283.00    0.88335   0.93138   -1.000
 6284.00    0.88803   0.93790   -1.000
 6285.00    0.89383   0.94250   -1.000
 6286.00    0.89718   0.94531   -1.000
 6287.00    0.89801   0.94631   -1.000
 6288.00    0.89787   0.94533   -1.000
 6289.00    0.89497   0.94265   -1.000
 6290.00    0.88637   0.93943   -1.000
 6291.00    0.88413   0.93694   -1.000
 6292.00    0.88482   0.93560   -1.000
 6293.00    0.88324   0.93472   -1.000
 6294.00    0.88048   0.93313   -1.000
 6295.00    0.87933   0.93028   -1.000
 6296.00    0.88058   0.92679   -1.000
 6297.00    0.88178   0.92383   -1.000
 6298.00    0.88857   0.92185   -1.000
 6299.00    0.90424   0.92035  205.281
 6300.00    0.90338   0.91913  207.415
 6301.00    0.88411   0.91925   -1.000
 6302.00    0.87129   0.92200   -1.000
 6303.00    0.87810   0.92719   -1.000
 6304.00    0.88235   0.93312   -1.000
 6305.00    0.88424   0.93814   -1.000
 6306.00    0.89059   0.94162   -1.000
 6307.00    0.89629   0.94367   -1.000
 6308.00    0.89723   0.94451   -1.000
 6309.00    0.89434   0.94428   -1.000
 6310.00    0.88833   0.94322   -1.000
 6311.00    0.88679   0.94144   -1.000
 6312.00    0.88731   0.93892   -1.000
 6313.00    0.88155   0.93569   -1.000
 6314.00    0.87477   0.93211   -1.000
 6315.00    0.87345   0.92863   -1.000
 6316.00    0.87443   0.92577   -1.000
 6317.00    0.87505   0.92444   -1.000
 6318.00    0.87438   0.92569   -1.000
 6319.00    0.87953   0.92955   -1.000
 6320.00    0.88524   0.93461   -1.000
 6321.00    0.88857   0.93943   -1.000
 6322.00    0.88786   0.94364   -1.000
 6323.00    0.88820   0.94737   -1.000
 6324.00    0.89358   0.95028   -1.000
 6325.00    0.89841   0.95181   -1.000
 6326.00    0.89855   0.95200   -1.000
 6327.00    0.89719   0.95147   -1.000
 6328.00    0.89434   0.95087   -1.000
 6329.00    0.89691   0.95059   -1.000
 6330.00    0.89959   0.95067   -1.000
 6331.00    0.89738   0.95049   -1.000
 6332.00    0.90772   0.94870   -1.000
 6333.00    0.93752   0.94422  195.885
 6334.00    0.89215   0.93786   -1.000
 6335.00    0.87813   0.93238   -1.000
 6336.00    0.87417   0.93045   -1.000
 6337.00    0.88049   0.93254   -1.000
 6338.00    0.88905   0.93702   -1.000
 6339.00    0.89736   0.94173   -1.000
 6340.00    0.89795   0.94509   -1.000
 6341.00    0.90376   0.94629   -1.000
 6342.00    0.89920   0.94535   -1.000
 6343.00    0.89526   0.94313   -1.000
 6344.00    0.89333   0.94090   -1.000
 6345.00    0.89534   0.93990   -1.000
 6346.00    0.89843   0.94097   -1.000
 6347.00    0.90048   0.94422   -1.000
 6348.00    0.90327   0.94876   -1.000
 6349.00    0.90344   0.95304   -1.000
 6350.00    0.90320   0.95560   -1.000
 6351.00    0.90179   0.95575   -1.000
 6352.00    0.90203   0.95374   -1.000
 6353.00    0.89994   0.95055   -1.000
 6354.00    0.89564   0.94739   -1.000
 6355.00    0.89057   0.94485   -1.000
 6356.00    0.89079   0.94257   -1.000
 6357.00    0.88727   0.94001   -1.000
 6358.00    0.88473   0.93720   -1.000
 6359.00    0.88473   0.93455   -1.000
 6360.00    0.88756   0.93230   -1.000
 6361.00    0.89399   0.93073   -1.000
 6362.00    0.89969   0.93044   -1.000
 6363.00    0.89926   0.93190   -1.000
 6364.00    0.89818   0.93486   -1.000
 6365.00    0.89710   0.93845   -1.000
 6366.00    0.89480   0.94166   -1.000
 6367.00    0.88977   0.94365   -1.000
 6368.00    0.89460   0.94403   -1.000
 6369.00    0.89381   0.94331   -1.000
 6370.00    0.89030   0.94279   -1.000
 6371.00    0.89164   0.94364   -1.000
 6372.00    0.89317   0.94584   -1.000
 6373.00    0.88898   0.94825   -1.000
 6374.00    0.89010   0.94965   -1.000
 6375.00    0.88670   0.94952   -1.000
 6376.00    0.88884   0.94814   -1.000
 6377.00    0.88531   0.94612   -1.000
 6378.00    0.87655   0.94405   -1.000
 6379.00    0.87459   0.94234   -1.000
 6380.00    0.87462   0.94121   -1.000
 6381.00    0.86779   0.94066   -1.000
 6382.00    0.86969   0.94066   -1.000
 6383.00    0.86604   0.94124   -1.000
 6384.00    0.86442   0.94248   -1.000
 6385.00    0.86273   0.94428   -1.000
 6386.00    0.86105   0.94612   -1.000
 6387.00    0.86193   0.94730   -1.000
 6388.00    0.85310   0.94727   -1.000
 6389.00    0.84818   0.94550   -1.000
 6390.00    0.84364   0.94152   -1.000
 6391.00    0.83449   0.93579   -1.000
 6392.00    0.82645   0.93041   -1.000
 6393.00    0.81750   0.92818   -1.000
 6394.00    0.81440   0.93014   -1.000
 6395.00    0.81919   0.93437   -1.000
 6396.00    0.82387   0.93720   -1.000
 6397.00    0.81635   0.93608   -1.000
 6398.00    0.80823   0.93177   -1.000
 6399.00    0.79315   0.92781   -1.000
 6400.00    0.78632   0.92767   -1.000
 6401.00    0.78778   0.93191   -1.000
 6402.00    0.79358   0.93812   -1.000
 6403.00    0.79874   0.94296   -1.000
 6404.00    0.79872   0.94425   -1.000
 6405.00    0.78980   0.94175   -1.000
 6406.00    0.78138   0.93689   -1.000
 6407.00    0.77182   0.93219   -1.000
 6408.00    0.76826   0.92978   -1.000
 6409.00    0.76518   0.92977   -1.000
 6410.00    0.75877   0.93085   -1.000
 6411.00    0.75421   0.93204   -1.000
 6412.00    0.74785   0.93323   -1.000
 6413.00    0.74475   0.93444   -1.000
 6414.00    0.74447   0.93558   -1.000
 6415.00    0.74267   0.93658   -1.000
 6416.00    0.73537   0.93713   -1.000
 6417.00    0.72881   0.93639   -1.000
 6418.00    0.71797   0.93383   -1.000
 6419.00    0.71052   0.93044   -1.000
 6420.00    0.70004   0.92864   -1.000
 6421.00    0.69159   0.93037   -1.000
 6422.00    0.68969   0.93534   -1.000
 6423.00    0.68893   0.94152   -1.000
 6424.00    0.68676   0.94688   -1.000
 6425.00    0.68232   0.95044   -1.000
 6426.00    0.67496   0.95165   -1.000
 6427.00    0.66845   0.94973   -1.000
 6428.00    0.65825   0.94442   -1.000
