###################################################################
## OUTPUT of StarlightChains_v04.for    [Cid@UFSC - 01/Apr/2007] ##
###################################################################

## Some input info
NGC5986_a_1.cxt                          [arq_obs]
Base.BC03.S                              [arq_base]
NGC5986_a_1.msk                          [arq_masks]
StCv04.C11.config                        [arq_config]
  150                                    [N_base]
    0                                    [N_YAV_components = # of components with extra extinction!]
    0                                    [i_FitPowerLaw (1/0 = Yes/No)]
-9.99                                    [alpha_PowerLaw]
CCM                                      [red_law_option]
 1.458241                                [q_norm = A(l_norm)/A(V)]

## (Re)Sampling Parameters
 3359.00                                 [l_ini (A)]
 6428.00                                 [l_fin (A)]
    1.00                                 [dl    (A)]     (OBS: dl_cushion =    50.00 A)

## Normalization info
 4020.00                                 [l_norm (A) - for base]
 4010.00                                 [llow_norm (A) - window for f_obs]
 4060.00                                 [lupp_norm (A) - window for f_obs]
1.970425E-14                             [fobs_norm (in input units)]

## S/N
 4730.00                                 [llow_SN (A) - window for S/N]
 4780.00                                 [lupp_SN (A) - window for S/N]
 120.453                                 [S/N in S/N window]
 104.720                                 [S/N in norm. window]
  85.601                                 [S/N_err in S/N window]
  74.420                                 [S/N_err in norm. window]
  1.0000                                 [fscale_chi2]

## etc...
  2147483629                             [idum_orig]
  3069                                   [NOl_eff]
  1916                                   [Nl_eff]
  1153    NSIGMA                         [Ntot_cliped & clip_method]
  1405950                                [Nglobal_steps]
   7                                     [N_chains]
  21                                     [NEX0s_base = N_base in EX0s-fits]
 0   0   1       80   2.0   6.651E+02    [Clip-Bug, RC-Crash & Burn-In warning-flags, n_censored_weights, wei_nsig_threshold & wei_limit]
    55     54.736     54.732      0.004  [idt_all, wdt_TotTime, wdt_UsrTime & wdt_SysTime (sec)]

## Synthesis Results - Best model ##

 2.33660E+00                             [chi2/Nl_eff]
     1.52349                             [adev (%)]

    99.52488                             [sum-of-x (%)]
 6.36305E-14                             [Flux_tot (units of input spectrum!)]
 7.12652E-10                             [Mini_tot (???)]
 3.68750E-10                             [Mcor_tot (???)]

 -20.00                                  [v0_min  (km/s)]
  66.45                                  [vd_min  (km/s)]
 0.8764                                  [AV_min  (mag)]
 0.0000                                  [YAV_min (mag)]

# j     x_j(%)      Mini_j(%)     Mcor_j(%)     age_j(yr)     Z_j      (L/M)_j    YAV?  Mstars   component_j        a/Fe...       SSP_chi2r SSP_adev(%)   SSP_AV   SSP_x(%)
  1      0.0000     0.0000E+00    0.0000E+00    1.000000E+06  0.00010  8.160E-03    0   1.0000   age020_m22            0.0000     1.9653E+02    10.0594   4.0000    74.8002
  2      5.7027     1.0750E-02    2.0776E-02    3.160000E+06  0.00010  4.759E-02    0   1.0000   age045_m22            0.0000     2.0969E+01     3.3041   2.1427    92.9673
  3      0.3411     1.5837E-03    2.9328E-03    5.010000E+06  0.00010  1.932E-02    0   0.9582   age055_m22            0.0000     1.5485E+02    10.5502   2.5470    76.2189
  4      0.0000     0.0000E+00    0.0000E+00    6.610000E+06  0.00010  9.973E-03    0   0.9297   age061_m22            0.0000     1.8931E+02    10.2154   4.0000    76.8635
  5      0.0000     0.0000E+00    0.0000E+00    8.710000E+06  0.00010  7.690E-03    0   0.9030   age067_m22            0.0000     1.7811E+02     9.9016   4.0000    77.2026
  6      0.0000     0.0000E+00    0.0000E+00    1.000000E+07  0.00010  6.375E-03    0   0.8902   age070_m22            0.0000     1.7238E+02     9.6541   4.0000    77.6970
  7      0.0000     0.0000E+00    0.0000E+00    1.445000E+07  0.00010  4.874E-03    0   0.8589   age078_m22            0.0000     1.1416E+02     8.5794   4.0000    77.0439
  8      0.0000     0.0000E+00    0.0000E+00    2.512000E+07  0.00010  4.103E-03    0   0.8174   age090_m22            0.0000     4.9209E+01     5.5508   3.5492    85.1238
  9      1.7029     4.1809E-02    6.3268E-02    4.000000E+07  0.00010  3.654E-03    0   0.7830   age104_m22            0.0000     1.6095E+01     3.4380   3.1858    92.4924
 10      1.3472     3.9077E-02    5.7373E-02    5.500000E+07  0.00010  3.093E-03    0   0.7597   age110_m22            0.0000     1.1610E+01     2.9758   3.0700    94.7425
 11      0.0000     0.0000E+00    0.0000E+00    1.015200E+08  0.00010  2.431E-03    0   0.7138   age116_m22            0.0000     1.1694E+01     2.9662   2.6940    99.0202
 12      0.0000     2.2659E-07    2.9668E-07    1.609000E+08  0.00010  1.319E-03    0   0.6775   age120_m22            0.0000     1.2731E+01     2.9865   2.2387   100.5578
 13      0.0000     0.0000E+00    0.0000E+00    2.861200E+08  0.00010  1.075E-03    0   0.6412   age125_m22            0.0000     5.9922E+01     6.5208   2.2469   106.9608
 14      0.0000     0.0000E+00    0.0000E+00    5.088000E+08  0.00010  7.183E-04    0   0.6083   age130_m22            0.0000     8.4482E+01     7.6314   2.0134   109.0268
 15      0.0000     0.0000E+00    0.0000E+00    9.047900E+08  0.00010  4.524E-04    0   0.5785   age135_m22            0.0000     8.8847E+01     7.7811   1.8161   110.1901
 16      0.0000     0.0000E+00    0.0000E+00    1.278050E+09  0.00010  3.018E-04    0   0.5588   age138_m22            0.0000     3.2728E+01     4.9408   1.3195   106.5807
 17      0.0000     0.0000E+00    0.0000E+00    1.434000E+09  0.00010  2.691E-04    0   0.5532   age139_m22            0.0000     2.4788E+01     4.3692   1.1729   105.5465
 18      0.0000     0.0000E+00    0.0000E+00    2.500000E+09  0.00010  1.582E-04    0   0.5296   age150_m22            0.0000     1.8505E+01     3.7526   1.0609   106.0942
 19      0.0000     0.0000E+00    0.0000E+00    4.250000E+09  0.00010  1.007E-04    0   0.5110   age158_m22            0.0000     6.8861E+00     2.5021   0.9304   103.2554
 20      0.0011     1.4650E-03    1.4114E-03    6.250000E+09  0.00010  6.869E-05    0   0.4985   age166_m22            0.0000     2.8460E+00     1.6509   0.8946    99.3391
 21      0.3370     5.1482E-01    4.9061E-01    7.500000E+09  0.00010  5.873E-05    0   0.4931   age171_m22            0.0000     2.9783E+00     1.6069   0.8842    98.6748
 22      0.3749     7.5051E-01    7.0405E-01    1.000000E+10  0.00010  4.481E-05    0   0.4854   age181_m22            0.0000     2.9842E+00     1.6175   0.8469    98.2835
 23      0.0053     1.3695E-02    1.2680E-02    1.300000E+10  0.00010  3.489E-05    0   0.4791   age193_m22            0.0000     3.1584E+00     1.6688   0.7938    97.5923
 24      0.0000     0.0000E+00    0.0000E+00    1.500000E+10  0.00010  3.035E-05    0   0.4766   age201_m22            0.0000     3.3318E+00     1.7061   0.7573    97.2964
 25      0.0022     8.0410E-03    7.3583E-03    1.800000E+10  0.00010  2.510E-05    0   0.4735   age213_m22            0.0000     4.0064E+00     1.8258   0.6945    96.4445
 26      0.0000     0.0000E+00    0.0000E+00    1.000000E+06  0.00040  8.458E-03    0   1.0000   age020_m32            0.0000     1.9839E+02    10.1256   4.0000    75.7365
 27      0.0000     0.0000E+00    0.0000E+00    3.160000E+06  0.00040  3.973E-02    0   1.0000   age045_m32            0.0000     5.6903E+01     5.8385   3.4523    84.8645
 28      0.0000     0.0000E+00    0.0000E+00    5.010000E+06  0.00040  1.935E-02    0   0.9532   age055_m32            0.0000     1.2987E+02     9.3825   3.7310    77.2009
 29      0.0000     0.0000E+00    0.0000E+00    6.610000E+06  0.00040  1.204E-02    0   0.9243   age061_m32            0.0000     1.4356E+02     9.4422   4.0000    76.1608
 30      0.0000     0.0000E+00    0.0000E+00    8.710000E+06  0.00040  9.433E-03    0   0.9001   age067_m32            0.0000     1.2818E+02     9.0417   4.0000    76.5330
 31      0.0000     0.0000E+00    0.0000E+00    1.000000E+07  0.00040  8.053E-03    0   0.8877   age070_m32            0.0000     1.2261E+02     8.9340   3.9831    76.6043
 32      0.0000     0.0000E+00    0.0000E+00    1.445000E+07  0.00040  7.027E-03    0   0.8578   age078_m32            0.0000     7.3711E+01     6.9491   3.4176    83.2147
 33      0.0000     0.0000E+00    0.0000E+00    2.512000E+07  0.00040  4.707E-03    0   0.8166   age090_m32            0.0000     4.0090E+01     5.2016   3.0901    88.3933
 34      0.0000     0.0000E+00    0.0000E+00    4.000000E+07  0.00040  3.714E-03    0   0.7827   age104_m32            0.0000     1.6574E+01     3.4766   2.8448    93.5389
 35      0.6973     2.0977E-02    3.0782E-02    5.500000E+07  0.00040  2.982E-03    0   0.7593   age110_m32            0.0000     1.2045E+01     3.0145   2.7685    95.3998
 36      0.0000     0.0000E+00    0.0000E+00    1.015200E+08  0.00040  2.188E-03    0   0.7143   age116_m32            0.0000     2.0807E+01     3.9053   2.4546   102.1128
 37      0.0000     0.0000E+00    0.0000E+00    1.609000E+08  0.00040  1.690E-03    0   0.6856   age120_m32            0.0000     4.1759E+01     5.3502   2.2195   106.2144
 38      0.0000     0.0000E+00    0.0000E+00    2.861200E+08  0.00040  1.152E-03    0   0.6509   age125_m32            0.0000     6.6919E+01     6.7845   2.0007   108.1591
 39      0.0000     0.0000E+00    0.0000E+00    5.088000E+08  0.00040  7.331E-04    0   0.6182   age130_m32            0.0000     7.9280E+01     7.3918   1.8389   108.9403
 40      0.0000     0.0000E+00    0.0000E+00    9.047900E+08  0.00040  3.960E-04    0   0.5890   age135_m32            0.0000     3.6461E+01     5.4187   1.4177   105.6460
 41      0.0000     0.0000E+00    0.0000E+00    1.278050E+09  0.00040  2.854E-04    0   0.5687   age138_m32            0.0000     2.4591E+01     4.3267   1.1255   107.2471
 42      0.0000     0.0000E+00    0.0000E+00    1.434000E+09  0.00040  2.531E-04    0   0.5632   age139_m32            0.0000     2.3475E+01     4.1777   1.0628   107.2571
 43     21.4328     1.2922E+01    1.3451E+01    2.500000E+09  0.00040  1.488E-04    0   0.5386   age150_m32            0.0000     1.4179E+01     3.2806   0.8158   104.9228
 44     56.7869     5.6095E+01    5.6362E+01    4.250000E+09  0.00040  9.082E-05    0   0.5199   age158_m32            0.0000     2.9145E+00     1.7900   0.7537    99.7464
 45      9.1158     1.2855E+01    1.2610E+01    6.250000E+09  0.00040  6.362E-05    0   0.5076   age166_m32            0.0000     7.6657E+00     2.2922   0.7432    94.8445
 46      0.0000     0.0000E+00    0.0000E+00    7.500000E+09  0.00040  5.289E-05    0   0.5027   age171_m32            0.0000     1.0023E+01     2.5061   0.7144    93.3016
 47      0.0000     0.0000E+00    0.0000E+00    1.000000E+10  0.00040  3.972E-05    0   0.4948   age181_m32            0.0000     1.1920E+01     2.6608   0.6594    91.7479
 48      0.0000     0.0000E+00    0.0000E+00    1.300000E+10  0.00040  3.283E-05    0   0.4870   age193_m32            0.0000     5.7880E+00     2.1910   0.5993    95.1795
 49      0.0000     0.0000E+00    0.0000E+00    1.500000E+10  0.00040  2.925E-05    0   0.4854   age201_m32            0.0000     3.9928E+00     2.0394   0.5710    97.2187
 50      0.0000     0.0000E+00    0.0000E+00    1.800000E+10  0.00040  2.469E-05    0   0.4819   age213_m32            0.0000     3.8341E+00     2.0555   0.5274    97.9079
 51      0.0000     0.0000E+00    0.0000E+00    1.000000E+06  0.00400  1.114E-02    0   1.0000   age020_m42            0.0000     1.7687E+02     9.6238   4.0000    74.8792
 52      0.0000     0.0000E+00    0.0000E+00    3.160000E+06  0.00400  4.073E-02    0   0.9999   age045_m42            0.0000     3.5938E+01     4.4543   3.1409    88.0834
 53      0.0000     0.0000E+00    0.0000E+00    5.010000E+06  0.00400  2.534E-02    0   0.9488   age055_m42            0.0000     8.7192E+01     7.3028   3.5912    80.1272
 54      0.7082     2.4597E-03    4.3829E-03    6.610000E+06  0.00400  2.583E-02    0   0.9220   age061_m42            0.0000     2.3547E+01     3.6817   2.9275    90.1415
 55      0.0000     0.0000E+00    0.0000E+00    8.710000E+06  0.00400  1.706E-02    0   0.8983   age067_m42            0.0000     4.9358E+01     5.7361   2.7813    87.0486
 56      0.0000     0.0000E+00    0.0000E+00    1.000000E+07  0.00400  1.271E-02    0   0.8862   age070_m42            0.0000     7.6016E+01     7.4963   2.7849    84.8378
 57      0.0000     0.0000E+00    0.0000E+00    1.445000E+07  0.00400  7.666E-03    0   0.8571   age078_m42            0.0000     1.0077E+02     8.3790   3.2166    80.5819
 58      0.0000     0.0000E+00    0.0000E+00    2.512000E+07  0.00400  5.070E-03    0   0.8174   age090_m42            0.0000     6.8333E+01     7.0339   2.6579    86.3135
 59      0.0000     0.0000E+00    0.0000E+00    4.000000E+07  0.00400  3.505E-03    0   0.7851   age104_m42            0.0000     4.5902E+01     5.4033   2.3364    89.5301
 60      0.0000     0.0000E+00    0.0000E+00    5.500000E+07  0.00400  3.059E-03    0   0.7629   age110_m42            0.0000     1.1231E+01     2.5858   2.3268    97.0434
 61      0.0000     0.0000E+00    0.0000E+00    1.015200E+08  0.00400  2.268E-03    0   0.7207   age116_m42            0.0000     3.5102E+01     5.1033   2.1559   106.0819
 62      0.0000     0.0000E+00    0.0000E+00    1.609000E+08  0.00400  1.720E-03    0   0.6930   age120_m42            0.0000     4.5019E+01     5.7563   2.0125   107.8576
 63      0.0000     0.0000E+00    0.0000E+00    2.861200E+08  0.00400  1.079E-03    0   0.6613   age125_m42            0.0000     4.5615E+01     5.7605   1.6749   107.6965
 64      0.0000     0.0000E+00    0.0000E+00    5.088000E+08  0.00400  6.261E-04    0   0.6313   age130_m42            0.0000     6.1213E+01     6.3799   1.4648   111.3606
 65      0.0000     0.0000E+00    0.0000E+00    9.047900E+08  0.00400  3.535E-04    0   0.6024   age135_m42            0.0000     3.4226E+01     4.9785   1.0944   110.0971
 66      0.0000     0.0000E+00    0.0000E+00    1.278050E+09  0.00400  2.677E-04    0   0.5837   age138_m42            0.0000     2.4752E+01     4.6566   0.4776   104.4167
 67      0.0000     0.0000E+00    0.0000E+00    1.434000E+09  0.00400  1.910E-04    0   0.5716   age139_m42            0.0000     2.3655E+01     4.5651   0.6287   106.0728
 68      0.0000     0.0000E+00    0.0000E+00    2.500000E+09  0.00400  9.818E-05    0   0.5463   age150_m42            0.0000     2.1609E+01     4.3917   0.4119    98.8653
 69      0.0000     0.0000E+00    0.0000E+00    4.250000E+09  0.00400  5.491E-05    0   0.5269   age158_m42            0.0000     2.7076E+01     4.6592   0.3079    95.2068
 70      0.0000     0.0000E+00    0.0000E+00    6.250000E+09  0.00400  3.857E-05    0   0.5151   age166_m42            0.0000     3.5589E+01     5.2417   0.1945    93.4419
 71      0.0000     0.0000E+00    0.0000E+00    7.500000E+09  0.00400  3.243E-05    0   0.5110   age171_m42            0.0000     4.1259E+01     5.6068   0.1228    92.6915
 72      0.0000     0.0000E+00    0.0000E+00    1.000000E+10  0.00400  2.424E-05    0   0.5028   age181_m42            0.0000     4.9052E+01     6.0548   0.0533    91.7611
 73      0.0000     0.0000E+00    0.0000E+00    1.300000E+10  0.00400  1.883E-05    0   0.4927   age193_m42            0.0000     5.5140E+01     6.3809   0.0204    91.2093
 74      0.0000     0.0000E+00    0.0000E+00    1.500000E+10  0.00400  1.685E-05    0   0.4919   age201_m42            0.0000     5.3606E+01     6.2997   0.0234    91.2793
 75      0.0000     0.0000E+00    0.0000E+00    1.800000E+10  0.00400  1.452E-05    0   0.4874   age213_m42            0.0000     5.0776E+01     6.1598   0.0355    91.6230
 76      0.0000     0.0000E+00    0.0000E+00    1.000000E+06  0.00800  1.286E-02    0   1.0000   age020_m52            0.0000     1.5797E+02     8.9797   4.0000    76.2189
 77      0.0000     0.0000E+00    0.0000E+00    3.160000E+06  0.00800  3.147E-02    0   0.9966   age045_m52            0.0000     1.4243E+02     9.0367   4.0000    76.0101
 78      0.0000     0.0000E+00    0.0000E+00    5.010000E+06  0.00800  2.664E-02    0   0.9443   age055_m52            0.0000     1.0473E+02     7.8913   3.7310    78.4120
 79      0.0000     0.0000E+00    0.0000E+00    6.610000E+06  0.00800  2.151E-02    0   0.9177   age061_m52            0.0000     7.3446E+01     6.7260   2.4109    85.3449
 80      0.0000     0.0000E+00    0.0000E+00    8.710000E+06  0.00800  1.628E-02    0   0.8948   age067_m52            0.0000     6.4778E+01     6.4971   2.7621    86.4993
 81      0.0000     0.0000E+00    0.0000E+00    1.000000E+07  0.00800  1.215E-02    0   0.8827   age070_m52            0.0000     7.8664E+01     7.1813   3.1131    84.2449
 82      0.0000     0.0000E+00    0.0000E+00    1.445000E+07  0.00800  8.739E-03    0   0.8552   age078_m52            0.0000     6.0244E+01     6.1433   3.1332    86.3099
 83      0.0000     0.0000E+00    0.0000E+00    2.512000E+07  0.00800  5.676E-03    0   0.8162   age090_m52            0.0000     2.9307E+01     4.4909   2.6822    93.1753
 84      0.0000     4.3847E-08    6.6444E-08    4.000000E+07  0.00800  3.939E-03    0   0.7841   age104_m52            0.0000     1.5953E+01     3.1350   2.5026    96.5984
 85      0.0000     0.0000E+00    0.0000E+00    5.500000E+07  0.00800  3.155E-03    0   0.7627   age110_m52            0.0000     1.1949E+01     2.6989   2.4524    99.2865
 86      0.0000     0.0000E+00    0.0000E+00    1.015200E+08  0.00800  2.206E-03    0   0.7226   age116_m52            0.0000     2.2667E+01     4.1638   2.2327   104.9205
 87      0.0000     0.0000E+00    0.0000E+00    1.609000E+08  0.00800  1.596E-03    0   0.6963   age120_m52            0.0000     3.3175E+01     5.0316   2.0125   106.9633
 88      0.0000     0.0000E+00    0.0000E+00    2.861200E+08  0.00800  1.002E-03    0   0.6665   age125_m52            0.0000     6.7986E+01     7.0768   1.7147   110.3832
 89      0.0000     0.0000E+00    0.0000E+00    5.088000E+08  0.00800  5.759E-04    0   0.6377   age130_m52            0.0000     8.4870E+01     7.8598   1.3813   113.9746
 90      0.0000     0.0000E+00    0.0000E+00    9.047900E+08  0.00800  2.972E-04    0   0.6086   age135_m52            0.0000     5.1570E+01     6.5815   0.8980   110.2996
 91      0.0000     0.0000E+00    0.0000E+00    1.278050E+09  0.00800  2.242E-04    0   0.5907   age138_m52            0.0000     3.7764E+01     5.7109   0.3274   106.5757
 92      0.0000     0.0000E+00    0.0000E+00    1.434000E+09  0.00800  1.645E-04    0   0.5787   age139_m52            0.0000     3.0994E+01     5.2421   0.4736   105.9724
 93      0.0000     0.0000E+00    0.0000E+00    2.500000E+09  0.00800  7.723E-05    0   0.5519   age150_m52            0.0000     3.9378E+01     5.7295   0.1693   100.6319
 94      0.0000     0.0000E+00    0.0000E+00    4.250000E+09  0.00800  4.151E-05    0   0.5320   age158_m52            0.0000     4.2240E+01     5.8211   0.1092    97.6920
 95      0.0000     0.0000E+00    0.0000E+00    6.250000E+09  0.00800  3.010E-05    0   0.5197   age166_m52            0.0000     5.6433E+01     6.6011  -0.0675    95.7282
 96      0.0000     0.0000E+00    0.0000E+00    7.500000E+09  0.00800  2.467E-05    0   0.5139   age171_m52            0.0000     6.0462E+01     6.8090  -0.1052    95.2268
 97      0.0000     0.0000E+00    0.0000E+00    1.000000E+10  0.00800  1.862E-05    0   0.5054   age181_m52            0.0000     7.3601E+01     7.4677  -0.2263    94.6084
 98      0.0000     0.0000E+00    0.0000E+00    1.300000E+10  0.00800  1.433E-05    0   0.4988   age193_m52            0.0000     8.8741E+01     8.1204  -0.3116    94.8685
 99      0.0000     0.0000E+00    0.0000E+00    1.500000E+10  0.00800  1.244E-05    0   0.4936   age201_m52            0.0000     9.4797E+01     8.3525  -0.3375    95.1914
100      0.0000     0.0000E+00    0.0000E+00    1.800000E+10  0.00800  1.070E-05    0   0.4888   age213_m52            0.0000     9.9424E+01     8.5402  -0.3695    94.9836
101      0.0000     0.0000E+00    0.0000E+00    1.000000E+06  0.02000  1.989E-02    0   1.0000   age020_m62            0.0000     1.7229E+02     9.6622   4.0000    74.8457
102      0.0000     0.0000E+00    0.0000E+00    3.160000E+06  0.02000  3.772E-02    0   0.9858   age045_m62            0.0000     1.4673E+02     9.5644   4.0000    74.2774
103      0.0000     0.0000E+00    0.0000E+00    5.010000E+06  0.02000  3.227E-02    0   0.9342   age055_m62            0.0000     5.6454E+01     5.8106   3.4103    84.3092
104      0.0000     0.0000E+00    0.0000E+00    6.610000E+06  0.02000  2.387E-02    0   0.9090   age061_m62            0.0000     9.1629E+01     8.0112   3.1800    82.8985
105      0.0000     0.0000E+00    0.0000E+00    8.710000E+06  0.02000  1.102E-02    0   0.8861   age067_m62            0.0000     2.5251E+02    14.6502   2.8626    76.0550
106      0.0000     0.0000E+00    0.0000E+00    1.000000E+07  0.02000  1.011E-02    0   0.8751   age070_m62            0.0000     1.8035E+02    12.0986   2.8662    79.1264
107      0.0000     0.0000E+00    0.0000E+00    1.445000E+07  0.02000  7.331E-03    0   0.8472   age078_m62            0.0000     1.3001E+02     9.9166   2.8736    81.0420
108      0.0000     0.0000E+00    0.0000E+00    2.512000E+07  0.02000  4.206E-03    0   0.8099   age090_m62            0.0000     1.3955E+02    10.0927   2.7996    80.0515
109      0.0000     0.0000E+00    0.0000E+00    4.000000E+07  0.02000  3.373E-03    0   0.7799   age104_m62            0.0000     3.6547E+01     4.8923   2.5204    92.0819
110      0.0000     0.0000E+00    0.0000E+00    5.500000E+07  0.02000  2.747E-03    0   0.7595   age110_m62            0.0000     1.6665E+01     3.2120   2.4109    97.5625
111      0.0000     0.0000E+00    0.0000E+00    1.015200E+08  0.02000  1.878E-03    0   0.7221   age116_m62            0.0000     2.5558E+01     4.2747   2.2085   105.5303
112      0.0000     0.0000E+00    0.0000E+00    1.609000E+08  0.02000  1.378E-03    0   0.6978   age120_m62            0.0000     4.8984E+01     5.8651   2.0317   109.3785
113      0.0000     0.0000E+00    0.0000E+00    2.861200E+08  0.02000  8.869E-04    0   0.6700   age125_m62            0.0000     9.9881E+01     8.0112   1.6467   114.8389
114      0.0000     0.0000E+00    0.0000E+00    5.088000E+08  0.02000  4.834E-04    0   0.6430   age130_m62            0.0000     9.6454E+01     8.2417   1.2447   115.8290
115      0.0000     0.0000E+00    0.0000E+00    9.047900E+08  0.02000  2.312E-04    0   0.6152   age135_m62            0.0000     5.0287E+01     6.4986   0.6916   112.5191
116      0.0000     0.0000E+00    0.0000E+00    1.278050E+09  0.02000  1.387E-04    0   0.5927   age138_m62            0.0000     3.2633E+01     5.4320   0.3576   105.6918
117      0.0000     0.0000E+00    0.0000E+00    1.434000E+09  0.02000  1.168E-04    0   0.5865   age139_m62            0.0000     3.2167E+01     5.3739   0.3438   103.5372
118      0.0000     0.0000E+00    0.0000E+00    2.500000E+09  0.02000  5.505E-05    0   0.5610   age150_m62            0.0000     5.1493E+01     6.5423   0.0076    99.1229
119      0.0000     0.0000E+00    0.0000E+00    4.250000E+09  0.02000  3.070E-05    0   0.5407   age158_m62            0.0000     8.2273E+01     8.0446  -0.2658    98.3691
120      0.0000     0.0000E+00    0.0000E+00    6.250000E+09  0.02000  2.104E-05    0   0.5277   age166_m62            0.0000     1.0015E+02     8.7423  -0.3872    98.4158
121      0.0000     0.0000E+00    0.0000E+00    7.500000E+09  0.02000  1.770E-05    0   0.5223   age171_m62            0.0000     1.1003E+02     9.1380  -0.4714    98.6663
122      0.0000     0.0000E+00    0.0000E+00    1.000000E+10  0.02000  1.297E-05    0   0.5121   age181_m62            0.0000     1.3129E+02     9.9092  -0.6211    98.8774
123      0.0000     0.0000E+00    0.0000E+00    1.300000E+10  0.02000  9.691E-06    0   0.5047   age193_m62            0.0000     1.4577E+02    10.3792  -0.6982    99.0318
124      0.0000     0.0000E+00    0.0000E+00    1.500000E+10  0.02000  8.360E-06    0   0.4999   age201_m62            0.0000     1.5866E+02    10.8027  -0.7651    99.1685
125      0.0000     0.0000E+00    0.0000E+00    1.800000E+10  0.02000  6.911E-06    0   0.4946   age213_m62            0.0000     1.7534E+02    11.3370  -0.8347    99.3258
126      0.0000     0.0000E+00    0.0000E+00    1.000000E+06  0.05000  2.651E-02    0   0.9998   age020_m72            0.0000     1.6462E+02     9.2236   4.0000    75.7166
127      0.0000     0.0000E+00    0.0000E+00    3.160000E+06  0.05000  4.817E-02    0   0.9577   age045_m72            0.0000     1.0734E+02     7.9190   3.8397    78.0465
128      0.0000     0.0000E+00    0.0000E+00    5.010000E+06  0.05000  3.101E-02    0   0.9147   age055_m72            0.0000     1.0091E+02     7.8391   3.4715    80.9227
129      0.0000     0.0000E+00    0.0000E+00    6.610000E+06  0.05000  1.472E-02    0   0.8877   age061_m72            0.0000     2.0748E+02    12.4593   3.0652    77.3942
130      0.0000     0.0000E+00    0.0000E+00    8.710000E+06  0.05000  1.050E-02    0   0.8638   age067_m72            0.0000     1.4592E+02     9.9664   3.4501    78.4765
131      0.0000     0.0000E+00    0.0000E+00    1.000000E+07  0.05000  8.954E-03    0   0.8524   age070_m72            0.0000     1.0880E+02     8.1021   3.7250    78.9212
132      0.0000     0.0000E+00    0.0000E+00    1.445000E+07  0.05000  6.392E-03    0   0.8262   age078_m72            0.0000     9.3715E+01     7.4272   3.6642    80.2725
133      0.0000     0.0000E+00    0.0000E+00    2.512000E+07  0.05000  4.207E-03    0   0.7902   age090_m72            0.0000     5.4553E+01     5.5921   3.2454    86.1811
134      0.0000     0.0000E+00    0.0000E+00    4.000000E+07  0.05000  3.198E-03    0   0.7618   age104_m72            0.0000     1.6490E+01     3.3268   2.6274    98.8977
135      0.0000     0.0000E+00    0.0000E+00    5.500000E+07  0.05000  2.593E-03    0   0.7432   age110_m72            0.0000     2.0470E+01     3.8192   2.5040   102.1722
136      0.0000     0.0000E+00    0.0000E+00    1.015200E+08  0.05000  1.716E-03    0   0.7092   age116_m72            0.0000     3.6738E+01     5.0045   2.2770   106.4366
137      0.0000     0.0000E+00    0.0000E+00    1.609000E+08  0.05000  1.218E-03    0   0.6876   age120_m72            0.0000     6.5931E+01     6.6896   1.9919   110.3411
138      0.0000     0.0000E+00    0.0000E+00    2.861200E+08  0.05000  7.047E-04    0   0.6618   age125_m72            0.0000     1.0692E+02     8.4174   1.4502   114.8332
139      0.0000     0.0000E+00    0.0000E+00    5.088000E+08  0.05000  3.590E-04    0   0.6356   age130_m72            0.0000     9.5179E+01     8.1372   0.9104   115.9847
140      0.0000     0.0000E+00    0.0000E+00    9.047900E+08  0.05000  1.484E-04    0   0.6088   age135_m72            0.0000     5.0957E+01     6.5447   0.2597   105.3563
141      0.0000     0.0000E+00    0.0000E+00    1.278050E+09  0.05000  9.435E-05    0   0.5924   age138_m72            0.0000     7.2532E+01     7.7009  -0.1010   100.6316
142      0.0000     0.0000E+00    0.0000E+00    1.434000E+09  0.05000  7.827E-05    0   0.5847   age139_m72            0.0000     7.1354E+01     7.5849  -0.0850    99.7920
143      0.0000     0.0000E+00    0.0000E+00    2.500000E+09  0.05000  3.759E-05    0   0.5583   age150_m72            0.0000     1.0001E+02     8.7390  -0.3834    97.9436
144      0.0000     0.0000E+00    0.0000E+00    4.250000E+09  0.05000  1.842E-05    0   0.5374   age158_m72            0.0000     1.3188E+02     9.8276  -0.6931    97.2149
145      0.0000     0.0000E+00    0.0000E+00    6.250000E+09  0.05000  1.207E-05    0   0.5242   age166_m72            0.0000     1.6410E+02    10.9176  -0.9211    96.6591
146      0.0000     0.0000E+00    0.0000E+00    7.500000E+09  0.05000  9.993E-06    0   0.5183   age171_m72            0.0000     1.6897E+02    11.0919  -0.9644    96.6030
147      0.1397     1.7189E+00    1.6879E+00    1.000000E+10  0.05000  7.291E-06    0   0.5081   age181_m72            0.0000     1.9445E+02    11.6584  -1.0000    94.1632
148      0.5040     8.5048E+00    8.2479E+00    1.300000E+10  0.05000  5.316E-06    0   0.5018   age193_m72            0.0000     2.4881E+02    12.7851  -1.0000    89.0111
149      0.3258     6.4996E+00    6.2455E+00    1.500000E+10  0.05000  4.497E-06    0   0.4972   age201_m72            0.0000     2.7888E+02    13.4053  -1.0000    87.2400
150      0.0000     0.0000E+00    0.0000E+00    1.800000E+10  0.05000  3.739E-06    0   0.4924   age213_m72            0.0000     3.2259E+02    14.2260  -1.0000    84.4837


## Synthesis Results - Average & Chains ##

# j      x_j: min, <> & last-chain-values for 1 ...  7 chains
  1      0.0000      0.0155      0.0000      0.0000      0.0000      0.0058      0.0000      0.0000      0.0000
  2      5.7027      0.4864      0.4747      0.1633      0.6896      0.5047      0.5076      0.8546      0.5440
  3      0.3411      0.0640      0.0000      0.0242      0.1299      0.1136      0.1179      0.3055      0.0862
  4      0.0000      0.0383      0.2964      0.0000      0.0000      0.0000      0.0163      0.0091      0.0156
  5      0.0000      0.0355      0.0518      0.2070      0.0000      0.0158      0.0392      0.0000      0.0000
  6      0.0000      0.0227      0.0000      0.0127      0.0000      0.0000      0.0000      0.0000      0.0000
  7      0.0000      0.0249      0.0000      0.0000      0.0000      0.0440      0.0000      0.0000      0.0000
  8      0.0000      0.0323      0.0522      0.0000      0.0382      0.0000      0.0000      0.0000      0.0988
  9      1.7029      0.3007      0.5504      0.3774      0.2990      0.5487      0.2045      0.6923      0.2853
 10      1.3472      0.2230      0.0000      0.0756      0.4108      0.0000      0.2099      0.6821      0.6573
 11      0.0000      0.1554      0.1829      0.0891      0.0298      0.2345      0.3989      0.0000      0.1438
 12      0.0000      0.1110      0.0655      0.0000      0.0000      0.0000      0.0000      0.3432      0.0599
 13      0.0000      0.0684      0.0000      0.0000      0.0233      0.0684      0.0000      0.0000      0.0000
 14      0.0000      0.0165      0.0000      0.0000      0.0000      0.0000      0.0000      0.0000      0.0000
 15      0.0000      0.0179      0.0000      0.0000      0.0000      0.0000      0.0253      0.0000      0.0725
 16      0.0000      0.0185      0.0000      0.0000      0.0000      0.0000      0.0000      0.0000      0.0000
 17      0.0000      0.0269      0.0000      0.0194      0.0160      0.0000      0.2908      0.0000      0.0014
 18      0.0000      0.0843      0.0663      0.0882      0.0000      0.0000      0.0000      0.0000      0.0000
 19      0.0000      0.2994      0.0000      0.0633      0.5087      0.4331      0.4842      0.0000      0.0000
 20      0.0011      0.3084      0.3523      0.7289      0.1799      0.4277      0.0000      0.2480      0.7017
 21      0.3370      0.8246      1.6276      0.8009      1.6070      0.3448      0.6774      0.9488      0.6582
 22      0.3749      1.5673      1.2603      3.1429      2.4134      1.2353      1.1920      2.0391      1.2969
 23      0.0053      1.1749      0.9440      2.3286      1.1185      1.3279      1.4793      1.2738      1.5157
 24      0.0000      1.2428      1.5850      0.6241      1.2247      0.7354      1.8337      0.1392      0.5889
 25      0.0022      2.6977      2.4923      2.8501      2.0639      2.7266      2.6697      2.4213      2.7863
 26      0.0000      0.0149      0.0878      0.0000      0.0000      0.0000      0.0000      0.0000      0.0000
 27      0.0000      0.0639      0.0000      0.1283      0.0952      0.0808      0.0000      0.0000      0.0678
 28      0.0000      0.0319      0.0344      0.0000      0.0319      0.0000      0.0000      0.1325      0.1411
 29      0.0000      0.0198      0.0000      0.0000      0.0384      0.0000      0.0000      0.0000      0.0000
 30      0.0000      0.0371      0.0725      0.0000      0.2113      0.0117      0.1238      0.0000      0.0000
 31      0.0000      0.0491      0.0000      0.0000      0.1852      0.1415      0.0858      0.0000      0.0000
 32      0.0000      0.0801      0.0862      0.0000      0.0349      0.1391      0.0000      0.2514      0.0000
 33      0.0000      0.1003      0.0000      0.0016      0.0000      0.0258      0.4179      0.1649      0.2485
 34      0.0000      0.1559      0.1797      0.2521      0.1812      0.0000      0.0000      0.0059      0.5290
 35      0.6973      0.1374      0.0869      0.0000      0.4729      0.1906      0.0000      0.2260      0.0738
 36      0.0000      0.0571      0.0475      0.1737      0.1072      0.0076      0.0000      0.0502      0.2017
 37      0.0000      0.0850      0.0358      0.0000      0.0303      0.3271      0.0318      0.0000      0.0000
 38      0.0000      0.0309      0.0000      0.1328      0.0000      0.0000      0.0128      0.0000      0.0000
 39      0.0000      0.0178      0.0000      0.0000      0.0440      0.0000      0.0166      0.0000      0.0000
 40      0.0000      0.0075      0.0000      0.0000      0.0000      0.0000      0.0000      0.0000      0.0000
 41      0.0000      0.0547      0.0000      0.0000      0.0000      0.0000      0.0439      0.0000      0.0000
 42      0.0000      0.0797      0.0000      0.1487      0.1834      0.0383      0.0000      0.3553      0.3902
 43     21.4328     14.7076     15.3716     15.0496     14.9291     15.7743     16.1525     15.7237     15.0106
 44     56.7869     57.6774     57.8031     56.1843     57.8517     58.2830     56.2925     58.7767     58.1300
 45      9.1158     11.1464     11.3783     11.0817     10.5159     11.1806     11.1731     10.8528     11.3438
 46      0.0000      0.7915      0.3782      0.0928      0.1065      0.9520      0.7045      0.0000      0.7925
 47      0.0000      0.0693      0.0663      0.0000      0.0000      0.0000      0.0000      0.0551      0.0000
 48      0.0000      0.1853      0.0000      0.0899      0.0000      0.2085      0.0000      0.0000      0.0000
 49      0.0000      0.4149      0.0000      0.3966      0.5969      0.3448      0.1892      0.0133      0.0000
 50      0.0000      0.6206      1.0698      0.1418      0.0552      0.0000      0.8459      0.2187      0.0211
 51      0.0000      0.0119      0.0000      0.0209      0.0000      0.0661      0.0000      0.0000      0.0191
 52      0.0000      0.0547      0.0000      0.0480      0.1860      0.0912      0.0000      0.0000      0.0000
 53      0.0000      0.0184      0.0509      0.1955      0.0000      0.0000      0.0000      0.0000      0.0000
 54      0.7082      0.1259      0.2836      0.5193      0.1019      0.6580      0.0000      0.2567      0.2061
 55      0.0000      0.0492      0.0000      0.0000      0.0000      0.0725      0.0000      0.0501      0.0059
 56      0.0000      0.0341      0.0605      0.0000      0.0000      0.0000      0.0000      0.2146      0.0000
 57      0.0000      0.0284      0.0000      0.0000      0.0000      0.0877      0.0827      0.0000      0.0000
 58      0.0000      0.0189      0.0000      0.0000      0.0035      0.0000      0.0000      0.0000      0.0000
 59      0.0000      0.0159      0.0000      0.0000      0.0000      0.0000      0.0000      0.0000      0.0112
 60      0.0000      0.0149      0.0000      0.0000      0.0000      0.0000      0.0000      0.0000      0.0024
 61      0.0000      0.0161      0.2143      0.0000      0.0000      0.0000      0.0000      0.0000      0.0050
 62      0.0000      0.0388      0.0040      0.0000      0.0000      0.0000      0.2870      0.2043      0.0000
 63      0.0000      0.0157      0.0000      0.1648      0.0000      0.0000      0.0000      0.0000      0.0000
 64      0.0000      0.0467      0.0722      0.0000      0.0190      0.0000      0.0000      0.0878      0.0000
 65      0.0000      0.0250      0.0000      0.0000      0.0003      0.0000      0.0000      0.0000      0.1527
 66      0.0000      0.0050      0.0000      0.0000      0.0148      0.0000      0.0000      0.0000      0.0000
 67      0.0000      0.0058      0.0000      0.0000      0.0000      0.0000      0.0000      0.0000      0.0000
 68      0.0000      0.0033      0.0000      0.0000      0.0000      0.0000      0.0000      0.0000      0.0000
 69      0.0000      0.0026      0.0000      0.0000      0.0000      0.0000      0.0000      0.0000      0.0000
 70      0.0000      0.0030      0.0000      0.0000      0.0018      0.0000      0.0000      0.0034      0.0000
 71      0.0000      0.0021      0.0000      0.0000      0.0040      0.0000      0.0000      0.0000      0.0000
 72      0.0000      0.0018      0.0000      0.0000      0.0000      0.0000      0.0128      0.0000      0.0000
 73      0.0000      0.0020      0.0000      0.0000      0.0000      0.0000      0.0000      0.0000      0.0000
 74      0.0000      0.0018      0.0000      0.0000      0.0000      0.0000      0.0000      0.0000      0.0000
 75      0.0000      0.0022      0.0000      0.0000      0.0000      0.0000      0.0000      0.0000      0.0000
 76      0.0000      0.0115      0.0000      0.0000      0.0000      0.0000      0.1197      0.0000      0.0000
 77      0.0000      0.0185      0.0000      0.1095      0.0000      0.0000      0.0389      0.1074      0.0000
 78      0.0000      0.0081      0.0000      0.0000      0.0476      0.0000      0.0000      0.0000      0.0000
 79      0.0000      0.0111      0.0123      0.0000      0.0000      0.0000      0.0000      0.0000      0.0000
 80      0.0000      0.0258      0.0000      0.0000      0.0000      0.0000      0.0000      0.0000      0.0000
 81      0.0000      0.0107      0.0000      0.0000      0.0000      0.0749      0.0000      0.0000      0.0000
 82      0.0000      0.0294      0.0000      0.0350      0.0000      0.0000      0.0000      0.0000      0.3055
 83      0.0000      0.1475      0.1036      0.9000      0.1833      0.1536      0.1542      0.0000      0.0482
 84      0.0000      0.1624      0.4867      0.2116      0.2215      0.0000      0.3415      0.2281      0.1224
 85      0.0000      0.0315      0.0000      0.0391      0.0000      0.0253      0.0200      0.0208      0.1268
 86      0.0000      0.0202      0.0000      0.0000      0.0000      0.0000      0.0000      0.0000      0.0000
 87      0.0000      0.0107      0.0000      0.0000      0.0000      0.0000      0.0000      0.0000      0.0290
 88      0.0000      0.0055      0.0000      0.0000      0.0000      0.0000      0.0000      0.0000      0.0000
 89      0.0000      0.0028      0.0000      0.0000      0.0000      0.0000      0.0000      0.0000      0.0000
 90      0.0000      0.0019      0.0000      0.0000      0.0000      0.0000      0.0000      0.0000      0.0000
 91      0.0000      0.0019      0.0000      0.0000      0.0000      0.0000      0.0000      0.0000      0.0000
 92      0.0000      0.0008      0.0000      0.0000      0.0000      0.0000      0.0000      0.0000      0.0000
 93      0.0000      0.0018      0.0000      0.0000      0.0514      0.0000      0.0000      0.0000      0.0000
 94      0.0000      0.0011      0.0000      0.0000      0.0050      0.0000      0.0000      0.0000      0.0000
 95      0.0000      0.0011      0.0000      0.0000      0.0000      0.0000      0.0000      0.0000      0.0000
 96      0.0000      0.0011      0.0000      0.0000      0.0000      0.0256      0.0000      0.0000      0.0000
 97      0.0000      0.0014      0.0000      0.0000      0.0000      0.0000      0.0000      0.0000      0.0000
 98      0.0000      0.0017      0.0000      0.0004      0.0000      0.0000      0.0000      0.0000      0.0000
 99      0.0000      0.0018      0.0000      0.0000      0.0000      0.0000      0.0000      0.0000      0.0000
100      0.0000      0.0013      0.0000      0.0000      0.0000      0.0000      0.0000      0.0000      0.0000
101      0.0000      0.0061      0.0000      0.0000      0.0000      0.0125      0.0000      0.0000      0.0000
102      0.0000      0.0049      0.0000      0.0000      0.0000      0.0000      0.0010      0.0000      0.0000
103      0.0000      0.0309      0.0000      0.0000      0.0260      0.0000      0.1960      0.0000      0.0681
104      0.0000      0.0503      0.0000      0.0000      0.0000      0.0000      0.3176      0.0351      0.0000
105      0.0000      0.0215      0.0000      0.0000      0.0985      0.0000      0.1176      0.0000      0.0897
106      0.0000      0.0142      0.0000      0.0000      0.0000      0.0000      0.0027      0.0000      0.0000
107      0.0000      0.0186      0.0000      0.0000      0.0000      0.0000      0.0000      0.0767      0.0000
108      0.0000      0.0062      0.0000      0.0000      0.0000      0.0016      0.0000      0.0000      0.0000
109      0.0000      0.0191      0.0619      0.0000      0.3207      0.0000      0.0000      0.0000      0.0000
110      0.0000      0.0179      0.0000      0.1774      0.0000      0.0000      0.0000      0.0000      0.0000
111      0.0000      0.0210      0.0000      0.0000      0.0000      0.1449      0.1195      0.0000      0.0000
112      0.0000      0.0188      0.0000      0.0000      0.1415      0.0000      0.0057      0.0045      0.0000
113      0.0000      0.0113      0.0000      0.0000      0.0000      0.0000      0.0000      0.0000      0.0000
114      0.0000      0.0038      0.0000      0.0000      0.0000      0.0000      0.0000      0.0000      0.0000
115      0.0000      0.0015      0.0000      0.0000      0.0000      0.0000      0.0000      0.0000      0.0000
116      0.0000      0.0023      0.0000      0.0000      0.0645      0.0000      0.0000      0.0000      0.0000
117      0.0000      0.0033      0.0000      0.0000      0.0000      0.0000      0.0000      0.0000      0.0000
118      0.0000      0.0008      0.0000      0.0000      0.0000      0.0000      0.0000      0.0000      0.0000
119      0.0000      0.0018      0.0000      0.0000      0.0000      0.0000      0.0000      0.0000      0.0000
120      0.0000      0.0015      0.0000      0.0000      0.0000      0.0160      0.0000      0.0000      0.0000
121      0.0000      0.0014      0.0000      0.0000      0.0000      0.0000      0.0000      0.0000      0.0000
122      0.0000      0.0019      0.0000      0.0000      0.0000      0.0000      0.0000      0.0000      0.0000
123      0.0000      0.0027      0.0000      0.0000      0.0000      0.0000      0.0000      0.0000      0.0000
124      0.0000      0.0024      0.0000      0.0000      0.0000      0.0000      0.0000      0.0000      0.0000
125      0.0000      0.0018      0.0000      0.0036      0.0000      0.0000      0.0000      0.0000      0.0000
126      0.0000      0.0056      0.0000      0.0000      0.0000      0.0000      0.0000      0.0000      0.0000
127      0.0000      0.0096      0.0000      0.0000      0.0430      0.0000      0.0000      0.0000      0.0409
128      0.0000      0.0144      0.0074      0.0000      0.0000      0.0000      0.0000      0.0000      0.0000
129      0.0000      0.0261      0.0000      0.0000      0.0000      0.1317      0.0414      0.0000      0.0000
130      0.0000      0.0069      0.0000      0.0000      0.0000      0.0649      0.0000      0.0000      0.0000
131      0.0000      0.0058      0.0000      0.0000      0.0000      0.0000      0.0000      0.0000      0.0000
132      0.0000      0.0074      0.0000      0.0101      0.0000      0.0000      0.0078      0.0000      0.0283
133      0.0000      0.0104      0.0000      0.0000      0.0000      0.0075      0.0000      0.0000      0.0000
134      0.0000      0.0201      0.0000      0.0000      0.0000      0.0000      0.0466      0.0000      0.0000
135      0.0000      0.0306      0.0000      0.0890      0.0304      0.0000      0.0000      0.0000      0.0000
136      0.0000      0.0194      0.0000      0.0000      0.0000      0.0000      0.0000      0.0000      0.0000
137      0.0000      0.0176      0.0000      0.0000      0.0000      0.0000      0.1073      0.0000      0.0000
138      0.0000      0.0038      0.0000      0.0000      0.0000      0.0000      0.0000      0.0000      0.0000
139      0.0000      0.0040      0.0000      0.0000      0.0000      0.0000      0.0000      0.0262      0.0000
140      0.0000      0.0043      0.0000      0.0000      0.0000      0.0000      0.0000      0.0000      0.0000
141      0.0000      0.0018      0.0000      0.0000      0.0239      0.0000      0.0122      0.0000      0.0352
142      0.0000      0.0015      0.0000      0.0130      0.0000      0.0000      0.0000      0.0000      0.0000
143      0.0000      0.0010      0.0000      0.0000      0.0000      0.0000      0.0000      0.0000      0.0000
144      0.0000      0.0296      0.0000      0.0000      0.0000      0.0000      0.0000      0.0000      0.0000
145      0.0000      0.0407      0.0000      0.0000      0.0000      0.0000      0.0000      0.0000      0.0000
146      0.0000      0.1181      0.0000      0.1229      0.1529      0.1824      0.0000      0.0000      0.2907
147      0.1397      0.4095      0.3168      0.4239      0.4281      0.1815      0.3533      0.4676      0.3718
148      0.5040      0.3785      0.4208      0.3300      0.3632      0.3990      0.3336      0.4188      0.4732
149      0.3258      0.2436      0.2241      0.3106      0.1724      0.3004      0.2948      0.2312      0.2241
150      0.0000      0.2362      0.3943      0.2268      0.2899      0.2769      0.2124      0.2194      0.2702

# j      m_j: min, <> & last-chain-values for 1 ...  7 chains
  1  0.0000E+00  2.5323E-04  0.0000E+00  0.0000E+00  0.0000E+00  9.7785E-05  0.0000E+00  0.0000E+00  0.0000E+00
  2  2.0776E-02  1.3616E-03  1.3182E-03  4.5699E-04  1.9860E-03  1.4494E-03  1.4507E-03  2.5265E-03  1.5427E-03
  3  2.9328E-03  4.2287E-04  0.0000E+00  1.5959E-04  8.8326E-04  7.7029E-04  7.9535E-04  2.1319E-03  5.7715E-04
  4  0.0000E+00  4.7596E-04  3.6516E-03  0.0000E+00  0.0000E+00  0.0000E+00  2.0628E-04  1.1987E-04  1.9570E-04
  5  0.0000E+00  5.5458E-04  8.0351E-04  3.2368E-03  0.0000E+00  2.5314E-04  6.2622E-04  0.0000E+00  0.0000E+00
  6  0.0000E+00  4.2196E-04  0.0000E+00  2.3684E-04  0.0000E+00  0.0000E+00  0.0000E+00  0.0000E+00  0.0000E+00
  7  0.0000E+00  5.8444E-04  0.0000E+00  0.0000E+00  0.0000E+00  1.0595E-03  0.0000E+00  0.0000E+00  0.0000E+00
  8  0.0000E+00  8.5660E-04  1.3745E-03  0.0000E+00  1.0422E-03  0.0000E+00  0.0000E+00  0.0000E+00  2.6561E-03
  9  6.3268E-02  8.5830E-03  1.5585E-02  1.0768E-02  8.7810E-03  1.6069E-02  5.9605E-03  2.0872E-02  8.2505E-03
 10  5.7373E-02  7.2971E-03  0.0000E+00  2.4708E-03  1.3830E-02  0.0000E+00  7.0133E-03  2.3573E-02  2.1788E-02
 11  0.0000E+00  6.0792E-03  7.0981E-03  3.4820E-03  1.1993E-03  9.4100E-03  1.5933E-02  0.0000E+00  5.6994E-03
 12  2.9668E-07  7.5940E-03  4.4477E-03  0.0000E+00  0.0000E+00  0.0000E+00  0.0000E+00  2.4801E-02  4.1504E-03
 13  0.0000E+00  5.4319E-03  0.0000E+00  0.0000E+00  1.9084E-03  5.5729E-03  0.0000E+00  0.0000E+00  0.0000E+00
 14  0.0000E+00  1.8668E-03  0.0000E+00  0.0000E+00  0.0000E+00  0.0000E+00  0.0000E+00  0.0000E+00  0.0000E+00
 15  0.0000E+00  3.0565E-03  0.0000E+00  0.0000E+00  0.0000E+00  0.0000E+00  4.3948E-03  0.0000E+00  1.2509E-02
 16  0.0000E+00  4.5726E-03  0.0000E+00  0.0000E+00  0.0000E+00  0.0000E+00  0.0000E+00  0.0000E+00  0.0000E+00
 17  0.0000E+00  7.3790E-03  0.0000E+00  5.3084E-03  4.5154E-03  0.0000E+00  8.1305E-02  0.0000E+00  4.0195E-04
 18  0.0000E+00  3.7587E-02  2.9326E-02  3.9295E-02  0.0000E+00  0.0000E+00  0.0000E+00  0.0000E+00  0.0000E+00
 19  0.0000E+00  2.0238E-01  0.0000E+00  4.2747E-02  3.5381E-01  3.0038E-01  3.3422E-01  0.0000E+00  0.0000E+00
 20  1.4114E-03  2.9821E-01  3.3786E-01  7.0426E-01  1.7894E-01  4.2421E-01  0.0000E+00  2.5324E-01  6.8722E-01
 21  4.9061E-01  9.2238E-01  1.8059E+00  8.9531E-01  1.8493E+00  3.9569E-01  7.7354E-01  1.1208E+00  7.4580E-01
 22  7.0405E-01  2.2617E+00  1.8040E+00  4.5330E+00  3.5830E+00  1.8288E+00  1.7563E+00  3.1078E+00  1.8958E+00
 23  1.2680E-02  2.1492E+00  1.7129E+00  4.2575E+00  2.1051E+00  2.4920E+00  2.7630E+00  2.4610E+00  2.8087E+00
 24  0.0000E+00  2.6000E+00  3.2891E+00  1.3050E+00  2.6358E+00  1.5783E+00  3.9165E+00  3.0749E-01  1.2479E+00
 25  7.3583E-03  6.7799E+00  6.2129E+00  7.1587E+00  5.3361E+00  7.0297E+00  6.8501E+00  6.4265E+00  7.0932E+00
 26  0.0000E+00  2.3401E-04  1.3717E-03  0.0000E+00  0.0000E+00  0.0000E+00  0.0000E+00  0.0000E+00  0.0000E+00
 27  0.0000E+00  2.1434E-04  0.0000E+00  4.2983E-04  3.2858E-04  2.7805E-04  0.0000E+00  0.0000E+00  2.3024E-04
 28  0.0000E+00  2.0931E-04  2.2386E-04  0.0000E+00  2.1505E-04  0.0000E+00  0.0000E+00  9.1835E-04  9.3808E-04
 29  0.0000E+00  2.0210E-04  0.0000E+00  0.0000E+00  4.0381E-04  0.0000E+00  0.0000E+00  0.0000E+00  0.0000E+00
 30  0.0000E+00  4.7159E-04  9.1425E-04  0.0000E+00  2.7636E-03  1.5266E-04  1.6062E-03  0.0000E+00  0.0000E+00
 31  0.0000E+00  7.2068E-04  0.0000E+00  0.0000E+00  2.7984E-03  2.1323E-03  1.2863E-03  0.0000E+00  0.0000E+00
 32  0.0000E+00  1.3033E-03  1.3909E-03  0.0000E+00  5.8472E-04  2.3213E-03  0.0000E+00  4.3182E-03  0.0000E+00
 33  0.0000E+00  2.3174E-03  0.0000E+00  3.6828E-05  0.0000E+00  6.1168E-04  9.8600E-03  4.0244E-03  5.8177E-03
 34  0.0000E+00  4.3780E-03  5.0052E-03  7.0747E-03  5.2335E-03  0.0000E+00  0.0000E+00  1.7348E-04  1.5043E-02
 35  3.0782E-02  4.6596E-03  2.9249E-03  0.0000E+00  1.6502E-02  6.6317E-03  0.0000E+00  8.0969E-03  2.5359E-03
 36  0.0000E+00  2.4846E-03  2.0499E-03  7.5518E-03  4.7949E-03  3.3905E-04  0.0000E+00  2.3072E-03  8.8859E-03
 37  0.0000E+00  4.5960E-03  1.9209E-03  0.0000E+00  1.6821E-03  1.8136E-02  1.7530E-03  0.0000E+00  0.0000E+00
 38  0.0000E+00  2.3274E-03  0.0000E+00  9.9935E-03  0.0000E+00  0.0000E+00  9.8048E-04  0.0000E+00  0.0000E+00
 39  0.0000E+00  2.0023E-03  0.0000E+00  0.0000E+00  5.0872E-03  0.0000E+00  1.9047E-03  0.0000E+00  0.0000E+00
 40  0.0000E+00  1.4954E-03  0.0000E+00  0.0000E+00  0.0000E+00  0.0000E+00  0.0000E+00  0.0000E+00  0.0000E+00
 41  0.0000E+00  1.4526E-02  0.0000E+00  0.0000E+00  0.0000E+00  0.0000E+00  1.1910E-02  0.0000E+00  0.0000E+00
 42  0.0000E+00  2.3639E-02  0.0000E+00  4.4059E-02  5.5921E-02  1.1642E-02  0.0000E+00  1.1124E-01  1.1716E-01
 43  1.3451E+01  7.0922E+00  7.3524E+00  7.2529E+00  7.4062E+00  7.8033E+00  7.9522E+00  8.0076E+00  7.3321E+00
 44  5.6362E+01  4.3987E+01  4.3726E+01  4.2823E+01  4.5389E+01  4.5598E+01  4.3830E+01  4.7340E+01  4.4906E+01
 45  1.2610E+01  1.1848E+01  1.1996E+01  1.1772E+01  1.1499E+01  1.2192E+01  1.2125E+01  1.2183E+01  1.2214E+01
 46  0.0000E+00  1.0022E+00  4.7506E-01  1.1740E-01  1.3871E-01  1.2366E+00  9.1071E-01  0.0000E+00  1.0165E+00
 47  0.0000E+00  1.1498E-01  1.0918E-01  0.0000E+00  0.0000E+00  0.0000E+00  0.0000E+00  9.6602E-02  0.0000E+00
 48  0.0000E+00  3.6619E-01  0.0000E+00  1.7755E-01  0.0000E+00  4.2268E-01  0.0000E+00  0.0000E+00  0.0000E+00
 49  0.0000E+00  9.1724E-01  0.0000E+00  8.7633E-01  1.3575E+00  7.8199E-01  4.2710E-01  3.1105E-02  0.0000E+00
 50  0.0000E+00  1.6138E+00  2.7592E+00  3.6857E-01  1.4774E-01  0.0000E+00  2.2455E+00  6.0065E-01  5.5573E-02
 51  0.0000E+00  1.4198E-04  0.0000E+00  2.5022E-04  0.0000E+00  8.1141E-04  0.0000E+00  0.0000E+00  2.3185E-04
 52  0.0000E+00  1.7886E-04  0.0000E+00  1.5676E-04  6.2567E-04  3.0584E-04  0.0000E+00  0.0000E+00  0.0000E+00
 53  0.0000E+00  9.1695E-05  2.5207E-04  9.7448E-04  0.0000E+00  0.0000E+00  0.0000E+00  0.0000E+00  0.0000E+00
 54  4.3829E-03  5.9893E-04  1.3378E-03  2.4678E-03  4.9848E-04  3.2097E-03  0.0000E+00  1.2891E-03  9.9278E-04
 55  0.0000E+00  3.4504E-04  0.0000E+00  0.0000E+00  0.0000E+00  5.2197E-04  0.0000E+00  3.7128E-04  4.2059E-05
 56  0.0000E+00  3.1643E-04  5.5715E-04  0.0000E+00  0.0000E+00  0.0000E+00  0.0000E+00  2.1051E-03  0.0000E+00
 57  0.0000E+00  4.2285E-04  0.0000E+00  0.0000E+00  0.0000E+00  1.3402E-03  1.2572E-03  0.0000E+00  0.0000E+00
 58  0.0000E+00  4.0612E-04  0.0000E+00  0.0000E+00  7.6896E-05  0.0000E+00  0.0000E+00  0.0000E+00  0.0000E+00
 59  0.0000E+00  4.7582E-04  0.0000E+00  0.0000E+00  0.0000E+00  0.0000E+00  0.0000E+00  0.0000E+00  3.3767E-04
 60  0.0000E+00  4.9419E-04  0.0000E+00  0.0000E+00  0.0000E+00  0.0000E+00  0.0000E+00  0.0000E+00  8.1842E-05
 61  0.0000E+00  6.8253E-04  8.9984E-03  0.0000E+00  0.0000E+00  0.0000E+00  0.0000E+00  0.0000E+00  2.1445E-04
 62  0.0000E+00  2.0834E-03  2.1124E-04  0.0000E+00  0.0000E+00  0.0000E+00  1.5726E-02  1.1583E-02  0.0000E+00
 63  0.0000E+00  1.2855E-03  0.0000E+00  1.3452E-02  0.0000E+00  0.0000E+00  0.0000E+00  0.0000E+00  0.0000E+00
 64  0.0000E+00  6.2668E-03  9.6141E-03  0.0000E+00  2.6243E-03  0.0000E+00  0.0000E+00  1.2460E-02  0.0000E+00
 65  0.0000E+00  5.6671E-03  0.0000E+00  0.0000E+00  6.3294E-05  0.0000E+00  0.0000E+00  0.0000E+00  3.5111E-02
 66  0.0000E+00  1.4521E-03  0.0000E+00  0.0000E+00  4.4226E-03  0.0000E+00  0.0000E+00  0.0000E+00  0.0000E+00
 67  0.0000E+00  2.3059E-03  0.0000E+00  0.0000E+00  0.0000E+00  0.0000E+00  0.0000E+00  0.0000E+00  0.0000E+00
 68  0.0000E+00  2.4677E-03  0.0000E+00  0.0000E+00  0.0000E+00  0.0000E+00  0.0000E+00  0.0000E+00  0.0000E+00
 69  0.0000E+00  3.3621E-03  0.0000E+00  0.0000E+00  0.0000E+00  0.0000E+00  0.0000E+00  0.0000E+00  0.0000E+00
 70  0.0000E+00  5.2637E-03  0.0000E+00  0.0000E+00  3.2041E-03  0.0000E+00  0.0000E+00  6.4040E-03  0.0000E+00
 71  0.0000E+00  4.4495E-03  0.0000E+00  0.0000E+00  8.6678E-03  0.0000E+00  0.0000E+00  0.0000E+00  0.0000E+00
 72  0.0000E+00  4.8415E-03  0.0000E+00  0.0000E+00  0.0000E+00  0.0000E+00  3.6140E-02  0.0000E+00  0.0000E+00
 73  0.0000E+00  6.8388E-03  0.0000E+00  0.0000E+00  0.0000E+00  0.0000E+00  0.0000E+00  0.0000E+00  0.0000E+00
 74  0.0000E+00  7.1397E-03  0.0000E+00  0.0000E+00  0.0000E+00  0.0000E+00  0.0000E+00  0.0000E+00  0.0000E+00
 75  0.0000E+00  1.0024E-02  0.0000E+00  0.0000E+00  0.0000E+00  0.0000E+00  0.0000E+00  0.0000E+00  0.0000E+00
 76  0.0000E+00  1.1953E-04  0.0000E+00  0.0000E+00  0.0000E+00  0.0000E+00  1.2660E-03  0.0000E+00  0.0000E+00
 77  0.0000E+00  7.7917E-05  0.0000E+00  4.6179E-04  0.0000E+00  0.0000E+00  1.6743E-04  4.7846E-04  0.0000E+00
 78  0.0000E+00  3.8131E-05  0.0000E+00  0.0000E+00  2.3104E-04  0.0000E+00  0.0000E+00  0.0000E+00  0.0000E+00
 79  0.0000E+00  6.3292E-05  6.9449E-05  0.0000E+00  0.0000E+00  0.0000E+00  0.0000E+00  0.0000E+00  0.0000E+00
 80  0.0000E+00  1.8866E-04  0.0000E+00  0.0000E+00  0.0000E+00  0.0000E+00  0.0000E+00  0.0000E+00  0.0000E+00
 81  0.0000E+00  1.0346E-04  0.0000E+00  0.0000E+00  0.0000E+00  7.4323E-04  0.0000E+00  0.0000E+00  0.0000E+00
 82  0.0000E+00  3.8332E-04  0.0000E+00  4.5641E-04  0.0000E+00  0.0000E+00  0.0000E+00  0.0000E+00  4.0346E-03
 83  0.0000E+00  2.8253E-03  1.9689E-03  1.7231E-02  3.6130E-03  3.0194E-03  3.0168E-03  0.0000E+00  9.3448E-04
 84  6.6444E-08  4.3054E-03  1.2803E-02  5.6082E-03  6.0426E-03  0.0000E+00  9.2461E-03  6.3889E-03  3.2882E-03
 85  0.0000E+00  1.0149E-03  0.0000E+00  1.2573E-03  0.0000E+00  8.3677E-04  6.5813E-04  7.0666E-04  4.1352E-03
 86  0.0000E+00  8.8150E-04  0.0000E+00  0.0000E+00  0.0000E+00  0.0000E+00  0.0000E+00  0.0000E+00  0.0000E+00
 87  0.0000E+00  6.2271E-04  0.0000E+00  0.0000E+00  0.0000E+00  0.0000E+00  0.0000E+00  0.0000E+00  1.7066E-03
 88  0.0000E+00  4.8322E-04  0.0000E+00  0.0000E+00  0.0000E+00  0.0000E+00  0.0000E+00  0.0000E+00  0.0000E+00
 89  0.0000E+00  4.0693E-04  0.0000E+00  0.0000E+00  0.0000E+00  0.0000E+00  0.0000E+00  0.0000E+00  0.0000E+00
 90  0.0000E+00  5.2539E-04  0.0000E+00  0.0000E+00  0.0000E+00  0.0000E+00  0.0000E+00  0.0000E+00  0.0000E+00
 91  0.0000E+00  6.5637E-04  0.0000E+00  0.0000E+00  0.0000E+00  0.0000E+00  0.0000E+00  0.0000E+00  0.0000E+00
 92  0.0000E+00  3.7671E-04  0.0000E+00  0.0000E+00  0.0000E+00  0.0000E+00  0.0000E+00  0.0000E+00  0.0000E+00
 93  0.0000E+00  1.6692E-03  0.0000E+00  0.0000E+00  5.0296E-02  0.0000E+00  0.0000E+00  0.0000E+00  0.0000E+00
 94  0.0000E+00  1.8496E-03  0.0000E+00  0.0000E+00  8.7888E-03  0.0000E+00  0.0000E+00  0.0000E+00  0.0000E+00
 95  0.0000E+00  2.6317E-03  0.0000E+00  0.0000E+00  0.0000E+00  0.0000E+00  0.0000E+00  0.0000E+00  0.0000E+00
 96  0.0000E+00  3.1653E-03  0.0000E+00  0.0000E+00  0.0000E+00  7.2824E-02  0.0000E+00  0.0000E+00  0.0000E+00
 97  0.0000E+00  5.1740E-03  0.0000E+00  0.0000E+00  0.0000E+00  0.0000E+00  0.0000E+00  0.0000E+00  0.0000E+00
 98  0.0000E+00  7.9014E-03  0.0000E+00  1.6810E-03  0.0000E+00  0.0000E+00  0.0000E+00  0.0000E+00  0.0000E+00
 99  0.0000E+00  9.3020E-03  0.0000E+00  0.0000E+00  0.0000E+00  0.0000E+00  0.0000E+00  0.0000E+00  0.0000E+00
100  0.0000E+00  7.9430E-03  0.0000E+00  0.0000E+00  0.0000E+00  0.0000E+00  0.0000E+00  0.0000E+00  0.0000E+00
101  0.0000E+00  4.1068E-05  0.0000E+00  0.0000E+00  0.0000E+00  8.6116E-05  0.0000E+00  0.0000E+00  0.0000E+00
102  0.0000E+00  1.6996E-05  0.0000E+00  0.0000E+00  0.0000E+00  0.0000E+00  3.6676E-06  0.0000E+00  0.0000E+00
103  0.0000E+00  1.1917E-04  0.0000E+00  0.0000E+00  1.0329E-04  0.0000E+00  7.7174E-04  0.0000E+00  2.6589E-04
104  0.0000E+00  2.5537E-04  0.0000E+00  0.0000E+00  0.0000E+00  0.0000E+00  1.6451E-03  1.8822E-04  0.0000E+00
105  0.0000E+00  2.2998E-04  0.0000E+00  0.0000E+00  1.0860E-03  0.0000E+00  1.2859E-03  0.0000E+00  9.7308E-04
106  0.0000E+00  1.6410E-04  0.0000E+00  0.0000E+00  0.0000E+00  0.0000E+00  3.2357E-05  0.0000E+00  0.0000E+00
107  0.0000E+00  2.8642E-04  0.0000E+00  0.0000E+00  0.0000E+00  0.0000E+00  0.0000E+00  1.2475E-03  0.0000E+00
108  0.0000E+00  1.5862E-04  0.0000E+00  0.0000E+00  0.0000E+00  4.3010E-05  0.0000E+00  0.0000E+00  0.0000E+00
109  0.0000E+00  5.8810E-04  1.8916E-03  0.0000E+00  1.0162E-02  0.0000E+00  0.0000E+00  0.0000E+00  0.0000E+00
110  0.0000E+00  6.5939E-04  0.0000E+00  6.5295E-03  0.0000E+00  0.0000E+00  0.0000E+00  0.0000E+00  0.0000E+00
111  0.0000E+00  1.0745E-03  0.0000E+00  0.0000E+00  0.0000E+00  7.6128E-03  6.2483E-03  0.0000E+00  0.0000E+00
112  0.0000E+00  1.2716E-03  0.0000E+00  0.0000E+00  9.8217E-03  0.0000E+00  3.9547E-04  3.2169E-04  0.0000E+00
113  0.0000E+00  1.1339E-03  0.0000E+00  0.0000E+00  0.0000E+00  0.0000E+00  0.0000E+00  0.0000E+00  0.0000E+00
114  0.0000E+00  6.7272E-04  0.0000E+00  0.0000E+00  0.0000E+00  0.0000E+00  0.0000E+00  0.0000E+00  0.0000E+00
115  0.0000E+00  5.4485E-04  0.0000E+00  0.0000E+00  0.0000E+00  0.0000E+00  0.0000E+00  0.0000E+00  0.0000E+00
116  0.0000E+00  1.3360E-03  0.0000E+00  0.0000E+00  3.7751E-02  0.0000E+00  0.0000E+00  0.0000E+00  0.0000E+00
117  0.0000E+00  2.1936E-03  0.0000E+00  0.0000E+00  0.0000E+00  0.0000E+00  0.0000E+00  0.0000E+00  0.0000E+00
118  0.0000E+00  1.0266E-03  0.0000E+00  0.0000E+00  0.0000E+00  0.0000E+00  0.0000E+00  0.0000E+00  0.0000E+00
119  0.0000E+00  4.2447E-03  0.0000E+00  0.0000E+00  0.0000E+00  0.0000E+00  0.0000E+00  0.0000E+00  0.0000E+00
120  0.0000E+00  4.9482E-03  0.0000E+00  0.0000E+00  0.0000E+00  5.4915E-02  0.0000E+00  0.0000E+00  0.0000E+00
121  0.0000E+00  5.5235E-03  0.0000E+00  0.0000E+00  0.0000E+00  0.0000E+00  0.0000E+00  0.0000E+00  0.0000E+00
122  0.0000E+00  9.8338E-03  0.0000E+00  0.0000E+00  0.0000E+00  0.0000E+00  0.0000E+00  0.0000E+00  0.0000E+00
123  0.0000E+00  1.8549E-02  0.0000E+00  0.0000E+00  0.0000E+00  0.0000E+00  0.0000E+00  0.0000E+00  0.0000E+00
124  0.0000E+00  1.9425E-02  0.0000E+00  0.0000E+00  0.0000E+00  0.0000E+00  0.0000E+00  0.0000E+00  0.0000E+00
125  0.0000E+00  1.6939E-02  0.0000E+00  3.4093E-02  0.0000E+00  0.0000E+00  0.0000E+00  0.0000E+00  0.0000E+00
126  0.0000E+00  2.8129E-05  0.0000E+00  0.0000E+00  0.0000E+00  0.0000E+00  0.0000E+00  0.0000E+00  0.0000E+00
127  0.0000E+00  2.5395E-05  0.0000E+00  0.0000E+00  1.1721E-04  0.0000E+00  0.0000E+00  0.0000E+00  1.0973E-04
128  0.0000E+00  5.6783E-05  2.8811E-05  0.0000E+00  0.0000E+00  0.0000E+00  0.0000E+00  0.0000E+00  0.0000E+00
129  0.0000E+00  2.1005E-04  0.0000E+00  0.0000E+00  0.0000E+00  1.0852E-03  3.3962E-04  0.0000E+00  0.0000E+00
130  0.0000E+00  7.6077E-05  0.0000E+00  0.0000E+00  0.0000E+00  7.2983E-04  0.0000E+00  0.0000E+00  0.0000E+00
131  0.0000E+00  7.4075E-05  0.0000E+00  0.0000E+00  0.0000E+00  0.0000E+00  0.0000E+00  0.0000E+00  0.0000E+00
132  0.0000E+00  1.2745E-04  0.0000E+00  1.7348E-04  0.0000E+00  0.0000E+00  1.3669E-04  0.0000E+00  4.9384E-04
133  0.0000E+00  2.6010E-04  0.0000E+00  0.0000E+00  0.0000E+00  1.9329E-04  0.0000E+00  0.0000E+00  0.0000E+00
134  0.0000E+00  6.3779E-04  0.0000E+00  0.0000E+00  0.0000E+00  0.0000E+00  1.5093E-03  0.0000E+00  0.0000E+00
135  0.0000E+00  1.1685E-03  0.0000E+00  3.3971E-03  1.1955E-03  0.0000E+00  0.0000E+00  0.0000E+00  0.0000E+00
136  0.0000E+00  1.0672E-03  0.0000E+00  0.0000E+00  0.0000E+00  0.0000E+00  0.0000E+00  0.0000E+00  0.0000E+00
137  0.0000E+00  1.3225E-03  0.0000E+00  0.0000E+00  0.0000E+00  0.0000E+00  8.2361E-03  0.0000E+00  0.0000E+00
138  0.0000E+00  4.7267E-04  0.0000E+00  0.0000E+00  0.0000E+00  0.0000E+00  0.0000E+00  0.0000E+00  0.0000E+00
139  0.0000E+00  9.5501E-04  0.0000E+00  0.0000E+00  0.0000E+00  0.0000E+00  0.0000E+00  6.5158E-03  0.0000E+00
140  0.0000E+00  2.3403E-03  0.0000E+00  0.0000E+00  0.0000E+00  0.0000E+00  0.0000E+00  0.0000E+00  0.0000E+00
141  0.0000E+00  1.5297E-03  0.0000E+00  0.0000E+00  2.0559E-02  0.0000E+00  1.0400E-02  0.0000E+00  2.9815E-02
142  0.0000E+00  1.4608E-03  0.0000E+00  1.2980E-02  0.0000E+00  0.0000E+00  0.0000E+00  0.0000E+00  0.0000E+00
143  0.0000E+00  2.0453E-03  0.0000E+00  0.0000E+00  0.0000E+00  0.0000E+00  0.0000E+00  0.0000E+00  0.0000E+00
144  0.0000E+00  1.1517E-01  0.0000E+00  0.0000E+00  0.0000E+00  0.0000E+00  0.0000E+00  0.0000E+00  0.0000E+00
145  0.0000E+00  2.3574E-01  0.0000E+00  0.0000E+00  0.0000E+00  0.0000E+00  0.0000E+00  0.0000E+00  0.0000E+00
146  0.0000E+00  8.1598E-01  0.0000E+00  8.4850E-01  1.0866E+00  1.2927E+00  0.0000E+00  0.0000E+00  2.0348E+00
147  1.6879E+00  3.8014E+00  2.9173E+00  3.9336E+00  4.0886E+00  1.7284E+00  3.3486E+00  4.5849E+00  3.4970E+00
148  8.2479E+00  4.7594E+00  5.2489E+00  4.1473E+00  4.6984E+00  5.1479E+00  4.2837E+00  5.5625E+00  6.0282E+00
149  6.2455E+00  3.5882E+00  3.2744E+00  4.5728E+00  2.6125E+00  4.5385E+00  4.4329E+00  3.5969E+00  3.3430E+00
150  0.0000E+00  4.1437E+00  6.8616E+00  3.9773E+00  5.2328E+00  4.9843E+00  3.8049E+00  4.0647E+00  4.8026E+00

# AV, chi2 & Mass for <> & i_chain = 1 ...  7 solutions
AV       0.8764      0.7672      0.7701      0.7795      0.7848      0.7756      0.7834      0.7932      0.7760
chi2 2.3366E+00  2.5720E+00  2.5511E+00  2.5326E+00  2.5241E+00  2.5389E+00  2.5312E+00  2.4940E+00  2.5412E+00
Mass 3.6875E-10  4.1448E-10  4.1949E-10  4.2159E-10  4.1252E-10  4.0859E-10  4.1488E-10  4.0642E-10  4.1405E-10
 -20.00                                  [v0_min (km/s) before EX0s...]
  66.45                                  [vd_min (km/s) before EX0s...]


## Synthetic spectrum (Best Model) ##l_obs f_obs f_syn wei
 3070    [Nl_obs]
 3359.00    0.23525   0.37656   -1.000
 3360.00    0.23311   0.36953   -1.000
 3361.00    0.24299   0.38148   -1.000
 3362.00    0.26273   0.40418   -1.000
 3363.00    0.27723   0.42744   -1.000
 3364.00    0.27363   0.43955   -1.000
 3365.00    0.27749   0.43786   -1.000
 3366.00    0.29185   0.43145   -1.000
 3367.00    0.28018   0.42516   -1.000
 3368.00    0.27482   0.41810   -1.000
 3369.00    0.28217   0.40759   -1.000
 3370.00    0.28400   0.39325   -1.000
 3371.00    0.26910   0.38448   -1.000
 3372.00    0.27859   0.38904   -1.000
 3373.00    0.28461   0.40528   -1.000
 3374.00    0.29194   0.42555   -1.000
 3375.00    0.29854   0.44275   -1.000
 3376.00    0.31690   0.45060   -1.000
 3377.00    0.32759   0.44805   -1.000
 3378.00    0.32754   0.43951   -1.000
 3379.00    0.32505   0.43305   -1.000
 3380.00    0.32589   0.43309   -1.000
 3381.00    0.31079   0.43725   -1.000
 3382.00    0.30912   0.44228   -1.000
 3383.00    0.33287   0.44716   -1.000
 3384.00    0.33904   0.45158   -1.000
 3385.00    0.33191   0.45276   -1.000
 3386.00    0.34068   0.44675   -1.000
 3387.00    0.35087   0.43827   -1.000
 3388.00    0.34972   0.43674   -1.000
 3389.00    0.35897   0.44375   -1.000
 3390.00    0.37041   0.45246   -1.000
 3391.00    0.36376   0.45554   -1.000
 3392.00    0.34548   0.45107   -1.000
 3393.00    0.36597   0.44772   -1.000
 3394.00    0.37004   0.45206   -1.000
 3395.00    0.37965   0.46293   -1.000
 3396.00    0.38879   0.47587   -1.000
 3397.00    0.41234   0.48636   -1.000
 3398.00    0.41889   0.49258   -1.000
 3399.00    0.42591   0.49275   -1.000
 3400.00    0.42157   0.48681   -1.000
 3401.00    0.41652   0.47488   -1.000
 3402.00    0.42650   0.46116   -1.000
 3403.00    0.42046   0.45316   -1.000
 3404.00    0.40669   0.45172   -1.000
 3405.00    0.39679   0.45409   -1.000
 3406.00    0.39717   0.45340   -1.000
 3407.00    0.39672   0.44814   -1.000
 3408.00    0.39853   0.44359   -1.000
 3409.00    0.39517   0.44593   -1.000
 3410.00    0.40643   0.45167   -1.000
 3411.00    0.40711   0.45222   -1.000
 3412.00    0.41512   0.44792   -1.000
 3413.00    0.41532   0.44392   -1.000
 3414.00    0.40566   0.44686   -1.000
 3415.00    0.41297   0.45644   -1.000
 3416.00    0.41309   0.46653   -1.000
 3417.00    0.41824   0.47460   -1.000
 3418.00    0.43357   0.48114   -1.000
 3419.00    0.44076   0.48670   -1.000
 3420.00    0.45244   0.48989   -1.000
 3421.00    0.45384   0.48646   -1.000
 3422.00    0.44535   0.47558   -1.000
 3423.00    0.44063   0.46426  211.973
 3424.00    0.44280   0.46026  205.744
 3425.00    0.44647   0.46389  200.680
 3426.00    0.44600   0.47117   -1.000
 3427.00    0.45519   0.48143   -1.000
 3428.00    0.45902   0.49420   -1.000
 3429.00    0.46143   0.50474   -1.000
 3430.00    0.47773   0.50481   -1.000
 3431.00    0.46909   0.49285   -1.000
 3432.00    0.46916   0.48005  200.482
 3433.00    0.47257   0.47795  215.028
 3434.00    0.45898   0.48813   -1.000
 3435.00    0.46657   0.49945   -1.000
 3436.00    0.47414   0.50049   -1.000
 3437.00    0.47170   0.49114  209.587
 3438.00    0.46846   0.47757  222.590
 3439.00    0.44283   0.46351  239.705
 3440.00    0.43616   0.44986  248.465
 3441.00    0.42362   0.43833  248.646
 3442.00    0.43568   0.43293   -1.000
 3443.00    0.43903   0.43523   -1.000
 3444.00    0.43955   0.44421  223.518
 3445.00    0.44310   0.45874  211.549
 3446.00    0.46262   0.47764  221.923
 3447.00    0.47685   0.49646   -1.000
 3448.00    0.49006   0.50888   -1.000
 3449.00    0.47398   0.50884   -1.000
 3450.00    0.47772   0.49496   -1.000
 3451.00    0.48972   0.47672   -1.000
 3452.00    0.48560   0.46542   -1.000
 3453.00    0.49030   0.46471   -1.000
 3454.00    0.48763   0.47088   -1.000
 3455.00    0.49581   0.47784   -1.000
 3456.00    0.49853   0.48127   -1.000
 3457.00    0.49632   0.48006   -1.000
 3458.00    0.48627   0.47493   -1.000
 3459.00    0.47649   0.46721  202.347
 3460.00    0.46974   0.45952   -1.000
 3461.00    0.47726   0.45797   -1.000
 3462.00    0.48969   0.46452   -1.000
 3463.00    0.49067   0.47277   -1.000
 3464.00    0.49275   0.47605   -1.000
 3465.00    0.50005   0.47476   -1.000
 3466.00    0.49196   0.47671   -1.000
 3467.00    0.49952   0.48586   -1.000
 3468.00    0.50296   0.49870   -1.000
 3469.00    0.51564   0.50879   -1.000
 3470.00    0.52073   0.51166   -1.000
 3471.00    0.51841   0.50687   -1.000
 3472.00    0.50993   0.49561   -1.000
 3473.00    0.48666   0.48008   -1.000
 3474.00    0.47216   0.46682  202.107
 3475.00    0.47196   0.46102   -1.000
 3476.00    0.47308   0.46487  223.348
 3477.00    0.47499   0.47660  665.053
 3478.00    0.48315   0.48977   -1.000
 3479.00    0.49453   0.50080   -1.000
 3480.00    0.50212   0.50793   -1.000
 3481.00    0.52009   0.50878   -1.000
 3482.00    0.53181   0.50493   -1.000
 3483.00    0.51067   0.50075   -1.000
 3484.00    0.50497   0.50088  665.053
 3485.00    0.51524   0.50733   -1.000
 3486.00    0.51971   0.51437   -1.000
 3487.00    0.52131   0.51462   -1.000
 3488.00    0.51952   0.50688   -1.000
 3489.00    0.50738   0.49496   -1.000
 3490.00    0.50401   0.48708   -1.000
 3491.00    0.48932   0.48873  665.053
 3492.00    0.48236   0.49481   -1.000
 3493.00    0.49081   0.49671  665.053
 3494.00    0.48823   0.49221  665.053
 3495.00    0.48986   0.48397   -1.000
 3496.00    0.49340   0.47843   -1.000
 3497.00    0.49153   0.47943   -1.000
 3498.00    0.48498   0.48423   -1.000
 3499.00    0.51040   0.48937   -1.000
 3500.00    0.51721   0.49146   -1.000
 3501.00    0.52531   0.49238   -1.000
 3502.00    0.52047   0.49492   -1.000
 3503.00    0.52222   0.49728   -1.000
 3504.00    0.52414   0.49677   -1.000
 3505.00    0.51517   0.49242   -1.000
 3506.00    0.50700   0.48706   -1.000
 3507.00    0.50097   0.48361   -1.000
 3508.00    0.51145   0.48310   -1.000
 3509.00    0.51953   0.48440   -1.000
 3510.00    0.52385   0.48422   -1.000
 3511.00    0.51267   0.48135   -1.000
 3512.00    0.50710   0.47682   -1.000
 3513.00    0.50110   0.47412   -1.000
 3514.00    0.49541   0.47729   -1.000
 3515.00    0.50829   0.48854   -1.000
 3516.00    0.52541   0.50489   -1.000
 3517.00    0.52788   0.51662   -1.000
 3518.00    0.52872   0.51600   -1.000
 3519.00    0.52108   0.50479   -1.000
 3520.00    0.51131   0.49224   -1.000
 3521.00    0.49521   0.48368   -1.000
 3522.00    0.49946   0.47807   -1.000
 3523.00    0.49345   0.47191   -1.000
 3524.00    0.48557   0.46475   -1.000
 3525.00    0.47347   0.46205   -1.000
 3526.00    0.47043   0.46758   -1.000
 3527.00    0.48602   0.47911   -1.000
 3528.00    0.49546   0.49336   -1.000
 3529.00    0.51582   0.50654  166.192
 3530.00    0.52997   0.51557  169.529
 3531.00    0.52179   0.51836  170.246
 3532.00    0.52437   0.51313  168.207
 3533.00    0.52831   0.50324   -1.000
 3534.00    0.52435   0.49674   -1.000
 3535.00    0.52715   0.49935   -1.000
 3536.00    0.53138   0.51081   -1.000
 3537.00    0.53062   0.52408  158.604
 3538.00    0.52604   0.53320  156.954
 3539.00    0.54208   0.53710  158.555
 3540.00    0.53978   0.53672  161.415
 3541.00    0.52920   0.53493  162.494
 3542.00    0.53100   0.53554  161.252
 3543.00    0.54829   0.53952  159.014
 3544.00    0.54290   0.54277  158.959
 3545.00    0.54454   0.54222  162.050
 3546.00    0.54791   0.53897  165.427
 3547.00    0.53764   0.53544  165.913
 3548.00    0.52871   0.53414  165.446
 3549.00    0.53527   0.53647  164.669
 3550.00    0.53035   0.54140  167.329
 3551.00    0.52679   0.54400   -1.000
 3552.00    0.52780   0.53961  177.305
 3553.00    0.52521   0.53090  179.610
 3554.00    0.51964   0.52527  177.586
 3555.00    0.52645   0.52685  174.052
 3556.00    0.53068   0.53417  175.130
 3557.00    0.52134   0.54250   -1.000
 3558.00    0.52926   0.54687   -1.000
 3559.00    0.53252   0.54707   -1.000
 3560.00    0.52580   0.54607   -1.000
 3561.00    0.53975   0.54480  173.773
 3562.00    0.53819   0.54049  175.410
 3563.00    0.53473   0.53037   92.277
 3564.00    0.52256   0.51573   20.268
 3565.00    0.50630   0.50190   20.969
 3566.00    0.49151   0.49430   20.731
 3567.00    0.48535   0.49318   20.718
 3568.00    0.49538   0.49359   21.397
 3569.00    0.49117   0.49014   21.649
 3570.00    0.48711   0.48240   20.920
 3571.00    0.49339   0.47576   22.644
 3572.00    0.48935   0.47414   -1.000
 3573.00    0.49237   0.47665   -1.000
 3574.00    0.50069   0.48209   -1.000
 3575.00    0.50261   0.48976  190.066
 3576.00    0.50911   0.49789  191.429
 3577.00    0.51990   0.50449   94.793
 3578.00    0.51066   0.50636   21.046
 3579.00    0.50019   0.50121   22.669
 3580.00    0.49603   0.49152   23.766
 3581.00    0.47974   0.48205   23.901
 3582.00    0.48288   0.47734   24.064
 3583.00    0.47259   0.47641   24.703
 3584.00    0.46500   0.47135   25.462
 3585.00    0.45947   0.45871   25.590
 3586.00    0.45987   0.44571   24.268
 3587.00    0.46127   0.44287   22.989
 3588.00    0.47057   0.45369   21.743
 3589.00    0.48335   0.47230   22.687
 3590.00    0.49169   0.48930  184.105
 3591.00    0.50235   0.49962  178.117
 3592.00    0.51132   0.50402  177.477
 3593.00    0.52268   0.50683  174.121
 3594.00    0.52270   0.51250  168.105
 3595.00    0.52152   0.52156  160.335
 3596.00    0.52822   0.53021  155.751
 3597.00    0.53624   0.53551  151.881
 3598.00    0.54948   0.53763  149.989
 3599.00    0.55465   0.53735  152.567
 3600.00    0.54469   0.53290  160.186
 3601.00    0.53720   0.52371  169.040
 3602.00    0.52719   0.51418  176.053
 3603.00    0.50927   0.50946  178.779
 3604.00    0.50855   0.51097  179.468
 3605.00    0.51845   0.51354  178.067
 3606.00    0.52459   0.51263  181.095
 3607.00    0.51466   0.50888  189.850
 3608.00    0.51451   0.50497  191.945
 3609.00    0.50893   0.50291  187.489
 3610.00    0.50171   0.50319  181.717
 3611.00    0.50540   0.50644  175.530
 3612.00    0.50778   0.51199  171.528
 3613.00    0.50742   0.51891  167.970
 3614.00    0.51243   0.52846   -1.000
 3615.00    0.51922   0.53764   -1.000
 3616.00    0.53183   0.53871  179.763
 3617.00    0.51797   0.52985   87.301
 3618.00    0.50360   0.51662   22.709
 3619.00    0.49449   0.50965   -1.000
 3620.00    0.51030   0.51464  168.631
 3621.00    0.52753   0.52606  159.882
 3622.00    0.53542   0.53655  156.388
 3623.00    0.54957   0.54404  153.907
 3624.00    0.54435   0.55222  148.021
 3625.00    0.54486   0.56462   -1.000
 3626.00    0.56446   0.57895   -1.000
 3627.00    0.57376   0.58684   -1.000
 3628.00    0.55885   0.57999   -1.000
 3629.00    0.54518   0.55930   -1.000
 3630.00    0.52221   0.53495   -1.000
 3631.00    0.50630   0.52028   -1.000
 3632.00    0.50948   0.52103  179.996
 3633.00    0.51277   0.53148   -1.000
 3634.00    0.52525   0.54058   -1.000
 3635.00    0.52885   0.54396   -1.000
 3636.00    0.53280   0.54689   -1.000
 3637.00    0.54517   0.55414  148.521
 3638.00    0.54830   0.56335   -1.000
 3639.00    0.54964   0.56921   -1.000
 3640.00    0.55663   0.56884   -1.000
 3641.00    0.55106   0.56239   -1.000
 3642.00    0.54403   0.55275  162.024
 3643.00    0.53420   0.54394  166.410
 3644.00    0.52293   0.53772   -1.000
 3645.00    0.51638   0.53363   -1.000
 3646.00    0.51855   0.53137   -1.000
 3647.00    0.52033   0.53100  173.895
 3648.00    0.51978   0.53140  168.718
 3649.00    0.52206   0.53217  161.636
 3650.00    0.53052   0.53498  153.932
 3651.00    0.54345   0.54161  147.900
 3652.00    0.54480   0.55174  144.545
 3653.00    0.55515   0.56301  142.792
 3654.00    0.55997   0.57407   -1.000
 3655.00    0.56780   0.58372   -1.000
 3656.00    0.56398   0.59018   -1.000
 3657.00    0.57521   0.59267   -1.000
 3658.00    0.57403   0.59216   -1.000
 3659.00    0.56677   0.58993   -1.000
 3660.00    0.56581   0.58566   -1.000
 3661.00    0.57084   0.57959  140.471
 3662.00    0.56727   0.57395  142.698
 3663.00    0.57412   0.57129  143.312
 3664.00    0.57015   0.57239  141.803
 3665.00    0.56865   0.57502  142.383
 3666.00    0.57454   0.57627  145.230
 3667.00    0.57714   0.57455  147.112
 3668.00    0.57469   0.57028  150.078
 3669.00    0.56439   0.56639  148.255
 3670.00    0.55509   0.56603  143.006
 3671.00    0.55715   0.57042   -1.000
 3672.00    0.57186   0.57703  140.176
 3673.00    0.57610   0.58094  140.207
 3674.00    0.57952   0.57943  141.172
 3675.00    0.58012   0.57270  145.649
 3676.00    0.56470   0.56236  150.170
 3677.00    0.55413   0.55188  154.609
 3678.00    0.55234   0.54564  157.826
 3679.00    0.55309   0.54568  156.698
 3680.00    0.56387   0.54925  152.449
 3681.00    0.56908   0.55291  148.518
 3682.00    0.56687   0.55520  147.995
 3683.00    0.55912   0.55491  152.102
 3684.00    0.55552   0.55154  158.425
 3685.00    0.55049   0.54633  164.354
 3686.00    0.54420   0.54361  165.960
 3687.00    0.54150   0.54876  160.043
 3688.00    0.55357   0.56229  149.320
 3689.00    0.57629   0.57650  140.328
 3690.00    0.57201   0.58399  137.043
 3691.00    0.57970   0.58525  138.635
 3692.00    0.58287   0.58531  142.233
 3693.00    0.58629   0.58780  143.709
 3694.00    0.59895   0.59112  142.920
 3695.00    0.60359   0.59098  141.552
 3696.00    0.58359   0.58657  139.302
 3697.00    0.58618   0.58531  134.843
 3698.00    0.59655   0.59514  131.715
 3699.00    0.61440   0.61322  130.697
 3700.00    0.62760   0.62592  133.865
 3701.00    0.62049   0.61820  141.160
 3702.00    0.60337   0.58965  154.796
 3703.00    0.57672   0.55459  168.600
 3704.00    0.54937   0.53003  175.694
 3705.00    0.54644   0.52481  173.303
 3706.00    0.55884   0.53568   -1.000
 3707.00    0.58198   0.55226   -1.000
 3708.00    0.59051   0.56277   -1.000
 3709.00    0.58415   0.56041   -1.000
 3710.00    0.57212   0.54887   -1.000
 3711.00    0.56777   0.54008   -1.000
 3712.00    0.57941   0.54554   -1.000
 3713.00    0.60844   0.56887   -1.000
 3714.00    0.63248   0.60198   -1.000
 3715.00    0.65485   0.63100  133.669
 3716.00    0.67914   0.64666   -1.000
 3717.00    0.67709   0.64465   -1.000
 3718.00    0.64836   0.62134   -1.000
 3719.00    0.59138   0.57754   78.741
 3720.00    0.53488   0.52717   23.955
 3721.00    0.50232   0.49423  184.823
 3722.00    0.50950   0.49419  164.001
 3723.00    0.54610   0.52572  149.034
 3724.00    0.60005   0.57235   -1.000
 3725.00    0.64011   0.61182   -1.000
 3726.00    0.65518   0.63466   -1.000
 3727.00    0.66170   0.64523  150.872
 3728.00    0.66717   0.65013  149.018
 3729.00    0.65857   0.65028  151.553
 3730.00    0.65310   0.63854  160.186
 3731.00    0.63079   0.60532   73.803
 3732.00    0.58216   0.55335   20.286
 3733.00    0.52615   0.50033   22.460
 3734.00    0.48833   0.46515   22.922
 3735.00    0.48174   0.46132   21.561
 3736.00    0.51440   0.49008   23.589
 3737.00    0.56286   0.53827   -1.000
 3738.00    0.61790   0.59081   -1.000
 3739.00    0.65511   0.63691   -1.000
 3740.00    0.69641   0.66658   -1.000
 3741.00    0.70242   0.67560   -1.000
 3742.00    0.69469   0.66786   -1.000
 3743.00    0.68023   0.65123   -1.000
 3744.00    0.66936   0.63031   -1.000
 3745.00    0.63321   0.60648   75.892
 3746.00    0.60523   0.57811   20.406
 3747.00    0.57846   0.54403   21.538
 3748.00    0.52999   0.50823   25.889
 3749.00    0.48408   0.48142  191.107
 3750.00    0.49309   0.47914  167.937
 3751.00    0.53778   0.50894   -1.000
 3752.00    0.60092   0.56081   -1.000
 3753.00    0.65302   0.61559   -1.000
 3754.00    0.70585   0.65740   -1.000
 3755.00    0.73109   0.68015   -1.000
 3756.00    0.72934   0.68318   -1.000
 3757.00    0.70954   0.67172   -1.000
 3758.00    0.68224   0.65706   -1.000
 3759.00    0.67681   0.64884   -1.000
 3760.00    0.68864   0.65095   -1.000
 3761.00    0.71748   0.66087   -1.000
 3762.00    0.72479   0.67042   -1.000
 3763.00    0.72419   0.67313   -1.000
 3764.00    0.72490   0.66731   -1.000
 3765.00    0.71234   0.65406   -1.000
 3766.00    0.68181   0.63367   -1.000
 3767.00    0.64822   0.60354   -1.000
 3768.00    0.61619   0.56563   -1.000
 3769.00    0.58790   0.53001   -1.000
 3770.00    0.57512   0.51118   -1.000
 3771.00    0.58399   0.52064   -1.000
 3772.00    0.61664   0.55530   -1.000
 3773.00    0.65274   0.59924   -1.000
 3774.00    0.68812   0.63595   -1.000
 3775.00    0.72381   0.66059   -1.000
 3776.00    0.74047   0.67949   -1.000
 3777.00    0.75847   0.70082   -1.000
 3778.00    0.77953   0.72541   -1.000
 3779.00    0.79829   0.74935   -1.000
 3780.00    0.81744   0.76803   -1.000
 3781.00    0.82774   0.77787   -1.000
 3782.00    0.83320   0.77913   -1.000
 3783.00    0.82755   0.77459   -1.000
 3784.00    0.81815   0.76633   -1.000
 3785.00    0.80634   0.75450   -1.000
 3786.00    0.78817   0.73957   -1.000
 3787.00    0.77357   0.72434   -1.000
 3788.00    0.76361   0.71371   -1.000
 3789.00    0.74666   0.70869   -1.000
 3790.00    0.75769   0.70508   -1.000
 3791.00    0.75178   0.69734   -1.000
 3792.00    0.73011   0.68169   -1.000
 3793.00    0.69736   0.65585   -1.000
 3794.00    0.65977   0.61949   -1.000
 3795.00    0.61907   0.57627   -1.000
 3796.00    0.58550   0.53270   -1.000
 3797.00    0.54617   0.49948   -1.000
 3798.00    0.53337   0.49150   -1.000
 3799.00    0.55109   0.51801   -1.000
 3800.00    0.60484   0.57155   -1.000
 3801.00    0.65877   0.63141   -1.000
 3802.00    0.71779   0.67995   -1.000
 3803.00    0.75217   0.71120   -1.000
 3804.00    0.76675   0.72828   -1.000
 3805.00    0.78341   0.73600   -1.000
 3806.00    0.78145   0.74172   -1.000
 3807.00    0.79582   0.75173   -1.000
 3808.00    0.80772   0.76748   -1.000
 3809.00    0.81878   0.78475   -1.000
 3810.00    0.82941   0.79539   -1.000
 3811.00    0.82816   0.79206   -1.000
 3812.00    0.82255   0.77524   -1.000
 3813.00    0.80126   0.75447   -1.000
 3814.00    0.79236   0.74091   -1.000
 3815.00    0.79013   0.74071   -1.000
 3816.00    0.79472   0.75077   -1.000
 3817.00    0.79939   0.76138   -1.000
 3818.00    0.80290   0.76190   -1.000
 3819.00    0.79026   0.75067   -1.000
 3820.00    0.75943   0.73741   -1.000
 3821.00    0.75707   0.73161   -1.000
 3822.00    0.78340   0.73203   -1.000
 3823.00    0.77439   0.72690   -1.000
 3824.00    0.74995   0.71051   20.954
 3825.00    0.72484   0.69023   21.266
 3826.00    0.71397   0.67369   21.037
 3827.00    0.70736   0.66128   20.692
 3828.00    0.69564   0.64990   20.476
 3829.00    0.68677   0.63684   20.884
 3830.00    0.66874   0.61812   22.001
 3831.00    0.63741   0.58946   23.564
 3832.00    0.58664   0.54865   24.007
 3833.00    0.53576   0.50188   23.400
 3834.00    0.51051   0.46536   22.535
 3835.00    0.51445   0.45145   22.255
 3836.00    0.52621   0.46228   22.765
 3837.00    0.54272   0.49245   23.111
 3838.00    0.57549   0.53161   22.475
 3839.00    0.61326   0.57111   26.364
 3840.00    0.65090   0.60964   -1.000
 3841.00    0.69882   0.64791   -1.000
 3842.00    0.73768   0.68531   -1.000
 3843.00    0.76855   0.71887   -1.000
 3844.00    0.79027   0.74431   -1.000
 3845.00    0.80703   0.76234   -1.000
 3846.00    0.82436   0.77639   -1.000
 3847.00    0.82563   0.78710   -1.000
 3848.00    0.81395   0.79222   -1.000
 3849.00    0.81392   0.79258   -1.000
 3850.00    0.81583   0.79520   -1.000
 3851.00    0.81817   0.80565  166.718
 3852.00    0.83276   0.82056  168.664
 3853.00    0.83547   0.83087  173.223
 3854.00    0.82653   0.83078  177.814
 3855.00    0.82397   0.82231  181.049
 3856.00    0.81628   0.81120   66.118
 3857.00    0.80972   0.80139   20.016
 3858.00    0.80038   0.79489   20.909
 3859.00    0.79000   0.79466   25.392
 3860.00    0.78698   0.80232  179.276
 3861.00    0.80802   0.81504  163.290
 3862.00    0.84019   0.82675  157.943
 3863.00    0.86044   0.83288   -1.000
 3864.00    0.86004   0.83333   -1.000
 3865.00    0.85925   0.83215   -1.000
 3866.00    0.85806   0.83327   -1.000
 3867.00    0.84572   0.83676  176.608
 3868.00    0.84567   0.83866  186.390
 3869.00    0.83812   0.83355   66.950
 3870.00    0.81869   0.81981   24.923
 3871.00    0.80611   0.80054  189.560
 3872.00    0.79612   0.78246  171.749
 3873.00    0.79495   0.77326   -1.000
 3874.00    0.81366   0.77419   -1.000
 3875.00    0.82747   0.77747   -1.000
 3876.00    0.81387   0.77234   -1.000
 3877.00    0.78745   0.75776   -1.000
 3878.00    0.75786   0.74283   -1.000
 3879.00    0.75023   0.73575   -1.000
 3880.00    0.76171   0.73510   -1.000
 3881.00    0.75058   0.73138   -1.000
 3882.00    0.73483   0.71919  165.949
 3883.00    0.72197   0.69895   -1.000
 3884.00    0.71355   0.67009   -1.000
 3885.00    0.68918   0.63036   -1.000
 3886.00    0.64270   0.58080   -1.000
 3887.00    0.59799   0.53230   -1.000
 3888.00    0.57114   0.50212   -1.000
 3889.00    0.55991   0.50240   -1.000
 3890.00    0.59478   0.53391   -1.000
 3891.00    0.66202   0.58343   -1.000
 3892.00    0.70563   0.63078   -1.000
 3893.00    0.71850   0.66401   -1.000
 3894.00    0.73124   0.68528   -1.000
 3895.00    0.75500   0.70275   -1.000
 3896.00    0.78351   0.72115   -1.000
 3897.00    0.79935   0.73892   -1.000
 3898.00    0.80844   0.75193   -1.000
 3899.00    0.81195   0.76011   -1.000
 3900.00    0.81794   0.76876   -1.000
 3901.00    0.83275   0.77925   -1.000
 3902.00    0.84964   0.78761   -1.000
 3903.00    0.85264   0.79060   -1.000
 3904.00    0.83561   0.78963   -1.000
 3905.00    0.82990   0.79092   -1.000
 3906.00    0.83312   0.79984   -1.000
 3907.00    0.84799   0.81822   -1.000
 3908.00    0.87304   0.84207   -1.000
 3909.00    0.89101   0.86272   -1.000
 3910.00    0.90381   0.87396   -1.000
 3911.00    0.90218   0.87622   -1.000
 3912.00    0.89667   0.87220  122.538
 3913.00    0.89143   0.86387   -1.000
 3914.00    0.88755   0.85559   -1.000
 3915.00    0.89380   0.85206   -1.000
 3916.00    0.89252   0.85190   -1.000
 3917.00    0.88173   0.85013   -1.000
 3918.00    0.87517   0.84512   -1.000
 3919.00    0.86442   0.83974   -1.000
 3920.00    0.85521   0.83657   -1.000
 3921.00    0.85540   0.83582   -1.000
 3922.00    0.85723   0.83718   -1.000
 3923.00    0.86573   0.83867   -1.000
 3924.00    0.87347   0.83653   -1.000
 3925.00    0.85041   0.82576   -1.000
 3926.00    0.82236   0.80328   67.871
 3927.00    0.79126   0.76993   22.890
 3928.00    0.74104   0.72672   26.830
 3929.00    0.67652   0.67349   31.467
 3930.00    0.60417   0.60580   37.159
 3931.00    0.50770   0.52298   42.811
 3932.00    0.41811   0.44232   45.286
 3933.00    0.38292   0.39362   42.222
 3934.00    0.41165   0.39996   36.112
 3935.00    0.48362   0.45882   29.782
 3936.00    0.56717   0.54399   24.612
 3937.00    0.64798   0.62953   27.509
 3938.00    0.71855   0.70114   -1.000
 3939.00    0.77778   0.75295   -1.000
 3940.00    0.80049   0.78657   -1.000
 3941.00    0.81329   0.80558  169.396
 3942.00    0.81911   0.81440  167.157
 3943.00    0.81834   0.81923  156.744
 3944.00    0.82742   0.82461  143.623
 3945.00    0.85479   0.83202   -1.000
 3946.00    0.87189   0.83978   -1.000
 3947.00    0.87286   0.84368   -1.000
 3948.00    0.86873   0.84194   -1.000
 3949.00    0.87427   0.83706   -1.000
 3950.00    0.87594   0.83265   -1.000
 3951.00    0.87438   0.83018   -1.000
 3952.00    0.87635   0.83054   -1.000
 3953.00    0.88826   0.83298   -1.000
 3954.00    0.88999   0.83321   -1.000
 3955.00    0.88326   0.82793   -1.000
 3956.00    0.86980   0.81809   -1.000
 3957.00    0.85105   0.80893   -1.000
 3958.00    0.84488   0.80262   -1.000
 3959.00    0.84143   0.79255   -1.000
 3960.00    0.81671   0.77232   -1.000
 3961.00    0.77374   0.74190   -1.000
 3962.00    0.73809   0.70527   62.955
 3963.00    0.70154   0.66525   21.580
 3964.00    0.65465   0.61556   25.626
 3965.00    0.57319   0.54780   31.593
 3966.00    0.46893   0.46270   37.767
 3967.00    0.37536   0.37609   39.885
 3968.00    0.32358   0.31546   35.747
 3969.00    0.32681   0.30299   29.399
 3970.00    0.36669   0.34194   24.277
 3971.00    0.44083   0.41598   27.400
 3972.00    0.53141   0.50049   -1.000
 3973.00    0.61964   0.57701   -1.000
 3974.00    0.68558   0.63983   -1.000
 3975.00    0.73766   0.68977   -1.000
 3976.00    0.77801   0.72994   -1.000
 3977.00    0.80250   0.76252   -1.000
 3978.00    0.83331   0.78906   -1.000
 3979.00    0.85986   0.80897   -1.000
 3980.00    0.87387   0.82100   -1.000
 3981.00    0.88230   0.82753   -1.000
 3982.00    0.88269   0.83338   -1.000
 3983.00    0.88238   0.84286   -1.000
 3984.00    0.89927   0.85656   -1.000
 3985.00    0.91745   0.87086   -1.000
 3986.00    0.92542   0.88253   -1.000
 3987.00    0.92990   0.89223   -1.000
 3988.00    0.93165   0.90033  105.581
 3989.00    0.94506   0.90618   -1.000
 3990.00    0.95241   0.91178   -1.000
 3991.00    0.96216   0.91919   -1.000
 3992.00    0.96887   0.92812   -1.000
 3993.00    0.96887   0.93474  104.485
 3994.00    0.96266   0.93378  106.786
 3995.00    0.95400   0.92418  108.522
 3996.00    0.93298   0.91178  108.496
 3997.00    0.92800   0.90559  105.264
 3998.00    0.93406   0.90969  100.703
 3999.00    0.94458   0.92052   97.804
 4000.00    0.96788   0.93161   96.324
 4001.00    0.97783   0.93860   -1.000
 4002.00    0.98642   0.93961   -1.000
 4003.00    0.97969   0.93459   -1.000
 4004.00    0.95842   0.92581  109.196
 4005.00    0.94649   0.91961  106.657
 4006.00    0.95037   0.92230  100.889
 4007.00    0.95989   0.93432   97.663
 4008.00    0.96785   0.94933   96.497
 4009.00    0.98651   0.95998   95.654
 4010.00    0.99194   0.96448   95.624
 4011.00    0.97423   0.96473   96.293
 4012.00    0.98232   0.96318   96.472
 4013.00    1.00860   0.96273   -1.000
 4014.00    0.99341   0.96548   94.754
 4015.00    1.00258   0.97080   95.725
 4016.00    1.00295   0.97652   96.471
 4017.00    1.00039   0.98176   95.679
 4018.00    1.00698   0.98682   94.635
 4019.00    1.00956   0.99106   95.222
 4020.00    0.99977   0.99220   96.426
 4021.00    0.99522   0.98868   96.989
 4022.00    0.99555   0.98206   97.662
 4023.00    0.99042   0.97558   97.533
 4024.00    0.98439   0.97260   94.731
 4025.00    0.98851   0.97570   91.725
 4026.00    1.00069   0.98409   90.640
 4027.00    1.01088   0.99125   92.319
 4028.00    1.00445   0.99008   96.902
 4029.00    0.99031   0.97917  102.957
 4030.00    0.96892   0.96367  106.380
 4031.00    0.95912   0.95166  106.846
 4032.00    0.95762   0.94777  104.814
 4033.00    0.95921   0.95198  100.816
 4034.00    0.96933   0.96306   95.780
 4035.00    0.98685   0.97933   91.439
 4036.00    1.00559   0.99758   89.055
 4037.00    1.02474   1.01231   89.402
 4038.00    1.02979   1.01856   91.433
 4039.00    1.01988   1.01665   93.299
 4040.00    1.01306   1.01076   94.128
 4041.00    1.01429   1.00437   95.691
 4042.00    1.01689   0.99585  101.709
 4043.00    0.99966   0.98074  111.296
 4044.00    0.96778   0.96079  116.037
 4045.00    0.94477   0.94575  108.987
 4046.00    0.94006   0.94640   99.407
 4047.00    0.96572   0.96351   94.368
 4048.00    0.99765   0.98581   92.195
 4049.00    1.00966   1.00155   91.646
 4050.00    1.00799   1.00757   92.852
 4051.00    1.00591   1.00646   95.425
 4052.00    1.00446   1.00101   97.618
 4053.00    1.00067   0.99426   98.902
 4054.00    0.99710   0.98890   99.638
 4055.00    1.00000   0.98600  100.417
 4056.00    1.00024   0.98539  100.834
 4057.00    0.99995   0.98756   98.856
 4058.00    1.00122   0.99388   95.671
 4059.00    1.00592   1.00144   94.819
 4060.00    1.00871   1.00269   98.013
 4061.00    0.99929   0.99265  105.287
 4062.00    0.98074   0.97434  109.985
 4063.00    0.96298   0.95641  106.945
 4064.00    0.96349   0.94604  102.353
 4065.00    0.97839   0.94556   99.836
 4066.00    0.98512   0.95131   96.966
 4067.00    0.98775   0.95690   94.369
 4068.00    0.99801   0.95910   94.610
 4069.00    1.00693   0.95674   -1.000
 4070.00    1.00156   0.94863   -1.000
 4071.00    0.98131   0.93818   -1.000
 4072.00    0.97143   0.93293   97.082
 4073.00    0.98076   0.93507   -1.000
 4074.00    0.99154   0.93741   -1.000
 4075.00    0.97673   0.93050   -1.000
 4076.00    0.94646   0.91467  112.560
 4077.00    0.92876   0.90050  107.432
 4078.00    0.93242   0.89954   99.932
 4079.00    0.95391   0.91384   -1.000
 4080.00    0.98198   0.93340   -1.000
 4081.00    0.99750   0.94606   -1.000
 4082.00    0.98972   0.94693   -1.000
 4083.00    0.97716   0.93961   -1.000
 4084.00    0.97110   0.93096   -1.000
 4085.00    0.96927   0.92685   -1.000
 4086.00    0.97373   0.92919   -1.000
 4087.00    0.98578   0.93524   -1.000
 4088.00    0.99073   0.94031   -1.000
 4089.00    0.98685   0.94057   -1.000
 4090.00    0.97906   0.93556   -1.000
 4091.00    0.97434   0.92661   -1.000
 4092.00    0.96906   0.91374   -1.000
 4093.00    0.95501   0.89764   -1.000
 4094.00    0.93138   0.87916   -1.000
 4095.00    0.90547   0.85740   -1.000
 4096.00    0.88407   0.83103   -1.000
 4097.00    0.86265   0.79838   -1.000
 4098.00    0.82798   0.75700   -1.000
 4099.00    0.77795   0.70453   -1.000
 4100.00    0.71182   0.64917   -1.000
 4101.00    0.65755   0.61175   -1.000
 4102.00    0.65799   0.61266   -1.000
 4103.00    0.71236   0.65395   -1.000
 4104.00    0.77547   0.71605   -1.000
 4105.00    0.82859   0.77387   -1.000
 4106.00    0.86207   0.81446   -1.000
 4107.00    0.88241   0.83924   -1.000
 4108.00    0.89593   0.85473   -1.000
 4109.00    0.89952   0.86682  100.988
 4110.00    0.90684   0.87879   99.341
 4111.00    0.92749   0.89257   97.228
 4112.00    0.94540   0.90840   95.624
 4113.00    0.95880   0.92489   94.322
 4114.00    0.97467   0.93985   93.838
 4115.00    0.98755   0.95002   94.808
 4116.00    0.98776   0.95321   97.241
 4117.00    0.98277   0.95037   99.923
 4118.00    0.97636   0.94496  100.283
 4119.00    0.96832   0.94162   99.032
 4120.00    0.96938   0.94324   98.359
 4121.00    0.97351   0.94864   98.128
 4122.00    0.97724   0.95523   96.824
 4123.00    0.98243   0.96220   95.513
 4124.00    0.98968   0.96917   95.724
 4125.00    0.99901   0.97398   97.303
 4126.00    1.00505   0.97468   99.034
 4127.00    0.99712   0.97228   99.720
 4128.00    0.98412   0.96955  100.449
 4129.00    0.97802   0.96708  102.325
 4130.00    0.96895   0.96317  105.628
 4131.00    0.95857   0.95767  108.018
 4132.00    0.95394   0.95462  106.995
 4133.00    0.95839   0.95891  102.751
 4134.00    0.96926   0.97056   98.089
 4135.00    0.99017   0.98554   95.449
 4136.00    1.01026   1.00028   93.960
 4137.00    1.01939   1.01314   92.837
 4138.00    1.02535   1.02316   93.205
 4139.00    1.02812   1.02769   96.108
 4140.00    1.02024   1.02342  102.210
 4141.00    1.00980   1.01040  110.002
 4142.00    0.98343   0.99359  112.545
 4143.00    0.95364   0.98149   -1.000
 4144.00    0.95647   0.98056   -1.000
 4145.00    0.98288   0.99019   98.694
 4146.00    1.00659   1.00238   98.648
 4147.00    1.00975   1.00940  100.891
 4148.00    0.99944   1.01097  103.259
 4149.00    0.99499   1.01093  103.850
 4150.00    0.99724   1.01135  103.090
 4151.00    0.99463   1.01072  102.997
 4152.00    0.99353   1.00710  104.242
 4153.00    0.98980   1.00160  104.573
 4154.00    0.98392   0.99745  102.395
 4155.00    1.01837   0.99745  102.278
 4156.00    1.17716   1.00194   -1.000
 4157.00    1.17371   1.00944   -1.000
 4158.00    0.85493   1.01747   -1.000
 4159.00    0.81854   1.02351   -1.000
 4160.00    1.02290   1.02654   95.555
 4161.00    1.04588   1.02766   95.072
 4162.00    1.01758   1.02974   96.007
 4163.00    1.02562   1.03418   97.577
 4164.00    1.02302   1.03894   99.272
 4165.00    1.01820   1.04026   -1.000
 4166.00    1.01361   1.03725   -1.000
 4167.00    1.00900   1.03263   -1.000
 4168.00    1.00807   1.02809   -1.000
 4169.00    1.01258   1.02187  102.716
 4170.00    1.00187   1.00962  109.076
 4171.00    0.97558   0.99123  113.684
 4172.00    0.96077   0.97488  112.360
 4173.00    0.95469   0.96939  108.185
 4174.00    0.95963   0.97703  105.518
 4175.00    0.97273   0.99029  105.764
 4176.00    0.97815   0.99899   -1.000
 4177.00    0.97561   1.00128   -1.000
 4178.00    0.97824   1.00228   -1.000
 4179.00    0.98604   1.00698   -1.000
 4180.00    0.99166   1.01313   -1.000
 4181.00    0.99015   1.01568   -1.000
 4182.00    0.98458   1.01628   -1.000
 4183.00    0.98893   1.01844   -1.000
 4184.00    0.99516   1.02080   -1.000
 4185.00    0.99417   1.01991   -1.000
 4186.00    0.98792   1.01509   -1.000
 4187.00    0.97712   1.01014   -1.000
 4188.00    0.97642   1.00910   -1.000
 4189.00    0.99403   1.01165  100.246
 4190.00    1.00021   1.01472   98.600
 4191.00    0.99108   1.01680   -1.000
 4192.00    0.99719   1.01942   -1.000
 4193.00    1.01078   1.02303  100.512
 4194.00    1.01169   1.02307  105.259
 4195.00    0.99833   1.01529   -1.000
 4196.00    0.98261   1.00164   -1.000
 4197.00    0.97088   0.98744   -1.000
 4198.00    0.96630   0.97712  107.708
 4199.00    0.96456   0.97325  106.444
 4200.00    0.96846   0.97492  106.065
 4201.00    0.97646   0.97818  105.025
 4202.00    0.97399   0.98174  103.644
 4203.00    0.97078   0.98746  102.490
 4204.00    0.97293   0.99506   -1.000
 4205.00    0.97527   1.00250   -1.000
 4206.00    0.98408   1.00951   -1.000
 4207.00    0.99405   1.01593   -1.000
 4208.00    0.99974   1.02037   96.594
 4209.00    1.00146   1.02268   -1.000
 4210.00    1.00184   1.02455   -1.000
 4211.00    1.00594   1.02761   -1.000
 4212.00    1.00938   1.02959   -1.000
 4213.00    1.00367   1.02513   -1.000
 4214.00    0.98427   1.01407   -1.000
 4215.00    0.96932   1.00262   -1.000
 4216.00    0.96857   0.99853   -1.000
 4217.00    0.98048   1.00483   -1.000
 4218.00    0.99596   1.01663   89.458
 4219.00    1.01188   1.02735   89.146
 4220.00    1.02185   1.03369   90.980
 4221.00    1.01578   1.03370   95.721
 4222.00    1.00025   1.02470   -1.000
 4223.00    0.98014   1.00403   -1.000
 4224.00    0.95356   0.97501   -1.000
 4225.00    0.91682   0.94778   -1.000
 4226.00    0.88895   0.93482   -1.000
 4227.00    0.89658   0.94494   -1.000
 4228.00    0.93567   0.97542   -1.000
 4229.00    0.97881   1.00997   -1.000
 4230.00    0.99947   1.03017   -1.000
 4231.00    1.00093   1.03169   -1.000
 4232.00    0.98859   1.02195   -1.000
 4233.00    0.97576   1.00976   -1.000
 4234.00    0.97709   1.00235   -1.000
 4235.00    0.97736   1.00173   -1.000
 4236.00    0.96985   1.00437   -1.000
 4237.00    0.96660   1.00860   -1.000
 4238.00    0.97900   1.01504   -1.000
 4239.00    0.99166   1.02357   -1.000
 4240.00    0.99956   1.03337   -1.000
 4241.00    1.00149   1.04205   -1.000
 4242.00    1.00389   1.04664   -1.000
 4243.00    1.00976   1.04585   -1.000
 4244.00    1.00665   1.04068   -1.000
 4245.00    0.99564   1.03159   -1.000
 4246.00    0.98055   1.01913   -1.000
 4247.00    0.96893   1.00711   -1.000
 4248.00    0.96148   0.99977   -1.000
 4249.00    0.95926   0.99821   -1.000
 4250.00    0.96520   1.00203   -1.000
 4251.00    0.97475   1.00993   -1.000
 4252.00    0.98514   1.01802   -1.000
 4253.00    0.98291   1.02272   -1.000
 4254.00    0.97708   1.02409   -1.000
 4255.00    0.98015   1.02546   -1.000
 4256.00    0.98810   1.02822   -1.000
 4257.00    0.99613   1.02797   -1.000
 4258.00    0.98704   1.02131   -1.000
 4259.00    0.97222   1.01245   -1.000
 4260.00    0.96786   1.00930   -1.000
 4261.00    0.97278   1.01601   -1.000
 4262.00    0.99005   1.02995   -1.000
 4263.00    1.01028   1.04400   -1.000
 4264.00    1.01856   1.05160   -1.000
 4265.00    1.01640   1.05194   -1.000
 4266.00    1.00999   1.04814   -1.000
 4267.00    1.00182   1.04116   -1.000
 4268.00    0.99590   1.03023   -1.000
 4269.00    0.98019   1.01485   -1.000
 4270.00    0.95483   0.99714   -1.000
 4271.00    0.93008   0.98274   -1.000
 4272.00    0.92673   0.97711   -1.000
 4273.00    0.92972   0.98186   -1.000
 4274.00    0.93846   0.99406   -1.000
 4275.00    0.96119   1.00997   -1.000
 4276.00    0.98438   1.02724   -1.000
 4277.00    1.00075   1.04140   -1.000
 4278.00    1.00533   1.04669   -1.000
 4279.00    0.99457   1.04174   -1.000
 4280.00    0.97952   1.03126   -1.000
 4281.00    0.97104   1.02238   -1.000
 4282.00    0.97239   1.01845   -1.000
 4283.00    0.97912   1.01824   -1.000
 4284.00    0.97868   1.01812   -1.000
 4285.00    0.96922   1.01372   -1.000
 4286.00    0.96055   1.00262   -1.000
 4287.00    0.94852   0.98595   -1.000
 4288.00    0.92746   0.96735   -1.000
 4289.00    0.90675   0.95313   -1.000
 4290.00    0.90307   0.95001   -1.000
 4291.00    0.91653   0.95845   -1.000
 4292.00    0.93749   0.97046   -1.000
 4293.00    0.94477   0.97675   -1.000
 4294.00    0.95025   0.97633   -1.000
 4295.00    0.95334   0.97347   -1.000
 4296.00    0.93650   0.96724   -1.000
 4297.00    0.91373   0.95379   -1.000
 4298.00    0.89060   0.93285   -1.000
 4299.00    0.86741   0.90938   -1.000
 4300.00    0.85280   0.89170   -1.000
 4301.00    0.85599   0.88569   -1.000
 4302.00    0.85976   0.89064   -1.000
 4303.00    0.86644   0.90137   -1.000
 4304.00    0.88110   0.91124   -1.000
 4305.00    0.88469   0.91381   -1.000
 4306.00    0.87297   0.90811   -1.000
 4307.00    0.85176   0.89981   -1.000
 4308.00    0.83620   0.89663   -1.000
 4309.00    0.83700   0.90217   -1.000
 4310.00    0.85387   0.91346   -1.000
 4311.00    0.87774   0.92412   -1.000
 4312.00    0.89425   0.93053   -1.000
 4313.00    0.90297   0.93717   -1.000
 4314.00    0.91936   0.95109   -1.000
 4315.00    0.94854   0.97506   85.173
 4316.00    0.98881   1.00351   83.423
 4317.00    1.01014   1.02496   84.017
 4318.00    1.01707   1.03335   85.607
 4319.00    1.01409   1.03080   87.941
 4320.00    1.01007   1.02224   91.476
 4321.00    0.99766   1.01038   96.885
 4322.00    0.97411   0.99500  104.753
 4323.00    0.94636   0.97568   -1.000
 4324.00    0.91749   0.95594   -1.000
 4325.00    0.90469   0.94535   -1.000
 4326.00    0.91729   0.95035   -1.000
 4327.00    0.94596   0.96614   88.174
 4328.00    0.97037   0.98123   87.444
 4329.00    0.97123   0.98684   87.559
 4330.00    0.96587   0.98397   86.622
 4331.00    0.96597   0.97822   85.307
 4332.00    0.95768   0.97120   84.728
 4333.00    0.95244   0.95997   85.201
 4334.00    0.94431   0.94031   88.249
 4335.00    0.92141   0.90892   95.210
 4336.00    0.88862   0.86306  104.480
 4337.00    0.83334   0.80253  113.787
 4338.00    0.76048   0.73709  120.616
 4339.00    0.69987   0.68516  118.463
 4340.00    0.67332   0.66514  108.093
 4341.00    0.69008   0.68752   98.941
 4342.00    0.75211   0.74430   94.170
 4343.00    0.82063   0.81098   91.460
 4344.00    0.86751   0.86662   89.353
 4345.00    0.90484   0.90694   88.101
 4346.00    0.92685   0.93672   86.985
 4347.00    0.94243   0.95851   86.186
 4348.00    0.95685   0.97038   88.237
 4349.00    0.95934   0.97031   94.019
 4350.00    0.95012   0.96146   98.934
 4351.00    0.93496   0.95301   97.879
 4352.00    0.93205   0.95458   -1.000
 4353.00    0.94914   0.96993   89.785
 4354.00    0.97449   0.99309   87.431
 4355.00    0.98953   1.01360   86.379
 4356.00    1.00270   1.02562   87.222
 4357.00    1.01060   1.03004   88.881
 4358.00    1.00742   1.03088   88.806
 4359.00    1.00398   1.03275   -1.000
 4360.00    1.00836   1.03849   -1.000
 4361.00    1.02070   1.04744   83.932
 4362.00    1.02806   1.05652   -1.000
 4363.00    1.02460   1.06280   -1.000
 4364.00    1.03009   1.06470   -1.000
 4365.00    1.03676   1.06184   86.660
 4366.00    1.02457   1.05467   -1.000
 4367.00    1.01154   1.04558   -1.000
 4368.00    1.00325   1.03826   -1.000
 4369.00    0.99986   1.03433   -1.000
 4370.00    1.00931   1.03240   88.281
 4371.00    1.01472   1.02897   90.287
 4372.00    1.01300   1.02105   94.080
 4373.00    1.00282   1.00887   96.332
 4374.00    0.97915   0.99799   94.564
 4375.00    0.96836   0.99730   -1.000
 4376.00    0.98496   1.01039   86.780
 4377.00    1.01325   1.03061   86.189
 4378.00    1.02703   1.04638   87.198
 4379.00    1.02319   1.05074   -1.000
 4380.00    1.02347   1.04264   96.393
 4381.00    1.01338   1.02285  107.523
 4382.00    0.97723   0.99589   -1.000
 4383.00    0.94073   0.97244   -1.000
 4384.00    0.92774   0.96353   -1.000
 4385.00    0.94850   0.97290   -1.000
 4386.00    0.97663   0.99308   91.733
 4387.00    0.99486   1.01185   92.292
 4388.00    1.00413   1.02291   93.046
 4389.00    1.00481   1.02700   92.439
 4390.00    1.00394   1.02808   -1.000
 4391.00    1.00653   1.02887   89.471
 4392.00    1.01273   1.02803   90.758
 4393.00    1.01598   1.02270   91.870
 4394.00    1.00635   1.01510   89.782
 4395.00    1.00386   1.01311   86.141
 4396.00    1.01225   1.01967   85.220
 4397.00    1.02027   1.02789   87.376
 4398.00    1.02013   1.02998   90.448
 4399.00    1.00753   1.02566   91.544
 4400.00    0.99650   1.02133   -1.000
 4401.00    1.00570   1.02190   90.370
 4402.00    1.01685   1.02545   94.639
 4403.00    1.01014   1.02714   98.325
 4404.00    0.99609   1.02560   -1.000
 4405.00    0.99001   1.02445   -1.000
 4406.00    0.99574   1.02671   -1.000
 4407.00    1.00576   1.03095   -1.000
 4408.00    1.00563   1.03586   -1.000
 4409.00    1.00740   1.04363   -1.000
 4410.00    1.02462   1.05446   -1.000
 4411.00    1.04511   1.06297   82.597
 4412.00    1.05504   1.06314   86.018
 4413.00    1.04543   1.05329   90.354
 4414.00    1.01970   1.03658   91.941
 4415.00    1.00248   1.02072   90.105
 4416.00    0.99605   1.01437   86.589
 4417.00    0.99541   1.02127   -1.000
 4418.00    1.00600   1.03787   -1.000
 4419.00    1.02674   1.05576   -1.000
 4420.00    1.03570   1.06732   -1.000
 4421.00    1.03348   1.07011   -1.000
 4422.00    1.02626   1.06809   -1.000
 4423.00    1.02140   1.06568   -1.000
 4424.00    1.01988   1.06338   -1.000
 4425.00    1.02131   1.06060   -1.000
 4426.00    1.01616   1.05882   -1.000
 4427.00    1.01126   1.06021   -1.000
 4428.00    1.01541   1.06473   -1.000
 4429.00    1.01937   1.06981   -1.000
 4430.00    1.01990   1.07296   -1.000
 4431.00    1.02590   1.07314   -1.000
 4432.00    1.02721   1.06964   -1.000
 4433.00    1.02033   1.06208   -1.000
 4434.00    1.00542   1.05336   -1.000
 4435.00    0.99202   1.05065   -1.000
 4436.00    1.00780   1.05973   -1.000
 4437.00    1.04111   1.07729   -1.000
 4438.00    1.05893   1.09250   -1.000
 4439.00    1.06578   1.09561   -1.000
 4440.00    1.05675   1.08436   -1.000
 4441.00    1.03298   1.06450   -1.000
 4442.00    1.00866   1.04645   -1.000
 4443.00    0.99848   1.04008   -1.000
 4444.00    1.00854   1.04809   -1.000
 4445.00    1.03155   1.06451   -1.000
 4446.00    1.04448   1.07933   -1.000
 4447.00    1.04727   1.08710   -1.000
 4448.00    1.04783   1.08920   -1.000
 4449.00    1.04598   1.08878   -1.000
 4450.00    1.04522   1.08770   -1.000
 4451.00    1.04657   1.08633   -1.000
 4452.00    1.04820   1.08317   -1.000
 4453.00    1.04400   1.07591   -1.000
 4454.00    1.02290   1.06610   -1.000
 4455.00    1.00769   1.06030   -1.000
 4456.00    1.01861   1.06255   -1.000
 4457.00    1.03386   1.06934   -1.000
 4458.00    1.03672   1.07431   -1.000
 4459.00    1.03068   1.07531   -1.000
 4460.00    1.02491   1.07438   -1.000
 4461.00    1.02781   1.07468   -1.000
 4462.00    1.03334   1.07773   -1.000
 4463.00    1.04255   1.08226   -1.000
 4464.00    1.05410   1.08536   -1.000
 4465.00    1.05642   1.08412   -1.000
 4466.00    1.05087   1.07754   -1.000
 4467.00    1.03939   1.06813   -1.000
 4468.00    1.02872   1.06142   -1.000
 4469.00    1.02735   1.06262   -1.000
 4470.00    1.03781   1.07294   -1.000
 4471.00    1.05148   1.08852   -1.000
 4472.00    1.06448   1.10325   -1.000
 4473.00    1.08475   1.11297   -1.000
 4474.00    1.09340   1.11697   77.583
 4475.00    1.09004   1.11745   76.966
 4476.00    1.09082   1.11686   77.028
 4477.00    1.09240   1.11492   78.711
 4478.00    1.09274   1.10788   82.021
 4479.00    1.08243   1.09377   85.173
 4480.00    1.05933   1.07778   86.029
 4481.00    1.03639   1.06931   -1.000
 4482.00    1.03837   1.07460   -1.000
 4483.00    1.06018   1.09138   -1.000
 4484.00    1.07757   1.11042   -1.000
 4485.00    1.08670   1.12296   -1.000
 4486.00    1.08912   1.12521   -1.000
 4487.00    1.08545   1.11837   -1.000
 4488.00    1.07567   1.10789   -1.000
 4489.00    1.06365   1.10125   -1.000
 4490.00    1.05831   1.10260   -1.000
 4491.00    1.06835   1.10927   -1.000
 4492.00    1.08120   1.11406   -1.000
 4493.00    1.08184   1.11314   -1.000
 4494.00    1.06705   1.10954   -1.000
 4495.00    1.05712   1.10763   -1.000
 4496.00    1.06007   1.10861   -1.000
 4497.00    1.07016   1.11060   -1.000
 4498.00    1.07966   1.11045   -1.000
 4499.00    1.08446   1.10610   79.117
 4500.00    1.07648   1.10021   78.399
 4501.00    1.06896   1.09927   -1.000
 4502.00    1.07730   1.10684   -1.000
 4503.00    1.09814   1.11966   73.451
 4504.00    1.11340   1.13027   74.471
 4505.00    1.11855   1.13377   75.687
 4506.00    1.11350   1.13104   76.089
 4507.00    1.10492   1.12660   75.832
 4508.00    1.10182   1.12472   75.249
 4509.00    1.10575   1.12624   75.249
 4510.00    1.11035   1.12857   76.320
 4511.00    1.11076   1.12887   77.805
 4512.00    1.10343   1.12674   78.780
 4513.00    1.09616   1.12324   78.836
 4514.00    1.09236   1.11949   -1.000
 4515.00    1.09198   1.11653   78.979
 4516.00    1.08842   1.11450   79.760
 4517.00    1.08696   1.11223   79.371
 4518.00    1.08408   1.10895   77.851
 4519.00    1.08720   1.10618   77.108
 4520.00    1.08927   1.10521   78.131
 4521.00    1.07896   1.10410   79.932
 4522.00    1.07404   1.10093   -1.000
 4523.00    1.07023   1.09744   -1.000
 4524.00    1.06969   1.09595   84.000
 4525.00    1.07372   1.09495   86.537
 4526.00    1.06624   1.09124   88.337
 4527.00    1.05295   1.08439   -1.000
 4528.00    1.04557   1.07781   -1.000
 4529.00    1.04807   1.07526   -1.000
 4530.00    1.05604   1.07658   84.790
 4531.00    1.05955   1.07701   85.678
 4532.00    1.05825   1.07163   88.429
 4533.00    1.04401   1.06212   89.540
 4534.00    1.02514   1.05694   -1.000
 4535.00    1.02635   1.06333   -1.000
 4536.00    1.05625   1.08059   77.627
 4537.00    1.08954   1.10150   76.922
 4538.00    1.10679   1.11786   78.278
 4539.00    1.11107   1.12520   79.309
 4540.00    1.10428   1.12489   78.922
 4541.00    1.09446   1.12183   -1.000
 4542.00    1.08793   1.11989   -1.000
 4543.00    1.11469   1.11907   58.348
 4544.00    0.91592   1.11725   -1.000
 4545.00    0.32577   1.11396   -1.000
 4546.00   -0.04125   1.10883    0.000
 4547.00    0.20183   1.09914   -1.000
 4548.00    0.59168   1.08477   -1.000
 4549.00    0.53927   1.07317   -1.000
 4550.00    0.68730   1.07301   -1.000
 4551.00    1.09340   1.08234   82.718
 4552.00    1.06806   1.08937   83.799
 4553.00    1.06070   1.08726   83.603
 4554.00    1.05377   1.08138   -1.000
 4555.00    1.06328   1.08145   78.241
 4556.00    1.07808   1.09120   75.909
 4557.00    1.09138   1.10608   75.447
 4558.00    1.10456   1.11926   75.709
 4559.00    1.11186   1.12800   75.679
 4560.00    1.10724   1.13230   76.511
 4561.00    1.10536   1.13096   78.420
 4562.00    1.10233   1.12367   80.099
 4563.00    1.09263   1.11478   80.394
 4564.00    1.08761   1.11090   78.885
 4565.00    1.09068   1.11482   76.802
 4566.00    1.10149   1.12336   75.358
 4567.00    1.11440   1.13063   75.380
 4568.00    1.12158   1.13217   76.769
 4569.00    1.11719   1.12651   78.794
 4570.00    1.09889   1.11571   79.630
 4571.00    1.07954   1.10585   78.091
 4572.00    1.07465   1.10431   -1.000
 4573.00    1.09003   1.11231   75.741
 4574.00    1.10445   1.12235   75.965
 4575.00    1.10741   1.12709   76.367
 4576.00    1.11209   1.12628   77.218
 4577.00    1.11394   1.12284   79.037
 4578.00    1.10923   1.11762   81.105
 4579.00    1.09775   1.11034   81.859
 4580.00    1.08781   1.10223   81.128
 4581.00    1.08404   1.09534   80.211
 4582.00    1.08020   1.09060   80.028
 4583.00    1.08033   1.08897   80.420
 4584.00    1.08264   1.09176   80.166
 4585.00    1.08620   1.09811   78.524
 4586.00    1.09536   1.10514   76.616
 4587.00    1.10046   1.11058   75.717
 4588.00    1.10032   1.11354   76.228
 4589.00    1.10231   1.11454   77.532
 4590.00    1.09843   1.11491   78.950
 4591.00    1.08888   1.11504   79.713
 4592.00    1.08626   1.11520   79.386
 4593.00    1.09243   1.11687   78.710
 4594.00    1.10078   1.12093   78.288
 4595.00    1.10594   1.12644   78.113
 4596.00    1.11277   1.13129   77.944
 4597.00    1.11275   1.13324   78.177
 4598.00    1.11018   1.13161   78.904
 4599.00    1.11277   1.12745   79.381
 4600.00    1.10876   1.12230   79.077
 4601.00    1.09712   1.11805   78.179
 4602.00    1.09306   1.11644   77.780
 4603.00    1.09889   1.11794   77.818
 4604.00    1.10737   1.12137   77.333
 4605.00    1.11301   1.12498   76.134
 4606.00    1.11461   1.12814   74.545
 4607.00    1.12020   1.13138   73.289
 4608.00    1.13067   1.13485   73.017
 4609.00    1.13723   1.13765   73.708
 4610.00    1.13357   1.13834   74.654
 4611.00    1.12348   1.13683   75.311
 4612.00    1.11636   1.13478   75.373
 4613.00    1.11593   1.13343   74.827
 4614.00    1.11845   1.13249   74.328
 4615.00    1.12040   1.13093   74.425
 4616.00    1.12456   1.12863   74.977
 4617.00    1.12406   1.12650   75.232
 4618.00    1.12069   1.12555   74.825
 4619.00    1.12320   1.12684   73.856
 4620.00    1.12916   1.13109   73.222
 4621.00    1.13582   1.13690   73.338
 4622.00    1.14035   1.14118   73.509
 4623.00    1.14313   1.14187   73.911
 4624.00    1.13475   1.13957   74.368
 4625.00    1.12380   1.13640   74.425
 4626.00    1.12056   1.13383   74.633
 4627.00    1.11902   1.13186   74.977
 4628.00    1.11897   1.13036   74.864
 4629.00    1.11945   1.13055   74.229
 4630.00    1.12027   1.13360   73.933
 4631.00    1.12491   1.13788   74.670
 4632.00    1.12764   1.14026   75.659
 4633.00    1.12641   1.13981   76.043
 4634.00    1.12775   1.13843   76.279
 4635.00    1.12697   1.13805   77.116
 4636.00    1.12384   1.13843   77.808
 4637.00    1.12194   1.13879   77.893
 4638.00    1.12055   1.13986   77.169
 4639.00    1.12332   1.14299   75.528
 4640.00    1.13232   1.14802   74.060
 4641.00    1.13730   1.15305   73.716
 4642.00    1.14026   1.15617   74.585
 4643.00    1.14040   1.15644   76.363
 4644.00    1.13980   1.15331   78.527
 4645.00    1.13621   1.14699   79.797
 4646.00    1.12140   1.13948   79.204
 4647.00    1.10815   1.13487   77.520
 4648.00    1.11440   1.13601   76.064
 4649.00    1.12392   1.14128   75.495
 4650.00    1.12174   1.14666   75.380
 4651.00    1.12301   1.14939   75.741
 4652.00    1.12613   1.14860   77.103
 4653.00    1.12510   1.14496   78.481
 4654.00    1.11986   1.14038   78.568
 4655.00    1.11508   1.13716   76.921
 4656.00    1.11145   1.13694   74.158
 4657.00    1.11776   1.14141   71.887
 4658.00    1.13708   1.15107   71.076
 4659.00    1.15042   1.16214   71.526
 4660.00    1.15321   1.16884   72.879
 4661.00    1.15171   1.16881   74.529
 4662.00    1.14344   1.16418   75.340
 4663.00    1.13741   1.15797   76.001
 4664.00    1.13757   1.15102   78.285
 4665.00    1.13326   1.14214   81.681
 4666.00    1.11943   1.13095   83.423
 4667.00    1.10018   1.12058   82.055
 4668.00    1.09222   1.11642   78.983
 4669.00    1.10299   1.12046   76.238
 4670.00    1.11788   1.12948   75.021
 4671.00    1.13017   1.13883   74.878
 4672.00    1.13765   1.14559   74.882
 4673.00    1.14077   1.14989   74.344
 4674.00    1.14705   1.15355   73.268
 4675.00    1.15133   1.15687   72.898
 4676.00    1.14793   1.15794   73.926
 4677.00    1.14581   1.15496   75.504
 4678.00    1.14527   1.14871   76.870
 4679.00    1.13692   1.14167   77.869
 4680.00    1.12573   1.13581   77.729
 4681.00    1.12355   1.13298   76.193
 4682.00    1.12752   1.13435   74.707
 4683.00    1.13562   1.13876   74.382
 4684.00    1.14559   1.14347   74.561
 4685.00    1.15101   1.14640   74.783
 4686.00    1.15357   1.14747   75.010
 4687.00    1.15013   1.14776   75.001
 4688.00    1.14322   1.14801   75.281
 4689.00    1.14308   1.14777   75.646
 4690.00    1.14376   1.14636   75.249
 4691.00    1.13966   1.14476   74.204
 4692.00    1.14001   1.14474   72.807
 4693.00    1.14588   1.14631   71.520
 4694.00    1.15332   1.14825   71.274
 4695.00    1.15673   1.14973   72.530
 4696.00    1.15861   1.14942   74.737
 4697.00    1.15619   1.14574   76.296
 4698.00    1.14794   1.13950   76.367
 4699.00    1.14520   1.13324   76.310
 4700.00    1.14492   1.12812   77.323
 4701.00    1.13765   1.12340   78.227
 4702.00    1.12528   1.11915   77.621
 4703.00    1.11821   1.11754   76.257
 4704.00    1.12038   1.12016   76.261
 4705.00    1.12854   1.12441   77.639
 4706.00    1.13173   1.12564   78.801
 4707.00    1.12334   1.12270   78.929
 4708.00    1.11812   1.11932   77.479
 4709.00    1.12053   1.12014   75.217
 4710.00    1.12661   1.12586   73.842
 4711.00    1.13815   1.13277   73.891
 4712.00    1.15168   1.13634   75.003
 4713.00    1.14881   1.13542   75.715
 4714.00    1.13620   1.13319   74.884
 4715.00    1.13544   1.13382   73.374
 4716.00    1.14359   1.13828   72.462
 4717.00    1.15094   1.14398   72.143
 4718.00    1.15473   1.14835   71.897
 4719.00    1.15520   1.15100   72.095
 4720.00    1.15375   1.15213   72.687
 4721.00    1.15252   1.15199   72.708
 4722.00    1.15126   1.15195   72.061
 4723.00    1.15162   1.15367   71.732
 4724.00    1.15301   1.15679   72.714
 4725.00    1.15114   1.15875   75.057
 4726.00    1.14483   1.15729   77.347
 4727.00    1.13633   1.15236   77.988
 4728.00    1.13024   1.14604   77.369
 4729.00    1.13333   1.14067   76.659
 4730.00    1.14164   1.13717   75.893
 4731.00    1.14604   1.13637   75.101
 4732.00    1.14664   1.13890   74.575
 4733.00    1.14474   1.14290   74.163
 4734.00    1.14604   1.14528   74.381
 4735.00    1.14876   1.14487   74.853
 4736.00    1.14613   1.14294   74.362
 4737.00    1.14459   1.14174   73.887
 4738.00    1.14778   1.14235   74.161
 4739.00    1.15070   1.14393   74.430
 4740.00    1.15478   1.14550   74.150
 4741.00    1.15898   1.14733   73.418
 4742.00    1.15830   1.15026   73.109
 4743.00    1.15735   1.15417   73.244
 4744.00    1.15835   1.15803   72.980
 4745.00    1.15500   1.16161   72.312
 4746.00    1.15103   1.16570   71.880
 4747.00    1.15917   1.17040   71.885
 4748.00    1.16514   1.17475   71.970
 4749.00    1.16111   1.17777   72.267
 4750.00    1.16158   1.17974   72.966
 4751.00    1.16175   1.18080   73.690
 4752.00    1.15803   1.18019   74.242
 4753.00    1.15063   1.17780   74.408
 4754.00    1.14692   1.17501   74.480
 4755.00    1.14518   1.17347   74.925
 4756.00    1.14019   1.17389   -1.000
 4757.00    1.14059   1.17550   -1.000
 4758.00    1.13986   1.17671   -1.000
 4759.00    1.14213   1.17613   -1.000
 4760.00    1.14437   1.17273   76.703
 4761.00    1.13839   1.16603   78.156
 4762.00    1.13223   1.15764   78.659
 4763.00    1.12833   1.15105   78.601
 4764.00    1.12684   1.14914   78.222
 4765.00    1.13002   1.15236   77.373
 4766.00    1.13829   1.15915   75.912
 4767.00    1.14655   1.16742   74.526
 4768.00    1.15063   1.17549   74.131
 4769.00    1.15488   1.18151   74.560
 4770.00    1.15865   1.18365   75.223
 4771.00    1.15819   1.18204   75.063
 4772.00    1.15769   1.17962   73.747
 4773.00    1.15832   1.17969   72.723
 4774.00    1.15989   1.18254   72.555
 4775.00    1.16242   1.18560   72.712
 4776.00    1.16087   1.18681   73.071
 4777.00    1.15885   1.18587   73.742
 4778.00    1.15852   1.18274   74.373
 4779.00    1.15476   1.17847   74.664
 4780.00    1.15426   1.17590   74.940
 4781.00    1.15469   1.17656   75.442
 4782.00    1.14801   1.17830   75.713
 4783.00    1.14628   1.17834   -1.000
 4784.00    1.15045   1.17646   76.352
 4785.00    1.14703   1.17349   76.957
 4786.00    1.14294   1.17022   77.109
 4787.00    1.14625   1.16811   76.853
 4788.00    1.14660   1.16820   76.414
 4789.00    1.14371   1.17020   75.763
 4790.00    1.15042   1.17404   74.714
 4791.00    1.16237   1.17985   73.232
 4792.00    1.16575   1.18681   71.791
 4793.00    1.16669   1.19344   71.094
 4794.00    1.17100   1.19819   71.389
 4795.00    1.17432   1.19936   72.528
 4796.00    1.17638   1.19660   73.960
 4797.00    1.17177   1.19146   75.069
 4798.00    1.15616   1.18658   75.102
 4799.00    1.14792   1.18481   -1.000
 4800.00    1.15338   1.18746   -1.000
 4801.00    1.16333   1.19270   72.237
 4802.00    1.17117   1.19611   72.843
 4803.00    1.17149   1.19377   73.822
 4804.00    1.16506   1.18646   74.617
 4805.00    1.16136   1.17970   74.908
 4806.00    1.16369   1.17788   74.777
 4807.00    1.16363   1.18087   74.503
 4808.00    1.16321   1.18571   73.976
 4809.00    1.16171   1.18926   73.372
 4810.00    1.16267   1.19050   72.933
 4811.00    1.16578   1.19097   72.728
 4812.00    1.17031   1.19278   72.607
 4813.00    1.17638   1.19643   72.380
 4814.00    1.17953   1.20038   72.009
 4815.00    1.18224   1.20293   71.553
 4816.00    1.17965   1.20411   71.194
 4817.00    1.17547   1.20450   71.054
 4818.00    1.17462   1.20372   71.051
 4819.00    1.17397   1.20160   71.396
 4820.00    1.17307   1.19853   72.731
 4821.00    1.17346   1.19386   74.403
 4822.00    1.16508   1.18658   74.948
 4823.00    1.15126   1.17809   74.106
 4824.00    1.15200   1.17245   72.855
 4825.00    1.15893   1.17231   72.519
 4826.00    1.16155   1.17583   73.167
 4827.00    1.16605   1.17882   73.823
 4828.00    1.16972   1.17913   74.006
 4829.00    1.16437   1.17771   74.363
 4830.00    1.15648   1.17621   74.763
 4831.00    1.15843   1.17514   74.135
 4832.00    1.16384   1.17450   73.025
 4833.00    1.16509   1.17441   72.449
 4834.00    1.16978   1.17445   72.413
 4835.00    1.17664   1.17388   72.668
 4836.00    1.17526   1.17272   73.380
 4837.00    1.16606   1.17148   74.576
 4838.00    1.15863   1.17007   75.206
 4839.00    1.15430   1.16808   75.103
 4840.00    1.14993   1.16623   74.818
 4841.00    1.15082   1.16518   74.334
 4842.00    1.15388   1.16414   73.669
 4843.00    1.15329   1.16233   72.690
 4844.00    1.15754   1.16033   71.963
 4845.00    1.16181   1.15877   72.625
 4846.00    1.15528   1.15653   73.937
 4847.00    1.14147   1.15176   74.411
 4848.00    1.12932   1.14527   73.794
 4849.00    1.12980   1.13986   73.213
 4850.00    1.13430   1.13617   73.392
 4851.00    1.13158   1.13206   73.941
 4852.00    1.12627   1.12489   75.452
 4853.00    1.11630   1.11246   77.692
 4854.00    1.09647   1.09438   78.567
 4855.00    1.07631   1.07357   77.982
 4856.00    1.05918   1.05260   78.792
 4857.00    1.04583   1.02687   83.535
 4858.00    1.01155   0.98401   92.317
 4859.00    0.93752   0.91623   99.794
 4860.00    0.84586   0.83796   98.190
 4861.00    0.79459   0.78704   90.370
 4862.00    0.82776   0.79495   83.818
 4863.00    0.91306   0.85567   -1.000
 4864.00    0.98514   0.93250   -1.000
 4865.00    1.02689   0.99472   76.795
 4866.00    1.05170   1.03668   76.323
 4867.00    1.06905   1.06516   76.556
 4868.00    1.08286   1.08443   78.079
 4869.00    1.08946   1.09386   80.164
 4870.00    1.08618   1.09379   80.633
 4871.00    1.07491   1.09031   78.966
 4872.00    1.07489   1.09221   77.176
 4873.00    1.09119   1.10290   76.273
 4874.00    1.10909   1.11760   75.795
 4875.00    1.11834   1.12921   75.475
 4876.00    1.11867   1.13538   74.745
 4877.00    1.11949   1.13908   73.800
 4878.00    1.12580   1.14479   73.829
 4879.00    1.13406   1.15419   74.836
 4880.00    1.13835   1.16373   75.646
 4881.00    1.13821   1.16795   75.680
 4882.00    1.13696   1.16593   75.782
 4883.00    1.13776   1.16228   76.637
 4884.00    1.13931   1.16116   77.406
 4885.00    1.13928   1.16270   77.334
 4886.00    1.14185   1.16484   77.077
 4887.00    1.14421   1.16536   77.679
 4888.00    1.14154   1.16247   79.184
 4889.00    1.13113   1.15563   79.667
 4890.00    1.11535   1.14786   -1.000
 4891.00    1.11253   1.14596   -1.000
 4892.00    1.13318   1.15518   71.357
 4893.00    1.16344   1.17265   69.710
 4894.00    1.18302   1.19021   68.965
 4895.00    1.19081   1.20266   68.923
 4896.00    1.19278   1.20938   69.840
 4897.00    1.18973   1.21119   71.466
 4898.00    1.18254   1.20870   72.657
 4899.00    1.17630   1.20324   72.784
 4900.00    1.17325   1.19775   72.666
 4901.00    1.16788   1.19449   73.230
 4902.00    1.16228   1.19280   73.183
 4903.00    1.16856   1.19202   71.907
 4904.00    1.17499   1.19434   70.908
 4905.00    1.17817   1.20091   71.058
 4906.00    1.18639   1.20767   72.339
 4907.00    1.19033   1.20937   74.311
 4908.00    1.18238   1.20539   75.793
 4909.00    1.17461   1.19848   75.612
 4910.00    1.16610   1.19188   74.365
 4911.00    1.16503   1.18881   73.196
 4912.00    1.17547   1.19087   72.227
 4913.00    1.18095   1.19660   71.459
 4914.00    1.18316   1.20291   71.384
 4915.00    1.18791   1.20645   72.959
 4916.00    1.19085   1.20356   76.377
 4917.00    1.17762   1.19171   80.307
 4918.00    1.15097   1.17246   82.486
 4919.00    1.12954   1.15227   81.284
 4920.00    1.11643   1.13918   78.397
 4921.00    1.12081   1.13700   76.508
 4922.00    1.13862   1.14206   76.007
 4923.00    1.14435   1.14800   75.436
 4924.00    1.14580   1.15426   73.868
 4925.00    1.15900   1.16473   72.269
 4926.00    1.17865   1.17956   71.339
 4927.00    1.19361   1.19406   70.782
 4928.00    1.19617   1.20464   70.333
 4929.00    1.19645   1.21079   70.548
 4930.00    1.19816   1.21202   71.965
 4931.00    1.19263   1.20670   74.332
 4932.00    1.17872   1.19456   75.612
 4933.00    1.16222   1.17999   74.860
 4934.00    1.15638   1.17107   74.232
 4935.00    1.16383   1.17159   75.482
 4936.00    1.17249   1.17587   77.676
 4937.00    1.16669   1.17587   78.193
 4938.00    1.15495   1.17148   76.305
 4939.00    1.14788   1.16985   73.755
 4940.00    1.15992   1.17668   71.973
 4941.00    1.18446   1.19061   71.046
 4942.00    1.19481   1.20534   70.810
 4943.00    1.19809   1.21529   71.135
 4944.00    1.19917   1.21896   71.448
 4945.00    1.19753   1.21822   71.132
 4946.00    1.19776   1.21653   70.358
 4947.00    1.19671   1.21687   69.880
 4948.00    1.19662   1.21952   69.630
 4949.00    1.20246   1.22231   69.715
 4950.00    1.20608   1.22335   70.157
 4951.00    1.20505   1.22270   70.834
 4952.00    1.20377   1.22133   71.698
 4953.00    1.20333   1.21900   73.183
 4954.00    1.20103   1.21294   76.207
 4955.00    1.18780   1.19912   79.699
 4956.00    1.16126   1.17812   80.084
 4957.00    1.13477   1.16008   76.621
 4958.00    1.13699   1.15797   73.212
 4959.00    1.16463   1.17355   71.854
 4960.00    1.18687   1.19565   71.844
 4961.00    1.19644   1.21278   72.332
 4962.00    1.20176   1.22130   73.076
 4963.00    1.20360   1.22265   74.348
 4964.00    1.19767   1.21898   75.587
 4965.00    1.18665   1.21241   75.998
 4966.00    1.18014   1.20608   75.862
 4967.00    1.18092   1.20266   75.437
 4968.00    1.18550   1.20249   74.727
 4969.00    1.19192   1.20486   73.922
 4970.00    1.19281   1.20921   73.074
 4971.00    1.19290   1.21422   72.306
 4972.00    1.19779   1.21830   71.853
 4973.00    1.20213   1.22070   72.030
 4974.00    1.20391   1.22128   72.695
 4975.00    1.20452   1.22010   73.596
 4976.00    1.20317   1.21736   74.720
 4977.00    1.19814   1.21350   75.769
 4978.00    1.19415   1.20942   76.781
 4979.00    1.18841   1.20448   78.713
 4980.00    1.17603   1.19587   81.316
 4981.00    1.16090   1.18272   82.409
 4982.00    1.14620   1.16900   81.455
 4983.00    1.13970   1.16098   79.449
 4984.00    1.14568   1.16231   77.030
 4985.00    1.15905   1.17175   74.895
 4986.00    1.17477   1.18531   74.175
 4987.00    1.18633   1.19851   74.872
 4988.00    1.18765   1.20626   75.798
 4989.00    1.17804   1.20566   76.134
 4990.00    1.16996   1.19924   75.733
 4991.00    1.17270   1.19322   75.257
 4992.00    1.17730   1.19191   75.112
 4993.00    1.17923   1.19513   74.871
 4994.00    1.18252   1.20065   74.487
 4995.00    1.18961   1.20666   74.603
 4996.00    1.19997   1.21055   75.391
 4997.00    1.19988   1.20853   76.715
 4998.00    1.18486   1.19855   77.930
 4999.00    1.17218   1.18396   78.353
 5000.00    1.16460   1.17366   77.920
 5001.00    1.16841   1.17358   77.302
 5002.00    1.17747   1.17991   77.753
 5003.00    1.18198   1.18414   79.409
 5004.00    1.17986   1.18132   80.515
 5005.00    1.16660   1.17271   79.488
 5006.00    1.15638   1.16536   77.217
 5007.00    1.16094   1.16648   75.768
 5008.00    1.17327   1.17567   76.048
 5009.00    1.18724   1.18513   77.833
 5010.00    1.18886   1.18745   80.544
 5011.00    1.17178   1.18132   82.906
 5012.00    1.15389   1.17083   83.429
 5013.00    1.14255   1.16209   82.122
 5014.00    1.14011   1.15930   80.341
 5015.00    1.15105   1.16164   79.465
 5016.00    1.15833   1.16377   79.358
 5017.00    1.15498   1.16152   78.825
 5018.00    1.15771   1.15814   78.066
 5019.00    1.16666   1.16094   78.021
 5020.00    1.17666   1.17106   78.277
 5021.00    1.18435   1.18220   78.073
 5022.00    1.18251   1.19003   77.387
 5023.00    1.18041   1.19616   76.742
 5024.00    1.18549   1.20249   76.762
 5025.00    1.19164   1.20767   77.142
 5026.00    1.19035   1.20955   76.861
 5027.00    1.18903   1.20865   75.688
 5028.00    1.19264   1.20751   74.461
 5029.00    1.19301   1.20764   73.311
 5030.00    1.19806   1.20917   72.327
 5031.00    1.20692   1.21229   72.073
 5032.00    1.21064   1.21607   73.521
 5033.00    1.21125   1.21728   76.258
 5034.00    1.20075   1.21333   78.241
 5035.00    1.18439   1.20594   78.896
 5036.00    1.17267   1.19953   79.582
 5037.00    1.17535   1.19535   81.867
 5038.00    1.16999   1.18921   85.203
 5039.00    1.15081   1.17713   86.595
 5040.00    1.13207   1.16225   83.965
 5041.00    1.12666   1.15425   79.134
 5042.00    1.14369   1.16033   75.250
 5043.00    1.16613   1.17804   73.115
 5044.00    1.20044   1.19869   70.807
 5045.00    1.19749   1.21522   71.032
 5046.00    0.72617   1.22416   -1.000
 5047.00    0.22769   1.22419   -1.000
 5048.00    0.05890   1.21598   -1.000
 5049.00    0.56105   1.20321   -1.000
 5050.00    1.10102   1.19149   -1.000
 5051.00    1.19351   1.18617   74.788
 5052.00    1.18884   1.19020   73.220
 5053.00    1.20324   1.20222   72.285
 5054.00    1.21520   1.21638   71.885
 5055.00    1.22632   1.22686   71.884
 5056.00    1.22821   1.23219   72.022
 5057.00    1.22515   1.23437   72.056
 5058.00    1.22523   1.23544   71.738
 5059.00    1.22387   1.23631   71.568
 5060.00    1.22184   1.23704   72.186
 5061.00    1.22465   1.23681   73.870
 5062.00    1.22744   1.23380   76.344
 5063.00    1.21842   1.22669   77.946
 5064.00    1.19785   1.21717   77.668
 5065.00    1.18562   1.20957   76.550
 5066.00    1.19273   1.20670   75.954
 5067.00    1.20332   1.20721   75.652
 5068.00    1.20487   1.20847   75.203
 5069.00    1.20796   1.20983   75.390
 5070.00    1.21458   1.21135   76.011
 5071.00    1.21293   1.21182   75.650
 5072.00    1.20861   1.21031   74.906
 5073.00    1.21000   1.20790   74.628
 5074.00    1.20670   1.20635   74.561
 5075.00    1.20615   1.20590   74.991
 5076.00    1.21017   1.20454   76.903
 5077.00    1.20581   1.19928   80.235
 5078.00    1.18458   1.18958   82.283
 5079.00    1.16362   1.18002   81.493
 5080.00    1.16467   1.17671   79.719
 5081.00    1.17495   1.18043   78.412
 5082.00    1.18025   1.18695   77.096
 5083.00    1.18794   1.19373   75.716
 5084.00    1.20254   1.20157   74.896
 5085.00    1.21534   1.21007   74.645
 5086.00    1.22068   1.21663   74.376
 5087.00    1.21915   1.22007   73.893
 5088.00    1.21456   1.22195   73.435
 5089.00    1.21607   1.22427   73.048
 5090.00    1.21857   1.22735   72.374
 5091.00    1.22232   1.23056   71.646
 5092.00    1.22901   1.23363   71.823
 5093.00    1.23827   1.23608   73.034
 5094.00    1.24222   1.23643   74.611
 5095.00    1.23593   1.23296   76.350
 5096.00    1.22065   1.22528   78.050
 5097.00    1.20679   1.21510   78.806
 5098.00    1.19660   1.20609   77.635
 5099.00    1.19337   1.20280   75.469
 5100.00    1.20586   1.20713   74.244
 5101.00    1.21984   1.21591   74.308
 5102.00    1.22374   1.22378   75.109
 5103.00    1.22163   1.22762   76.085
 5104.00    1.21873   1.22678   77.028
 5105.00    1.21180   1.22119   77.987
 5106.00    1.20028   1.21153   78.268
 5107.00    1.18710   1.20133   77.884
 5108.00    1.17937   1.19531   77.340
 5109.00    1.18592   1.19535   76.425
 5110.00    1.19570   1.20057   75.419
 5111.00    1.20375   1.20976   74.501
 5112.00    1.21646   1.22076   73.744
 5113.00    1.22230   1.23015   73.256
 5114.00    1.22299   1.23593   72.622
 5115.00    1.22985   1.23914   71.949
 5116.00    1.23502   1.24179   71.872
 5117.00    1.24042   1.24417   72.566
 5118.00    1.24122   1.24490   73.623
 5119.00    1.23661   1.24281   74.805
 5120.00    1.23325   1.23770   76.486
 5121.00    1.22483   1.22995   78.689
 5122.00    1.21064   1.22057   79.901
 5123.00    1.19586   1.21177   79.605
 5124.00    1.18931   1.20641   79.081
 5125.00    1.19240   1.20526   78.644
 5126.00    1.19583   1.20574   78.549
 5127.00    1.19675   1.20521   78.555
 5128.00    1.19574   1.20413   77.859
 5129.00    1.19988   1.20486   76.621
 5130.00    1.20809   1.20862   75.752
 5131.00    1.21419   1.21423   75.078
 5132.00    1.21560   1.21949   74.395
 5133.00    1.22076   1.22332   74.042
 5134.00    1.22821   1.22554   74.844
 5135.00    1.22844   1.22532   76.532
 5136.00    1.22281   1.22136   77.993
 5137.00    1.21026   1.21366   78.487
 5138.00    1.19199   1.20496   78.042
 5139.00    1.18313   1.19950   78.158
 5140.00    1.18354   1.19930   79.217
 5141.00    1.18669   1.20217   79.378
 5142.00    1.18845   1.20538   78.307
 5143.00    1.19611   1.20930   77.655
 5144.00    1.20890   1.21493   78.056
 5145.00    1.21352   1.22023   78.455
 5146.00    1.21164   1.22270   77.876
 5147.00    1.20843   1.22258   77.237
 5148.00    1.20943   1.22103   77.722
 5149.00    1.21306   1.21768   79.014
 5150.00    1.20624   1.21199   79.865
 5151.00    1.19204   1.20579   79.761
 5152.00    1.18988   1.20261   78.598
 5153.00    1.19897   1.20416   76.743
 5154.00    1.21021   1.20957   74.782
 5155.00    1.22352   1.21765   73.212
 5156.00    1.23186   1.22721   72.397
 5157.00    1.23953   1.23592   72.222
 5158.00    1.24883   1.24161   72.387
 5159.00    1.25181   1.24374   72.749
 5160.00    1.24590   1.24284   73.437
 5161.00    1.24019   1.23972   74.479
 5162.00    1.23465   1.23491   76.749
 5163.00    1.23338   1.22671   81.923
 5164.00    1.22098   1.20968   89.948
 5165.00    1.18336   1.17843   97.248
 5166.00    1.13192   1.13638   98.051
 5167.00    1.09260   1.09968   93.430
 5168.00    1.09133   1.08536   90.727
 5169.00    1.11869   1.09387   94.188
 5170.00    1.13902   1.10762  100.668
 5171.00    1.12348   1.11072  100.130
 5172.00    1.10100   1.10803   91.148
 5173.00    1.11164   1.11800   82.767
 5174.00    1.15364   1.14809   78.479
 5175.00    1.20130   1.18617   76.965
 5176.00    1.22808   1.21586   76.603
 5177.00    1.24246   1.23173   77.070
 5178.00    1.24825   1.23733   79.133
 5179.00    1.24392   1.23524   83.886
 5180.00    1.23578   1.22293   92.433
 5181.00    1.20990   1.19648  101.020
 5182.00    1.15620   1.15966  100.294
 5183.00    1.11262   1.12851   90.829
 5184.00    1.11053   1.12160   82.151
 5185.00    1.15559   1.14183   78.149
 5186.00    1.20465   1.17236   76.961
 5187.00    1.21862   1.19441   76.556
 5188.00    1.21754   1.20325   77.010
 5189.00    1.21660   1.20383   78.948
 5190.00    1.20989   1.19998   81.282
 5191.00    1.19298   1.19311   81.587
 5192.00    1.17736   1.18678   80.376
 5193.00    1.18128   1.18548   79.109
 5194.00    1.19126   1.18944   77.954
 5195.00    1.19733   1.19543   76.521
 5196.00    1.20921   1.20157   75.133
 5197.00    1.21776   1.20803   74.310
 5198.00    1.22279   1.21501   74.077
 5199.00    1.23180   1.22154   74.469
 5200.00    1.23548   1.22534   75.592
 5201.00    1.22990   1.22387   77.224
 5202.00    1.22126   1.21581   79.452
 5203.00    1.20887   1.20193   81.936
 5204.00    1.19113   1.18597   82.946
 5205.00    1.17835   1.17360   83.297
 5206.00    1.17616   1.16831   83.789
 5207.00    1.17992   1.16871   83.112
 5208.00    1.18098   1.17197   80.828
 5209.00    1.18832   1.17887   77.732
 5210.00    1.20359   1.19176   74.651
 5211.00    1.23126   1.20857   72.674
 5212.00    1.24734   1.22300   72.770
 5213.00    1.25105   1.22952   74.253
 5214.00    1.24108   1.22672   75.451
 5215.00    1.22518   1.21860   75.290
 5216.00    1.22008   1.21268   73.939
 5217.00    1.23053   1.21468   72.649
 5218.00    1.24605   1.22427   71.930
 5219.00    1.25561   1.23630   71.570
 5220.00    1.26235   1.24579   72.119
 5221.00    1.26298   1.25044   73.950
 5222.00    1.25912   1.24902   76.785
 5223.00    1.25157   1.23961   80.272
 5224.00    1.23529   1.22081   83.002
 5225.00    1.20166   1.19546   82.448
 5226.00    1.17142   1.17345   78.616
 5227.00    1.16637   1.16702   74.993
 5228.00    1.19269   1.17943   73.151
 5229.00    1.22763   1.20065   72.704
 5230.00    1.24517   1.21652   73.708
 5231.00    1.24568   1.22005   75.116
 5232.00    1.23505   1.21413   75.408
 5233.00    1.22309   1.20721   74.117
 5234.00    1.22298   1.20707   72.334
 5235.00    1.23219   1.21556   71.242
 5236.00    1.24676   1.22828   70.971
 5237.00    1.26218   1.23933   71.124
 5238.00    1.26784   1.24582   71.110
 5239.00    1.26829   1.24838   70.770
 5240.00    1.26905   1.24900   70.712
 5241.00    1.26723   1.24901   70.656
 5242.00    1.26588   1.24903   70.527
 5243.00    1.26598   1.24939   71.478
 5244.00    1.26968   1.24960   73.513
 5245.00    1.26191   1.24768   75.427
 5246.00    1.24941   1.24220   76.078
 5247.00    1.24124   1.23484   76.201
 5248.00    1.23222   1.22869   76.587
 5249.00    1.22703   1.22488   76.488
 5250.00    1.22365   1.22332   75.612
 5251.00    1.22630   1.22434   74.760
 5252.00    1.23643   1.22726   74.554
 5253.00    1.24546   1.22994   74.196
 5254.00    1.24185   1.23166   72.798
 5255.00    1.24467   1.23450   70.879
 5256.00    1.25418   1.24055   69.867
 5257.00    1.26647   1.24834   70.171
 5258.00    1.27731   1.25348   71.745
 5259.00    1.27616   1.25217   74.498
 5260.00    1.26464   1.24291   77.959
 5261.00    1.23801   1.22695   80.978
 5262.00    1.21338   1.20816   82.965
 5263.00    1.19506   1.19102   83.606
 5264.00    1.18600   1.17879   82.606
 5265.00    1.18525   1.17310   81.107
 5266.00    1.19086   1.17251   81.919
 5267.00    1.20130   1.17136   84.852
 5268.00    1.19031   1.16405   84.879
 5269.00    1.16467   1.15367   80.712
 5270.00    1.16158   1.15190   76.790
 5271.00    1.19073   1.16558   75.309
 5272.00    1.21869   1.18745   75.165
 5273.00    1.22804   1.20454   75.067
 5274.00    1.23025   1.21223   73.979
 5275.00    1.23308   1.21572   71.731
 5276.00    1.24449   1.22192   70.052
 5277.00    1.26284   1.23253   69.999
 5278.00    1.27447   1.24305   71.357
 5279.00    1.27268   1.24737   73.206
 5280.00    1.26550   1.24334   74.716
 5281.00    1.25452   1.23384   75.359
 5282.00    1.24150   1.22418   74.348
 5283.00    1.23534   1.21969   72.245
 5284.00    1.24072   1.22378   69.971
 5285.00    1.26121   1.23568   68.965
 5286.00    1.28102   1.25000   69.114
 5287.00    1.28649   1.26080   69.229
 5288.00    1.28287   1.26634   68.925
 5289.00    1.28482   1.26842   68.697
 5290.00    1.28986   1.26867   68.952
 5291.00    1.28721   1.26776   69.547
 5292.00    1.28121   1.26630   70.402
 5293.00    1.27756   1.26438   72.043
 5294.00    1.27478   1.26067   74.607
 5295.00    1.26846   1.25341   76.880
 5296.00    1.25178   1.24299   77.091
 5297.00    1.23939   1.23303   75.485
 5298.00    1.23724   1.22820   73.908
 5299.00    1.24420   1.23009   73.197
 5300.00    1.25179   1.23575   72.434
 5301.00    1.25221   1.24153   70.757
 5302.00    1.25375   1.24680   69.266
 5303.00    1.26295   1.25246   68.797
 5304.00    1.27303   1.25778   69.256
 5305.00    1.27950   1.26069   69.897
 5306.00    1.27915   1.26068   69.731
 5307.00    1.27326   1.25980   69.051
 5308.00    1.27798   1.26042   68.526
 5309.00    1.28723   1.26292   68.461
 5310.00    1.29306   1.26567   68.771
 5311.00    1.29664   1.26688   69.100
 5312.00    1.29142   1.26575   69.544
 5313.00    1.28534   1.26188   70.188
 5314.00    1.28202   1.25492   70.836
 5315.00    1.26929   1.24612   71.022
 5316.00    1.25915   1.23930   70.630
 5317.00    1.26176   1.23863   70.257
 5318.00    1.26803   1.24436   70.370
 5319.00    1.27511   1.25214   70.814
 5320.00    1.27941   1.25679   71.562
 5321.00    1.27693   1.25553   72.714
 5322.00    1.26806   1.24860   73.562
 5323.00    1.25489   1.23892   73.710
 5324.00    1.24822   1.22978   75.160
 5325.00    1.24950   1.22051   79.291
 5326.00    1.23684   1.20682   82.614
 5327.00    1.20450   1.18930   80.875
 5328.00    1.18440   1.17819   76.353
 5329.00    1.20032   1.18421   73.313
 5330.00    1.23564   1.20525   72.163
 5331.00    1.26391   1.22793   -1.000
 5332.00    1.26946   1.24221   70.690
 5333.00    1.27136   1.24799   70.245
 5334.00    1.27932   1.24926   70.508
 5335.00    1.28035   1.24841   70.981
 5336.00    1.27372   1.24621   71.674
 5337.00    1.27088   1.24289   73.223
 5338.00    1.27222   1.23799   -1.000
 5339.00    1.25944   1.23168   74.559
 5340.00    1.24380   1.22688   72.859
 5341.00    1.24418   1.22778   71.353
 5342.00    1.26560   1.23486   71.030
 5343.00    1.27950   1.24330   -1.000
 5344.00    1.28014   1.24793   71.869
 5345.00    1.27450   1.24763   72.250
 5346.00    1.27626   1.24453   72.824
 5347.00    1.27138   1.24119   73.131
 5348.00    1.26377   1.23925   72.321
 5349.00    1.26080   1.24000   70.753
 5350.00    1.27062   1.24427   69.665
 5351.00    1.28000   1.25076   69.294
 5352.00    1.28646   1.25689   68.843
 5353.00    1.29444   1.26149   68.039
 5354.00    1.29171   1.26536   67.429
 5355.00    1.29288   1.26927   67.353
 5356.00    1.29854   1.27265   67.457
 5357.00    1.29836   1.27451   67.668
 5358.00    1.30085   1.27454   68.327
 5359.00    1.30504   1.27275   69.400
 5360.00    1.29494   1.26905   70.464
 5361.00    1.28061   1.26356   71.093
 5362.00    1.27780   1.25707   71.516
 5363.00    1.27528   1.25088   71.942
 5364.00    1.27180   1.24631   71.884
 5365.00    1.27108   1.24418   71.812
 5366.00    1.27042   1.24384   72.365
 5367.00    1.26761   1.24276   73.920
 5368.00    1.26374   1.23789   76.094
 5369.00    1.25503   1.22812   76.858
 5370.00    1.23881   1.21678   74.731
 5371.00    1.23352   1.21138   71.389
 5372.00    1.24197   1.21781   69.254
 5373.00    1.26706   1.23381   68.482
 5374.00    1.28946   1.25091   -1.000
 5375.00    1.29786   1.26243   -1.000
 5376.00    1.30154   1.26759   68.723
 5377.00    1.30358   1.26897   -1.000
 5378.00    1.29870   1.26822   69.682
 5379.00    1.29583   1.26528   70.377
 5380.00    1.28870   1.26046   70.806
 5381.00    1.27512   1.25538   70.846
 5382.00    1.27059   1.25205   70.572
 5383.00    1.27830   1.25176   69.907
 5384.00    1.28563   1.25477   69.613
 5385.00    1.29227   1.26015   69.833
 5386.00    1.29535   1.26560   70.434
 5387.00    1.29400   1.26844   71.427
 5388.00    1.29088   1.26730   72.309
 5389.00    1.28928   1.26282   72.741
 5390.00    1.28805   1.25695   72.834
 5391.00    1.27965   1.25138   73.008
 5392.00    1.27256   1.24686   73.480
 5393.00    1.27131   1.24330   74.359
 5394.00    1.26357   1.23927   75.755
 5395.00    1.25708   1.23258   76.169
 5396.00    1.24485   1.22404   74.400
 5397.00    1.24083   1.21943   72.195
 5398.00    1.25813   1.22362   71.384
 5399.00    1.27433   1.23436   -1.000
 5400.00    1.28145   1.24475   -1.000
 5401.00    1.28635   1.24921   -1.000
 5402.00    1.28165   1.24555   -1.000
 5403.00    1.26309   1.23439   77.589
 5404.00    1.24088   1.22000   77.180
 5405.00    1.23111   1.20992   75.680
 5406.00    1.23789   1.20970   74.795
 5407.00    1.25311   1.21717   -1.000
 5408.00    1.26077   1.22480   -1.000
 5409.00    1.25834   1.22839   73.420
 5410.00    1.25524   1.23078   71.624
 5411.00    1.25878   1.23620   70.677
 5412.00    1.27657   1.24355   70.562
 5413.00    1.28709   1.24854   -1.000
 5414.00    1.28070   1.24995   70.207
 5415.00    1.27818   1.25048   69.730
 5416.00    1.28705   1.25269   69.856
 5417.00    1.28912   1.25618   70.478
 5418.00    1.28650   1.25904   70.971
 5419.00    1.28624   1.26045   70.835
 5420.00    1.28356   1.26040   70.535
 5421.00    1.28409   1.25861   71.242
 5422.00    1.28271   1.25496   72.002
 5423.00    1.27647   1.25054   71.537
 5424.00    1.27227   1.24796   70.390
 5425.00    1.27638   1.24936   70.292
 5426.00    1.28492   1.25291   71.889
 5427.00    1.27852   1.25319   74.170
 5428.00    1.26913   1.24718   74.803
 5429.00    1.25801   1.23910   73.724
 5430.00    1.24903   1.23564   73.379
 5431.00    1.25895   1.23718   74.225
 5432.00    1.26468   1.23801   75.152
 5433.00    1.25661   1.23464   75.116
 5434.00    1.25077   1.23069   73.854
 5435.00    1.25245   1.23267   71.907
 5436.00    1.26901   1.24224   70.290
 5437.00    1.28905   1.25512   69.214
 5438.00    1.29873   1.26609   68.565
 5439.00    1.30746   1.27296   -1.000
 5440.00    1.30992   1.27649   -1.000
 5441.00    1.30696   1.27779   68.912
 5442.00    1.30222   1.27642   70.531
 5443.00    1.29791   1.27043   73.254
 5444.00    1.28280   1.25828   75.836
 5445.00    1.25882   1.24186   75.911
 5446.00    1.23819   1.22798   73.783
 5447.00    1.23735   1.22439   71.619
 5448.00    1.26083   1.23274   70.670
 5449.00    1.28643   1.24715   -1.000
 5450.00    1.30049   1.25961   -1.000
 5451.00    1.30364   1.26524   -1.000
 5452.00    1.29672   1.26282   -1.000
 5453.00    1.28131   1.25326   76.283
 5454.00    1.26044   1.24020   75.733
 5455.00    1.24479   1.23087   73.350
 5456.00    1.25168   1.23213   71.209
 5457.00    1.27883   1.24399   70.503
 5458.00    1.30088   1.25909   -1.000
 5459.00    1.30751   1.26947   -1.000
 5460.00    1.30457   1.27229   73.448
 5461.00    1.29581   1.26902   73.963
 5462.00    1.28547   1.26306   73.296
 5463.00    1.28582   1.25852   72.401
 5464.00    1.29155   1.25817   71.962
 5465.00    1.30269   1.26133   -1.000
 5466.00    1.30353   1.26535   -1.000
 5467.00    1.30380   1.26860   -1.000
 5468.00    1.30978   1.27110   -1.000
 5469.00    1.30919   1.27296   -1.000
 5470.00    1.30363   1.27332   72.785
 5471.00    1.30221   1.27138   73.460
 5472.00    1.29699   1.26738   74.457
 5473.00    1.29100   1.26156   75.953
 5474.00    1.28042   1.25338   77.241
 5475.00    1.26656   1.24334   76.901
 5476.00    1.25220   1.23530   74.819
 5477.00    1.25541   1.23461   73.196
 5478.00    1.27501   1.24214   73.391
 5479.00    1.28688   1.25229   -1.000
 5480.00    1.28739   1.25906   74.349
 5481.00    1.28436   1.26164   73.244
 5482.00    1.28283   1.26305   71.760
 5483.00    1.28741   1.26590   70.970
 5484.00    1.29433   1.27002   71.424
 5485.00    1.29609   1.27313   72.419
 5486.00    1.29044   1.27347   72.966
 5487.00    1.28724   1.27147   73.044
 5488.00    1.29222   1.26903   72.620
 5489.00    1.29064   1.26780   72.083
 5490.00    1.28855   1.26843   71.768
 5491.00    1.29527   1.27043   71.853
 5492.00    1.29711   1.27241   71.914
 5493.00    1.29865   1.27288   71.907
 5494.00    1.30296   1.27100   72.333
 5495.00    1.29633   1.26666   72.859
 5496.00    1.28654   1.26096   72.633
 5497.00    1.28148   1.25661   71.868
 5498.00    1.28171   1.25570   72.175
 5499.00    1.29044   1.25660   -1.000
 5500.00    1.28992   1.25600   -1.000
 5501.00    1.28183   1.25386   73.100
 5502.00    1.28388   1.25332   72.851
 5503.00    1.28918   1.25546   -1.000
 5504.00    1.29215   1.25678   -1.000
 5505.00    1.28166   1.25415   74.016
 5506.00    1.26941   1.24977   72.884
 5507.00    1.27293   1.24873   72.404
 5508.00    1.27920   1.25287   72.758
 5509.00    1.29623   1.25871   -1.000
 5510.00    1.30160   1.26152   -1.000
 5511.00    1.29575   1.26020   -1.000
 5512.00    1.28227   1.25716   75.458
 5513.00    1.28095   1.25535   74.176
 5514.00    1.29121   1.25636   -1.000
 5515.00    1.29622   1.26020   -1.000
 5516.00    1.30455   1.26575   -1.000
 5517.00    1.30974   1.27142   -1.000
 5518.00    1.31442   1.27565   -1.000
 5519.00    1.31633   1.27761   -1.000
 5520.00    1.31133   1.27770   -1.000
 5521.00    1.31294   1.27725   -1.000
 5522.00    1.31239   1.27706   -1.000
 5523.00    1.30815   1.27616   -1.000
 5524.00    1.30355   1.27210   -1.000
 5525.00    1.29312   1.26298   -1.000
 5526.00    1.27681   1.25003   76.095
 5527.00    1.26283   1.23852   74.775
 5528.00    1.26133   1.23469   72.811
 5529.00    1.27207   1.24062   71.691
 5530.00    1.28810   1.25203   -1.000
 5531.00    1.29880   1.26171   -1.000
 5532.00    1.29391   1.26518   72.695
 5533.00    1.29085   1.26321   72.543
 5534.00    1.29072   1.26023   71.992
 5535.00    1.28887   1.26047   71.738
 5536.00    1.29495   1.26466   71.457
 5537.00    1.30107   1.27032   70.820
 5538.00    1.30715   1.27498   70.228
 5539.00    1.31355   1.27791   -1.000
 5540.00    1.31298   1.27927   -1.000
 5541.00    1.31289   1.27911   -1.000
 5542.00    1.31239   1.27754   -1.000
 5543.00    1.30640   1.27548   71.647
 5544.00    1.30358   1.27429   71.472
 5545.00    1.30594   1.27462   71.070
 5546.00    1.30737   1.27625   70.400
 5547.00    1.30856   1.27899   69.787
 5548.00    1.31246   1.28252   69.558
 5549.00    1.31697   1.28561   69.850
 5550.00    1.31748   1.28678   70.432
 5551.00    1.32054   1.28589   -1.000
 5552.00    1.31802   1.28413   -1.000
 5553.00    1.31385   1.28257   -1.000
 5554.00    1.31178   1.28161   71.384
 5555.00    1.30955   1.28142   71.243
 5556.00    1.30824   1.28195   71.151
 5557.00    1.31499   1.28282   -1.000
 5558.00    1.32008   1.28367   -1.000
 5559.00    1.31806   1.28428   -1.000
 5560.00    1.31830   1.28410   -1.000
 5561.00    1.31407   1.28262   -1.000
 5562.00    1.31112   1.28033   73.003
 5563.00    1.30546   1.27845   73.156
 5564.00    1.30429   1.27744   73.242
 5565.00    1.30169   1.27650   73.123
 5566.00    1.30037   1.27484   72.964
 5567.00    1.30024   1.27242   73.120
 5568.00    1.29654   1.26979   73.116
 5569.00    1.29043   1.26760   73.108
 5570.00    1.28532   1.26565   73.293
 5571.00    1.26471   1.26320   73.065
 5572.00    1.19280   1.26099   -1.000
 5573.00    0.93598   1.26085   -1.000
 5574.00    0.54711   1.26320   -1.000
 5575.00    0.40350   1.26686   -1.000
 5576.00    0.73499   1.27059   -1.000
 5577.00    1.26881   1.27383   72.685
 5578.00    1.47751   1.27636   -1.000
 5579.00    1.39370   1.27775   -1.000
 5580.00    1.32594   1.27761   -1.000
 5581.00    1.30867   1.27661   -1.000
 5582.00    1.30624   1.27585   72.381
 5583.00    1.30970   1.27470   -1.000
 5584.00    1.30872   1.27060   -1.000
 5585.00    1.29422   1.26191   -1.000
 5586.00    1.27282   1.25053   78.191
 5587.00    1.25453   1.24090   77.471
 5588.00    1.25214   1.23691   76.111
 5589.00    1.26472   1.23971   74.990
 5590.00    1.27897   1.24728   -1.000
 5591.00    1.29031   1.25534   -1.000
 5592.00    1.28986   1.26012   74.556
 5593.00    1.28529   1.26136   73.551
 5594.00    1.27972   1.26193   72.864
 5595.00    1.28891   1.26369   73.373
 5596.00    1.30233   1.26499   -1.000
 5597.00    1.29612   1.26366   -1.000
 5598.00    1.28936   1.26044   75.546
 5599.00    1.28456   1.25690   75.892
 5600.00    1.28909   1.25318   -1.000
 5601.00    1.27756   1.25032   75.255
 5602.00    1.26405   1.25137   73.270
 5603.00    1.27892   1.25815   71.533
 5604.00    1.30288   1.26883   -1.000
 5605.00    1.31531   1.27944   -1.000
 5606.00    1.31976   1.28701   -1.000
 5607.00    1.32243   1.29116   70.567
 5608.00    1.32730   1.29325   -1.000
 5609.00    1.32459   1.29464   70.320
 5610.00    1.31936   1.29556   70.575
 5611.00    1.32361   1.29466   71.892
 5612.00    1.32291   1.28973   -1.000
 5613.00    1.31203   1.27981   -1.000
 5614.00    1.28800   1.26788   75.844
 5615.00    1.27594   1.26051   74.132
 5616.00    1.28234   1.26213   72.989
 5617.00    1.30030   1.27053   72.721
 5618.00    1.31104   1.27970   72.426
 5619.00    1.31105   1.28566   72.064
 5620.00    1.31727   1.28818   72.284
 5621.00    1.32080   1.28832   -1.000
 5622.00    1.31521   1.28646   74.986
 5623.00    1.30633   1.28314   74.888
 5624.00    1.29824   1.28028   73.707
 5625.00    1.29862   1.28004   72.603
 5626.00    1.30899   1.28268   71.739
 5627.00    1.31441   1.28650   71.174
 5628.00    1.31772   1.28995   70.937
 5629.00    1.32601   1.29250   -1.000
 5630.00    1.32842   1.29397   -1.000
 5631.00    1.32372   1.29421   71.196
 5632.00    1.32102   1.29344   71.723
 5633.00    1.32390   1.29235   -1.000
 5634.00    1.32192   1.29137   72.703
 5635.00    1.31520   1.29016   73.204
 5636.00    1.30948   1.28836   73.271
 5637.00    1.30714   1.28640   73.194
 5638.00    1.30781   1.28481   73.403
 5639.00    1.30719   1.28353   73.475
 5640.00    1.30697   1.28241   73.216
 5641.00    1.30804   1.28184   72.875
 5642.00    1.31661   1.28246   -1.000
 5643.00    1.31907   1.28418   -1.000
 5644.00    1.31743   1.28612   72.026
 5645.00    1.31672   1.28755   71.843
 5646.00    1.32186   1.28838   -1.000
 5647.00    1.32638   1.28891   -1.000
 5648.00    1.32466   1.28925   -1.000
 5649.00    1.32405   1.28932   -1.000
 5650.00    1.32193   1.28930   -1.000
 5651.00    1.32656   1.28948   -1.000
 5652.00    1.32650   1.28968   -1.000
 5653.00    1.32460   1.28925   -1.000
 5654.00    1.31955   1.28708   -1.000
 5655.00    1.31070   1.28152   -1.000
 5656.00    1.30211   1.27215   -1.000
 5657.00    1.28760   1.26220   76.639
 5658.00    1.27519   1.25705   74.979
 5659.00    1.28038   1.25899   74.531
 5660.00    1.29887   1.26510   -1.000
 5661.00    1.30211   1.27108   -1.000
 5662.00    1.29711   1.27589   72.863
 5663.00    1.30368   1.28082   72.488
 5664.00    1.31281   1.28526   72.813
 5665.00    1.31539   1.28670   73.256
 5666.00    1.30957   1.28441   73.384
 5667.00    1.30503   1.28079   73.220
 5668.00    1.30585   1.27897   72.771
 5669.00    1.30875   1.28014   72.150
 5670.00    1.31207   1.28329   71.431
 5671.00    1.31926   1.28684   -1.000
 5672.00    1.32598   1.28980   -1.000
 5673.00    1.32592   1.29181   -1.000
 5674.00    1.32081   1.29309   70.735
 5675.00    1.32059   1.29411   70.603
 5676.00    1.32740   1.29504   -1.000
 5677.00    1.32782   1.29543   -1.000
 5678.00    1.32229   1.29467   71.630
 5679.00    1.32055   1.29248   72.430
 5680.00    1.31789   1.28883   -1.000
 5681.00    1.31486   1.28392   -1.000
 5682.00    1.31192   1.27878   -1.000
 5683.00    1.30554   1.27525   -1.000
 5684.00    1.30605   1.27463   -1.000
 5685.00    1.30777   1.27630   -1.000
 5686.00    1.30644   1.27824   -1.000
 5687.00    1.30811   1.27900   -1.000
 5688.00    1.30392   1.27891   72.164
 5689.00    1.30702   1.27952   71.412
 5690.00    1.31621   1.28187   -1.000
 5691.00    1.31758   1.28559   -1.000
 5692.00    1.32243   1.28931   -1.000
 5693.00    1.32617   1.29201   -1.000
 5694.00    1.32425   1.29356   -1.000
 5695.00    1.32307   1.29428   -1.000
 5696.00    1.32424   1.29425   -1.000
 5697.00    1.31706   1.29303   73.264
 5698.00    1.31541   1.29017   74.039
 5699.00    1.31104   1.28619   74.422
 5700.00    1.30098   1.28254   73.939
 5701.00    1.29730   1.28074   73.170
 5702.00    1.29383   1.28139   72.937
 5703.00    1.29791   1.28354   73.379
 5704.00    1.30187   1.28506   74.383
 5705.00    1.30468   1.28418   75.755
 5706.00    1.30255   1.28032   76.962
 5707.00    1.29750   1.27400   77.470
 5708.00    1.27754   1.26693   77.331
 5709.00    1.26618   1.26168   76.579
 5710.00    1.27175   1.26060   75.054
 5711.00    1.28416   1.26436   73.206
 5712.00    1.29787   1.27126   72.025
 5713.00    1.31818   1.27845   -1.000
 5714.00    1.32645   1.28399   -1.000
 5715.00    1.31903   1.28776   -1.000
 5716.00    1.31431   1.29044   70.992
 5717.00    1.31899   1.29247   70.538
 5718.00    1.32111   1.29412   70.197
 5719.00    1.32157   1.29568   70.018
 5720.00    1.32374   1.29709   69.907
 5721.00    1.32634   1.29809   69.822
 5722.00    1.33260   1.29865   -1.000
 5723.00    1.33600   1.29879   -1.000
 5724.00    1.32917   1.29811   -1.000
 5725.00    1.32311   1.29614   71.859
 5726.00    1.32176   1.29333   -1.000
 5727.00    1.32039   1.29093   -1.000
 5728.00    1.32496   1.28996   -1.000
 5729.00    1.32719   1.29051   -1.000
 5730.00    1.32530   1.29197   -1.000
 5731.00    1.32707   1.29357   -1.000
 5732.00    1.32793   1.29512   -1.000
 5733.00    1.32804   1.29687   -1.000
 5734.00    1.32504   1.29849   70.364
 5735.00    1.32727   1.29931   -1.000
 5736.00    1.33090   1.29936   -1.000
 5737.00    1.33128   1.29924   -1.000
 5738.00    1.32826   1.29930   -1.000
 5739.00    1.33012   1.29958   -1.000
 5740.00    1.32354   1.29987   70.900
 5741.00    1.32656   1.29982   70.823
 5742.00    1.32618   1.29954   70.331
 5743.00    1.32733   1.29946   69.937
 5744.00    1.32714   1.29957   70.269
 5745.00    1.32848   1.29937   -1.000
 5746.00    1.32369   1.29867   71.264
 5747.00    1.31630   1.29802   70.884
 5748.00    1.31915   1.29807   70.646
 5749.00    1.33021   1.29848   -1.000
 5750.00    1.33105   1.29799   -1.000
 5751.00    1.32485   1.29575   -1.000
 5752.00    1.31738   1.29243   72.781
 5753.00    1.30551   1.29010   71.901
 5754.00    1.30731   1.29066   70.579
 5755.00    1.31996   1.29412   69.710
 5756.00    1.33003   1.29888   -1.000
 5757.00    1.33393   1.30306   -1.000
 5758.00    1.33644   1.30518   -1.000
 5759.00    1.33221   1.30446   -1.000
 5760.00    1.32372   1.30131   72.931
 5761.00    1.31922   1.29743   72.209
 5762.00    1.31628   1.29520   70.935
 5763.00    1.31375   1.29633   70.039
 5764.00    1.32159   1.30020   69.785
 5765.00    1.33237   1.30421   69.711
 5766.00    1.33589   1.30637   -1.000
 5767.00    1.33531   1.30665   -1.000
 5768.00    1.33159   1.30593   69.951
 5769.00    1.32875   1.30493   70.332
 5770.00    1.32447   1.30394   70.769
 5771.00    1.32578   1.30305   70.962
 5772.00    1.32783   1.30199   71.052
 5773.00    1.32020   1.30035   70.917
 5774.00    1.31348   1.29826   70.569
 5775.00    1.30773   1.29654   70.483
 5776.00    1.29633   1.29553   70.692
 5777.00    1.28493   1.29442   71.677
 5778.00    1.27747   1.29244   73.278
 5779.00    1.27970   1.28970   74.282
 5780.00    1.29185   1.28688   74.210
 5781.00    1.30186   1.28473   73.920
 5782.00    1.30822   1.28381   73.654
 5783.00    1.31448   1.28419   -1.000
 5784.00    1.31982   1.28541   -1.000
 5785.00    1.31754   1.28691   -1.000
 5786.00    1.31752   1.28844   71.059
 5787.00    1.32419   1.28998   -1.000
 5788.00    1.33397   1.29154   -1.000
 5789.00    1.32645   1.29285   -1.000
 5790.00    1.32129   1.29377   70.771
 5791.00    1.32536   1.29478   -1.000
 5792.00    1.32385   1.29668   69.850
 5793.00    1.31837   1.29958   69.780
 5794.00    1.31630   1.30254   70.175
 5795.00    1.31709   1.30422   70.628
 5796.00    1.31779   1.30415   70.338
 5797.00    1.32377   1.30341   69.464
 5798.00    1.32846   1.30348   68.507
 5799.00    1.33540   1.30474   -1.000
 5800.00    1.33858   1.30645   -1.000
 5801.00    1.34390   1.30781   -1.000
 5802.00    1.33797   1.30834   -1.000
 5803.00    1.33679   1.30803   -1.000
 5804.00    1.33322   1.30755   70.141
 5805.00    1.33338   1.30772   69.878
 5806.00    1.33006   1.30875   69.667
 5807.00    1.33063   1.31018   69.652
 5808.00    1.33315   1.31135   69.590
 5809.00    1.33720   1.31205   69.336
 5810.00    1.33838   1.31258   69.128
 5811.00    1.34457   1.31307   -1.000
 5812.00    1.33958   1.31308   69.806
 5813.00    1.34281   1.31208   -1.000
 5814.00    1.34382   1.31034   -1.000
 5815.00    1.34198   1.30902   -1.000
 5816.00    1.34346   1.30920   -1.000
 5817.00    1.34273   1.31080   -1.000
 5818.00    1.33997   1.31279   68.380
 5819.00    1.34333   1.31426   -1.000
 5820.00    1.35205   1.31516   -1.000
 5821.00    1.35260   1.31582   -1.000
 5822.00    1.34832   1.31638   -1.000
 5823.00    1.35290   1.31668   -1.000
 5824.00    1.35581   1.31674   -1.000
 5825.00    1.35039   1.31692   -1.000
 5826.00    1.34953   1.31748   -1.000
 5827.00    1.35451   1.31841   -1.000
 5828.00    1.35371   1.31946   -1.000
 5829.00    1.34964   1.32017   -1.000
 5830.00    1.35226   1.32019   -1.000
 5831.00    1.35640   1.31958   -1.000
 5832.00    1.35726   1.31855   -1.000
 5833.00    1.35535   1.31740   -1.000
 5834.00    1.35249   1.31659   -1.000
 5835.00    1.35250   1.31651   -1.000
 5836.00    1.35601   1.31728   -1.000
 5837.00    1.35487   1.31874   -1.000
 5838.00    1.34666   1.32054   68.266
 5839.00    1.34434   1.32201   67.904
 5840.00    1.34877   1.32249   67.905
 5841.00    1.34925   1.32174   -1.000
 5842.00    1.34511   1.31996   68.390
 5843.00    1.35021   1.31765   -1.000
 5844.00    1.34878   1.31540   -1.000
 5845.00    1.34942   1.31365   -1.000
 5846.00    1.33820   1.31256   69.471
 5847.00    1.34130   1.31197   -1.000
 5848.00    1.34028   1.31136   -1.000
 5849.00    1.34376   1.31002   -1.000
 5850.00    1.34413   1.30734   -1.000
 5851.00    1.34376   1.30322   -1.000
 5852.00    1.33429   1.29860   -1.000
 5853.00    1.32588   1.29496   -1.000
 5854.00    1.32502   1.29246   -1.000
 5855.00    1.32851   1.28966   -1.000
 5856.00    1.32415   1.28590   -1.000
 5857.00    1.31449   1.28303   -1.000
 5858.00    1.32776   1.28342   -1.000
 5859.00    1.33589   1.28726   -1.000
 5860.00    1.33662   1.29253   -1.000
 5861.00    1.34519   1.29723   -1.000
 5862.00    1.34052   1.30060   -1.000
 5863.00    1.34108   1.30248   -1.000
 5864.00    1.34229   1.30265   -1.000
 5865.00    1.34122   1.30142   -1.000
 5866.00    1.33965   1.30015   -1.000
 5867.00    1.33804   1.30037   -1.000
 5868.00    1.34340   1.30230   -1.000
 5869.00    1.35106   1.30495   -1.000
 5870.00    1.35587   1.30708   -1.000
 5871.00    1.35550   1.30790   -1.000
 5872.00    1.35018   1.30722   -1.000
 5873.00    1.34825   1.30539   -1.000
 5874.00    1.34863   1.30304   -1.000
 5875.00    1.34698   1.30091   -1.000
 5876.00    1.34931   1.29933   -1.000
 5877.00    1.34816   1.29783   -1.000
 5878.00    1.34094   1.29587   -1.000
 5879.00    1.33637   1.29362   -1.000
 5880.00    1.33147   1.29143   -1.000
 5881.00    1.32617   1.28908   -1.000
 5882.00    1.32362   1.28615   -1.000
 5883.00    1.31005   1.28257   71.690
 5884.00    1.27045   1.27817   72.548
 5885.00    1.18178   1.27136   -1.000
 5886.00    1.04364   1.25838   -1.000
 5887.00    0.93938   1.23615   -1.000
 5888.00    0.94612   1.20835   -1.000
 5889.00    1.03795   1.18667   -1.000
 5890.00    1.12155   1.18135   -1.000
 5891.00    1.13099   1.19122   -1.000
 5892.00    1.06965   1.20466   -1.000
 5893.00    1.00172   1.20987   -1.000
 5894.00    1.00590   1.20458   -1.000
 5895.00    1.08941   1.19718   -1.000
 5896.00    1.18836   1.19808   77.234
 5897.00    1.24874   1.20980   -1.000
 5898.00    1.28675   1.22701   -1.000
 5899.00    1.30588   1.24372   -1.000
 5900.00    1.31945   1.25731   -1.000
 5901.00    1.33282   1.26756   -1.000
 5902.00    1.33313   1.27498   -1.000
 5903.00    1.32750   1.28012   -1.000
 5904.00    1.33803   1.28354   -1.000
 5905.00    1.33487   1.28578   -1.000
 5906.00    1.33703   1.28721   -1.000
 5907.00    1.33115   1.28819   -1.000
 5908.00    1.33252   1.28914   -1.000
 5909.00    1.33245   1.28993   -1.000
 5910.00    1.32936   1.28994   -1.000
 5911.00    1.32907   1.28853   -1.000
 5912.00    1.32389   1.28553   -1.000
 5913.00    1.31876   1.28151   -1.000
 5914.00    1.31457   1.27774   -1.000
 5915.00    1.30944   1.27550   -1.000
 5916.00    1.30516   1.27527   -1.000
 5917.00    1.31206   1.27674   -1.000
 5918.00    1.31481   1.27903   -1.000
 5919.00    1.31741   1.28120   -1.000
 5920.00    1.32012   1.28280   -1.000
 5921.00    1.31430   1.28395   -1.000
 5922.00    1.31340   1.28498   -1.000
 5923.00    1.32558   1.28627   -1.000
 5924.00    1.33196   1.28813   -1.000
 5925.00    1.32780   1.29032   -1.000
 5926.00    1.32984   1.29206   -1.000
 5927.00    1.33961   1.29241   -1.000
 5928.00    1.33413   1.29116   -1.000
 5929.00    1.32704   1.28942   -1.000
 5930.00    1.33264   1.28871   -1.000
 5931.00    1.33293   1.28932   -1.000
 5932.00    1.33628   1.29036   -1.000
 5933.00    1.33403   1.29093   -1.000
 5934.00    1.32908   1.29096   -1.000
 5935.00    1.32952   1.29105   -1.000
 5936.00    1.33202   1.29152   -1.000
 5937.00    1.33238   1.29172   -1.000
 5938.00    1.32469   1.29072   -1.000
 5939.00    1.31615   1.28856   -1.000
 5940.00    1.31526   1.28615   -1.000
 5941.00    1.31550   1.28428   -1.000
 5942.00    1.32261   1.28334   -1.000
 5943.00    1.32666   1.28367   -1.000
 5944.00    1.31990   1.28500   -1.000
 5945.00    1.32227   1.28615   -1.000
 5946.00    1.31918   1.28615   -1.000
 5947.00    1.31124   1.28551   -1.000
 5948.00    1.31448   1.28568   -1.000
 5949.00    1.32196   1.28718   -1.000
 5950.00    1.32542   1.28912   -1.000
 5951.00    1.32137   1.29056   -1.000
 5952.00    1.32501   1.29132   -1.000
 5953.00    1.32831   1.29125   -1.000
 5954.00    1.32641   1.29013   -1.000
 5955.00    1.32113   1.28838   -1.000
 5956.00    1.31563   1.28715   -1.000
 5957.00    1.31522   1.28751   -1.000
 5958.00    1.31937   1.28957   -1.000
 5959.00    1.33766   1.29253   -1.000
 5960.00    1.34658   1.29544   -1.000
 5961.00    1.34194   1.29756   -1.000
 5962.00    1.33572   1.29834   -1.000
 5963.00    1.33477   1.29760   -1.000
 5964.00    1.32856   1.29574   -1.000
 5965.00    1.31859   1.29367   71.825
 5966.00    1.31282   1.29236   71.264
 5967.00    1.31883   1.29228   -1.000
 5968.00    1.33034   1.29324   -1.000
 5969.00    1.32883   1.29480   -1.000
 5970.00    1.33543   1.29644   -1.000
 5971.00    1.33034   1.29760   -1.000
 5972.00    1.33677   1.29801   -1.000
 5973.00    1.33354   1.29766   -1.000
 5974.00    1.33213   1.29641   -1.000
 5975.00    1.32550   1.29437   -1.000
 5976.00    1.32601   1.29233   -1.000
 5977.00    1.32217   1.29142   -1.000
 5978.00    1.32326   1.29219   -1.000
 5979.00    1.33474   1.29410   -1.000
 5980.00    1.33552   1.29576   -1.000
 5981.00    1.33269   1.29599   -1.000
 5982.00    1.33139   1.29460   -1.000
 5983.00    1.32945   1.29254   -1.000
 5984.00    1.32068   1.29111   -1.000
 5985.00    1.31728   1.29105   -1.000
 5986.00    1.31785   1.29212   -1.000
 5987.00    1.31691   1.29359   71.664
 5988.00    1.32247   1.29473   -1.000
 5989.00    1.32194   1.29517   -1.000
 5990.00    1.32500   1.29529   -1.000
 5991.00    1.32941   1.29605   -1.000
 5992.00    1.33194   1.29804   -1.000
 5993.00    1.33188   1.30067   -1.000
 5994.00    1.33932   1.30261   -1.000
 5995.00    1.34009   1.30295   -1.000
 5996.00    1.33183   1.30203   -1.000
 5997.00    1.32835   1.30093   -1.000
 5998.00    1.32774   1.30038   -1.000
 5999.00    1.32761   1.30009   -1.000
 6000.00    1.32714   1.29946   -1.000
 6001.00    1.32485   1.29837   -1.000
 6002.00    1.31795   1.29724   72.636
 6003.00    1.31189   1.29629   72.698
 6004.00    1.31328   1.29521   73.245
 6005.00    1.31975   1.29351   -1.000
 6006.00    1.31730   1.29132   -1.000
 6007.00    1.30801   1.28975   73.065
 6008.00    1.30779   1.29007   72.317
 6009.00    1.31287   1.29224   72.386
 6010.00    1.31731   1.29480   72.964
 6011.00    1.32010   1.29639   73.336
 6012.00    1.32438   1.29704   -1.000
 6013.00    1.32497   1.29758   -1.000
 6014.00    1.32380   1.29824   -1.000
 6015.00    1.32398   1.29845   -1.000
 6016.00    1.32153   1.29778   73.211
 6017.00    1.32216   1.29640   -1.000
 6018.00    1.32180   1.29478   -1.000
 6019.00    1.32287   1.29339   -1.000
 6020.00    1.31562   1.29248   73.110
 6021.00    1.31045   1.29196   72.970
 6022.00    1.31295   1.29193   72.877
 6023.00    1.31478   1.29284   72.419
 6024.00    1.31932   1.29490   -1.000
 6025.00    1.32114   1.29758   71.745
 6026.00    1.32447   1.30012   -1.000
 6027.00    1.32997   1.30206   -1.000
 6028.00    1.32684   1.30334   -1.000
 6029.00    1.32936   1.30414   -1.000
 6030.00    1.33513   1.30473   -1.000
 6031.00    1.32777   1.30524   71.079
 6032.00    1.32305   1.30571   70.908
 6033.00    1.32665   1.30646   70.883
 6034.00    1.32661   1.30759   70.743
 6035.00    1.32884   1.30840   70.835
 6036.00    1.32484   1.30788   71.258
 6037.00    1.32866   1.30587   -1.000
 6038.00    1.33404   1.30309   -1.000
 6039.00    1.32883   1.30031   -1.000
 6040.00    1.32931   1.29734   -1.000
 6041.00    1.32632   1.29330   -1.000
 6042.00    1.32496   1.28951   -1.000
 6043.00    1.33286   1.28957   -1.000
 6044.00    1.32911   1.29465   -1.000
 6045.00    1.32987   1.30143   -1.000
 6046.00    1.33449   1.30619   -1.000
 6047.00    1.33568   1.30810   -1.000
 6048.00    1.33187   1.30814   -1.000
 6049.00    1.33866   1.30735   -1.000
 6050.00    1.33119   1.30637   -1.000
 6051.00    1.33253   1.30561   -1.000
 6052.00    1.32711   1.30512   71.560
 6053.00    1.31895   1.30453   71.972
 6054.00    1.32725   1.30352   -1.000
 6055.00    1.32939   1.30234   -1.000
 6056.00    1.32996   1.30143   -1.000
 6057.00    1.33128   1.30098   -1.000
 6058.00    1.32885   1.30099   -1.000
 6059.00    1.32586   1.30134   -1.000
 6060.00    1.33039   1.30139   -1.000
 6061.00    1.32247   1.30002   -1.000
 6062.00    1.29421   1.29654   71.380
 6063.00    1.29492   1.29177  116.973
 6064.00    1.27894   1.28798   22.865
 6065.00    1.17416   1.28750   -1.000
 6066.00    1.21852   1.29088   -1.000
 6067.00    1.30991   1.29633   71.524
 6068.00    1.31383   1.30137   69.531
 6069.00    1.38936   1.30478   -1.000
 6070.00    0.57068   1.30681   -1.000
 6071.00    0.69750   1.30819   -1.000
 6072.00    1.35505   1.30922   -1.000
 6073.00    1.32452   1.30963   71.008
 6074.00    1.33045   1.30900   -1.000
 6075.00    1.33270   1.30742   -1.000
 6076.00    1.32130   1.30558   72.364
 6077.00    1.31578   1.30416   72.797
 6078.00    1.32214   1.30336   72.814
 6079.00    1.32268   1.30282   72.885
 6080.00    1.31572   1.30205   73.104
 6081.00    1.31513   1.30092   73.084
 6082.00    1.31782   1.29990   73.030
 6083.00    1.31691   1.29961   72.951
 6084.00    1.31642   1.30011   72.730
 6085.00    1.31932   1.30102   72.432
 6086.00    1.31867   1.30209   72.603
 6087.00    1.31957   1.30314   73.060
 6088.00    1.31988   1.30374   73.359
 6089.00    1.31543   1.30333   73.302
 6090.00    1.31071   1.30204   72.806
 6091.00    1.31558   1.30094   72.453
 6092.00    1.31979   1.30104   72.037
 6093.00    1.31969   1.30247   71.732
 6094.00    1.31944   1.30469   71.778
 6095.00    1.32656   1.30709   71.965
 6096.00    1.32549   1.30926   72.002
 6097.00    1.31753   1.31054   72.006
 6098.00    1.32045   1.30979   72.923
 6099.00    1.32089   1.30593   74.773
 6100.00    1.31142   1.29887   75.927
 6101.00    1.29761   1.29057   75.279
 6102.00    1.28964   1.28469   73.795
 6103.00    1.29351   1.28402   72.707
 6104.00    1.29510   1.28826   72.504
 6105.00    1.31401   1.29466   72.809
 6106.00    1.31233   1.30069   72.977
 6107.00    1.30467   1.30541   72.936
 6108.00    1.31188   1.30869   72.770
 6109.00    1.31636   1.31036   72.439
 6110.00    1.31595   1.31044   72.447
 6111.00    1.31593   1.30957   72.032
 6112.00    1.31354   1.30873   71.877
 6113.00    1.31849   1.30846   72.183
 6114.00    1.31703   1.30870   72.673
 6115.00    1.31880   1.30899   72.747
 6116.00    1.31770   1.30863   73.121
 6117.00    1.31353   1.30617   74.231
 6118.00    1.31092   1.30021   75.181
 6119.00    1.29627   1.29127   75.883
 6120.00    1.29521   1.28162   75.902
 6121.00    1.27918   1.27494   74.589
 6122.00    1.27265   1.27485   73.657
 6123.00    1.28382   1.28127   73.692
 6124.00    1.29321   1.29026   74.147
 6125.00    1.30167   1.29770   74.013
 6126.00    1.30757   1.30197   73.852
 6127.00    1.30156   1.30378   73.216
 6128.00    1.30729   1.30494   72.522
 6129.00    1.30390   1.30681   72.409
 6130.00    1.30650   1.30931   72.563
 6131.00    1.31086   1.31121   73.290
 6132.00    1.30754   1.31064   75.020
 6133.00    1.30241   1.30547   77.282
 6134.00    1.29288   1.29477   79.197
 6135.00    1.26880   1.28101   79.310
 6136.00    1.24700   1.27019   77.180
 6137.00    1.24150   1.26689   74.992
 6138.00    1.25769   1.27003   74.255
 6139.00    1.27551   1.27450   74.442
 6140.00    1.28455   1.27728   74.556
 6141.00    1.27712   1.27999   73.737
 6142.00    1.28564   1.28492   72.850
 6143.00    1.29083   1.29147   72.798
 6144.00    1.30051   1.29700   73.160
 6145.00    1.30703   1.29971   73.634
 6146.00    1.30623   1.29969   74.172
 6147.00    1.29248   1.29806   74.596
 6148.00    1.29363   1.29620   74.569
 6149.00    1.29403   1.29524   74.277
 6150.00    1.29295   1.29563   73.739
 6151.00    1.29856   1.29700   73.686
 6152.00    1.29629   1.29834   74.368
 6153.00    1.29840   1.29869   74.721
 6154.00    1.30058   1.29777   74.752
 6155.00    1.29876   1.29598   75.089
 6156.00    1.29633   1.29367   75.926
 6157.00    1.28811   1.29068   77.429
 6158.00    1.28588   1.28579   79.855
 6159.00    1.27716   1.27719   82.155
 6160.00    1.25505   1.26516   82.818
 6161.00    1.24236   1.25396   81.441
 6162.00    1.23690   1.24882   79.116
 6163.00    1.24292   1.25114   77.999
 6164.00    1.25782   1.25776   77.724
 6165.00    1.26263   1.26430   77.966
 6166.00    1.26789   1.26833   79.055
 6167.00    1.26730   1.26940   79.824
 6168.00    1.25711   1.26850   79.117
 6169.00    1.25222   1.26774   77.508
 6170.00    1.25214   1.26917   76.476
 6171.00    1.26763   1.27310   76.647
 6172.00    1.27973   1.27822   76.691
 6173.00    1.27860   1.28320   76.481
 6174.00    1.27780   1.28739   76.343
 6175.00    1.27551   1.29031   76.128
 6176.00    1.28145   1.29183   75.735
 6177.00    1.28046   1.29226   75.474
 6178.00    1.28012   1.29212   75.234
 6179.00    1.28144   1.29203   74.871
 6180.00    1.27757   1.29245   74.700
 6181.00    1.28028   1.29325   74.882
 6182.00    1.28391   1.29392   75.153
 6183.00    1.28646   1.29416   75.789
 6184.00    1.29208   1.29385   76.640
 6185.00    1.28767   1.29275   77.424
 6186.00    1.28572   1.29058   78.155
 6187.00    1.27975   1.28690   78.702
 6188.00    1.27526   1.28116   79.794
 6189.00    1.26717   1.27397   80.234
 6190.00    1.26282   1.26800   79.203
 6191.00    1.25460   1.26665   77.132
 6192.00    1.25436   1.27091   75.963
 6193.00    1.26712   1.27848   75.563
 6194.00    1.27844   1.28589   75.479
 6195.00    1.28556   1.29099   76.036
 6196.00    1.28725   1.29319   76.958
 6197.00    1.27851   1.29273   77.548
 6198.00    1.27334   1.29070   77.403
 6199.00    1.27129   1.28929   76.548
 6200.00    1.24985   1.29018   75.574
 6201.00    1.25759   1.29323   75.450
 6202.00    1.27039   1.29691   75.467
 6203.00    1.27732   1.29980   75.320
 6204.00    1.28520   1.30141   75.336
 6205.00    1.29129   1.30210   75.662
 6206.00    1.29586   1.30234   75.613
 6207.00    1.29214   1.30231   75.996
 6208.00    1.28735   1.30178   76.732
 6209.00    1.29002   1.30033   77.310
 6210.00    1.28552   1.29769   78.094
 6211.00    1.27951   1.29380   79.338
 6212.00    1.26867   1.28919   80.077
 6213.00    1.27043   1.28501   80.227
 6214.00    1.26460   1.28221   79.031
 6215.00    1.26632   1.28077   78.757
 6216.00    1.27050   1.27982   79.462
 6217.00    1.26928   1.27861   79.038
 6218.00    1.27286   1.27736   78.438
 6219.00    1.26787   1.27707   79.061
 6220.00    1.26858   1.27849   85.679
 6221.00    1.27787   1.28120   81.682
 6222.00    1.25970   1.28382   77.917
 6223.00    1.28135   1.28557   78.131
 6224.00    1.28678   1.28656   78.140
 6225.00    1.28501   1.28687   78.638
 6226.00    1.28738   1.28582   79.784
 6227.00    1.28051   1.28224   81.130
 6228.00    1.27485   1.27588   82.124
 6229.00    1.26132   1.26859   81.614
 6230.00    1.25293   1.26370   80.365
 6231.00    1.24865   1.26371   78.808
 6232.00    1.25462   1.26842   77.557
 6233.00    1.27161   1.27517   77.304
 6234.00    1.27508   1.28084   77.913
 6235.00    1.28301   1.28351   78.723
 6236.00    1.28825   1.28318   79.520
 6237.00    1.27840   1.28101   80.375
 6238.00    1.27198   1.27848   80.643
 6239.00    1.26936   1.27656   80.580
 6240.00    1.26924   1.27534   81.255
 6241.00    1.27116   1.27394   81.769
 6242.00    1.26436   1.27137   81.649
 6243.00    1.26241   1.26757   81.081
 6244.00    1.25702   1.26378   80.248
 6245.00    1.25564   1.26217   79.201
 6246.00    1.25070   1.26422   78.402
 6247.00    1.25630   1.26925   78.407
 6248.00    1.26722   1.27457   79.221
 6249.00    1.26906   1.27717   80.771
 6250.00    1.26034   1.27541   81.692
 6251.00    1.25046   1.27037   82.210
 6252.00    1.24212   1.26499   82.404
 6253.00    1.23479   1.26173   82.344
 6254.00    1.23290   1.26118   83.196
 6255.00    1.23933   1.26233   83.920
 6256.00    1.24155   1.26401   83.433
 6257.00    1.24242   1.26597   82.085
 6258.00    1.24352   1.26861   80.866
 6259.00    1.25073   1.27203   79.781
 6260.00    1.25782   1.27571   78.521
 6261.00    1.26537   1.27917   78.233
 6262.00    1.26217   1.28189   78.963
 6263.00    1.26374   1.28353   79.459
 6264.00    1.26183   1.28425   79.003
 6265.00    1.25518   1.28487   78.415
 6266.00    1.25809   1.28574   78.796
 6267.00    1.26004   1.28603   79.195
 6268.00    1.26069   1.28502   79.031
 6269.00    1.26064   1.28296   78.746
 6270.00    1.26952   1.28064   78.573
 6271.00    1.26884   1.27816   78.826
 6272.00    1.25533   1.27459   79.439
 6273.00    1.24344   1.26876   80.083
 6274.00    1.22392   1.26038   81.448
 6275.00    1.20831   1.25086   83.603
 6276.00    1.19350   1.24233   85.029
 6277.00    1.18478   1.23678   85.456
 6278.00    1.18377   1.23492   85.041
 6279.00    1.17557   1.23671   -1.000
 6280.00    1.16749   1.24166   -1.000
 6281.00    1.17585   1.24914   -1.000
 6282.00    1.19030   1.25786   -1.000
 6283.00    1.20491   1.26624   -1.000
 6284.00    1.22534   1.27282   78.589
 6285.00    1.23821   1.27714   78.062
 6286.00    1.24510   1.27941   77.951
 6287.00    1.25503   1.27977   78.431
 6288.00    1.25725   1.27828   79.122
 6289.00    1.25689   1.27575   79.697
 6290.00    1.25618   1.27330   79.802
 6291.00    1.25188   1.27164   79.886
 6292.00    1.24953   1.27046   80.036
 6293.00    1.24014   1.26901   80.717
 6294.00    1.21299   1.26666   81.229
 6295.00    1.18876   1.26360   -1.000
 6296.00    1.13732   1.26073   -1.000
 6297.00    1.05804   1.25887   -1.000
 6298.00    1.05769   1.25822   -1.000
 6299.00    1.14170   1.25813   -1.000
 6300.00    1.22118   1.25846   82.191
 6301.00    1.23578   1.26012   81.308
 6302.00    1.23029   1.26373   79.969
 6303.00    1.24445   1.26848   79.028
 6304.00    1.24930   1.27266   78.383
 6305.00    1.25379   1.27539   77.660
 6306.00    1.26317   1.27718   77.606
 6307.00    1.25951   1.27876   77.996
 6308.00    1.25759   1.28039   78.546
 6309.00    1.26661   1.28167   78.817
 6310.00    1.26695   1.28195   79.149
 6311.00    1.25949   1.28106   79.190
 6312.00    1.25899   1.27933   80.012
 6313.00    1.24978   1.27733   80.231
 6314.00    1.24220   1.27546   80.144
 6315.00    1.23990   1.27382   80.068
 6316.00    1.24357   1.27233   80.204
 6317.00    1.24108   1.27161   79.857
 6318.00    1.24276   1.27281   78.813
 6319.00    1.24655   1.27595   78.073
 6320.00    1.25090   1.27986   77.826
 6321.00    1.26178   1.28358   77.563
 6322.00    1.26246   1.28696   77.122
 6323.00    1.26429   1.28992   76.904
 6324.00    1.26993   1.29192   76.884
 6325.00    1.26867   1.29259   76.451
 6326.00    1.26736   1.29235   76.587
 6327.00    1.27677   1.29177   76.631
 6328.00    1.27413   1.29128   76.686
 6329.00    1.27340   1.29117   76.364
 6330.00    1.26649   1.29135   76.262
 6331.00    1.26466   1.29107   76.508
 6332.00    1.26200   1.28910   76.693
 6333.00    1.29904   1.28485   78.699
 6334.00    1.33251   1.27942   -1.000
 6335.00    1.24407   1.27576   77.913
 6336.00    1.24065   1.27586   77.111
 6337.00    1.24793   1.27919   76.252
 6338.00    1.25523   1.28357   75.939
 6339.00    1.26463   1.28718   75.559
 6340.00    1.26868   1.28937   75.672
 6341.00    1.26725   1.29022   76.433
 6342.00    1.26709   1.28977   76.461
 6343.00    1.26317   1.28825   76.220
 6344.00    1.25428   1.28634   75.784
 6345.00    1.25874   1.28513   75.238
 6346.00    1.26264   1.28550   74.984
 6347.00    1.26629   1.28771   75.035
 6348.00    1.26079   1.29121   74.843
 6349.00    1.26433   1.29482   74.945
 6350.00    1.26321   1.29723   75.297
 6351.00    1.26501   1.29770   75.644
 6352.00    1.26153   1.29642   76.584
 6353.00    1.26017   1.29439   77.209
 6354.00    1.25767   1.29256   77.172
 6355.00    1.25376   1.29118   77.431
 6356.00    1.25346   1.28998   78.395
 6357.00    1.24301   1.28858   78.650
 6358.00    1.23265   1.28705   78.265
 6359.00    1.21706   1.28562   -1.000
 6360.00    1.21319   1.28433   -1.000
 6361.00    1.19962   1.28325   -1.000
 6362.00    1.21813   1.28295   -1.000
 6363.00    1.24430   1.28409   76.650
 6364.00    1.25463   1.28625   76.247
 6365.00    1.25933   1.28850   75.751
 6366.00    1.26631   1.29015   75.245
 6367.00    1.26346   1.29085   75.089
 6368.00    1.26316   1.29046   75.166
 6369.00    1.25400   1.28942   74.873
 6370.00    1.24955   1.28843   74.579
 6371.00    1.25096   1.28818   74.833
 6372.00    1.25216   1.28908   74.871
 6373.00    1.25804   1.29049   75.048
 6374.00    1.24494   1.29133   75.340
 6375.00    1.24020   1.29114   75.736
 6376.00    1.24261   1.29017   76.267
 6377.00    1.24095   1.28892   76.527
 6378.00    1.24219   1.28755   76.555
 6379.00    1.23680   1.28621   76.715
 6380.00    1.23077   1.28519   76.672
 6381.00    1.22967   1.28482   76.453
 6382.00    1.22729   1.28525   76.875
 6383.00    1.22698   1.28632   77.020
 6384.00    1.22419   1.28763   -1.000
 6385.00    1.21597   1.28901   -1.000
 6386.00    1.21419   1.29031   -1.000
 6387.00    1.21871   1.29102   -1.000
 6388.00    1.20754   1.29064   -1.000
 6389.00    1.20117   1.28864   -1.000
 6390.00    1.19795   1.28465   -1.000
 6391.00    1.19317   1.27944   -1.000
 6392.00    1.18075   1.27512   -1.000
 6393.00    1.17343   1.27411   -1.000
 6394.00    1.16815   1.27665   -1.000
 6395.00    1.17237   1.28043   -1.000
 6396.00    1.16967   1.28243   -1.000
 6397.00    1.16819   1.28106   -1.000
 6398.00    1.15057   1.27764   -1.000
 6399.00    1.14272   1.27522   -1.000
 6400.00    1.13163   1.27629   -1.000
 6401.00    1.13935   1.28063   -1.000
 6402.00    1.14723   1.28595   -1.000
 6403.00    1.15190   1.28963   -1.000
 6404.00    1.14606   1.29021   -1.000
 6405.00    1.13760   1.28744   -1.000
 6406.00    1.12252   1.28237   -1.000
 6407.00    1.11518   1.27688   -1.000
 6408.00    1.10121   1.27402   -1.000
 6409.00    1.09788   1.27498   -1.000
 6410.00    1.09137   1.27750   -1.000
 6411.00    1.07814   1.27989   -1.000
 6412.00    1.08364   1.28179   -1.000
 6413.00    1.07643   1.28362   -1.000
 6414.00    1.07182   1.28545   -1.000
 6415.00    1.07047   1.28712   -1.000
 6416.00    1.06956   1.28809   -1.000
 6417.00    1.04929   1.28756   -1.000
 6418.00    1.03731   1.28517   -1.000
 6419.00    1.02263   1.28193   -1.000
 6420.00    1.01937   1.28003   -1.000
 6421.00    1.00624   1.28117   -1.000
 6422.00    0.99224   1.28512   -1.000
 6423.00    0.99280   1.29019   -1.000
 6424.00    0.98811   1.29467   -1.000
 6425.00    0.98275   1.29759   -1.000
 6426.00    0.97824   1.29827   -1.000
 6427.00    0.96462   1.29600   -1.000
 6428.00    0.93287   1.29090   -1.000
