###################################################################
## OUTPUT of StarlightChains_v04.for    [Cid@UFSC - 01/Apr/2007] ##
###################################################################

## Some input info
NGC5927_b_1.cxt                          [arq_obs]
Base.BC03.S                              [arq_base]
NGC5927_b_1.msk                          [arq_masks]
StCv04.C11.config                        [arq_config]
  150                                    [N_base]
    0                                    [N_YAV_components = # of components with extra extinction!]
    0                                    [i_FitPowerLaw (1/0 = Yes/No)]
-9.99                                    [alpha_PowerLaw]
CCM                                      [red_law_option]
 1.458241                                [q_norm = A(l_norm)/A(V)]

## (Re)Sampling Parameters
 3359.00                                 [l_ini (A)]
 6428.00                                 [l_fin (A)]
    1.00                                 [dl    (A)]     (OBS: dl_cushion =    50.00 A)

## Normalization info
 4020.00                                 [l_norm (A) - for base]
 4010.00                                 [llow_norm (A) - window for f_obs]
 4060.00                                 [lupp_norm (A) - window for f_obs]
5.211403E-15                             [fobs_norm (in input units)]

## S/N
 4730.00                                 [llow_SN (A) - window for S/N]
 4780.00                                 [lupp_SN (A) - window for S/N]
  32.308                                 [S/N in S/N window]
  18.819                                 [S/N in norm. window]
 338.726                                 [S/N_err in S/N window]
 197.303                                 [S/N_err in norm. window]
  1.0000                                 [fscale_chi2]

## etc...
  2147483632                             [idum_orig]
  3067                                   [NOl_eff]
  1210                                   [Nl_eff]
  1857    NSIGMA                         [Ntot_cliped & clip_method]
  2144380                                [Nglobal_steps]
   7                                     [N_chains]
  31                                     [NEX0s_base = N_base in EX0s-fits]
 0   0   1      139   2.0   4.522E+02    [Clip-Bug, RC-Crash & Burn-In warning-flags, n_censored_weights, wei_nsig_threshold & wei_limit]
    70     70.088     70.088      0.000  [idt_all, wdt_TotTime, wdt_UsrTime & wdt_SysTime (sec)]

## Synthesis Results - Best model ##

 3.07316E+00                             [chi2/Nl_eff]
     2.29782                             [adev (%)]

    99.59544                             [sum-of-x (%)]
 2.70299E-14                             [Flux_tot (units of input spectrum!)]
 1.69004E-09                             [Mini_tot (???)]
 8.45980E-10                             [Mcor_tot (???)]

  -5.82                                  [v0_min  (km/s)]
  13.75                                  [vd_min  (km/s)]
 1.2286                                  [AV_min  (mag)]
 0.0000                                  [YAV_min (mag)]

# j     x_j(%)      Mini_j(%)     Mcor_j(%)     age_j(yr)     Z_j      (L/M)_j    YAV?  Mstars   component_j        a/Fe...       SSP_chi2r SSP_adev(%)   SSP_AV   SSP_x(%)
  1      2.1712     4.2728E-03    8.5358E-03    1.000000E+06  0.00010  8.160E-03    0   1.0000   age020_m22            0.0000     3.2014E+03    36.1411   4.0000    97.1751
  2      8.9660     3.0255E-03    6.0441E-03    3.160000E+06  0.00010  4.759E-02    0   1.0000   age045_m22            0.0000     4.5811E+02     9.1184   3.4952    97.4791
  3      6.9821     5.8035E-03    1.1109E-02    5.010000E+06  0.00010  1.932E-02    0   0.9582   age055_m22            0.0000     6.4635E+02    17.0562   3.9150    85.8739
  4      0.0000     0.0000E+00    0.0000E+00    6.610000E+06  0.00010  9.973E-03    0   0.9297   age061_m22            0.0000     3.2667E+03    35.2908   4.0000   100.0278
  5      0.0000     0.0000E+00    0.0000E+00    8.710000E+06  0.00010  7.690E-03    0   0.9030   age067_m22            0.0000     3.1939E+03    35.0458   4.0000   100.3939
  6      0.0000     0.0000E+00    0.0000E+00    1.000000E+07  0.00010  6.375E-03    0   0.8902   age070_m22            0.0000     3.1918E+03    35.2336   4.0000   100.5997
  7      0.2926     9.6414E-04    1.6543E-03    1.445000E+07  0.00010  4.874E-03    0   0.8589   age078_m22            0.0000     2.4874E+03    31.1291   4.0000   102.2170
  8      0.0000     0.0000E+00    0.0000E+00    2.512000E+07  0.00010  4.103E-03    0   0.8174   age090_m22            0.0000     1.4094E+03    21.9434   4.0000   104.1427
  9      0.0000     0.0000E+00    0.0000E+00    4.000000E+07  0.00010  3.654E-03    0   0.7830   age104_m22            0.0000     9.9829E+02    15.6803   4.0000   104.1164
 10      0.0000     0.0000E+00    0.0000E+00    5.500000E+07  0.00010  3.093E-03    0   0.7597   age110_m22            0.0000     9.0554E+02    13.8858   4.0000   103.7116
 11      0.0000     0.0000E+00    0.0000E+00    1.015200E+08  0.00010  2.431E-03    0   0.7138   age116_m22            0.0000     7.9002E+02     9.9002   4.0000   100.4308
 12      0.0000     0.0000E+00    0.0000E+00    1.609000E+08  0.00010  1.319E-03    0   0.6775   age120_m22            0.0000     7.4764E+02     9.9480   3.6700    99.8781
 13      0.0000     0.0000E+00    0.0000E+00    2.861200E+08  0.00010  1.075E-03    0   0.6412   age125_m22            0.0000     1.0893E+03    10.9542   3.7250   102.0131
 14      0.0000     0.0000E+00    0.0000E+00    5.088000E+08  0.00010  7.183E-04    0   0.6083   age130_m22            0.0000     1.1782E+03    11.3434   3.4907   103.3279
 15      0.0000     0.0000E+00    0.0000E+00    9.047900E+08  0.00010  4.524E-04    0   0.5785   age135_m22            0.0000     1.1623E+03    11.4329   3.2764   104.6756
 16      0.0000     0.0000E+00    0.0000E+00    1.278050E+09  0.00010  3.018E-04    0   0.5588   age138_m22            0.0000     7.6536E+02     9.5834   2.7443   103.8089
 17      0.0000     0.0000E+00    0.0000E+00    1.434000E+09  0.00010  2.691E-04    0   0.5532   age139_m22            0.0000     6.8731E+02     9.2157   2.5853   103.4430
 18      0.0000     0.0000E+00    0.0000E+00    2.500000E+09  0.00010  1.582E-04    0   0.5296   age150_m22            0.0000     6.5949E+02     9.2971   2.4812   104.3926
 19      0.0000     0.0000E+00    0.0000E+00    4.250000E+09  0.00010  1.007E-04    0   0.5110   age158_m22            0.0000     5.1457E+02     8.3554   2.3090   103.5232
 20      0.0000     0.0000E+00    0.0000E+00    6.250000E+09  0.00010  6.869E-05    0   0.4985   age166_m22            0.0000     4.0559E+02     7.6159   2.2395   101.4077
 21      0.0000     0.0000E+00    0.0000E+00    7.500000E+09  0.00010  5.873E-05    0   0.4931   age171_m22            0.0000     3.9942E+02     7.7198   2.2359   100.9321
 22      0.1012     3.6265E-02    3.5166E-02    1.000000E+10  0.00010  4.481E-05    0   0.4854   age181_m22            0.0000     3.8901E+02     7.6454   2.1966   100.5718
 23      0.0000     0.0000E+00    0.0000E+00    1.300000E+10  0.00010  3.489E-05    0   0.4791   age193_m22            0.0000     3.6770E+02     7.4432   2.1331   100.1248
 24      0.0000     0.0000E+00    0.0000E+00    1.500000E+10  0.00010  3.035E-05    0   0.4766   age201_m22            0.0000     3.5499E+02     7.3527   2.0924    99.9946
 25      0.0000     0.0000E+00    0.0000E+00    1.800000E+10  0.00010  2.510E-05    0   0.4735   age213_m22            0.0000     3.2875E+02     7.1499   2.0207    99.5159
 26      0.8003     1.5196E-03    3.0357E-03    1.000000E+06  0.00040  8.458E-03    0   1.0000   age020_m32            0.0000     3.2822E+03    36.3798   4.0000    97.9599
 27      0.0000     0.0000E+00    0.0000E+00    3.160000E+06  0.00040  3.973E-02    0   1.0000   age045_m32            0.0000     1.2551E+03    19.5040   4.0000   103.1948
 28      0.0000     0.0000E+00    0.0000E+00    5.010000E+06  0.00040  1.935E-02    0   0.9532   age055_m32            0.0000     1.9456E+03    25.0811   4.0000   100.4938
 29      0.0000     0.0000E+00    0.0000E+00    6.610000E+06  0.00040  1.204E-02    0   0.9243   age061_m32            0.0000     2.7347E+03    32.1245   4.0000   101.1471
 30      0.0000     0.0000E+00    0.0000E+00    8.710000E+06  0.00040  9.433E-03    0   0.9001   age067_m32            0.0000     2.5933E+03    31.4084   4.0000   101.8103
 31      0.0000     0.0000E+00    0.0000E+00    1.000000E+07  0.00040  8.053E-03    0   0.8877   age070_m32            0.0000     2.4732E+03    30.6002   4.0000   101.9759
 32      0.0000     0.0000E+00    0.0000E+00    1.445000E+07  0.00040  7.027E-03    0   0.8578   age078_m32            0.0000     1.2796E+03    18.8002   4.0000   101.5798
 33      0.0000     0.0000E+00    0.0000E+00    2.512000E+07  0.00040  4.707E-03    0   0.8166   age090_m32            0.0000     8.5391E+02    12.5865   4.0000   100.7726
 34      0.0000     0.0000E+00    0.0000E+00    4.000000E+07  0.00040  3.714E-03    0   0.7827   age104_m32            0.0000     7.2124E+02    10.0051   4.0000   100.1193
 35      0.0000     0.0000E+00    0.0000E+00    5.500000E+07  0.00040  2.982E-03    0   0.7593   age110_m32            0.0000     7.2064E+02     9.7901   4.0000    99.8550
 36      0.0000     0.0000E+00    0.0000E+00    1.015200E+08  0.00040  2.188E-03    0   0.7143   age116_m32            0.0000     8.5179E+02    10.2829   3.9114    99.5868
 37      0.0000     0.0000E+00    0.0000E+00    1.609000E+08  0.00040  1.690E-03    0   0.6856   age120_m32            0.0000     9.8101E+02    10.7659   3.7177   101.5543
 38      0.0000     0.0000E+00    0.0000E+00    2.861200E+08  0.00040  1.152E-03    0   0.6509   age125_m32            0.0000     1.0926E+03    10.9091   3.4774   103.0198
 39      0.0000     0.0000E+00    0.0000E+00    5.088000E+08  0.00040  7.331E-04    0   0.6182   age130_m32            0.0000     1.1111E+03    11.1082   3.2979   103.7416
 40      0.0000     0.0000E+00    0.0000E+00    9.047900E+08  0.00040  3.960E-04    0   0.5890   age135_m32            0.0000     7.7136E+02     9.5860   2.8078   103.2175
 41      0.0000     0.0000E+00    0.0000E+00    1.278050E+09  0.00040  2.854E-04    0   0.5687   age138_m32            0.0000     6.9680E+02     9.3265   2.5292   105.4202
 42      0.0000     0.0000E+00    0.0000E+00    1.434000E+09  0.00040  2.531E-04    0   0.5632   age139_m32            0.0000     6.8197E+02     9.2907   2.4738   105.3845
 43      0.0000     0.0000E+00    0.0000E+00    2.500000E+09  0.00040  1.488E-04    0   0.5386   age150_m32            0.0000     5.5220E+02     8.4406   2.2062   104.0380
 44      0.0000     0.0000E+00    0.0000E+00    4.250000E+09  0.00040  9.082E-05    0   0.5199   age158_m32            0.0000     3.6485E+02     7.1284   2.0888   101.6951
 45      1.3462     3.3979E-01    3.4456E-01    6.250000E+09  0.00040  6.362E-05    0   0.5076   age166_m32            0.0000     2.7487E+02     6.5452   2.0422    99.1160
 46      0.5747     1.7450E-01    1.7524E-01    7.500000E+09  0.00040  5.289E-05    0   0.5027   age171_m32            0.0000     2.5162E+02     6.3199   1.9993    97.9845
 47      1.7976     7.2675E-01    7.1838E-01    1.000000E+10  0.00040  3.972E-05    0   0.4948   age181_m32            0.0000     2.2916E+02     6.0785   1.9290    96.6550
 48      0.0151     7.3935E-03    7.1931E-03    1.300000E+10  0.00040  3.283E-05    0   0.4870   age193_m32            0.0000     2.5869E+02     6.2540   1.8883    99.0446
 49      0.0000     0.0000E+00    0.0000E+00    1.500000E+10  0.00040  2.925E-05    0   0.4854   age201_m32            0.0000     2.8505E+02     6.4900   1.8728   100.4295
 50      0.0000     0.0000E+00    0.0000E+00    1.800000E+10  0.00040  2.469E-05    0   0.4819   age213_m32            0.0000     2.9088E+02     6.5486   1.8344   100.8543
 51      1.7316     2.4962E-03    4.9868E-03    1.000000E+06  0.00400  1.114E-02    0   1.0000   age020_m42            0.0000     3.0134E+03    34.8285   4.0000    97.9692
 52      0.0000     0.0000E+00    0.0000E+00    3.160000E+06  0.00400  4.073E-02    0   0.9999   age045_m42            0.0000     7.5237E+02    12.5974   4.0000   101.3037
 53      0.0000     0.0000E+00    0.0000E+00    5.010000E+06  0.00400  2.534E-02    0   0.9488   age055_m42            0.0000     1.4543E+03    21.9895   4.0000   100.9961
 54      0.0000     0.0000E+00    0.0000E+00    6.610000E+06  0.00400  2.583E-02    0   0.9220   age061_m42            0.0000     6.5071E+02     9.8330   4.0000    98.9277
 55      0.0000     0.0000E+00    0.0000E+00    8.710000E+06  0.00400  1.706E-02    0   0.8983   age067_m42            0.0000     5.7336E+02    10.8418   4.0000    95.2744
 56      0.0000     0.0000E+00    0.0000E+00    1.000000E+07  0.00400  1.271E-02    0   0.8862   age070_m42            0.0000     6.0644E+02    12.3414   4.0000    94.3660
 57      0.0000     0.0000E+00    0.0000E+00    1.445000E+07  0.00400  7.666E-03    0   0.8571   age078_m42            0.0000     9.6340E+02    14.0361   4.0000    97.1553
 58      0.0000     0.0000E+00    0.0000E+00    2.512000E+07  0.00400  5.070E-03    0   0.8174   age090_m42            0.0000     5.3062E+02    12.8025   4.0000    93.5311
 59      0.0000     0.0000E+00    0.0000E+00    4.000000E+07  0.00400  3.505E-03    0   0.7851   age104_m42            0.0000     4.4407E+02    11.1986   3.7062    95.2818
 60      0.0000     0.0000E+00    0.0000E+00    5.500000E+07  0.00400  3.059E-03    0   0.7629   age110_m42            0.0000     5.5127E+02     9.3313   3.7332    98.6168
 61      0.0000     0.0000E+00    0.0000E+00    1.015200E+08  0.00400  2.268E-03    0   0.7207   age116_m42            0.0000     8.4730E+02     9.9757   3.6135   102.5855
 62      0.0000     0.0000E+00    0.0000E+00    1.609000E+08  0.00400  1.720E-03    0   0.6930   age120_m42            0.0000     8.6932E+02     9.8498   3.4464   104.3752
 63      0.0000     0.0000E+00    0.0000E+00    2.861200E+08  0.00400  1.079E-03    0   0.6613   age125_m42            0.0000     8.4284E+02     9.6857   3.1054   104.6220
 64      0.0000     0.0000E+00    0.0000E+00    5.088000E+08  0.00400  6.261E-04    0   0.6313   age130_m42            0.0000     8.9519E+02    10.1067   2.9046   107.6068
 65      0.0000     0.0000E+00    0.0000E+00    9.047900E+08  0.00400  3.535E-04    0   0.6024   age135_m42            0.0000     6.1555E+02     8.6902   2.4716   108.8148
 66      0.0000     0.0000E+00    0.0000E+00    1.278050E+09  0.00400  2.677E-04    0   0.5837   age138_m42            0.0000     2.3505E+02     6.4057   1.7353   106.9848
 67      0.0000     0.0000E+00    0.0000E+00    1.434000E+09  0.00400  1.910E-04    0   0.5716   age139_m42            0.0000     3.2053E+02     6.9331   1.9061   107.6946
 68      0.0000     0.0000E+00    0.0000E+00    2.500000E+09  0.00400  9.818E-05    0   0.5463   age150_m42            0.0000     1.1927E+02     5.2809   1.5950   103.7109
 69      0.0000     0.0000E+00    0.0000E+00    4.250000E+09  0.00400  5.491E-05    0   0.5269   age158_m42            0.0000     5.9116E+01     4.1517   1.4722   101.2025
 70      0.0000     0.0000E+00    0.0000E+00    6.250000E+09  0.00400  3.857E-05    0   0.5151   age166_m42            0.0000     3.8692E+01     4.2490   1.3265   100.0402
 71      0.0000     0.0000E+00    0.0000E+00    7.500000E+09  0.00400  3.243E-05    0   0.5110   age171_m42            0.0000     3.4333E+01     4.4323   1.2396    99.5268
 72      0.0396     2.6242E-02    2.6359E-02    1.000000E+10  0.00400  2.424E-05    0   0.5028   age181_m42            0.0000     3.3865E+01     4.7294   1.1515    98.9548
 73      2.0523     1.7503E+00    1.7228E+00    1.300000E+10  0.00400  1.883E-05    0   0.4927   age193_m42            0.0000     3.7098E+01     4.8960   1.1112    98.6720
 74      2.8929     2.7570E+00    2.7093E+00    1.500000E+10  0.00400  1.685E-05    0   0.4919   age201_m42            0.0000     3.5593E+01     4.6975   1.1213    98.6547
 75      2.4389     2.6974E+00    2.6264E+00    1.800000E+10  0.00400  1.452E-05    0   0.4874   age213_m42            0.0000     3.3625E+01     4.3691   1.1456    98.8672
 76      0.0000     0.0000E+00    0.0000E+00    1.000000E+06  0.00800  1.286E-02    0   1.0000   age020_m52            0.0000     2.8937E+03    34.1156   4.0000    99.6012
 77      0.0000     0.0000E+00    0.0000E+00    3.160000E+06  0.00800  3.147E-02    0   0.9966   age045_m52            0.0000     2.6788E+03    32.3024   4.0000   100.6901
 78      0.0000     0.0000E+00    0.0000E+00    5.010000E+06  0.00800  2.664E-02    0   0.9443   age055_m52            0.0000     1.7410E+03    24.9040   4.0000   101.2185
 79      0.0000     0.0000E+00    0.0000E+00    6.610000E+06  0.00800  2.151E-02    0   0.9177   age061_m52            0.0000     4.3212E+02    11.7721   3.7296    93.0993
 80      0.0000     0.0000E+00    0.0000E+00    8.710000E+06  0.00800  1.628E-02    0   0.8948   age067_m52            0.0000     5.6471E+02    11.4282   4.0000    95.1200
 81      0.0000     0.0000E+00    0.0000E+00    1.000000E+07  0.00800  1.215E-02    0   0.8827   age070_m52            0.0000     8.4751E+02    12.4655   4.0000    98.7775
 82      0.0000     0.0000E+00    0.0000E+00    1.445000E+07  0.00800  8.739E-03    0   0.8552   age078_m52            0.0000     8.8474E+02    12.8864   4.0000   100.2865
 83      0.0000     0.0000E+00    0.0000E+00    2.512000E+07  0.00800  5.676E-03    0   0.8162   age090_m52            0.0000     6.4987E+02    10.5480   4.0000    98.0920
 84      0.0000     0.0000E+00    0.0000E+00    4.000000E+07  0.00800  3.939E-03    0   0.7841   age104_m52            0.0000     6.4741E+02    10.6053   3.9551    97.6108
 85      0.0000     0.0000E+00    0.0000E+00    5.500000E+07  0.00800  3.155E-03    0   0.7627   age110_m52            0.0000     6.9324E+02     9.9580   3.8958    99.1211
 86      0.0000     0.0000E+00    0.0000E+00    1.015200E+08  0.00800  2.206E-03    0   0.7226   age116_m52            0.0000     7.7307E+02     9.6108   3.6576   102.8968
 87      0.0000     0.0000E+00    0.0000E+00    1.609000E+08  0.00800  1.596E-03    0   0.6963   age120_m52            0.0000     8.0952E+02     9.6867   3.4309   104.5486
 88      0.0000     0.0000E+00    0.0000E+00    2.861200E+08  0.00800  1.002E-03    0   0.6665   age125_m52            0.0000     9.2020E+02    10.3134   3.1255   106.7022
 89      0.0000     0.0000E+00    0.0000E+00    5.088000E+08  0.00800  5.759E-04    0   0.6377   age130_m52            0.0000     8.8892E+02    10.8652   2.7429   110.8012
 90      0.0000     0.0000E+00    0.0000E+00    9.047900E+08  0.00800  2.972E-04    0   0.6086   age135_m52            0.0000     5.3480E+02     9.7329   2.1523   110.2595
 91      0.0000     0.0000E+00    0.0000E+00    1.278050E+09  0.00800  2.242E-04    0   0.5907   age138_m52            0.0000     2.0094E+02     7.2467   1.5196   109.6319
 92      0.0000     0.0000E+00    0.0000E+00    1.434000E+09  0.00800  1.645E-04    0   0.5787   age139_m52            0.0000     1.9644E+02     6.7782   1.6735   109.1756
 93      0.0000     0.0000E+00    0.0000E+00    2.500000E+09  0.00800  7.723E-05    0   0.5519   age150_m52            0.0000     7.3925E+01     5.9814   1.2958   106.1708
 94      0.0755     2.9202E-02    3.1035E-02    4.250000E+09  0.00800  4.151E-05    0   0.5320   age158_m52            0.0000     4.8031E+01     5.6312   1.2167   103.9088
 95      0.8759     4.6731E-01    4.8517E-01    6.250000E+09  0.00800  3.010E-05    0   0.5197   age166_m52            0.0000     3.5935E+01     6.0975   1.0016   102.6431
 96      1.2845     8.3613E-01    8.5840E-01    7.500000E+09  0.00800  2.467E-05    0   0.5139   age171_m52            0.0000     3.7179E+01     6.3772   0.9536   102.2677
 97     31.5883     2.7243E+01    2.7506E+01    1.000000E+10  0.00800  1.862E-05    0   0.5054   age181_m52            0.0000     4.9490E+01     7.3985   0.8025   101.9451
 98      4.2714     4.7867E+00    4.7698E+00    1.300000E+10  0.00800  1.433E-05    0   0.4988   age193_m52            0.0000     7.0081E+01     8.2982   0.6888   102.6973
 99      0.0089     1.1458E-02    1.1298E-02    1.500000E+10  0.00800  1.244E-05    0   0.4936   age201_m52            0.0000     8.1335E+01     8.5796   0.6566   103.1670
100      0.0000     5.8510E-05    5.7135E-05    1.800000E+10  0.00800  1.070E-05    0   0.4888   age213_m52            0.0000     9.1564E+01     8.8682   0.6181   103.0283
101      0.0000     0.0000E+00    0.0000E+00    1.000000E+06  0.02000  1.989E-02    0   1.0000   age020_m62            0.0000     2.9171E+03    33.8741   4.0000    98.5293
102      0.0000     0.0000E+00    0.0000E+00    3.160000E+06  0.02000  3.772E-02    0   0.9858   age045_m62            0.0000     2.5052E+03    30.9598   4.0000    99.9375
103      0.0000     0.0000E+00    0.0000E+00    5.010000E+06  0.02000  3.227E-02    0   0.9342   age055_m62            0.0000     1.1732E+03    18.8112   4.0000   101.8064
104      0.0000     0.0000E+00    0.0000E+00    6.610000E+06  0.02000  2.387E-02    0   0.9090   age061_m62            0.0000     9.7097E+02    13.7118   4.0000    98.8370
105      0.0000     0.0000E+00    0.0000E+00    8.710000E+06  0.02000  1.102E-02    0   0.8861   age067_m62            0.0000     9.6653E+02    18.6877   4.0000    91.8870
106      0.0000     0.0000E+00    0.0000E+00    1.000000E+07  0.02000  1.011E-02    0   0.8751   age070_m62            0.0000     7.9006E+02    15.8675   4.0000    93.3933
107      0.0000     0.0000E+00    0.0000E+00    1.445000E+07  0.02000  7.331E-03    0   0.8472   age078_m62            0.0000     6.8062E+02    13.6105   4.0000    93.9687
108      0.0000     0.0000E+00    0.0000E+00    2.512000E+07  0.02000  4.206E-03    0   0.8099   age090_m62            0.0000     6.4059E+02    14.3611   4.0000    92.0068
109      0.0000     0.0000E+00    0.0000E+00    4.000000E+07  0.02000  3.373E-03    0   0.7799   age104_m62            0.0000     5.6285E+02    11.1026   3.9187    96.3512
110      0.0000     0.0000E+00    0.0000E+00    5.500000E+07  0.02000  2.747E-03    0   0.7595   age110_m62            0.0000     6.4098E+02    10.0341   3.8351    99.0378
111      0.0000     0.0000E+00    0.0000E+00    1.015200E+08  0.02000  1.878E-03    0   0.7221   age116_m62            0.0000     8.4154E+02    10.1772   3.6748   102.9153
112      0.0000     0.0000E+00    0.0000E+00    1.609000E+08  0.02000  1.378E-03    0   0.6978   age120_m62            0.0000     9.6810E+02    10.4860   3.5062   105.1154
113      0.0000     0.0000E+00    0.0000E+00    2.861200E+08  0.02000  8.869E-04    0   0.6700   age125_m62            0.0000     1.1378E+03    10.9980   3.1237   108.9101
114      0.0000     0.0000E+00    0.0000E+00    5.088000E+08  0.02000  4.834E-04    0   0.6430   age130_m62            0.0000     9.4500E+02    11.1308   2.6141   111.9549
115      0.0000     0.0000E+00    0.0000E+00    9.047900E+08  0.02000  2.312E-04    0   0.6152   age135_m62            0.0000     4.6754E+02     9.1817   1.9504   112.4731
116      0.0000     0.0000E+00    0.0000E+00    1.278050E+09  0.02000  1.387E-04    0   0.5927   age138_m62            0.0000     2.0253E+02     7.1089   1.5439   108.8640
117      0.0000     0.0000E+00    0.0000E+00    1.434000E+09  0.02000  1.168E-04    0   0.5865   age139_m62            0.0000     1.6247E+02     6.7911   1.5092   107.4399
118      0.0000     0.0000E+00    0.0000E+00    2.500000E+09  0.02000  5.505E-05    0   0.5610   age150_m62            0.0000     6.6021E+01     6.6844   1.0939   105.0895
119      0.0000     0.0000E+00    0.0000E+00    4.250000E+09  0.02000  3.070E-05    0   0.5407   age158_m62            0.0000     8.2035E+01     8.5037   0.7591   105.1296
120      0.0000     0.0000E+00    0.0000E+00    6.250000E+09  0.02000  2.104E-05    0   0.5277   age166_m62            0.0000     1.0906E+02     9.4206   0.6111   105.6018
121      0.0000     0.0000E+00    0.0000E+00    7.500000E+09  0.02000  1.770E-05    0   0.5223   age171_m62            0.0000     1.2791E+02     9.9955   0.5129   106.0020
122      0.6378     7.8973E-01    8.0792E-01    1.000000E+10  0.02000  1.297E-05    0   0.5121   age181_m62            0.0000     1.7445E+02    11.1103   0.3370   106.5230
123      9.3115     1.5430E+01    1.5557E+01    1.300000E+10  0.02000  9.691E-06    0   0.5047   age193_m62            0.0000     2.1312E+02    11.7511   0.2478   106.8559
124      5.7389     1.1024E+01    1.1009E+01    1.500000E+10  0.02000  8.360E-06    0   0.4999   age201_m62            0.0000     2.4792E+02    12.4109   0.1662   107.1460
125     12.5080     2.9064E+01    2.8718E+01    1.800000E+10  0.02000  6.911E-06    0   0.4946   age213_m62            0.0000     2.9359E+02    13.3022   0.0739   107.5445
126      0.0000     0.0000E+00    0.0000E+00    1.000000E+06  0.05000  2.651E-02    0   0.9998   age020_m72            0.0000     2.8305E+03    33.7112   4.0000    99.4940
127      0.0000     0.0000E+00    0.0000E+00    3.160000E+06  0.05000  4.817E-02    0   0.9577   age045_m72            0.0000     1.9906E+03    27.4647   4.0000   101.9839
128      0.0000     0.0000E+00    0.0000E+00    5.010000E+06  0.05000  3.101E-02    0   0.9147   age055_m72            0.0000     1.3170E+03    19.3055   4.0000   101.0920
129      0.0000     0.0000E+00    0.0000E+00    6.610000E+06  0.05000  1.472E-02    0   0.8877   age061_m72            0.0000     1.0341E+03    15.4792   4.0000    95.2583
130      0.0000     0.0000E+00    0.0000E+00    8.710000E+06  0.05000  1.050E-02    0   0.8638   age067_m72            0.0000     1.3677E+03    18.4501   4.0000    99.6417
131      0.0000     0.0000E+00    0.0000E+00    1.000000E+07  0.05000  8.954E-03    0   0.8524   age070_m72            0.0000     1.6690E+03    24.4837   4.0000   102.1240
132      0.0000     0.0000E+00    0.0000E+00    1.445000E+07  0.05000  6.392E-03    0   0.8262   age078_m72            0.0000     1.4940E+03    23.1747   4.0000   102.4524
133      0.0000     0.0000E+00    0.0000E+00    2.512000E+07  0.05000  4.207E-03    0   0.7902   age090_m72            0.0000     8.7205E+02    14.5947   4.0000   101.7594
134      0.0000     0.0000E+00    0.0000E+00    4.000000E+07  0.05000  3.198E-03    0   0.7618   age104_m72            0.0000     7.1058E+02     9.1038   4.0000    99.8200
135      0.0000     0.0000E+00    0.0000E+00    5.500000E+07  0.05000  2.593E-03    0   0.7432   age110_m72            0.0000     7.8322E+02     9.6744   3.9402   100.9400
136      0.0000     0.0000E+00    0.0000E+00    1.015200E+08  0.05000  1.716E-03    0   0.7092   age116_m72            0.0000     9.2853E+02    10.2124   3.7583   102.9585
137      0.0000     0.0000E+00    0.0000E+00    1.609000E+08  0.05000  1.218E-03    0   0.6876   age120_m72            0.0000     1.0383E+03    10.4446   3.4656   105.5180
138      0.0000     0.0000E+00    0.0000E+00    2.861200E+08  0.05000  7.047E-04    0   0.6618   age125_m72            0.0000     1.0465E+03    11.0012   2.8818   109.5186
139      0.0000     0.0000E+00    0.0000E+00    5.088000E+08  0.05000  3.590E-04    0   0.6356   age130_m72            0.0000     7.4958E+02    10.7917   2.2322   113.0671
140      0.0000     0.0000E+00    0.0000E+00    9.047900E+08  0.05000  1.484E-04    0   0.6088   age135_m72            0.0000     2.2539E+02     8.4769   1.4237   108.1042
141      0.0000     0.0000E+00    0.0000E+00    1.278050E+09  0.05000  9.435E-05    0   0.5924   age138_m72            0.0000     1.2419E+02     9.0041   0.9578   105.8488
142      0.0000     0.0000E+00    0.0000E+00    1.434000E+09  0.05000  7.827E-05    0   0.5847   age139_m72            0.0000     1.0584E+02     8.5821   0.9737   105.3323
143      0.0000     0.0000E+00    0.0000E+00    2.500000E+09  0.05000  3.759E-05    0   0.5583   age150_m72            0.0000     1.1186E+02     9.6264   0.6193   104.8492
144      0.0000     0.0000E+00    0.0000E+00    4.250000E+09  0.05000  1.842E-05    0   0.5374   age158_m72            0.0000     1.8711E+02    10.5180   0.3110   104.1150
145      0.0457     6.0752E-02    6.3621E-02    6.250000E+09  0.05000  1.207E-05    0   0.5242   age166_m72            0.0000     2.7194E+02    12.2062   0.0378   103.9579
146      0.9804     1.5754E+00    1.6313E+00    7.500000E+09  0.05000  9.993E-06    0   0.5183   age171_m72            0.0000     2.8854E+02    12.4215  -0.0097   103.9056
147      0.0630     1.3882E-01    1.4091E-01    1.000000E+10  0.05000  7.291E-06    0   0.5081   age181_m72            0.0000     3.6522E+02    13.7560  -0.1611   103.9383
148      0.0012     3.6297E-03    3.6386E-03    1.300000E+10  0.05000  5.316E-06    0   0.5018   age193_m72            0.0000     4.9348E+02    15.7272  -0.3920   104.1570
149      0.0018     6.3913E-03    6.3483E-03    1.500000E+10  0.05000  4.497E-06    0   0.4972   age201_m72            0.0000     5.6334E+02    16.7382  -0.4915   104.6414
150      0.0000     0.0000E+00    0.0000E+00    1.800000E+10  0.05000  3.739E-06    0   0.4924   age213_m72            0.0000     6.4939E+02    18.0436  -0.6338   105.1372


## Synthesis Results - Average & Chains ##

# j      x_j: min, <> & last-chain-values for 1 ...  7 chains
  1      2.1712      2.2894      2.3384      2.3536      2.3161      2.2541      2.3524      2.3701      2.2925
  2      8.9660      6.9224      7.4057      6.9601      7.0310      7.1051      7.1940      6.6225      7.1425
  3      6.9821      5.4384      5.6017      5.4372      5.6970      5.5197      5.7449      5.3307      5.7185
  4      0.0000      0.1219      0.1339      0.1521      0.1711      0.1012      0.0959      0.1250      0.0000
  5      0.0000      0.1280      0.1007      0.1474      0.1719      0.1273      0.1212      0.1764      0.0065
  6      0.0000      0.0716      0.0745      0.0000      0.0000      0.1241      0.0010      0.2111      0.0118
  7      0.2926      0.1141      0.1265      0.3326      0.0473      0.2719      0.0000      0.1600      0.2172
  8      0.0000      0.0282      0.0000      0.0000      0.1936      0.0000      0.0000      0.0000      0.0000
  9      0.0000      0.0243      0.0000      0.0286      0.0000      0.0000      0.0000      0.0000      0.1337
 10      0.0000      0.0167      0.0000      0.0000      0.0900      0.0000      0.0835      0.0000      0.1175
 11      0.0000      0.0166      0.0000      0.0087      0.0000      0.0668      0.1108      0.0000      0.0000
 12      0.0000      0.0123      0.0000      0.0000      0.0000      0.0000      0.0000      0.0000      0.0099
 13      0.0000      0.0098      0.0000      0.0090      0.0320      0.0000      0.0002      0.0128      0.0000
 14      0.0000      0.0051      0.0000      0.0000      0.0000      0.1500      0.0027      0.0515      0.0000
 15      0.0000      0.0088      0.0000      0.0000      0.0000      0.0000      0.0000      0.0000      0.0000
 16      0.0000      0.0204      0.0000      0.0312      0.0000      0.0096      0.0000      0.0000      0.0819
 17      0.0000      0.0107      0.0000      0.0000      0.0000      0.0531      0.0000      0.0000      0.0037
 18      0.0000      0.0175      0.0000      0.0000      0.0032      0.1333      0.0000      0.0000      0.1426
 19      0.0000      0.0323      0.0000      0.0000      0.0000      0.0394      0.1781      0.0000      0.0000
 20      0.0000      0.0551      0.0000      0.1251      0.0000      0.0018      0.0000      0.0463      0.1353
 21      0.0000      0.0449      0.0000      0.0000      0.1248      0.0026      0.0000      0.0000      0.0000
 22      0.1012      0.1000      0.3890      0.3033      0.0529      0.0000      0.2126      0.0205      0.1596
 23      0.0000      0.0663      0.0000      0.0000      0.0700      0.3989      0.0000      0.0000      0.1688
 24      0.0000      0.0516      0.0000      0.0000      0.0000      0.0862      0.0000      0.1035      0.0090
 25      0.0000      0.0489      0.0635      0.0000      0.0000      0.0000      0.0833      0.1802      0.0000
 26      0.8003      0.8767      0.9374      0.8672      0.8953      0.9470      0.8407      0.8716      0.8691
 27      0.0000      0.0254      0.1258      0.0000      0.0000      0.0000      0.0000      0.0000      0.0000
 28      0.0000      0.0450      0.0000      0.0000      0.0000      0.0000      0.0307      0.0000      0.0000
 29      0.0000      0.0990      0.0000      0.0000      0.1507      0.1286      0.1921      0.2024      0.0698
 30      0.0000      0.0545      0.0310      0.0458      0.0915      0.0000      0.0323      0.0416      0.2667
 31      0.0000      0.1780      0.1776      0.2091      0.2658      0.1694      0.1798      0.2262      0.1713
 32      0.0000      0.0162      0.0000      0.0000      0.0000      0.0000      0.0000      0.0069      0.0122
 33      0.0000      0.0201      0.0000      0.0000      0.0000      0.0000      0.0000      0.0000      0.0000
 34      0.0000      0.0146      0.0963      0.0000      0.0000      0.0000      0.0000      0.0000      0.0000
 35      0.0000      0.0127      0.0000      0.0000      0.0000      0.0000      0.0000      0.0000      0.0000
 36      0.0000      0.0071      0.0000      0.0000      0.0000      0.0162      0.0000      0.0000      0.0000
 37      0.0000      0.0112      0.0000      0.0124      0.0000      0.0000      0.0000      0.0000      0.0000
 38      0.0000      0.0088      0.0000      0.0837      0.0000      0.0000      0.0000      0.0000      0.0000
 39      0.0000      0.0075      0.0000      0.0104      0.0000      0.0000      0.0000      0.0000      0.0000
 40      0.0000      0.0090      0.0000      0.0000      0.0000      0.0000      0.1000      0.0000      0.0000
 41      0.0000      0.0121      0.0000      0.0000      0.1908      0.0000      0.0000      0.0000      0.0000
 42      0.0000      0.0111      0.0000      0.0000      0.0000      0.0000      0.0000      0.0000      0.0151
 43      0.0000      0.0383      0.0000      0.1177      0.1810      0.0000      0.0000      0.0000      0.0000
 44      0.0000      0.0719      0.0572      0.0000      0.0664      0.1202      0.0394      0.2643      0.0000
 45      1.3462      0.9747      1.1121      1.0636      0.8100      0.6523      0.6579      1.0928      1.0803
 46      0.5747      0.7982      0.7026      0.6459      0.7942      0.2049      0.7579      0.6954      0.9064
 47      1.7976      3.1682      3.3288      2.8484      3.2762      3.1147      3.1570      3.2132      2.8604
 48      0.0151      0.0643      0.0000      0.4828      0.1074      0.0110      0.0000      0.0525      0.0000
 49      0.0000      0.0738      0.0000      0.0570      0.0000      0.5581      0.0390      0.0000      0.0429
 50      0.0000      0.0646      0.0000      0.0000      0.1154      0.0000      0.0000      0.0947      0.0000
 51      1.7316      1.9173      1.9977      1.9062      1.9716      1.9601      1.9575      1.8658      1.8984
 52      0.0000      0.0438      0.0000      0.0000      0.0642      0.0000      0.1714      0.1657      0.0000
 53      0.0000      0.0254      0.0000      0.0000      0.0000      0.0143      0.0000      0.1024      0.0746
 54      0.0000      0.0180      0.0000      0.0174      0.0000      0.0000      0.1047      0.0000      0.0000
 55      0.0000      0.0404      0.0000      0.1645      0.0000      0.1308      0.0190      0.1064      0.0000
 56      0.0000      0.0253      0.0000      0.0000      0.0000      0.0000      0.0429      0.0000      0.0000
 57      0.0000      0.0326      0.1698      0.0866      0.0000      0.0000      0.0000      0.0000      0.1170
 58      0.0000      0.0125      0.0000      0.0000      0.0049      0.0000      0.0000      0.0000      0.0000
 59      0.0000      0.0123      0.0000      0.0059      0.0000      0.0000      0.0000      0.0000      0.0000
 60      0.0000      0.0085      0.0000      0.0000      0.0000      0.0000      0.0000      0.0000      0.0000
 61      0.0000      0.0079      0.0000      0.0000      0.0000      0.0186      0.0000      0.0000      0.0000
 62      0.0000      0.0110      0.0183      0.0000      0.0000      0.0112      0.0000      0.0000      0.0000
 63      0.0000      0.0128      0.0000      0.0000      0.0000      0.0000      0.0000      0.0000      0.0000
 64      0.0000      0.0065      0.0000      0.0000      0.0416      0.0000      0.0000      0.0010      0.0000
 65      0.0000      0.0209      0.0000      0.0000      0.0000      0.0000      0.0000      0.0000      0.0000
 66      0.0000      0.0333      0.0642      0.0000      0.0000      0.0298      0.1457      0.1362      0.0260
 67      0.0000      0.0261      0.0000      0.0000      0.0000      0.0000      0.0000      0.0000      0.0000
 68      0.0000      0.0555      0.0000      0.0000      0.0000      0.0000      0.4333      0.0734      0.0000
 69      0.0000      0.0757      0.0000      0.0000      0.0000      0.0000      0.0000      0.0000      0.0898
 70      0.0000      0.1058      0.0853      0.0000      0.0470      0.0000      0.0973      0.0000      0.2787
 71      0.0000      0.1203      0.0000      0.0000      0.1459      0.0000      0.3607      0.2656      0.1274
 72      0.0396      0.3529      0.6838      0.3102      0.3247      0.3107      0.6378      0.2095      0.6803
 73      2.0523      0.5313      0.8976      0.9565      0.6272      1.2069      0.7984      0.6079      0.9665
 74      2.8929      1.0682      1.1923      1.5405      0.8321      1.5989      1.3222      1.3228      1.0550
 75      2.4389      0.9006      1.2199      1.2695      1.2817      0.9029      0.9832      2.2411      1.2329
 76      0.0000      0.0175      0.0000      0.0506      0.0166      0.0000      0.1068      0.0000      0.0000
 77      0.0000      0.0464      0.0000      0.0000      0.0000      0.0819      0.0000      0.0839      0.0000
 78      0.0000      0.0057      0.0000      0.0000      0.0000      0.0000      0.0000      0.0000      0.0000
 79      0.0000      0.0220      0.0000      0.0000      0.0000      0.0000      0.0000      0.0000      0.0000
 80      0.0000      0.0111      0.0000      0.0000      0.0000      0.0000      0.0000      0.0000      0.0000
 81      0.0000      0.0196      0.0000      0.0000      0.0000      0.0000      0.0000      0.0000      0.0000
 82      0.0000      0.0243      0.0000      0.1591      0.0314      0.0000      0.0000      0.0000      0.0000
 83      0.0000      0.0161      0.0795      0.0000      0.1913      0.0000      0.0000      0.0000      0.0236
 84      0.0000      0.0096      0.0044      0.0000      0.0000      0.0000      0.0000      0.0000      0.0000
 85      0.0000      0.0088      0.0000      0.0000      0.0000      0.0000      0.0000      0.0000      0.0000
 86      0.0000      0.0054      0.0103      0.0000      0.0000      0.0000      0.0000      0.0000      0.0000
 87      0.0000      0.0084      0.0000      0.0000      0.0000      0.0000      0.0000      0.0000      0.0000
 88      0.0000      0.0059      0.0000      0.0000      0.0000      0.0000      0.0000      0.0001      0.0000
 89      0.0000      0.0110      0.0000      0.0000      0.0000      0.0000      0.0000      0.0000      0.0000
 90      0.0000      0.0093      0.0000      0.0000      0.0005      0.0000      0.0000      0.0000      0.0000
 91      0.0000      0.0392      0.3406      0.0000      0.0163      0.0000      0.0687      0.0000      0.0000
 92      0.0000      0.0283      0.0000      0.0000      0.0000      0.0000      0.0532      0.0313      0.0000
 93      0.0000      0.0433      0.0000      0.0149      0.0710      0.0000      0.0000      0.2119      0.0000
 94      0.0755      0.1385      0.0314      0.6296      0.0000      0.3226      0.1319      0.0000      0.5918
 95      0.8759      0.5694      0.8921      0.5985      1.1437      0.5148      0.2625      0.4335      0.5032
 96      1.2845      1.7273      1.5718      1.7582      0.7501      1.8749      1.6499      2.4078      1.8806
 97     31.5883     31.6393     31.5603     31.1626     32.0615     31.5835     31.6224     30.9594     31.4992
 98      4.2714      7.4916      7.1896      7.4312      7.1172      7.4497      6.7792      6.7895      7.1043
 99      0.0089      0.5719      0.3217      0.4562      0.5432      0.1487      0.1746      0.5087      0.4282
100      0.0000      0.1430      0.0091      0.2269      0.3387      0.0054      0.0000      0.0000      0.0000
101      0.0000      0.0383      0.0000      0.0988      0.0000      0.0618      0.0000      0.0000      0.0000
102      0.0000      0.0320      0.0000      0.0000      0.0000      0.0000      0.0000      0.0000      0.0000
103      0.0000      0.0151      0.0000      0.0000      0.0000      0.0000      0.0000      0.1014      0.0000
104      0.0000      0.0279      0.0000      0.0239      0.0000      0.2050      0.0000      0.0000      0.0000
105      0.0000      0.0221      0.0000      0.0000      0.0000      0.0000      0.0000      0.0000      0.0134
106      0.0000      0.0689      0.0000      0.0639      0.0000      0.0000      0.1313      0.0000      0.0000
107      0.0000      0.0276      0.0000      0.0000      0.0000      0.0345      0.1318      0.0034      0.1678
108      0.0000      0.0043      0.0000      0.0000      0.0378      0.0000      0.0000      0.0000      0.0000
109      0.0000      0.0052      0.0000      0.0000      0.0000      0.0000      0.0000      0.0000      0.0000
110      0.0000      0.0052      0.0000      0.0000      0.0000      0.0000      0.0000      0.1224      0.0000
111      0.0000      0.0045      0.0000      0.0000      0.0000      0.0000      0.0000      0.0000      0.0000
112      0.0000      0.0063      0.0000      0.0000      0.0000      0.0000      0.0584      0.0000      0.0000
113      0.0000      0.0060      0.0000      0.0000      0.0000      0.0000      0.0000      0.0000      0.0000
114      0.0000      0.0083      0.0000      0.0000      0.0429      0.0410      0.0406      0.0000      0.0000
115      0.0000      0.0211      0.0000      0.0701      0.0000      0.0000      0.0000      0.1078      0.0000
116      0.0000      0.0192      0.0194      0.0214      0.0000      0.0000      0.0000      0.0000      0.0000
117      0.0000      0.0221      0.0000      0.0000      0.0568      0.0143      0.0000      0.0000      0.0000
118      0.0000      0.0313      0.0000      0.0000      0.0000      0.0249      0.0000      0.0000      0.0000
119      0.0000      0.0553      0.0000      0.0000      0.0000      0.0000      0.0000      0.0000      0.0000
120      0.0000      0.0514      0.0863      0.0000      0.0000      0.0000      0.1662      0.0000      0.0000
121      0.0000      0.0528      0.0000      0.0000      0.0000      0.0000      0.0611      0.1431      0.0000
122      0.6378      1.5865      1.1950      1.5989      1.4775      1.3791      1.3883      1.7431      1.3403
123      9.3115      8.3097      8.5830      8.3399      8.6541      8.5175      8.5107      7.9158      8.2002
124      5.7389      4.5638      4.7924      4.8472      4.7310      5.0666      4.7571      4.5046      4.3871
125     12.5080     11.2859     11.2721     11.1851     11.3233     11.5096     11.5897     11.1966     11.5745
126      0.0000      0.0260      0.0000      0.0000      0.0000      0.0000      0.0000      0.0000      0.0153
127      0.0000      0.0121      0.0000      0.0000      0.0000      0.0000      0.0000      0.0000      0.0000
128      0.0000      0.0137      0.0000      0.0000      0.0000      0.0000      0.0000      0.0000      0.0000
129      0.0000      0.0146      0.0000      0.0000      0.0000      0.0000      0.0000      0.0000      0.0650
130      0.0000      0.0099      0.0000      0.0000      0.0000      0.0000      0.0000      0.0000      0.0000
131      0.0000      0.0108      0.0000      0.0000      0.0000      0.0000      0.0000      0.0469      0.0000
132      0.0000      0.0187      0.0000      0.0000      0.0000      0.0000      0.0034      0.0000      0.0000
133      0.0000      0.0057      0.0000      0.0000      0.0000      0.0000      0.0083      0.0000      0.0000
134      0.0000      0.0057      0.0000      0.0000      0.0000      0.0000      0.0000      0.0000      0.0000
135      0.0000      0.0038      0.0000      0.0000      0.0000      0.0000      0.0000      0.0000      0.0000
136      0.0000      0.0065      0.0379      0.0000      0.0000      0.0000      0.0000      0.0000      0.0000
137      0.0000      0.0031      0.0189      0.0000      0.0000      0.0000      0.0000      0.0024      0.0000
138      0.0000      0.0052      0.0000      0.0000      0.0000      0.0000      0.0000      0.0000      0.0000
139      0.0000      0.0097      0.0000      0.0000      0.0576      0.0000      0.0000      0.0000      0.0000
140      0.0000      0.0283      0.0000      0.0000      0.0194      0.0000      0.0000      0.0000      0.0050
141      0.0000      0.0184      0.0000      0.0000      0.0000      0.0000      0.0000      0.0000      0.0000
142      0.0000      0.0143      0.0000      0.0000      0.0000      0.0000      0.0093      0.0129      0.0000
143      0.0000      0.0163      0.0000      0.0056      0.0000      0.0000      0.0000      0.0000      0.0000
144      0.0000      0.0793      0.0000      0.0000      0.0000      0.0000      0.0000      0.0000      0.0401
145      0.0457      0.1745      0.1175      0.2258      0.1543      0.0089      0.0000      0.2331      0.1625
146      0.9804      1.0951      1.0091      1.1552      0.9209      1.1911      1.2946      1.0862      1.1660
147      0.0630      0.3792      0.3636      0.4113      0.7316      0.3551      0.2375      0.3903      0.1964
148      0.0012      0.4466      0.4637      0.2770      0.3950      0.2557      0.4258      0.6748      0.4456
149      0.0018      0.2282      0.0000      0.2479      0.1251      0.1156      0.1574      0.2066      0.2686
150      0.0000      0.4249      0.5774      0.0000      0.3767      0.3852      0.5584      0.4009      0.3673

# j      m_j: min, <> & last-chain-values for 1 ...  7 chains
  1  8.5358E-03  8.9170E-03  9.1249E-03  9.2701E-03  8.9898E-03  8.7570E-03  9.1538E-03  9.2184E-03  8.9850E-03
  2  6.0441E-03  4.6229E-03  4.9551E-03  4.7006E-03  4.6794E-03  4.7328E-03  4.8001E-03  4.4167E-03  4.8000E-03
  3  1.1109E-02  8.5724E-03  8.8466E-03  8.6670E-03  8.9491E-03  8.6782E-03  9.0473E-03  8.3912E-03  9.0706E-03
  4  0.0000E+00  3.6129E-04  3.9760E-04  4.5566E-04  5.0524E-04  2.9897E-04  2.8396E-04  3.6974E-04  0.0000E+00
  5  0.0000E+00  4.7771E-04  3.7652E-04  5.5627E-04  6.3949E-04  4.7401E-04  4.5193E-04  6.5756E-04  2.4567E-05
  6  0.0000E+00  3.1772E-04  3.3106E-04  0.0000E+00  0.0000E+00  5.4913E-04  4.5399E-06  9.3575E-04  5.2898E-05
  7  1.6543E-03  6.3913E-04  7.0956E-04  1.8839E-03  2.6386E-04  1.5189E-03  0.0000E+00  8.9506E-04  1.2240E-03
  8  0.0000E+00  1.7858E-04  0.0000E+00  0.0000E+00  1.2215E-03  0.0000E+00  0.0000E+00  0.0000E+00  0.0000E+00
  9  0.0000E+00  1.6537E-04  0.0000E+00  1.9728E-04  0.0000E+00  0.0000E+00  0.0000E+00  0.0000E+00  9.1637E-04
 10  0.0000E+00  1.3000E-04  0.0000E+00  0.0000E+00  7.0010E-04  0.0000E+00  6.5122E-04  0.0000E+00  9.2328E-04
 11  0.0000E+00  1.5457E-04  0.0000E+00  8.2215E-05  0.0000E+00  6.2200E-04  1.0327E-03  0.0000E+00  0.0000E+00
 12  0.0000E+00  2.0120E-04  0.0000E+00  0.0000E+00  0.0000E+00  0.0000E+00  0.0000E+00  0.0000E+00  1.6208E-04
 13  0.0000E+00  1.8639E-04  0.0000E+00  1.7195E-04  6.0369E-04  0.0000E+00  3.8732E-06  2.4216E-04  0.0000E+00
 14  0.0000E+00  1.3795E-04  0.0000E+00  0.0000E+00  0.0000E+00  4.0256E-03  7.2340E-05  1.3849E-03  0.0000E+00
 15  0.0000E+00  3.5583E-04  0.0000E+00  0.0000E+00  0.0000E+00  0.0000E+00  0.0000E+00  0.0000E+00  0.0000E+00
 16  0.0000E+00  1.2032E-03  0.0000E+00  1.8542E-03  0.0000E+00  5.6384E-04  0.0000E+00  0.0000E+00  4.8508E-03
 17  0.0000E+00  7.0087E-04  0.0000E+00  0.0000E+00  0.0000E+00  3.4604E-03  0.0000E+00  0.0000E+00  2.4497E-04
 18  0.0000E+00  1.8573E-03  0.0000E+00  0.0000E+00  3.3716E-04  1.4150E-02  0.0000E+00  0.0000E+00  1.5267E-02
 19  0.0000E+00  5.2170E-03  0.0000E+00  0.0000E+00  0.0000E+00  6.3391E-03  2.8699E-02  0.0000E+00  0.0000E+00
 20  0.0000E+00  1.2703E-02  0.0000E+00  2.9185E-02  0.0000E+00  4.1084E-04  0.0000E+00  1.0670E-02  3.1405E-02
 21  0.0000E+00  1.1973E-02  0.0000E+00  0.0000E+00  3.3185E-02  6.8068E-04  0.0000E+00  0.0000E+00  0.0000E+00
 22  3.5166E-02  3.4412E-02  1.3418E-01  1.0559E-01  1.8139E-02  0.0000E+00  7.3116E-02  7.0642E-03  5.5291E-02
 23  0.0000E+00  2.8946E-02  0.0000E+00  0.0000E+00  3.0425E-02  1.7363E-01  0.0000E+00  0.0000E+00  7.4133E-02
 24  0.0000E+00  2.5748E-02  0.0000E+00  0.0000E+00  0.0000E+00  4.2930E-02  0.0000E+00  5.1580E-02  4.5445E-03
 25  0.0000E+00  2.9342E-02  3.8170E-02  0.0000E+00  0.0000E+00  0.0000E+00  4.9885E-02  1.0787E-01  0.0000E+00
 26  3.0357E-03  3.2944E-03  3.5292E-03  3.2953E-03  3.3525E-03  3.5493E-03  3.1563E-03  3.2707E-03  3.2863E-03
 27  0.0000E+00  2.0355E-05  1.0080E-04  0.0000E+00  0.0000E+00  0.0000E+00  0.0000E+00  0.0000E+00  0.0000E+00
 28  0.0000E+00  7.0436E-05  0.0000E+00  0.0000E+00  0.0000E+00  0.0000E+00  4.8031E-05  0.0000E+00  0.0000E+00
 29  0.0000E+00  2.4158E-04  0.0000E+00  0.0000E+00  3.6642E-04  3.1305E-04  4.6828E-04  4.9314E-04  1.7150E-04
 30  0.0000E+00  1.6521E-04  9.4179E-05  1.4056E-04  2.7642E-04  0.0000E+00  9.7846E-05  1.2608E-04  8.1405E-04
 31  0.0000E+00  6.2358E-04  6.2351E-04  7.4070E-04  9.2818E-04  5.9191E-04  6.2924E-04  7.9131E-04  6.0388E-04
 32  0.0000E+00  6.2676E-05  0.0000E+00  0.0000E+00  0.0000E+00  0.0000E+00  0.0000E+00  2.6669E-05  4.7606E-05
 33  0.0000E+00  1.1062E-04  0.0000E+00  0.0000E+00  0.0000E+00  0.0000E+00  0.0000E+00  0.0000E+00  0.0000E+00
 34  0.0000E+00  9.7804E-05  6.4643E-04  0.0000E+00  0.0000E+00  0.0000E+00  0.0000E+00  0.0000E+00  0.0000E+00
 35  0.0000E+00  1.0238E-04  0.0000E+00  0.0000E+00  0.0000E+00  0.0000E+00  0.0000E+00  0.0000E+00  0.0000E+00
 36  0.0000E+00  7.3407E-05  0.0000E+00  0.0000E+00  0.0000E+00  1.6802E-04  0.0000E+00  0.0000E+00  0.0000E+00
 37  0.0000E+00  1.4483E-04  0.0000E+00  1.6226E-04  0.0000E+00  0.0000E+00  0.0000E+00  0.0000E+00  0.0000E+00
 38  0.0000E+00  1.5891E-04  0.0000E+00  1.5194E-03  0.0000E+00  0.0000E+00  0.0000E+00  0.0000E+00  0.0000E+00
 39  0.0000E+00  2.0130E-04  0.0000E+00  2.8215E-04  0.0000E+00  0.0000E+00  0.0000E+00  0.0000E+00  0.0000E+00
 40  0.0000E+00  4.2679E-04  0.0000E+00  0.0000E+00  0.0000E+00  0.0000E+00  4.7251E-03  0.0000E+00  0.0000E+00
 41  0.0000E+00  7.6530E-04  0.0000E+00  0.0000E+00  1.2042E-02  0.0000E+00  0.0000E+00  0.0000E+00  0.0000E+00
 42  0.0000E+00  7.8436E-04  0.0000E+00  0.0000E+00  0.0000E+00  0.0000E+00  0.0000E+00  0.0000E+00  1.0766E-03
 43  0.0000E+00  4.4019E-03  0.0000E+00  1.3697E-02  2.0748E-02  0.0000E+00  0.0000E+00  0.0000E+00  0.0000E+00
 44  0.0000E+00  1.3079E-02  1.0429E-02  0.0000E+00  1.2040E-02  2.1808E-02  7.1612E-03  4.8016E-02  0.0000E+00
 45  3.4456E-01  2.4717E-01  2.8254E-01  2.7273E-01  2.0470E-01  1.6498E-01  1.6669E-01  2.7674E-01  2.7566E-01
 46  1.7524E-01  2.4111E-01  2.1263E-01  1.9731E-01  2.3908E-01  6.1740E-02  2.2874E-01  2.0977E-01  2.7553E-01
 47  7.1838E-01  1.2543E+00  1.3204E+00  1.1404E+00  1.2926E+00  1.2300E+00  1.2488E+00  1.2704E+00  1.1396E+00
 48  7.1931E-03  3.0325E-02  0.0000E+00  2.3018E-01  5.0468E-02  5.1544E-03  0.0000E+00  2.4713E-02  0.0000E+00
 49  0.0000E+00  3.8907E-02  0.0000E+00  3.0385E-02  0.0000E+00  2.9360E-01  2.0545E-02  0.0000E+00  2.2778E-02
 50  0.0000E+00  4.0089E-02  0.0000E+00  0.0000E+00  7.1365E-02  0.0000E+00  0.0000E+00  5.8673E-02  0.0000E+00
 51  4.9868E-03  5.4700E-03  5.7103E-03  5.4997E-03  5.6057E-03  5.5778E-03  5.5797E-03  5.3157E-03  5.4502E-03
 52  0.0000E+00  3.4186E-05  0.0000E+00  0.0000E+00  4.9923E-05  0.0000E+00  1.3362E-04  1.2911E-04  0.0000E+00
 53  0.0000E+00  3.0236E-05  0.0000E+00  0.0000E+00  0.0000E+00  1.6936E-05  0.0000E+00  1.2169E-04  8.9372E-05
 54  0.0000E+00  2.0397E-05  0.0000E+00  1.9940E-05  0.0000E+00  0.0000E+00  1.1871E-04  0.0000E+00  0.0000E+00
 55  0.0000E+00  6.7598E-05  0.0000E+00  2.7837E-04  0.0000E+00  2.1833E-04  3.1723E-05  1.7786E-04  0.0000E+00
 56  0.0000E+00  5.6041E-05  0.0000E+00  0.0000E+00  0.0000E+00  0.0000E+00  9.4873E-05  0.0000E+00  0.0000E+00
 57  0.0000E+00  1.1572E-04  6.0437E-04  3.1113E-04  0.0000E+00  0.0000E+00  0.0000E+00  0.0000E+00  4.1822E-04
 58  0.0000E+00  6.3905E-05  0.0000E+00  0.0000E+00  2.5226E-05  0.0000E+00  0.0000E+00  0.0000E+00  0.0000E+00
 59  0.0000E+00  8.7479E-05  0.0000E+00  4.2504E-05  0.0000E+00  0.0000E+00  0.0000E+00  0.0000E+00  0.0000E+00
 60  0.0000E+00  6.7417E-05  0.0000E+00  0.0000E+00  0.0000E+00  0.0000E+00  0.0000E+00  0.0000E+00  0.0000E+00
 61  0.0000E+00  8.0210E-05  0.0000E+00  0.0000E+00  0.0000E+00  1.8783E-04  0.0000E+00  0.0000E+00  0.0000E+00
 62  0.0000E+00  1.4035E-04  2.3443E-04  0.0000E+00  0.0000E+00  1.4339E-04  0.0000E+00  0.0000E+00  0.0000E+00
 63  0.0000E+00  2.4897E-04  0.0000E+00  0.0000E+00  0.0000E+00  0.0000E+00  0.0000E+00  0.0000E+00  0.0000E+00
 64  0.0000E+00  2.0696E-04  0.0000E+00  0.0000E+00  1.3290E-03  0.0000E+00  0.0000E+00  3.2830E-05  0.0000E+00
 65  0.0000E+00  1.1303E-03  0.0000E+00  0.0000E+00  0.0000E+00  0.0000E+00  0.0000E+00  0.0000E+00  0.0000E+00
 66  0.0000E+00  2.3072E-03  4.4550E-03  0.0000E+00  0.0000E+00  2.0626E-03  1.0088E-02  9.4250E-03  1.8157E-03
 67  0.0000E+00  2.4828E-03  0.0000E+00  0.0000E+00  0.0000E+00  0.0000E+00  0.0000E+00  0.0000E+00  0.0000E+00
 68  0.0000E+00  9.8206E-03  0.0000E+00  0.0000E+00  0.0000E+00  0.0000E+00  7.6551E-02  1.2965E-02  0.0000E+00
 69  0.0000E+00  2.3083E-02  0.0000E+00  0.0000E+00  0.0000E+00  0.0000E+00  0.0000E+00  0.0000E+00  2.7565E-02
 70  0.0000E+00  4.4908E-02  3.6282E-02  0.0000E+00  1.9867E-02  0.0000E+00  4.1279E-02  0.0000E+00  1.1905E-01
 71  0.0000E+00  6.0229E-02  0.0000E+00  0.0000E+00  7.2821E-02  0.0000E+00  1.8048E-01  1.3282E-01  6.4226E-02
 72  2.6359E-02  2.3266E-01  4.5165E-01  2.0680E-01  2.1332E-01  2.0430E-01  4.2010E-01  1.3790E-01  4.5134E-01
 73  1.7228E+00  4.4180E-01  7.4783E-01  8.0439E-01  5.1978E-01  1.0011E+00  6.6334E-01  5.0487E-01  8.0876E-01
 74  2.7093E+00  9.9113E-01  1.1083E+00  1.4454E+00  7.6941E-01  1.4796E+00  1.2257E+00  1.2256E+00  9.8500E-01
 75  2.6264E+00  9.6080E-01  1.3039E+00  1.3696E+00  1.3627E+00  9.6073E-01  1.0480E+00  2.3877E+00  1.3236E+00
 76  0.0000E+00  4.3316E-05  0.0000E+00  1.2635E-04  4.0992E-05  0.0000E+00  2.6369E-04  0.0000E+00  0.0000E+00
 77  0.0000E+00  4.6664E-05  0.0000E+00  0.0000E+00  0.0000E+00  8.2206E-05  0.0000E+00  8.4284E-05  0.0000E+00
 78  0.0000E+00  6.3690E-06  0.0000E+00  0.0000E+00  0.0000E+00  0.0000E+00  0.0000E+00  0.0000E+00  0.0000E+00
 79  0.0000E+00  2.9838E-05  0.0000E+00  0.0000E+00  0.0000E+00  0.0000E+00  0.0000E+00  0.0000E+00  0.0000E+00
 80  0.0000E+00  1.9346E-05  0.0000E+00  0.0000E+00  0.0000E+00  0.0000E+00  0.0000E+00  0.0000E+00  0.0000E+00
 81  0.0000E+00  4.5168E-05  0.0000E+00  0.0000E+00  0.0000E+00  0.0000E+00  0.0000E+00  0.0000E+00  0.0000E+00
 82  0.0000E+00  7.5434E-05  0.0000E+00  5.0036E-04  9.7172E-05  0.0000E+00  0.0000E+00  0.0000E+00  0.0000E+00
 83  0.0000E+00  7.3641E-05  3.6414E-04  0.0000E+00  8.7144E-04  0.0000E+00  0.0000E+00  0.0000E+00  1.0861E-04
 84  0.0000E+00  6.0642E-05  2.7609E-05  0.0000E+00  0.0000E+00  0.0000E+00  0.0000E+00  0.0000E+00  0.0000E+00
 85  0.0000E+00  6.7579E-05  0.0000E+00  0.0000E+00  0.0000E+00  0.0000E+00  0.0000E+00  0.0000E+00  0.0000E+00
 86  0.0000E+00  5.6240E-05  1.0773E-04  0.0000E+00  0.0000E+00  0.0000E+00  0.0000E+00  0.0000E+00  0.0000E+00
 87  0.0000E+00  1.1602E-04  0.0000E+00  0.0000E+00  0.0000E+00  0.0000E+00  0.0000E+00  0.0000E+00  0.0000E+00
 88  0.0000E+00  1.2577E-04  0.0000E+00  0.0000E+00  0.0000E+00  0.0000E+00  0.0000E+00  2.8017E-06  0.0000E+00
 89  0.0000E+00  3.8695E-04  0.0000E+00  0.0000E+00  0.0000E+00  0.0000E+00  0.0000E+00  0.0000E+00  0.0000E+00
 90  0.0000E+00  6.0412E-04  0.0000E+00  0.0000E+00  3.1170E-05  0.0000E+00  0.0000E+00  0.0000E+00  0.0000E+00
 91  0.0000E+00  3.2813E-03  2.8577E-02  0.0000E+00  1.3588E-03  0.0000E+00  5.7478E-03  0.0000E+00  0.0000E+00
 92  0.0000E+00  3.1639E-03  0.0000E+00  0.0000E+00  0.0000E+00  0.0000E+00  5.9381E-03  3.4972E-03  0.0000E+00
 93  0.0000E+00  9.8372E-03  0.0000E+00  3.4286E-03  1.6072E-02  0.0000E+00  0.0000E+00  4.8065E-02  0.0000E+00
 94  3.1035E-02  5.6414E-02  1.2794E-02  2.5935E-01  0.0000E+00  1.3107E-01  5.3686E-02  0.0000E+00  2.4258E-01
 95  4.8517E-01  3.1247E-01  4.9048E-01  3.3214E-01  6.2544E-01  2.8176E-01  1.4393E-01  2.3757E-01  2.7786E-01
 96  8.5840E-01  1.1435E+00  1.0426E+00  1.1771E+00  4.9490E-01  1.2381E+00  1.0914E+00  1.5919E+00  1.2529E+00
 97  2.7506E+01  2.7294E+01  2.7277E+01  2.7185E+01  2.7563E+01  2.7176E+01  2.7255E+01  2.6671E+01  2.7344E+01
 98  4.7698E+00  8.2877E+00  7.9688E+00  8.3136E+00  7.8465E+00  8.2203E+00  7.4929E+00  7.5008E+00  7.9088E+00
 99  1.1298E-02  7.2115E-01  4.0648E-01  5.8184E-01  6.8270E-01  1.8701E-01  2.2004E-01  6.4060E-01  5.4337E-01
100  5.7135E-05  2.0763E-01  1.3288E-02  3.3317E-01  4.9007E-01  7.7830E-03  0.0000E+00  0.0000E+00  0.0000E+00
101  0.0000E+00  6.1161E-05  0.0000E+00  1.5957E-04  0.0000E+00  9.8468E-05  0.0000E+00  0.0000E+00  0.0000E+00
102  0.0000E+00  2.6551E-05  0.0000E+00  0.0000E+00  0.0000E+00  0.0000E+00  0.0000E+00  0.0000E+00  0.0000E+00
103  0.0000E+00  1.3885E-05  0.0000E+00  0.0000E+00  0.0000E+00  0.0000E+00  0.0000E+00  9.3151E-05  0.0000E+00
104  0.0000E+00  3.3733E-05  0.0000E+00  2.9244E-05  0.0000E+00  2.4742E-04  0.0000E+00  0.0000E+00  0.0000E+00
105  0.0000E+00  5.6583E-05  0.0000E+00  0.0000E+00  0.0000E+00  0.0000E+00  0.0000E+00  0.0000E+00  3.4416E-05
106  0.0000E+00  1.8955E-04  0.0000E+00  1.7767E-04  0.0000E+00  0.0000E+00  3.6075E-04  0.0000E+00  0.0000E+00
107  0.0000E+00  1.0123E-04  0.0000E+00  0.0000E+00  0.0000E+00  1.2656E-04  4.8382E-04  1.2639E-05  6.2021E-04
108  0.0000E+00  2.6346E-05  0.0000E+00  0.0000E+00  2.3081E-04  0.0000E+00  0.0000E+00  0.0000E+00  0.0000E+00
109  0.0000E+00  3.7974E-05  0.0000E+00  0.0000E+00  0.0000E+00  0.0000E+00  0.0000E+00  0.0000E+00  0.0000E+00
110  0.0000E+00  4.5857E-05  0.0000E+00  0.0000E+00  0.0000E+00  0.0000E+00  0.0000E+00  1.0743E-03  0.0000E+00
111  0.0000E+00  5.4987E-05  0.0000E+00  0.0000E+00  0.0000E+00  0.0000E+00  0.0000E+00  0.0000E+00  0.0000E+00
112  0.0000E+00  1.0064E-04  0.0000E+00  0.0000E+00  0.0000E+00  0.0000E+00  9.3874E-04  0.0000E+00  0.0000E+00
113  0.0000E+00  1.4347E-04  0.0000E+00  0.0000E+00  0.0000E+00  0.0000E+00  0.0000E+00  0.0000E+00  0.0000E+00
114  0.0000E+00  3.5112E-04  0.0000E+00  0.0000E+00  1.8078E-03  1.7288E-03  1.7134E-03  0.0000E+00  0.0000E+00
115  0.0000E+00  1.7838E-03  0.0000E+00  5.9959E-03  0.0000E+00  0.0000E+00  0.0000E+00  9.1036E-03  0.0000E+00
116  0.0000E+00  2.6062E-03  2.6347E-03  2.9429E-03  0.0000E+00  0.0000E+00  0.0000E+00  0.0000E+00  0.0000E+00
117  0.0000E+00  3.5343E-03  0.0000E+00  0.0000E+00  9.0319E-03  2.2792E-03  0.0000E+00  0.0000E+00  0.0000E+00
118  0.0000E+00  1.0141E-02  0.0000E+00  0.0000E+00  0.0000E+00  8.0526E-03  0.0000E+00  0.0000E+00  0.0000E+00
119  0.0000E+00  3.0928E-02  0.0000E+00  0.0000E+00  0.0000E+00  0.0000E+00  0.0000E+00  0.0000E+00  0.0000E+00
120  0.0000E+00  4.0995E-02  6.8940E-02  0.0000E+00  0.0000E+00  0.0000E+00  1.3233E-01  0.0000E+00  0.0000E+00
121  0.0000E+00  4.9519E-02  0.0000E+00  0.0000E+00  0.0000E+00  0.0000E+00  5.7210E-02  1.3398E-01  0.0000E+00
122  8.0792E-01  1.9908E+00  1.5024E+00  2.0290E+00  1.8477E+00  1.7261E+00  1.7405E+00  2.1843E+00  1.6925E+00
123  1.5557E+01  1.3754E+01  1.4233E+01  1.3960E+01  1.4275E+01  1.4062E+01  1.4074E+01  1.3084E+01  1.3658E+01
124  1.1009E+01  8.6733E+00  9.1251E+00  9.3157E+00  8.9603E+00  9.6042E+00  9.0326E+00  8.5492E+00  8.3900E+00
125  2.8718E+01  2.5670E+01  2.5688E+01  2.5728E+01  2.5667E+01  2.6112E+01  2.6337E+01  2.5433E+01  2.6492E+01
126  0.0000E+00  3.1165E-05  0.0000E+00  0.0000E+00  0.0000E+00  0.0000E+00  0.0000E+00  0.0000E+00  1.8411E-05
127  0.0000E+00  7.6770E-06  0.0000E+00  0.0000E+00  0.0000E+00  0.0000E+00  0.0000E+00  0.0000E+00  0.0000E+00
128  0.0000E+00  1.2832E-05  0.0000E+00  0.0000E+00  0.0000E+00  0.0000E+00  0.0000E+00  0.0000E+00  0.0000E+00
129  0.0000E+00  2.8057E-05  0.0000E+00  0.0000E+00  0.0000E+00  0.0000E+00  0.0000E+00  0.0000E+00  1.2541E-04
130  0.0000E+00  2.5981E-05  0.0000E+00  0.0000E+00  0.0000E+00  0.0000E+00  0.0000E+00  0.0000E+00  0.0000E+00
131  0.0000E+00  3.2608E-05  0.0000E+00  0.0000E+00  0.0000E+00  0.0000E+00  0.0000E+00  1.4159E-04  0.0000E+00
132  0.0000E+00  7.6903E-05  0.0000E+00  0.0000E+00  0.0000E+00  0.0000E+00  1.4001E-05  0.0000E+00  0.0000E+00
133  0.0000E+00  3.3748E-05  0.0000E+00  0.0000E+00  0.0000E+00  0.0000E+00  4.9787E-05  0.0000E+00  0.0000E+00
134  0.0000E+00  4.3205E-05  0.0000E+00  0.0000E+00  0.0000E+00  0.0000E+00  0.0000E+00  0.0000E+00  0.0000E+00
135  0.0000E+00  3.4207E-05  0.0000E+00  0.0000E+00  0.0000E+00  0.0000E+00  0.0000E+00  0.0000E+00  0.0000E+00
136  0.0000E+00  8.5208E-05  4.9871E-04  0.0000E+00  0.0000E+00  0.0000E+00  0.0000E+00  0.0000E+00  0.0000E+00
137  0.0000E+00  5.5068E-05  3.3891E-04  0.0000E+00  0.0000E+00  0.0000E+00  0.0000E+00  4.3836E-05  0.0000E+00
138  0.0000E+00  1.5555E-04  0.0000E+00  0.0000E+00  0.0000E+00  0.0000E+00  0.0000E+00  0.0000E+00  0.0000E+00
139  0.0000E+00  5.4754E-04  0.0000E+00  0.0000E+00  3.2311E-03  0.0000E+00  0.0000E+00  0.0000E+00  0.0000E+00
140  0.0000E+00  3.6883E-03  0.0000E+00  0.0000E+00  2.5205E-03  0.0000E+00  0.0000E+00  0.0000E+00  6.4954E-04
141  0.0000E+00  3.6698E-03  0.0000E+00  0.0000E+00  0.0000E+00  0.0000E+00  0.0000E+00  0.0000E+00  0.0000E+00
142  0.0000E+00  3.3854E-03  0.0000E+00  0.0000E+00  0.0000E+00  0.0000E+00  2.1966E-03  3.0656E-03  0.0000E+00
143  0.0000E+00  7.6907E-03  0.0000E+00  2.6524E-03  0.0000E+00  0.0000E+00  0.0000E+00  0.0000E+00  0.0000E+00
144  0.0000E+00  7.3507E-02  0.0000E+00  0.0000E+00  0.0000E+00  0.0000E+00  0.0000E+00  0.0000E+00  3.7404E-02
145  6.3621E-02  2.4082E-01  1.6245E-01  3.1519E-01  2.1232E-01  1.2308E-02  0.0000E+00  3.2126E-01  2.2572E-01
146  1.6313E+00  1.8051E+00  1.6666E+00  1.9257E+00  1.5129E+00  1.9583E+00  2.1321E+00  1.7880E+00  1.9341E+00
147  1.4091E-01  8.3986E-01  8.0684E-01  9.2119E-01  1.6149E+00  7.8443E-01  5.2565E-01  8.6326E-01  4.3763E-01
148  3.6386E-03  1.3398E+00  1.3937E+00  8.4032E-01  1.1811E+00  7.6520E-01  1.2763E+00  2.0218E+00  1.3453E+00
149  6.3483E-03  8.0176E-01  0.0000E+00  8.8102E-01  4.3820E-01  4.0522E-01  5.5261E-01  7.2492E-01  9.4970E-01
150  0.0000E+00  1.7784E+00  2.4213E+00  0.0000E+00  1.5713E+00  1.6080E+00  2.3351E+00  1.6755E+00  1.5472E+00

# AV, chi2 & Mass for <> & i_chain = 1 ...  7 solutions
AV       1.2286      1.2041      1.2094      1.2121      1.2072      1.2066      1.2112      1.2091      1.2126
chi2 3.0732E+00  3.1952E+00  3.1612E+00  3.1584E+00  3.1735E+00  3.1719E+00  3.1661E+00  3.1725E+00  3.1593E+00
Mass 8.4598E-10  8.2631E-10  8.3064E-10  8.2585E-10  8.3257E-10  8.3117E-10  8.3489E-10  8.3294E-10  8.3048E-10
  -5.82                                  [v0_min (km/s) before EX0s...]
  13.75                                  [vd_min (km/s) before EX0s...]


## Synthetic spectrum (Best Model) ##l_obs f_obs f_syn wei
 3070    [Nl_obs]
 3359.00    0.00000   0.41748   -2.000
 3360.00    0.00000   0.38967   -2.000
 3361.00    0.17053   0.39150   -1.000
 3362.00    0.27412   0.42254   -1.000
 3363.00    0.29634   0.46405   -1.000
 3364.00    0.26824   0.49304   -1.000
 3365.00    0.28490   0.49678   -1.000
 3366.00    0.28625   0.47643   -1.000
 3367.00    0.26982   0.45171   -1.000
 3368.00    0.28448   0.42887   -1.000
 3369.00    0.27627   0.41704   -1.000
 3370.00    0.23684   0.40939   -1.000
 3371.00    0.23549   0.40480   -1.000
 3372.00    0.23308   0.40865   -1.000
 3373.00    0.22126   0.42889   -1.000
 3374.00    0.25165   0.46002   -1.000
 3375.00    0.33077   0.49412   -1.000
 3376.00    0.32705   0.51640   -1.000
 3377.00    0.25672   0.51313   -1.000
 3378.00    0.27706   0.48715   -1.000
 3379.00    0.31319   0.46107   -1.000
 3380.00    0.29933   0.44689   -1.000
 3381.00    0.27909   0.45501   -1.000
 3382.00    0.28982   0.47209   -1.000
 3383.00    0.31138   0.48846   -1.000
 3384.00    0.32312   0.49812   -1.000
 3385.00    0.32566   0.50951   -1.000
 3386.00    0.33739   0.51336   -1.000
 3387.00    0.35704   0.51234   -1.000
 3388.00    0.34121   0.51114   -1.000
 3389.00    0.35700   0.51073   -1.000
 3390.00    0.41212   0.50744   -1.000
 3391.00    0.40029   0.49329   -1.000
 3392.00    0.34068   0.47522   -1.000
 3393.00    0.31830   0.46956   -1.000
 3394.00    0.35036   0.48104   -1.000
 3395.00    0.37958   0.50560   -1.000
 3396.00    0.37724   0.52632   -1.000
 3397.00    0.38157   0.54476   -1.000
 3398.00    0.40151   0.56020   -1.000
 3399.00    0.43752   0.56465   -1.000
 3400.00    0.44916   0.55956   -1.000
 3401.00    0.43532   0.54906   -1.000
 3402.00    0.43264   0.53097   -1.000
 3403.00    0.43828   0.51690   -1.000
 3404.00    0.43811   0.50889   -1.000
 3405.00    0.41783   0.50322   -1.000
 3406.00    0.42746   0.49604   -1.000
 3407.00    0.44004   0.48867   60.737
 3408.00    0.41322   0.48792   -1.000
 3409.00    0.40159   0.49290   -1.000
 3410.00    0.41276   0.50427   -1.000
 3411.00    0.40612   0.50390   -1.000
 3412.00    0.40688   0.48885   -1.000
 3413.00    0.42009   0.47009   60.072
 3414.00    0.43011   0.45699   61.594
 3415.00    0.43175   0.46548   63.297
 3416.00    0.41282   0.48306   -1.000
 3417.00    0.42962   0.50911   -1.000
 3418.00    0.44009   0.53154   -1.000
 3419.00    0.47137   0.55309   -1.000
 3420.00    0.48329   0.56115   -1.000
 3421.00    0.45649   0.55327   -1.000
 3422.00    0.45364   0.52951   -1.000
 3423.00    0.47347   0.51657   53.239
 3424.00    0.47848   0.51519   54.366
 3425.00    0.48455   0.51977   55.738
 3426.00    0.48947   0.52374   55.131
 3427.00    0.46542   0.53055   -1.000
 3428.00    0.46140   0.54858   -1.000
 3429.00    0.49388   0.57367   -1.000
 3430.00    0.52890   0.57567   -1.000
 3431.00    0.51172   0.55759   -1.000
 3432.00    0.46843   0.53083   -1.000
 3433.00    0.47163   0.51681   -1.000
 3434.00    0.49295   0.52594   79.441
 3435.00    0.50059   0.53766   52.820
 3436.00    0.44260   0.53778   -1.000
 3437.00    0.43921   0.52308   -1.000
 3438.00    0.47113   0.49842   79.009
 3439.00    0.47888   0.46218   54.213
 3440.00    0.46005   0.42891   57.217
 3441.00    0.40800   0.40527   61.360
 3442.00    0.38175   0.40401   64.746
 3443.00    0.41335   0.41646   65.757
 3444.00    0.43228   0.43476   65.608
 3445.00    0.46286   0.45017   63.830
 3446.00    0.48606   0.47050   60.663
 3447.00    0.48459   0.49299   57.313
 3448.00    0.49660   0.51837   54.897
 3449.00    0.50024   0.54075   -1.000
 3450.00    0.50141   0.54493   -1.000
 3451.00    0.50686   0.52699   -1.000
 3452.00    0.50059   0.51098   -1.000
 3453.00    0.50848   0.50703  452.188
 3454.00    0.54230   0.51886   -1.000
 3455.00    0.53831   0.52914   -1.000
 3456.00    0.52390   0.52382  452.188
 3457.00    0.52424   0.50663   -1.000
 3458.00    0.49759   0.48226   -1.000
 3459.00    0.46615   0.46752  452.188
 3460.00    0.44593   0.45740   80.124
 3461.00    0.47168   0.46083   53.273
 3462.00    0.50263   0.48029   53.321
 3463.00    0.53459   0.51140   -1.000
 3464.00    0.53286   0.51662   -1.000
 3465.00    0.50258   0.50935  452.188
 3466.00    0.48911   0.50463   -1.000
 3467.00    0.50085   0.51133   -1.000
 3468.00    0.53180   0.53125  452.188
 3469.00    0.55535   0.54866   -1.000
 3470.00    0.58345   0.55498   -1.000
 3471.00    0.56805   0.54079   -1.000
 3472.00    0.55029   0.51810   -1.000
 3473.00    0.52914   0.48873   -1.000
 3474.00    0.48853   0.46157   -1.000
 3475.00    0.45559   0.43985   -1.000
 3476.00    0.45669   0.44094   81.447
 3477.00    0.49022   0.45977   54.491
 3478.00    0.51060   0.48664   54.519
 3479.00    0.52688   0.50828  118.981
 3480.00    0.52621   0.52151   -1.000
 3481.00    0.52634   0.52231  452.188
 3482.00    0.54045   0.51121   -1.000
 3483.00    0.52956   0.49848   -1.000
 3484.00    0.52002   0.49617   -1.000
 3485.00    0.52569   0.51459   -1.000
 3486.00    0.54190   0.53626   -1.000
 3487.00    0.56071   0.54676   -1.000
 3488.00    0.54223   0.53108   -1.000
 3489.00    0.51678   0.50105   -1.000
 3490.00    0.49372   0.47503   -1.000
 3491.00    0.49698   0.46826   -1.000
 3492.00    0.51557   0.47892   -1.000
 3493.00    0.50340   0.49267   -1.000
 3494.00    0.49275   0.50123  452.188
 3495.00    0.50141   0.49319   -1.000
 3496.00    0.49516   0.47999   -1.000
 3497.00    0.50490   0.48247   -1.000
 3498.00    0.50940   0.50932  452.188
 3499.00    0.51760   0.54402   -1.000
 3500.00    0.53630   0.55753   -1.000
 3501.00    0.56871   0.56166   -1.000
 3502.00    0.57363   0.57079  419.104
 3503.00    0.58615   0.57631   -1.000
 3504.00    0.60136   0.57045   -1.000
 3505.00    0.58680   0.55511   -1.000
 3506.00    0.57826   0.54208   -1.000
 3507.00    0.55479   0.54145   -1.000
 3508.00    0.53723   0.54174  431.517
 3509.00    0.54489   0.53121   -1.000
 3510.00    0.54396   0.51874   -1.000
 3511.00    0.54331   0.50643   -1.000
 3512.00    0.51407   0.49377   -1.000
 3513.00    0.48758   0.47941   -1.000
 3514.00    0.48105   0.47413   -1.000
 3515.00    0.48271   0.49464   -1.000
 3516.00    0.51146   0.53593   -1.000
 3517.00    0.53703   0.56850   -1.000
 3518.00    0.56865   0.57982   -1.000
 3519.00    0.58551   0.56130   -1.000
 3520.00    0.56940   0.53402   -1.000
 3521.00    0.51150   0.50457   -1.000
 3522.00    0.48798   0.48546  452.188
 3523.00    0.46900   0.46531  452.188
 3524.00    0.45356   0.44572   -1.000
 3525.00    0.45418   0.43525   83.058
 3526.00    0.45398   0.45056   53.927
 3527.00    0.47307   0.48328   54.496
 3528.00    0.51307   0.52456  115.384
 3529.00    0.52488   0.55033   -1.000
 3530.00    0.52527   0.55715   -1.000
 3531.00    0.51807   0.54614   -1.000
 3532.00    0.50838   0.54128   -1.000
 3533.00    0.54338   0.54765  449.703
 3534.00    0.57683   0.55997   -1.000
 3535.00    0.57321   0.56922  441.283
 3536.00    0.57064   0.57010  432.667
 3537.00    0.54661   0.57370   -1.000
 3538.00    0.55004   0.58659   -1.000
 3539.00    0.58178   0.59405   -1.000
 3540.00    0.58122   0.59007   -1.000
 3541.00    0.56346   0.57722   -1.000
 3542.00    0.55998   0.57338   -1.000
 3543.00    0.54394   0.58324   -1.000
 3544.00    0.54530   0.59359   -1.000
 3545.00    0.58276   0.59716   -1.000
 3546.00    0.57475   0.58868   -1.000
 3547.00    0.55646   0.58092   -1.000
 3548.00    0.57219   0.58008  433.176
 3549.00    0.56993   0.58331   -1.000
 3550.00    0.54414   0.58363   -1.000
 3551.00    0.53805   0.57508   -1.000
 3552.00    0.53742   0.55948   -1.000
 3553.00    0.50543   0.54318   -1.000
 3554.00    0.50389   0.53777   -1.000
 3555.00    0.50920   0.54471   -1.000
 3556.00    0.52293   0.55047   -1.000
 3557.00    0.52476   0.55189   -1.000
 3558.00    0.49410   0.54590   -1.000
 3559.00    0.49852   0.54356   -1.000
 3560.00    0.51121   0.55154   -1.000
 3561.00    0.52181   0.56608   -1.000
 3562.00    0.54541   0.57796   -1.000
 3563.00    0.55817   0.56235  452.188
 3564.00    0.53314   0.52250   -1.000
 3565.00    0.48607   0.47657   -1.000
 3566.00    0.44942   0.46073   85.596
 3567.00    0.44620   0.46561   54.590
 3568.00    0.45765   0.46578   55.152
 3569.00    0.44755   0.45260   54.694
 3570.00    0.43764   0.44013   55.644
 3571.00    0.46359   0.44329   57.052
 3572.00    0.48789   0.46474   56.423
 3573.00    0.49621   0.48153   54.190
 3574.00    0.51558   0.49235  109.456
 3575.00    0.50654   0.49821   -1.000
 3576.00    0.49932   0.50097  452.188
 3577.00    0.48672   0.49248  452.188
 3578.00    0.46034   0.47500   -1.000
 3579.00    0.44557   0.44409  452.188
 3580.00    0.42198   0.41749   89.336
 3581.00    0.39673   0.40075   57.578
 3582.00    0.38877   0.40432   61.372
 3583.00    0.38867   0.41541   63.020
 3584.00    0.39664   0.41525   63.328
 3585.00    0.39072   0.40369   64.355
 3586.00    0.37588   0.39527   66.277
 3587.00    0.37497   0.40209   67.751
 3588.00    0.40758   0.42237   66.122
 3589.00    0.44537   0.45570   62.648
 3590.00    0.46245   0.49107   59.492
 3591.00    0.48907   0.52103   55.151
 3592.00    0.50832   0.52880  107.182
 3593.00    0.51073   0.52813   -1.000
 3594.00    0.51004   0.53404   -1.000
 3595.00    0.52618   0.55326   -1.000
 3596.00    0.55314   0.57893   -1.000
 3597.00    0.56437   0.59283   -1.000
 3598.00    0.58432   0.60343   -1.000
 3599.00    0.61545   0.61456  407.232
 3600.00    0.61104   0.61423  398.866
 3601.00    0.59365   0.59098  398.809
 3602.00    0.57001   0.55849   -1.000
 3603.00    0.54767   0.52602   -1.000
 3604.00    0.54300   0.50911   -1.000
 3605.00    0.53315   0.50669   -1.000
 3606.00    0.51500   0.50731   -1.000
 3607.00    0.49254   0.49715  452.188
 3608.00    0.49722   0.47864   -1.000
 3609.00    0.49873   0.47066   -1.000
 3610.00    0.48861   0.48081   -1.000
 3611.00    0.50993   0.50709  452.188
 3612.00    0.52212   0.52394  452.188
 3613.00    0.53469   0.53626  452.188
 3614.00    0.55871   0.55124   -1.000
 3615.00    0.56888   0.56628  450.200
 3616.00    0.55947   0.55862  437.280
 3617.00    0.52887   0.52235   -1.000
 3618.00    0.48208   0.47091   -1.000
 3619.00    0.45746   0.45940  452.188
 3620.00    0.47160   0.48199   87.430
 3621.00    0.50978   0.52876  104.265
 3622.00    0.54173   0.56649   -1.000
 3623.00    0.55415   0.58586   -1.000
 3624.00    0.57964   0.60119   -1.000
 3625.00    0.61230   0.63022   -1.000
 3626.00    0.62617   0.66108   -1.000
 3627.00    0.63863   0.67912   -1.000
 3628.00    0.63813   0.66575   -1.000
 3629.00    0.61116   0.61925   -1.000
 3630.00    0.56811   0.54867   -1.000
 3631.00    0.51642   0.50539   -1.000
 3632.00    0.49647   0.49311  452.188
 3633.00    0.51744   0.51333  452.188
 3634.00    0.53423   0.53864  452.188
 3635.00    0.54733   0.55993   -1.000
 3636.00    0.57351   0.57043  452.188
 3637.00    0.61036   0.58785   -1.000
 3638.00    0.62383   0.61495   -1.000
 3639.00    0.62582   0.63757   -1.000
 3640.00    0.62449   0.64753   -1.000
 3641.00    0.61067   0.63706   -1.000
 3642.00    0.59627   0.61186   -1.000
 3643.00    0.56661   0.58507   -1.000
 3644.00    0.53906   0.56191   -1.000
 3645.00    0.53966   0.54411  433.368
 3646.00    0.53989   0.52819   -1.000
 3647.00    0.53686   0.51167   -1.000
 3648.00    0.52146   0.51231   -1.000
 3649.00    0.51423   0.52619   -1.000
 3650.00    0.55934   0.55700  452.188
 3651.00    0.57840   0.59055   -1.000
 3652.00    0.58981   0.62605   -1.000
 3653.00    0.61133   0.64265   -1.000
 3654.00    0.61229   0.65191   -1.000
 3655.00    0.62821   0.65938   -1.000
 3656.00    0.65469   0.67155   -1.000
 3657.00    0.66198   0.68906   -1.000
 3658.00    0.66212   0.69819   -1.000
 3659.00    0.67067   0.70201   -1.000
 3660.00    0.65968   0.69830   -1.000
 3661.00    0.64856   0.68717   -1.000
 3662.00    0.66937   0.66768  364.702
 3663.00    0.66728   0.65477   -1.000
 3664.00    0.62899   0.65050   -1.000
 3665.00    0.62669   0.65424   -1.000
 3666.00    0.66126   0.65552  377.192
 3667.00    0.66042   0.64592   -1.000
 3668.00    0.62865   0.62943  379.659
 3669.00    0.60509   0.61618   -1.000
 3670.00    0.59140   0.62529   -1.000
 3671.00    0.60570   0.64881   -1.000
 3672.00    0.65115   0.66750   -1.000
 3673.00    0.67359   0.67522  375.377
 3674.00    0.66302   0.67361   -1.000
 3675.00    0.65445   0.66292   -1.000
 3676.00    0.64327   0.64111  371.150
 3677.00    0.62419   0.61307   -1.000
 3678.00    0.59562   0.58598   -1.000
 3679.00    0.57104   0.56904  401.609
 3680.00    0.57920   0.57105   -1.000
 3681.00    0.60560   0.58970   -1.000
 3682.00    0.61705   0.60985  410.270
 3683.00    0.61553   0.62146  398.800
 3684.00    0.61033   0.61142  391.508
 3685.00    0.58547   0.58463  395.020
 3686.00    0.54978   0.55016  408.335
 3687.00    0.53757   0.54019  425.229
 3688.00    0.55190   0.55678  437.453
 3689.00    0.60099   0.60038  434.186
 3690.00    0.66138   0.64596   -1.000
 3691.00    0.68454   0.67665  385.049
 3692.00    0.67769   0.67427  367.090
 3693.00    0.65646   0.65381  363.559
 3694.00    0.63158   0.63980   -1.000
 3695.00    0.63390   0.63481  377.990
 3696.00    0.64498   0.64076  379.425
 3697.00    0.65831   0.65444  376.762
 3698.00    0.68896   0.68178  372.709
 3699.00    0.69337   0.70417   -1.000
 3700.00    0.68586   0.71537   -1.000
 3701.00    0.68968   0.70202   -1.000
 3702.00    0.67158   0.66308  348.110
 3703.00    0.61940   0.59917   -1.000
 3704.00    0.57184   0.54468   -1.000
 3705.00    0.55848   0.50623   -1.000
 3706.00    0.55066   0.50259   -1.000
 3707.00    0.53597   0.51184   -1.000
 3708.00    0.53347   0.52363   -1.000
 3709.00    0.55227   0.54166   -1.000
 3710.00    0.58916   0.57294   -1.000
 3711.00    0.63452   0.60767   -1.000
 3712.00    0.66831   0.64769   -1.000
 3713.00    0.69682   0.68221   -1.000
 3714.00    0.72467   0.70030   -1.000
 3715.00    0.71847   0.69579   -1.000
 3716.00    0.68268   0.67552  342.030
 3717.00    0.64364   0.63718  346.333
 3718.00    0.59120   0.57927   -1.000
 3719.00    0.52265   0.50983   -1.000
 3720.00    0.47102   0.44702   -1.000
 3721.00    0.45567   0.43006   -1.000
 3722.00    0.48027   0.45580   94.880
 3723.00    0.53723   0.50856   99.171
 3724.00    0.60261   0.57004   -1.000
 3725.00    0.65313   0.60989   -1.000
 3726.00    0.65827   0.60906   -1.000
 3727.00    0.62494   0.59185   -1.000
 3728.00    0.61743   0.59194   -1.000
 3729.00    0.62945   0.59940   -1.000
 3730.00    0.62302   0.59611   -1.000
 3731.00    0.58171   0.56687   -1.000
 3732.00    0.53916   0.50514   -1.000
 3733.00    0.48403   0.44648   -1.000
 3734.00    0.42372   0.39703   92.977
 3735.00    0.40846   0.37918   55.707
 3736.00    0.42826   0.39400   60.115
 3737.00    0.45243   0.44220   59.572
 3738.00    0.49416   0.50201   55.149
 3739.00    0.55318   0.56855   95.735
 3740.00    0.58468   0.60758   -1.000
 3741.00    0.60932   0.61444  405.359
 3742.00    0.60846   0.58488   -1.000
 3743.00    0.56894   0.54728   -1.000
 3744.00    0.52138   0.50770   -1.000
 3745.00    0.49121   0.48620   -1.000
 3746.00    0.47566   0.46701   -1.000
 3747.00    0.46148   0.44052   -1.000
 3748.00    0.45364   0.41446   -1.000
 3749.00    0.44881   0.40597   55.075
 3750.00    0.47485   0.43389   57.151
 3751.00    0.53217   0.49557   -1.000
 3752.00    0.58780   0.55843   -1.000
 3753.00    0.63765   0.61403   -1.000
 3754.00    0.67409   0.65909   -1.000
 3755.00    0.68360   0.66766   -1.000
 3756.00    0.66010   0.63433   -1.000
 3757.00    0.59606   0.57463   -1.000
 3758.00    0.52813   0.52146   -1.000
 3759.00    0.51382   0.51359  443.305
 3760.00    0.53924   0.53097   -1.000
 3761.00    0.55343   0.55361  449.912
 3762.00    0.56011   0.56173  425.113
 3763.00    0.58448   0.56163   -1.000
 3764.00    0.60085   0.56355   -1.000
 3765.00    0.59131   0.56093   -1.000
 3766.00    0.57973   0.55069   -1.000
 3767.00    0.57753   0.54706   -1.000
 3768.00    0.58158   0.55150   -1.000
 3769.00    0.59114   0.55683   -1.000
 3770.00    0.60847   0.56119   -1.000
 3771.00    0.62448   0.57902   -1.000
 3772.00    0.63995   0.60730   -1.000
 3773.00    0.66272   0.63428   -1.000
 3774.00    0.67200   0.64511   -1.000
 3775.00    0.66432   0.64745   -1.000
 3776.00    0.66649   0.65141   -1.000
 3777.00    0.67302   0.66056   -1.000
 3778.00    0.67558   0.67653  363.082
 3779.00    0.68703   0.69342  360.009
 3780.00    0.69306   0.71018   -1.000
 3781.00    0.69402   0.71985   -1.000
 3782.00    0.70958   0.72437   -1.000
 3783.00    0.72492   0.72524  334.066
 3784.00    0.72167   0.71034   -1.000
 3785.00    0.68203   0.67300  337.105
 3786.00    0.62822   0.62845  350.012
 3787.00    0.59290   0.59042  372.632
 3788.00    0.56566   0.56867  396.259
 3789.00    0.56170   0.56987  409.766
 3790.00    0.57207   0.58474   -1.000
 3791.00    0.58456   0.59636   -1.000
 3792.00    0.59583   0.59546  403.473
 3793.00    0.57860   0.57304  404.504
 3794.00    0.54998   0.54773  415.338
 3795.00    0.54066   0.52525   -1.000
 3796.00    0.53712   0.50298   -1.000
 3797.00    0.51777   0.47444   -1.000
 3798.00    0.49695   0.45828   -1.000
 3799.00    0.51595   0.47699   -1.000
 3800.00    0.56367   0.53128   -1.000
 3801.00    0.60095   0.58836   -1.000
 3802.00    0.62588   0.63748   -1.000
 3803.00    0.64779   0.66373   -1.000
 3804.00    0.64709   0.67176   -1.000
 3805.00    0.62538   0.65533   -1.000
 3806.00    0.59756   0.63125   -1.000
 3807.00    0.58054   0.61999   -1.000
 3808.00    0.59422   0.63473   -1.000
 3809.00    0.61470   0.66070   -1.000
 3810.00    0.63571   0.67705   -1.000
 3811.00    0.64612   0.66879   -1.000
 3812.00    0.61390   0.63156   -1.000
 3813.00    0.56500   0.58743   -1.000
 3814.00    0.53486   0.54531   -1.000
 3815.00    0.51791   0.52671  433.450
 3816.00    0.51522   0.53222   -1.000
 3817.00    0.52278   0.54709   -1.000
 3818.00    0.51569   0.54342   -1.000
 3819.00    0.48477   0.51294   -1.000
 3820.00    0.46027   0.48932   -1.000
 3821.00    0.46064   0.49089   -1.000
 3822.00    0.47445   0.51322   -1.000
 3823.00    0.49870   0.51750   -1.000
 3824.00    0.49127   0.48944  452.188
 3825.00    0.44374   0.46111   -1.000
 3826.00    0.41273   0.44623  104.238
 3827.00    0.40902   0.44868   55.730
 3828.00    0.42650   0.45897   56.104
 3829.00    0.43863   0.46985   55.393
 3830.00    0.43083   0.46967   54.484
 3831.00    0.42834   0.45322   54.345
 3832.00    0.40975   0.42598   55.900
 3833.00    0.38574   0.39826   59.390
 3834.00    0.40555   0.38960   62.798
 3835.00    0.43123   0.39389   63.141
 3836.00    0.42855   0.40641   61.207
 3837.00    0.42281   0.41342   59.263
 3838.00    0.40854   0.41424   59.201
 3839.00    0.40861   0.41992   60.585
 3840.00    0.42745   0.44163   60.823
 3841.00    0.45449   0.48635   58.519
 3842.00    0.51007   0.53383   97.014
 3843.00    0.55521   0.57639   -1.000
 3844.00    0.56377   0.59591   -1.000
 3845.00    0.54874   0.60242   -1.000
 3846.00    0.55471   0.60596   -1.000
 3847.00    0.55459   0.60910   -1.000
 3848.00    0.54123   0.60011   -1.000
 3849.00    0.52561   0.58548   -1.000
 3850.00    0.51413   0.57819   -1.000
 3851.00    0.52640   0.59003   -1.000
 3852.00    0.54424   0.60413   -1.000
 3853.00    0.54627   0.60707   -1.000
 3854.00    0.53783   0.59394   -1.000
 3855.00    0.53127   0.57486   -1.000
 3856.00    0.51329   0.55875   -1.000
 3857.00    0.48770   0.54011   -1.000
 3858.00    0.45651   0.51492   -1.000
 3859.00    0.42747   0.50111   -1.000
 3860.00    0.43454   0.51071   -1.000
 3861.00    0.48943   0.55037   -1.000
 3862.00    0.55042   0.59347   -1.000
 3863.00    0.57876   0.61590   -1.000
 3864.00    0.57036   0.61167   -1.000
 3865.00    0.56162   0.60022   -1.000
 3866.00    0.55830   0.59494   -1.000
 3867.00    0.54353   0.59505   -1.000
 3868.00    0.52739   0.59181   -1.000
 3869.00    0.51294   0.57998   -1.000
 3870.00    0.49031   0.55328   -1.000
 3871.00    0.47451   0.53279   -1.000
 3872.00    0.47969   0.52529   -1.000
 3873.00    0.49631   0.54813   -1.000
 3874.00    0.54179   0.58620   -1.000
 3875.00    0.57743   0.61620   -1.000
 3876.00    0.56809   0.60583   -1.000
 3877.00    0.52904   0.57026   -1.000
 3878.00    0.50133   0.54920   -1.000
 3879.00    0.49515   0.54866   -1.000
 3880.00    0.49633   0.55707   -1.000
 3881.00    0.49626   0.56304   -1.000
 3882.00    0.50718   0.56412   -1.000
 3883.00    0.54233   0.57526   -1.000
 3884.00    0.57641   0.57750  452.188
 3885.00    0.58816   0.54863   -1.000
 3886.00    0.55743   0.50909   -1.000
 3887.00    0.51506   0.47809   -1.000
 3888.00    0.53285   0.47320   -1.000
 3889.00    0.58570   0.49831   -1.000
 3890.00    0.62365   0.54802   -1.000
 3891.00    0.65832   0.60682   -1.000
 3892.00    0.68638   0.65095   -1.000
 3893.00    0.69775   0.65928   -1.000
 3894.00    0.68720   0.64978   -1.000
 3895.00    0.67291   0.64735   -1.000
 3896.00    0.67897   0.65581   -1.000
 3897.00    0.68798   0.66583   -1.000
 3898.00    0.68354   0.66491   -1.000
 3899.00    0.67499   0.65703   -1.000
 3900.00    0.67695   0.65988   -1.000
 3901.00    0.68878   0.66864   -1.000
 3902.00    0.69548   0.66906   -1.000
 3903.00    0.67470   0.65863   -1.000
 3904.00    0.64455   0.63810  355.883
 3905.00    0.62513   0.62612  368.438
 3906.00    0.61899   0.63187   -1.000
 3907.00    0.65840   0.66415  383.155
 3908.00    0.72163   0.70419   -1.000
 3909.00    0.74583   0.73401   -1.000
 3910.00    0.74663   0.74658  330.558
 3911.00    0.76094   0.75553  325.124
 3912.00    0.77911   0.75803   -1.000
 3913.00    0.77328   0.75219   -1.000
 3914.00    0.76440   0.73953   -1.000
 3915.00    0.76580   0.72840   -1.000
 3916.00    0.75577   0.71807   -1.000
 3917.00    0.74200   0.70556   -1.000
 3918.00    0.71432   0.68514   -1.000
 3919.00    0.66425   0.65315   -1.000
 3920.00    0.61788   0.62539  363.009
 3921.00    0.59718   0.60939   -1.000
 3922.00    0.60969   0.61469  393.438
 3923.00    0.62986   0.62773  396.123
 3924.00    0.63983   0.63089   -1.000
 3925.00    0.61729   0.61885  387.954
 3926.00    0.57541   0.58254  398.314
 3927.00    0.51622   0.53648   -1.000
 3928.00    0.44975   0.48376   -1.000
 3929.00    0.41629   0.43773  117.316
 3930.00    0.39836   0.39464   62.389
 3931.00    0.35088   0.34966   73.091
 3932.00    0.29126   0.30430   85.897
 3933.00    0.26914   0.26990  101.201
 3934.00    0.26474   0.27260  115.105
 3935.00    0.27812   0.30905  118.748
 3936.00    0.33121   0.36024  108.595
 3937.00    0.38372   0.41527   92.020
 3938.00    0.43458   0.47662   75.808
 3939.00    0.48772   0.52498   62.952
 3940.00    0.51856   0.56295   -1.000
 3941.00    0.55907   0.58077   -1.000
 3942.00    0.57972   0.58159  452.188
 3943.00    0.57446   0.57983  450.264
 3944.00    0.57330   0.59574   -1.000
 3945.00    0.60004   0.62822   -1.000
 3946.00    0.65350   0.65892  407.136
 3947.00    0.68768   0.67632   -1.000
 3948.00    0.70333   0.68501   -1.000
 3949.00    0.73007   0.70060   -1.000
 3950.00    0.76287   0.72196   -1.000
 3951.00    0.75710   0.72359   -1.000
 3952.00    0.74105   0.72015   -1.000
 3953.00    0.76261   0.72948   -1.000
 3954.00    0.78035   0.73879   -1.000
 3955.00    0.76701   0.73579   -1.000
 3956.00    0.74447   0.72112   -1.000
 3957.00    0.73612   0.70903   -1.000
 3958.00    0.73392   0.71064   -1.000
 3959.00    0.70646   0.70085  343.568
 3960.00    0.64880   0.64934  343.298
 3961.00    0.59073   0.59065  363.209
 3962.00    0.53383   0.54053  406.024
 3963.00    0.50743   0.51329  452.188
 3964.00    0.49011   0.48904  452.188
 3965.00    0.45127   0.44337  114.231
 3966.00    0.37952   0.38123   58.599
 3967.00    0.31818   0.31243   70.133
 3968.00    0.29383   0.27086   86.318
 3969.00    0.28244   0.26943  101.500
 3970.00    0.30519   0.30664  104.135
 3971.00    0.37553   0.36509   91.461
 3972.00    0.45674   0.43403   75.208
 3973.00    0.51859   0.49826   62.310
 3974.00    0.57596   0.56230   88.934
 3975.00    0.63569   0.61700   -1.000
 3976.00    0.68470   0.66616   -1.000
 3977.00    0.73103   0.71248   -1.000
 3978.00    0.77658   0.75365   -1.000
 3979.00    0.81598   0.79273   -1.000
 3980.00    0.84802   0.80690   -1.000
 3981.00    0.85133   0.80410   -1.000
 3982.00    0.83468   0.79071   -1.000
 3983.00    0.82904   0.78670   -1.000
 3984.00    0.83366   0.80180   -1.000
 3985.00    0.84191   0.82111   -1.000
 3986.00    0.88004   0.83752   -1.000
 3987.00    0.90924   0.85471   -1.000
 3988.00    0.90088   0.86729   -1.000
 3989.00    0.90885   0.86846   -1.000
 3990.00    0.92004   0.87077   -1.000
 3991.00    0.92885   0.88095   -1.000
 3992.00    0.95036   0.89724   -1.000
 3993.00    0.94951   0.90655   -1.000
 3994.00    0.92881   0.89795   -1.000
 3995.00    0.91318   0.87606   -1.000
 3996.00    0.88729   0.85141   -1.000
 3997.00    0.86720   0.84718   -1.000
 3998.00    0.87687   0.86441  287.358
 3999.00    0.91232   0.89777  285.961
 4000.00    0.96971   0.92458   -1.000
 4001.00    1.00291   0.94423   -1.000
 4002.00    0.99085   0.94834   -1.000
 4003.00    0.97617   0.92953   -1.000
 4004.00    0.92697   0.87947   -1.000
 4005.00    0.86868   0.83564   -1.000
 4006.00    0.86291   0.83383   -1.000
 4007.00    0.91082   0.87097   -1.000
 4008.00    0.95724   0.91982   -1.000
 4009.00    0.97680   0.94437   -1.000
 4010.00    0.97975   0.95527   -1.000
 4011.00    0.97317   0.95829  254.839
 4012.00    0.98345   0.95845   -1.000
 4013.00    0.98801   0.96316   -1.000
 4014.00    0.99514   0.97207   -1.000
 4015.00    1.05031   0.97630   -1.000
 4016.00    1.05385   0.97188   -1.000
 4017.00    1.00000   0.96879   -1.000
 4018.00    0.98500   0.97717  253.591
 4019.00    1.01095   0.98815   -1.000
 4020.00    1.03499   0.99485   -1.000
 4021.00    1.01640   0.98858   -1.000
 4022.00    1.00334   0.97860   -1.000
 4023.00    1.00699   0.96627   -1.000
 4024.00    0.99679   0.95533   -1.000
 4025.00    0.99086   0.95779   -1.000
 4026.00    1.01835   0.98416   -1.000
 4027.00    1.05385   1.01469   -1.000
 4028.00    1.05699   1.01717   -1.000
 4029.00    1.01831   0.97624   -1.000
 4030.00    0.96229   0.90839   -1.000
 4031.00    0.91812   0.85836   -1.000
 4032.00    0.88773   0.83319   -1.000
 4033.00    0.87600   0.83817   -1.000
 4034.00    0.90307   0.86746   -1.000
 4035.00    0.96693   0.92238   -1.000
 4036.00    1.03541   0.98097   -1.000
 4037.00    1.06758   1.03450   -1.000
 4038.00    1.07287   1.05033   -1.000
 4039.00    1.07226   1.03680   -1.000
 4040.00    1.06328   1.01349   -1.000
 4041.00    1.05104   1.00438   -1.000
 4042.00    1.04048   0.98917   -1.000
 4043.00    1.00075   0.93454   -1.000
 4044.00    0.90022   0.84707   -1.000
 4045.00    0.81159   0.77874   -1.000
 4046.00    0.81523   0.79068   -1.000
 4047.00    0.88348   0.87318  305.340
 4048.00    0.97552   0.95187   -1.000
 4049.00    1.04953   1.00967   -1.000
 4050.00    1.08449   1.02750   -1.000
 4051.00    1.08074   1.02517   -1.000
 4052.00    1.04868   1.00707   -1.000
 4053.00    1.01874   0.98108   -1.000
 4054.00    0.98418   0.95886   -1.000
 4055.00    0.95936   0.94444   -1.000
 4056.00    0.94998   0.93015   -1.000
 4057.00    0.93834   0.91756   -1.000
 4058.00    0.93630   0.92863  265.874
 4059.00    0.97173   0.95969  266.342
 4060.00    1.02677   0.97991   -1.000
 4061.00    1.03077   0.95805   -1.000
 4062.00    0.96646   0.88841   -1.000
 4063.00    0.88213   0.83803   -1.000
 4064.00    0.85136   0.83001   -1.000
 4065.00    0.89618   0.85194   -1.000
 4066.00    0.95504   0.88947   -1.000
 4067.00    0.97885   0.92419   -1.000
 4068.00    1.01557   0.95156   -1.000
 4069.00    1.05406   0.96124   -1.000
 4070.00    1.03475   0.93105   -1.000
 4071.00    0.97300   0.88700   -1.000
 4072.00    0.94590   0.88745   -1.000
 4073.00    0.98748   0.91785   -1.000
 4074.00    1.02278   0.94190   -1.000
 4075.00    0.98408   0.91705   -1.000
 4076.00    0.92692   0.86014   -1.000
 4077.00    0.88356   0.83344   -1.000
 4078.00    0.87051   0.85028   -1.000
 4079.00    0.92604   0.91735  296.763
 4080.00    1.00732   0.98349   -1.000
 4081.00    1.04861   1.02114   -1.000
 4082.00    1.04772   1.01310   -1.000
 4083.00    1.03682   0.98209   -1.000
 4084.00    1.01226   0.96077   -1.000
 4085.00    1.00236   0.96820   -1.000
 4086.00    1.03637   1.00703   -1.000
 4087.00    1.10546   1.04935   -1.000
 4088.00    1.15571   1.08146   -1.000
 4089.00    1.14756   1.08453   -1.000
 4090.00    1.12346   1.06714   -1.000
 4091.00    1.09944   1.04414   -1.000
 4092.00    1.08474   1.03532   -1.000
 4093.00    1.08752   1.02613   -1.000
 4094.00    1.07351   1.00539   -1.000
 4095.00    1.03908   0.97084   -1.000
 4096.00    0.99102   0.93385   -1.000
 4097.00    0.95892   0.91293   -1.000
 4098.00    0.95220   0.89456   -1.000
 4099.00    0.93101   0.85278   -1.000
 4100.00    0.86643   0.78965   -1.000
 4101.00    0.81094   0.74504   -1.000
 4102.00    0.80419   0.74486   -1.000
 4103.00    0.85491   0.80259   -1.000
 4104.00    0.92922   0.87709   -1.000
 4105.00    0.98898   0.94171   -1.000
 4106.00    1.03141   0.97752   -1.000
 4107.00    1.04332   0.99284   -1.000
 4108.00    1.04042   0.98781   -1.000
 4109.00    1.02793   0.97464   -1.000
 4110.00    1.00526   0.96350   -1.000
 4111.00    0.99842   0.96812   -1.000
 4112.00    1.01146   0.98494   -1.000
 4113.00    1.02946   1.01017   -1.000
 4114.00    1.04191   1.03382  256.872
 4115.00    1.06296   1.04903  252.663
 4116.00    1.06120   1.04460   -1.000
 4117.00    1.03389   1.02140  248.268
 4118.00    1.01332   0.99341   -1.000
 4119.00    0.99745   0.97706   -1.000
 4120.00    1.00416   0.98278   -1.000
 4121.00    1.01921   0.99305   -1.000
 4122.00    1.00722   0.99787  261.764
 4123.00    1.00457   1.00544  260.162
 4124.00    1.02705   1.01841  259.367
 4125.00    1.04486   1.02818   -1.000
 4126.00    1.04627   1.02238   -1.000
 4127.00    1.04159   1.00296   -1.000
 4128.00    1.03340   0.98766   -1.000
 4129.00    1.00327   0.98022   -1.000
 4130.00    0.97861   0.96219   -1.000
 4131.00    0.94956   0.93297   -1.000
 4132.00    0.92450   0.90329   -1.000
 4133.00    0.91305   0.90447  279.789
 4134.00    0.93193   0.93966   -1.000
 4135.00    0.98837   0.98769  282.502
 4136.00    1.03120   1.02921  271.079
 4137.00    1.05000   1.05653  259.031
 4138.00    1.07046   1.07135  252.262
 4139.00    1.07752   1.07817  248.331
 4140.00    1.06424   1.06058  245.498
 4141.00    1.01685   1.00817  246.740
 4142.00    0.94800   0.93054   -1.000
 4143.00    0.88052   0.88329  271.254
 4144.00    0.87820   0.89228   -1.000
 4145.00    0.92907   0.94500   -1.000
 4146.00    0.98063   1.00168   -1.000
 4147.00    1.00215   1.02056   -1.000
 4148.00    1.01106   1.01207  260.932
 4149.00    0.98717   0.99516  261.104
 4150.00    0.97792   0.98887   -1.000
 4151.00    0.98362   0.98919  273.219
 4152.00    0.97242   0.98656   -1.000
 4153.00    0.96674   0.97544  272.600
 4154.00    0.97208   0.96339  272.502
 4155.00    0.97497   0.96093   -1.000
 4156.00    0.96780   0.97330  276.326
 4157.00    0.96722   0.99518   -1.000
 4158.00    1.06898   1.02377   -1.000
 4159.00    1.31376   1.05012   -1.000
 4160.00    1.23007   1.06565   -1.000
 4161.00    0.77643   1.07717   -1.000
 4162.00    0.87732   1.08570   -1.000
 4163.00    1.12126   1.08939   -1.000
 4164.00    1.07322   1.08052  251.492
 4165.00    1.01990   1.06173   -1.000
 4166.00    1.00044   1.03437   -1.000
 4167.00    0.99185   1.02270   -1.000
 4168.00    1.00499   1.02811   -1.000
 4169.00    1.01710   1.03886   -1.000
 4170.00    1.00243   1.02681   -1.000
 4171.00    0.96584   0.97813   -1.000
 4172.00    0.91629   0.93158   -1.000
 4173.00    0.89010   0.91363   -1.000
 4174.00    0.91182   0.93362   -1.000
 4175.00    0.96339   0.96460  296.948
 4176.00    0.96371   0.97765   -1.000
 4177.00    0.94839   0.98181   -1.000
 4178.00    0.95120   0.99179   -1.000
 4179.00    0.97444   1.00513   -1.000
 4180.00    0.97341   1.01239   -1.000
 4181.00    0.98780   1.00576   -1.000
 4182.00    0.98249   1.00255   -1.000
 4183.00    1.00119   1.02438   -1.000
 4184.00    1.05332   1.04468  267.877
 4185.00    1.06207   1.04598   -1.000
 4186.00    1.01413   1.01865  259.728
 4187.00    0.96760   0.99112   -1.000
 4188.00    0.98157   0.99504   -1.000
 4189.00    1.00803   1.01424  276.073
 4190.00    1.00487   1.02936   -1.000
 4191.00    1.00351   1.04123   -1.000
 4192.00    1.01950   1.05720   -1.000
 4193.00    1.04654   1.06938   -1.000
 4194.00    1.03756   1.05694   -1.000
 4195.00    0.99606   1.00941   -1.000
 4196.00    0.94455   0.96517   -1.000
 4197.00    0.91033   0.93457   -1.000
 4198.00    0.91671   0.92630   -1.000
 4199.00    0.93838   0.92569  289.451
 4200.00    0.96149   0.93214   -1.000
 4201.00    0.96540   0.93907   -1.000
 4202.00    0.96413   0.94982   -1.000
 4203.00    0.96838   0.97441  280.522
 4204.00    0.99768   1.01082   -1.000
 4205.00    1.00941   1.04315   -1.000
 4206.00    1.04301   1.06880   -1.000
 4207.00    1.06909   1.09134   -1.000
 4208.00    1.07540   1.09553   -1.000
 4209.00    1.08207   1.08735  255.248
 4210.00    1.07944   1.08121  254.877
 4211.00    1.06917   1.08586   -1.000
 4212.00    1.07091   1.09247   -1.000
 4213.00    1.06540   1.06939  253.707
 4214.00    1.02773   1.02198  257.540
 4215.00    0.97765   0.99394   -1.000
 4216.00    0.98139   1.00348   -1.000
 4217.00    1.05573   1.06572   -1.000
 4218.00    1.13084   1.11926  266.985
 4219.00    1.16672   1.15562  251.475
 4220.00    1.17670   1.16149  241.873
 4221.00    1.16949   1.14462   -1.000
 4222.00    1.13077   1.09430   -1.000
 4223.00    1.06872   1.01789   -1.000
 4224.00    0.97516   0.90979   -1.000
 4225.00    0.85682   0.81418   -1.000
 4226.00    0.75950   0.75751  303.598
 4227.00    0.75312   0.79576   -1.000
 4228.00    0.86459   0.90317   -1.000
 4229.00    1.01220   1.03349   -1.000
 4230.00    1.10331   1.09725  278.058
 4231.00    1.12629   1.10778  254.577
 4232.00    1.11375   1.08443   -1.000
 4233.00    1.09125   1.05478   -1.000
 4234.00    1.06607   1.02638   -1.000
 4235.00    1.04069   1.01372   -1.000
 4236.00    1.02325   1.00813  261.153
 4237.00    1.02377   1.01520  266.998
 4238.00    1.03141   1.03667  269.568
 4239.00    1.04665   1.06465   -1.000
 4240.00    1.07976   1.09021   -1.000
 4241.00    1.11681   1.11488  256.287
 4242.00    1.13859   1.13400  251.771
 4243.00    1.15357   1.15667  249.177
 4244.00    1.18343   1.18064  247.122
 4245.00    1.19537   1.18021  242.430
 4246.00    1.14755   1.13895  239.714
 4247.00    1.09378   1.08316  245.197
 4248.00    1.05581   1.03017   -1.000
 4249.00    1.02142   1.00669   -1.000
 4250.00    1.00344   1.00690  270.214
 4251.00    1.01829   1.03367   -1.000
 4252.00    1.04854   1.05214  268.779
 4253.00    1.04977   1.04459  260.813
 4254.00    1.03560   1.02831  256.262
 4255.00    1.04199   1.03941  259.791
 4256.00    1.08900   1.08526  263.779
 4257.00    1.13131   1.10624   -1.000
 4258.00    1.11316   1.06912   -1.000
 4259.00    1.04692   1.01046   -1.000
 4260.00    0.99369   0.97751   -1.000
 4261.00    1.01289   1.01362  275.644
 4262.00    1.07954   1.08848   -1.000
 4263.00    1.15007   1.16768   -1.000
 4264.00    1.19605   1.20557   -1.000
 4265.00    1.21074   1.20857  238.486
 4266.00    1.21076   1.19125   -1.000
 4267.00    1.17779   1.15844   -1.000
 4268.00    1.12176   1.10461   -1.000
 4269.00    1.05766   1.04163   -1.000
 4270.00    0.98757   0.96343   -1.000
 4271.00    0.92759   0.90938   -1.000
 4272.00    0.89150   0.88779  286.959
 4273.00    0.90539   0.90805  300.122
 4274.00    0.94696   0.94679  299.611
 4275.00    0.99224   1.00274   -1.000
 4276.00    1.04980   1.07188   -1.000
 4277.00    1.11751   1.14013   -1.000
 4278.00    1.14675   1.15431  252.232
 4279.00    1.12019   1.12904  244.229
 4280.00    1.09464   1.09037  247.815
 4281.00    1.07195   1.08219   -1.000
 4282.00    1.06895   1.09817   -1.000
 4283.00    1.09313   1.10263   -1.000
 4284.00    1.08712   1.09164  260.519
 4285.00    1.05482   1.07027   -1.000
 4286.00    1.03907   1.05278   -1.000
 4287.00    1.01966   1.03270   -1.000
 4288.00    0.99116   0.99374  278.431
 4289.00    0.94370   0.94437  284.291
 4290.00    0.91874   0.92815   -1.000
 4291.00    0.95438   0.96236   -1.000
 4292.00    1.01905   1.02280  302.287
 4293.00    1.05990   1.05198  285.197
 4294.00    1.06233   1.04607   -1.000
 4295.00    1.05387   1.02607   -1.000
 4296.00    1.03046   0.99942   -1.000
 4297.00    0.97086   0.94894   -1.000
 4298.00    0.90320   0.88484   -1.000
 4299.00    0.84341   0.82421   -1.000
 4300.00    0.79815   0.80095  329.084
 4301.00    0.79524   0.80860   -1.000
 4302.00    0.82748   0.82935  346.499
 4303.00    0.85769   0.84485   -1.000
 4304.00    0.87496   0.85619   -1.000
 4305.00    0.86410   0.85115   -1.000
 4306.00    0.83821   0.81924   -1.000
 4307.00    0.79513   0.77811   -1.000
 4308.00    0.76524   0.75597   -1.000
 4309.00    0.77491   0.77428  359.389
 4310.00    0.81796   0.82256  363.101
 4311.00    0.86857   0.88630   -1.000
 4312.00    0.94629   0.94324  330.778
 4313.00    1.01052   1.00394  310.484
 4314.00    1.06327   1.08949   -1.000
 4315.00    1.16195   1.18405   -1.000
 4316.00    1.24990   1.28310   -1.000
 4317.00    1.31408   1.33543   -1.000
 4318.00    1.32989   1.33934   -1.000
 4319.00    1.32000   1.31217  220.605
 4320.00    1.27991   1.27953  221.903
 4321.00    1.24167   1.22849  225.979
 4322.00    1.19459   1.15691   -1.000
 4323.00    1.10016   1.05446   -1.000
 4324.00    0.99031   0.95877   -1.000
 4325.00    0.92272   0.92443  274.962
 4326.00    0.95603   0.98769   -1.000
 4327.00    1.06737   1.10697   -1.000
 4328.00    1.20341   1.22643   -1.000
 4329.00    1.25776   1.27283   -1.000
 4330.00    1.26573   1.27698   -1.000
 4331.00    1.25932   1.27086   -1.000
 4332.00    1.26898   1.28420   -1.000
 4333.00    1.29221   1.30547   -1.000
 4334.00    1.32209   1.31358  225.828
 4335.00    1.32485   1.28921   -1.000
 4336.00    1.28184   1.21287   -1.000
 4337.00    1.16288   1.09998   -1.000
 4338.00    1.06183   0.97642   -1.000
 4339.00    0.97918   0.91004   -1.000
 4340.00    0.94758   0.90331   -1.000
 4341.00    0.99061   0.96161   -1.000
 4342.00    1.08020   1.05629   -1.000
 4343.00    1.15551   1.14487  289.000
 4344.00    1.21188   1.19671  263.328
 4345.00    1.23653   1.23232  249.833
 4346.00    1.25697   1.25959  242.582
 4347.00    1.28477   1.28948  236.726
 4348.00    1.30466   1.31611   -1.000
 4349.00    1.31115   1.30265  230.472
 4350.00    1.26346   1.23097   -1.000
 4351.00    1.16056   1.14879  231.958
 4352.00    1.10441   1.10687  246.737
 4353.00    1.13427   1.14123  261.379
 4354.00    1.20160   1.20305  260.156
 4355.00    1.23943   1.25569   -1.000
 4356.00    1.27983   1.28030  238.265
 4357.00    1.29538   1.28460  231.762
 4358.00    1.27834   1.26716  228.410
 4359.00    1.26680   1.25552  230.090
 4360.00    1.26787   1.27560  234.769
 4361.00    1.28873   1.31052   -1.000
 4362.00    1.33496   1.34229  229.802
 4363.00    1.35512   1.36128  223.900
 4364.00    1.35793   1.37529   -1.000
 4365.00    1.38098   1.37390  220.794
 4366.00    1.35883   1.33891   -1.000
 4367.00    1.29579   1.28480  220.663
 4368.00    1.25703   1.25798  228.218
 4369.00    1.25999   1.25450  235.069
 4370.00    1.27777   1.25847   -1.000
 4371.00    1.29006   1.25086   -1.000
 4372.00    1.26267   1.22290   -1.000
 4373.00    1.22529   1.17653   -1.000
 4374.00    1.16660   1.12830   -1.000
 4375.00    1.14555   1.12444   -1.000
 4376.00    1.18848   1.16950   -1.000
 4377.00    1.25837   1.23849   -1.000
 4378.00    1.30488   1.27298   -1.000
 4379.00    1.30559   1.26683   -1.000
 4380.00    1.28040   1.22200   -1.000
 4381.00    1.21964   1.13481   -1.000
 4382.00    1.10626   1.00765   -1.000
 4383.00    0.97681   0.91161   -1.000
 4384.00    0.91761   0.89818   -1.000
 4385.00    0.98689   0.98019  304.702
 4386.00    1.12567   1.09580   -1.000
 4387.00    1.20099   1.15811   -1.000
 4388.00    1.20474   1.16882   -1.000
 4389.00    1.19001   1.15869   -1.000
 4390.00    1.17687   1.15939   -1.000
 4391.00    1.18658   1.17630  246.003
 4392.00    1.22628   1.19927   -1.000
 4393.00    1.24099   1.20815   -1.000
 4394.00    1.22267   1.20186   -1.000
 4395.00    1.22526   1.21636  239.277
 4396.00    1.26236   1.26435  243.166
 4397.00    1.32574   1.30262   -1.000
 4398.00    1.33907   1.29812   -1.000
 4399.00    1.28493   1.25124   -1.000
 4400.00    1.24012   1.22051   -1.000
 4401.00    1.23312   1.21601   -1.000
 4402.00    1.25297   1.20675   -1.000
 4403.00    1.23032   1.15919   -1.000
 4404.00    1.14565   1.09099   -1.000
 4405.00    1.10018   1.06586   -1.000
 4406.00    1.12715   1.10188   -1.000
 4407.00    1.17234   1.14505   -1.000
 4408.00    1.19777   1.18505  250.477
 4409.00    1.22924   1.23588  247.479
 4410.00    1.31122   1.30680  243.401
 4411.00    1.37056   1.36640  233.389
 4412.00    1.37873   1.36559  223.887
 4413.00    1.35848   1.31013   -1.000
 4414.00    1.29688   1.23726   -1.000
 4415.00    1.22301   1.18039   -1.000
 4416.00    1.22258   1.19447   -1.000
 4417.00    1.26094   1.25842  243.487
 4418.00    1.33015   1.33389  239.710
 4419.00    1.36893   1.37601  230.555
 4420.00    1.37643   1.37708  221.688
 4421.00    1.34251   1.33773  217.495
 4422.00    1.28868   1.29922  220.286
 4423.00    1.26860   1.28939   -1.000
 4424.00    1.28550   1.30181   -1.000
 4425.00    1.30406   1.31381  227.003
 4426.00    1.29287   1.31511   -1.000
 4427.00    1.28919   1.32165   -1.000
 4428.00    1.28661   1.32567   -1.000
 4429.00    1.28052   1.32227   -1.000
 4430.00    1.26017   1.31363   -1.000
 4431.00    1.27631   1.31502   -1.000
 4432.00    1.28744   1.31931   -1.000
 4433.00    1.26383   1.28941   -1.000
 4434.00    1.21501   1.23933   -1.000
 4435.00    1.20317   1.21957   -1.000
 4436.00    1.24106   1.26112   -1.000
 4437.00    1.31673   1.35184   -1.000
 4438.00    1.38779   1.41743   -1.000
 4439.00    1.42773   1.43394  218.370
 4440.00    1.40613   1.38779   -1.000
 4441.00    1.33709   1.32271  213.117
 4442.00    1.27391   1.27397  221.145
 4443.00    1.25304   1.27949   -1.000
 4444.00    1.30592   1.33502   -1.000
 4445.00    1.37390   1.40108   -1.000
 4446.00    1.41963   1.44137   -1.000
 4447.00    1.43530   1.44548  218.993
 4448.00    1.43493   1.43968  216.139
 4449.00    1.41991   1.43740   -1.000
 4450.00    1.40182   1.42835   -1.000
 4451.00    1.38568   1.41450   -1.000
 4452.00    1.38756   1.39087  221.128
 4453.00    1.36444   1.34579   -1.000
 4454.00    1.30252   1.27651   -1.000
 4455.00    1.24921   1.23784  232.376
 4456.00    1.23492   1.23866  241.859
 4457.00    1.26525   1.25712  244.326
 4458.00    1.28241   1.26570   -1.000
 4459.00    1.26356   1.25629  236.442
 4460.00    1.24939   1.24615  237.090
 4461.00    1.23857   1.25019  238.667
 4462.00    1.25852   1.28013   -1.000
 4463.00    1.30270   1.32949   -1.000
 4464.00    1.36481   1.37019  235.326
 4465.00    1.38490   1.38535  226.684
 4466.00    1.38887   1.37995  222.727
 4467.00    1.39464   1.36602   -1.000
 4468.00    1.38831   1.35147   -1.000
 4469.00    1.36162   1.34384   -1.000
 4470.00    1.35522   1.35897  230.398
 4471.00    1.37510   1.40602   -1.000
 4472.00    1.44019   1.45379   -1.000
 4473.00    1.48129   1.49158  218.603
 4474.00    1.50078   1.50964  211.388
 4475.00    1.50645   1.52042   -1.000
 4476.00    1.51473   1.54049   -1.000
 4477.00    1.53747   1.55325   -1.000
 4478.00    1.53423   1.52827  203.787
 4479.00    1.48272   1.46154   -1.000
 4480.00    1.39154   1.38413  206.600
 4481.00    1.34178   1.35040  215.004
 4482.00    1.35650   1.37376   -1.000
 4483.00    1.41245   1.44614   -1.000
 4484.00    1.49885   1.51691   -1.000
 4485.00    1.54319   1.56417   -1.000
 4486.00    1.54538   1.56449   -1.000
 4487.00    1.53750   1.52383  203.502
 4488.00    1.48794   1.45772   -1.000
 4489.00    1.41594   1.41732  210.653
 4490.00    1.39791   1.42093   -1.000
 4491.00    1.44756   1.45711  221.417
 4492.00    1.48461   1.48314  217.806
 4493.00    1.48018   1.46011   -1.000
 4494.00    1.43136   1.41696   -1.000
 4495.00    1.36825   1.39344   -1.000
 4496.00    1.39029   1.41537   -1.000
 4497.00    1.45553   1.46575  224.184
 4498.00    1.50066   1.50792  220.156
 4499.00    1.53121   1.52507  212.585
 4500.00    1.53018   1.51539  207.528
 4501.00    1.49888   1.51133  206.618
 4502.00    1.51101   1.53629   -1.000
 4503.00    1.55461   1.57912   -1.000
 4504.00    1.58702   1.62184   -1.000
 4505.00    1.61396   1.63866   -1.000
 4506.00    1.60350   1.62490   -1.000
 4507.00    1.59973   1.60120  196.054
 4508.00    1.57604   1.58984   -1.000
 4509.00    1.59963   1.59466  201.232
 4510.00    1.60023   1.60338  200.929
 4511.00    1.59573   1.59842  199.323
 4512.00    1.57054   1.57109  198.599
 4513.00    1.53090   1.53871  200.940
 4514.00    1.52104   1.51746  204.979
 4515.00    1.51703   1.51065  208.108
 4516.00    1.52323   1.51484  208.774
 4517.00    1.50619   1.51342  207.802
 4518.00    1.49010   1.51060   -1.000
 4519.00    1.50658   1.52685   -1.000
 4520.00    1.57336   1.55298   -1.000
 4521.00    1.59185   1.56564   -1.000
 4522.00    1.54836   1.55160  203.721
 4523.00    1.50922   1.51976  205.470
 4524.00    1.48454   1.48847  210.447
 4525.00    1.44913   1.45546  214.157
 4526.00    1.40392   1.40969  216.216
 4527.00    1.35048   1.35671  220.568
 4528.00    1.31192   1.31711  227.413
 4529.00    1.32412   1.31299  233.046
 4530.00    1.35667   1.33949   -1.000
 4531.00    1.38420   1.37629  232.255
 4532.00    1.41075   1.39792  228.013
 4533.00    1.41278   1.38760   -1.000
 4534.00    1.36647   1.36343  225.005
 4535.00    1.35487   1.36120  232.018
 4536.00    1.39380   1.41316   -1.000
 4537.00    1.48912   1.49185  231.834
 4538.00    1.56726   1.54686   -1.000
 4539.00    1.56495   1.55182   -1.000
 4540.00    1.53499   1.52484  202.856
 4541.00    1.52707   1.50541   -1.000
 4542.00    1.53031   1.51026   -1.000
 4543.00    1.54424   1.52079   -1.000
 4544.00    1.52631   1.51879  207.686
 4545.00    1.49886   1.50298  220.397
 4546.00    1.49827   1.49153  214.984
 4547.00    1.35890   1.48615   -1.000
 4548.00    0.41951   1.47021   -1.000
 4549.00   -0.01876   1.45141    0.000
 4550.00    0.19371   1.45110   -1.000
 4551.00    1.06234   1.47376   -1.000
 4552.00    0.71689   1.48786   -1.000
 4553.00    0.95071   1.47262   -1.000
 4554.00    1.54573   1.45290   -1.000
 4555.00    1.46766   1.45423  221.143
 4556.00    1.51894   1.49275   -1.000
 4557.00    1.57258   1.55339   -1.000
 4558.00    1.61343   1.60024   -1.000
 4559.00    1.62556   1.62022  201.600
 4560.00    1.61731   1.62800  199.187
 4561.00    1.61310   1.62340  200.291
 4562.00    1.59775   1.60432  200.133
 4563.00    1.56472   1.56275  201.088
 4564.00    1.51224   1.52144  206.087
 4565.00    1.49239   1.50811  210.947
 4566.00    1.53750   1.53406  213.337
 4567.00    1.60013   1.58201   -1.000
 4568.00    1.64574   1.61945   -1.000
 4569.00    1.65271   1.61979   -1.000
 4570.00    1.59452   1.59167  198.727
 4571.00    1.53039   1.55596   -1.000
 4572.00    1.53198   1.54355  206.977
 4573.00    1.56986   1.57060  211.132
 4574.00    1.62338   1.60755   -1.000
 4575.00    1.65215   1.62322   -1.000
 4576.00    1.64049   1.61913   -1.000
 4577.00    1.63111   1.60519   -1.000
 4578.00    1.57697   1.57639  201.660
 4579.00    1.53572   1.53253  203.258
 4580.00    1.51513   1.49104   -1.000
 4581.00    1.49822   1.47640   -1.000
 4582.00    1.51855   1.48792   -1.000
 4583.00    1.51997   1.50431   -1.000
 4584.00    1.50724   1.51014  212.546
 4585.00    1.50624   1.50635  211.452
 4586.00    1.51119   1.51245  212.319
 4587.00    1.55586   1.54581  212.913
 4588.00    1.60260   1.58988  209.267
 4589.00    1.62681   1.61499  203.829
 4590.00    1.62145   1.61143  200.273
 4591.00    1.57769   1.58446  200.742
 4592.00    1.54166   1.55029  203.994
 4593.00    1.53675   1.52928  207.803
 4594.00    1.52505   1.52495  210.828
 4595.00    1.53442   1.52385   -1.000
 4596.00    1.53909   1.52597   -1.000
 4597.00    1.54883   1.53631   -1.000
 4598.00    1.55101   1.54789  206.717
 4599.00    1.55601   1.55206  206.280
 4600.00    1.56667   1.54868   -1.000
 4601.00    1.54263   1.54420  208.155
 4602.00    1.53909   1.54682  209.803
 4603.00    1.55931   1.55254  209.834
 4604.00    1.58610   1.55301   -1.000
 4605.00    1.59550   1.55515   -1.000
 4606.00    1.58892   1.57327   -1.000
 4607.00    1.62670   1.61267   -1.000
 4608.00    1.68255   1.65856   -1.000
 4609.00    1.70540   1.69306  198.411
 4610.00    1.70066   1.69526  194.474
 4611.00    1.68201   1.67189  192.811
 4612.00    1.66930   1.64547   -1.000
 4613.00    1.65219   1.63102   -1.000
 4614.00    1.66125   1.63678   -1.000
 4615.00    1.66801   1.65456   -1.000
 4616.00    1.66691   1.66601  198.443
 4617.00    1.66097   1.66849  196.799
 4618.00    1.66672   1.66410  196.412
 4619.00    1.67584   1.65974   -1.000
 4620.00    1.67675   1.66374  199.062
 4621.00    1.69948   1.67709   -1.000
 4622.00    1.70276   1.68814   -1.000
 4623.00    1.69988   1.68579   -1.000
 4624.00    1.70336   1.67532   -1.000
 4625.00    1.69664   1.66887   -1.000
 4626.00    1.68189   1.66283   -1.000
 4627.00    1.67620   1.66032   -1.000
 4628.00    1.68263   1.66156   -1.000
 4629.00    1.67298   1.66392  196.974
 4630.00    1.66800   1.66973  198.188
 4631.00    1.68867   1.67903  198.333
 4632.00    1.69521   1.67766   -1.000
 4633.00    1.66265   1.66040  195.210
 4634.00    1.64401   1.63880  196.570
 4635.00    1.64500   1.62797   -1.000
 4636.00    1.63436   1.61739   -1.000
 4637.00    1.61644   1.59886   -1.000
 4638.00    1.58108   1.58032  203.102
 4639.00    1.57126   1.57116  205.563
 4640.00    1.60416   1.58057   -1.000
 4641.00    1.64025   1.60781   -1.000
 4642.00    1.66773   1.63441   -1.000
 4643.00    1.68546   1.64008   -1.000
 4644.00    1.63952   1.61407   -1.000
 4645.00    1.59684   1.57070   -1.000
 4646.00    1.56373   1.51930   -1.000
 4647.00    1.52936   1.49031   -1.000
 4648.00    1.53898   1.50217   -1.000
 4649.00    1.56945   1.54406   -1.000
 4650.00    1.60219   1.59568  206.615
 4651.00    1.64149   1.63515  202.028
 4652.00    1.66587   1.64776   -1.000
 4653.00    1.65298   1.63752   -1.000
 4654.00    1.60335   1.60939  199.498
 4655.00    1.57555   1.58448  202.371
 4656.00    1.59622   1.58677  206.853
 4657.00    1.62185   1.62371  208.464
 4658.00    1.69588   1.68625  205.708
 4659.00    1.74999   1.74043  198.701
 4660.00    1.77961   1.75907   -1.000
 4661.00    1.76416   1.73556   -1.000
 4662.00    1.72378   1.69440   -1.000
 4663.00    1.66760   1.65237   -1.000
 4664.00    1.63448   1.61987   -1.000
 4665.00    1.59360   1.57754   -1.000
 4666.00    1.55200   1.51717   -1.000
 4667.00    1.49267   1.46311   -1.000
 4668.00    1.43159   1.45026  213.153
 4669.00    1.49443   1.49409  220.749
 4670.00    1.58329   1.56365   -1.000
 4671.00    1.64939   1.61593   -1.000
 4672.00    1.67481   1.63911   -1.000
 4673.00    1.68449   1.63793   -1.000
 4674.00    1.66325   1.63982   -1.000
 4675.00    1.64521   1.65477  198.129
 4676.00    1.69616   1.67542   -1.000
 4677.00    1.73168   1.67474   -1.000
 4678.00    1.69320   1.64638   -1.000
 4679.00    1.63664   1.60871   -1.000
 4680.00    1.59933   1.57649   -1.000
 4681.00    1.58317   1.56524   -1.000
 4682.00    1.60358   1.57627   -1.000
 4683.00    1.64912   1.60477   -1.000
 4684.00    1.68043   1.63094   -1.000
 4685.00    1.68456   1.64126   -1.000
 4686.00    1.69330   1.63866   -1.000
 4687.00    1.68718   1.62914   -1.000
 4688.00    1.66906   1.62310   -1.000
 4689.00    1.67733   1.62101   -1.000
 4690.00    1.68259   1.62072   -1.000
 4691.00    1.66168   1.61773   -1.000
 4692.00    1.66510   1.62029   -1.000
 4693.00    1.68594   1.63661   -1.000
 4694.00    1.70678   1.66051   -1.000
 4695.00    1.75677   1.68069   -1.000
 4696.00    1.76419   1.68583   -1.000
 4697.00    1.72945   1.66252   -1.000
 4698.00    1.66689   1.61915   -1.000
 4699.00    1.62493   1.58210   -1.000
 4700.00    1.61320   1.56708   -1.000
 4701.00    1.63203   1.55602   -1.000
 4702.00    1.62415   1.54423   -1.000
 4703.00    1.59762   1.54489   -1.000
 4704.00    1.61525   1.56659   -1.000
 4705.00    1.65488   1.59272   -1.000
 4706.00    1.64911   1.59697   -1.000
 4707.00    1.64033   1.57887   -1.000
 4708.00    1.59719   1.55958   -1.000
 4709.00    1.60074   1.56227   -1.000
 4710.00    1.61766   1.58958   -1.000
 4711.00    1.66083   1.62360   -1.000
 4712.00    1.72917   1.64349   -1.000
 4713.00    1.72582   1.63372   -1.000
 4714.00    1.67407   1.61323   -1.000
 4715.00    1.65505   1.61803   -1.000
 4716.00    1.68905   1.65146   -1.000
 4717.00    1.73748   1.69602   -1.000
 4718.00    1.77778   1.73194   -1.000
 4719.00    1.80588   1.75344   -1.000
 4720.00    1.78876   1.76230   -1.000
 4721.00    1.77038   1.75718  190.395
 4722.00    1.75435   1.74163   -1.000
 4723.00    1.75720   1.73757   -1.000
 4724.00    1.78219   1.75065   -1.000
 4725.00    1.79883   1.75096   -1.000
 4726.00    1.75348   1.71909   -1.000
 4727.00    1.67119   1.65571   -1.000
 4728.00    1.58297   1.59122  195.692
 4729.00    1.56798   1.56479  202.957
 4730.00    1.60865   1.57394   -1.000
 4731.00    1.63684   1.60409   -1.000
 4732.00    1.66296   1.63655   -1.000
 4733.00    1.69661   1.66569   -1.000
 4734.00    1.72573   1.68131   -1.000
 4735.00    1.72049   1.67945   -1.000
 4736.00    1.70060   1.67209   -1.000
 4737.00    1.69991   1.67129   -1.000
 4738.00    1.70894   1.68553   -1.000
 4739.00    1.72258   1.70641   -1.000
 4740.00    1.72172   1.71241  195.315
 4741.00    1.70394   1.70567  195.680
 4742.00    1.70085   1.70887  196.777
 4743.00    1.73022   1.71745   -1.000
 4744.00    1.76020   1.72231   -1.000
 4745.00    1.75301   1.73285   -1.000
 4746.00    1.76645   1.74825   -1.000
 4747.00    1.79783   1.76521   -1.000
 4748.00    1.78694   1.77770  192.027
 4749.00    1.78558   1.78392  190.226
 4750.00    1.78694   1.78670  189.992
 4751.00    1.77149   1.78185  190.302
 4752.00    1.74919   1.76439  190.555
 4753.00    1.72667   1.73865  192.105
 4754.00    1.72371   1.71520  194.273
 4755.00    1.71740   1.70272   -1.000
 4756.00    1.71106   1.70562  196.976
 4757.00    1.71640   1.71734  196.653
 4758.00    1.71880   1.73417  197.564
 4759.00    1.74856   1.75089  198.938
 4760.00    1.74267   1.75710  198.880
 4761.00    1.70562   1.73762   -1.000
 4762.00    1.67408   1.69866   -1.000
 4763.00    1.62445   1.65611   -1.000
 4764.00    1.59011   1.63211   -1.000
 4765.00    1.58384   1.61964   -1.000
 4766.00    1.60118   1.61241  208.076
 4767.00    1.62585   1.62605  207.498
 4768.00    1.69032   1.67187   -1.000
 4769.00    1.72347   1.72672  202.711
 4770.00    1.73668   1.75978   -1.000
 4771.00    1.73211   1.75485   -1.000
 4772.00    1.69969   1.73952   -1.000
 4773.00    1.71707   1.74821   -1.000
 4774.00    1.74423   1.77958   -1.000
 4775.00    1.77422   1.81262   -1.000
 4776.00    1.78755   1.82545   -1.000
 4777.00    1.78065   1.82714   -1.000
 4778.00    1.77740   1.82583   -1.000
 4779.00    1.75010   1.81521   -1.000
 4780.00    1.73405   1.79685   -1.000
 4781.00    1.73243   1.78036   -1.000
 4782.00    1.70818   1.76171   -1.000
 4783.00    1.67416   1.74030   -1.000
 4784.00    1.69851   1.72751   -1.000
 4785.00    1.70088   1.72614   -1.000
 4786.00    1.68917   1.72093   -1.000
 4787.00    1.68437   1.70987   -1.000
 4788.00    1.67859   1.70902   -1.000
 4789.00    1.68030   1.71416   -1.000
 4790.00    1.70009   1.72181   -1.000
 4791.00    1.71826   1.73874   -1.000
 4792.00    1.73731   1.77175   -1.000
 4793.00    1.78424   1.81726   -1.000
 4794.00    1.82924   1.86521   -1.000
 4795.00    1.86542   1.89437   -1.000
 4796.00    1.85765   1.89354   -1.000
 4797.00    1.79428   1.86131   -1.000
 4798.00    1.75602   1.81296   -1.000
 4799.00    1.73270   1.77174   -1.000
 4800.00    1.71595   1.76413   -1.000
 4801.00    1.75983   1.79028   -1.000
 4802.00    1.82109   1.83411  197.308
 4803.00    1.83295   1.86504   -1.000
 4804.00    1.80900   1.85603   -1.000
 4805.00    1.75970   1.82353   -1.000
 4806.00    1.72707   1.79122   -1.000
 4807.00    1.72971   1.77549   -1.000
 4808.00    1.72620   1.77155   -1.000
 4809.00    1.74645   1.78242   -1.000
 4810.00    1.76956   1.80214   -1.000
 4811.00    1.77815   1.82051   -1.000
 4812.00    1.76850   1.82779   -1.000
 4813.00    1.76402   1.82817   -1.000
 4814.00    1.79184   1.83133   -1.000
 4815.00    1.79202   1.84292   -1.000
 4816.00    1.81677   1.86214   -1.000
 4817.00    1.82074   1.88250   -1.000
 4818.00    1.84140   1.90022   -1.000
 4819.00    1.85942   1.91009   -1.000
 4820.00    1.83469   1.91172   -1.000
 4821.00    1.83841   1.89578   -1.000
 4822.00    1.80335   1.85406   -1.000
 4823.00    1.76479   1.80035   -1.000
 4824.00    1.74630   1.76815   -1.000
 4825.00    1.77040   1.77773  198.496
 4826.00    1.80797   1.81762  197.650
 4827.00    1.80732   1.83938   -1.000
 4828.00    1.79356   1.83234   -1.000
 4829.00    1.77190   1.81610   -1.000
 4830.00    1.77064   1.80436   -1.000
 4831.00    1.75124   1.78915   -1.000
 4832.00    1.72802   1.77196   -1.000
 4833.00    1.74731   1.77440   -1.000
 4834.00    1.78532   1.79814  197.606
 4835.00    1.82678   1.82967  194.295
 4836.00    1.82466   1.84284   -1.000
 4837.00    1.80921   1.83968   -1.000
 4838.00    1.79147   1.82491   -1.000
 4839.00    1.75810   1.79791   -1.000
 4840.00    1.74337   1.77354   -1.000
 4841.00    1.74170   1.76609   -1.000
 4842.00    1.74669   1.76908   -1.000
 4843.00    1.76298   1.77244  198.351
 4844.00    1.77924   1.78648  197.289
 4845.00    1.81324   1.81948  195.756
 4846.00    1.85089   1.84729  193.692
 4847.00    1.83251   1.84538  190.730
 4848.00    1.78537   1.81380   -1.000
 4849.00    1.78395   1.79384  194.247
 4850.00    1.79733   1.80558  196.887
 4851.00    1.78842   1.82429   -1.000
 4852.00    1.79231   1.83201   -1.000
 4853.00    1.80155   1.81316  193.558
 4854.00    1.75847   1.76551  194.778
 4855.00    1.68268   1.70426   -1.000
 4856.00    1.66524   1.67309  202.837
 4857.00    1.70484   1.67583   -1.000
 4858.00    1.67616   1.66992  207.281
 4859.00    1.58731   1.60116  205.585
 4860.00    1.46187   1.45356  212.339
 4861.00    1.35720   1.33456   -1.000
 4862.00    1.36717   1.31247   -1.000
 4863.00    1.48550   1.41080   -1.000
 4864.00    1.60712   1.53867   -1.000
 4865.00    1.66259   1.63154   -1.000
 4866.00    1.71598   1.69094   -1.000
 4867.00    1.72883   1.72941  208.063
 4868.00    1.73954   1.74588  203.942
 4869.00    1.72888   1.73858  202.252
 4870.00    1.68605   1.69419  201.581
 4871.00    1.58937   1.62738   -1.000
 4872.00    1.59951   1.58261   -1.000
 4873.00    1.65250   1.61243   -1.000
 4874.00    1.71247   1.68516   -1.000
 4875.00    1.72444   1.73404  205.788
 4876.00    1.73113   1.75832   -1.000
 4877.00    1.74299   1.77552   -1.000
 4878.00    1.77419   1.80601   -1.000
 4879.00    1.78696   1.83922   -1.000
 4880.00    1.79319   1.85509   -1.000
 4881.00    1.77057   1.84099   -1.000
 4882.00    1.74498   1.80946   -1.000
 4883.00    1.74936   1.79195   -1.000
 4884.00    1.75957   1.78302   -1.000
 4885.00    1.69698   1.75395   -1.000
 4886.00    1.66079   1.71819   -1.000
 4887.00    1.67281   1.70948   -1.000
 4888.00    1.69945   1.71612  205.123
 4889.00    1.69243   1.70515  203.972
 4890.00    1.65620   1.66491  203.896
 4891.00    1.62271   1.62613  207.142
 4892.00    1.66477   1.65585  211.530
 4893.00    1.76491   1.75331  209.502
 4894.00    1.87528   1.87487  200.738
 4895.00    1.94703   1.95838  191.489
 4896.00    1.94710   1.99175   -1.000
 4897.00    1.93992   1.99061   -1.000
 4898.00    1.93767   1.97022   -1.000
 4899.00    1.88916   1.93580   -1.000
 4900.00    1.84773   1.90258   -1.000
 4901.00    1.86340   1.88710   -1.000
 4902.00    1.85386   1.87682   -1.000
 4903.00    1.83193   1.86119   -1.000
 4904.00    1.82685   1.85709   -1.000
 4905.00    1.87388   1.88613  194.720
 4906.00    1.91662   1.93493  192.328
 4907.00    1.91054   1.94491   -1.000
 4908.00    1.86604   1.90523   -1.000
 4909.00    1.80046   1.84212   -1.000
 4910.00    1.76937   1.78573  193.711
 4911.00    1.77804   1.77048   -1.000
 4912.00    1.80177   1.79720  201.440
 4913.00    1.84440   1.84633  198.546
 4914.00    1.88314   1.88814  194.941
 4915.00    1.91914   1.91996  192.307
 4916.00    1.91874   1.92577  189.839
 4917.00    1.86331   1.87951  188.290
 4918.00    1.75840   1.76600  189.498
 4919.00    1.64088   1.63962  196.515
 4920.00    1.58267   1.55147   -1.000
 4921.00    1.62557   1.55988   -1.000
 4922.00    1.70350   1.63531   -1.000
 4923.00    1.76133   1.71437   -1.000
 4924.00    1.78938   1.75293   -1.000
 4925.00    1.78949   1.77448   -1.000
 4926.00    1.83619   1.81881   -1.000
 4927.00    1.89350   1.87716   -1.000
 4928.00    1.91637   1.92233  192.910
 4929.00    1.93236   1.95909   -1.000
 4930.00    1.96258   1.98258  187.867
 4931.00    1.95204   1.97661  186.602
 4932.00    1.90274   1.93490   -1.000
 4933.00    1.84424   1.87183   -1.000
 4934.00    1.82518   1.82480  192.930
 4935.00    1.83192   1.82661  199.845
 4936.00    1.84390   1.83830   -1.000
 4937.00    1.80492   1.80933  196.332
 4938.00    1.73697   1.74451  196.500
 4939.00    1.72786   1.70785   -1.000
 4940.00    1.78807   1.74981   -1.000
 4941.00    1.88147   1.83697   -1.000
 4942.00    1.92928   1.92183  198.479
 4943.00    1.93801   1.96130   -1.000
 4944.00    1.95352   1.96908  188.789
 4945.00    1.93760   1.95706  187.172
 4946.00    1.91806   1.94351   -1.000
 4947.00    1.93838   1.94741  188.766
 4948.00    1.96292   1.97053  189.086
 4949.00    1.97157   1.99771   -1.000
 4950.00    1.99347   2.00940  185.087
 4951.00    2.00677   2.01052  184.582
 4952.00    1.97416   2.00001   -1.000
 4953.00    1.96056   1.98423  184.866
 4954.00    1.93949   1.96331  186.170
 4955.00    1.87305   1.91413   -1.000
 4956.00    1.78237   1.81683   -1.000
 4957.00    1.68489   1.69060  196.095
 4958.00    1.66990   1.64390   -1.000
 4959.00    1.74729   1.72418   -1.000
 4960.00    1.88225   1.84590   -1.000
 4961.00    1.94616   1.93924  197.292
 4962.00    1.92317   1.96298   -1.000
 4963.00    1.91203   1.95135   -1.000
 4964.00    1.87778   1.92118   -1.000
 4965.00    1.82487   1.87505   -1.000
 4966.00    1.80539   1.83041   -1.000
 4967.00    1.78935   1.81666   -1.000
 4968.00    1.79899   1.82112   -1.000
 4969.00    1.81705   1.83212  200.973
 4970.00    1.81213   1.85251   -1.000
 4971.00    1.84529   1.88142   -1.000
 4972.00    1.88897   1.91771   -1.000
 4973.00    1.92521   1.95119   -1.000
 4974.00    1.92872   1.96651   -1.000
 4975.00    1.90981   1.96479   -1.000
 4976.00    1.88506   1.94894   -1.000
 4977.00    1.87955   1.91685   -1.000
 4978.00    1.84396   1.87838   -1.000
 4979.00    1.78855   1.84878   -1.000
 4980.00    1.77278   1.82196   -1.000
 4981.00    1.73799   1.77860   -1.000
 4982.00    1.67137   1.70921   -1.000
 4983.00    1.64156   1.64286  211.285
 4984.00    1.66516   1.63592   -1.000
 4985.00    1.71627   1.68161   -1.000
 4986.00    1.79039   1.75939   -1.000
 4987.00    1.85216   1.83233   -1.000
 4988.00    1.87585   1.88422  200.886
 4989.00    1.85925   1.88702   -1.000
 4990.00    1.83875   1.86176   -1.000
 4991.00    1.83604   1.84590  199.335
 4992.00    1.83630   1.85066  201.344
 4993.00    1.85217   1.86616  201.356
 4994.00    1.85785   1.87435  199.502
 4995.00    1.86199   1.88030  198.695
 4996.00    1.87571   1.89642  198.620
 4997.00    1.88139   1.90510   -1.000
 4998.00    1.85558   1.88192   -1.000
 4999.00    1.81522   1.83399  197.865
 5000.00    1.76112   1.77485  200.576
 5001.00    1.75689   1.74809  204.681
 5002.00    1.76853   1.74974   -1.000
 5003.00    1.77024   1.75997   -1.000
 5004.00    1.77734   1.75065   -1.000
 5005.00    1.73685   1.71208   -1.000
 5006.00    1.69041   1.67379   -1.000
 5007.00    1.72359   1.67876   -1.000
 5008.00    1.80955   1.74524   -1.000
 5009.00    1.84612   1.81413   -1.000
 5010.00    1.82632   1.83870  201.567
 5011.00    1.78435   1.80641  199.541
 5012.00    1.74430   1.73856   -1.000
 5013.00    1.64292   1.67454   -1.000
 5014.00    1.64370   1.64188  216.427
 5015.00    1.67827   1.65953   -1.000
 5016.00    1.72800   1.69327   -1.000
 5017.00    1.76615   1.71619   -1.000
 5018.00    1.74967   1.72019   -1.000
 5019.00    1.76198   1.73090   -1.000
 5020.00    1.78827   1.75675   -1.000
 5021.00    1.77759   1.76708   -1.000
 5022.00    1.76471   1.76149  205.777
 5023.00    1.77320   1.76806  206.767
 5024.00    1.80618   1.80010  207.211
 5025.00    1.82676   1.83447  205.979
 5026.00    1.81401   1.84071   -1.000
 5027.00    1.79661   1.81741  202.419
 5028.00    1.79755   1.80636  203.451
 5029.00    1.83735   1.82557   -1.000
 5030.00    1.88719   1.86686   -1.000
 5031.00    1.91126   1.91266  198.608
 5032.00    1.93914   1.95304  195.801
 5033.00    1.96693   1.97846  192.604
 5034.00    1.94353   1.96310  190.407
 5035.00    1.86277   1.90212   -1.000
 5036.00    1.78634   1.83309   -1.000
 5037.00    1.77856   1.80614   -1.000
 5038.00    1.78164   1.79285  208.254
 5039.00    1.71418   1.74766   -1.000
 5040.00    1.62854   1.66398   -1.000
 5041.00    1.59398   1.59672  220.042
 5042.00    1.65267   1.62542   -1.000
 5043.00    1.77891   1.73335   -1.000
 5044.00    1.89069   1.86620   -1.000
 5045.00    1.94153   1.96058  204.077
 5046.00    1.96575   2.00154   -1.000
 5047.00    1.95244   1.98536   -1.000
 5048.00    1.93488   1.92284   -1.000
 5049.00    1.57116   1.84418   -1.000
 5050.00    0.34493   1.79452   -1.000
 5051.00    0.07675   1.78602   -1.000
 5052.00    0.24245   1.80409   -1.000
 5053.00    1.81099   1.84997   -1.000
 5054.00    1.98773   1.91237   -1.000
 5055.00    1.97033   1.95796   -1.000
 5056.00    1.97580   1.97675  192.292
 5057.00    1.97158   1.98511  190.493
 5058.00    1.98136   1.99040  189.901
 5059.00    1.97893   2.00344   -1.000
 5060.00    1.99207   2.02365   -1.000
 5061.00    2.00753   2.04435   -1.000
 5062.00    2.00465   2.04415   -1.000
 5063.00    1.94919   1.99887   -1.000
 5064.00    1.85713   1.91913   -1.000
 5065.00    1.81518   1.84714   -1.000
 5066.00    1.82747   1.82919  204.706
 5067.00    1.83927   1.84149  206.989
 5068.00    1.86294   1.85759  204.391
 5069.00    1.88064   1.87279  201.278
 5070.00    1.90469   1.89360   -1.000
 5071.00    1.90914   1.90141  199.720
 5072.00    1.88906   1.88689  198.392
 5073.00    1.89698   1.87144   -1.000
 5074.00    1.90725   1.87969   -1.000
 5075.00    1.92100   1.89668   -1.000
 5076.00    1.92911   1.90667   -1.000
 5077.00    1.91356   1.90065   -1.000
 5078.00    1.86480   1.86094  197.142
 5079.00    1.78297   1.78296  199.094
 5080.00    1.72238   1.70962   -1.000
 5081.00    1.73348   1.70946   -1.000
 5082.00    1.77545   1.75150   -1.000
 5083.00    1.80125   1.79079   -1.000
 5084.00    1.85267   1.82646   -1.000
 5085.00    1.90086   1.86587   -1.000
 5086.00    1.92601   1.90093   -1.000
 5087.00    1.94040   1.92329   -1.000
 5088.00    1.94127   1.93268   -1.000
 5089.00    1.95044   1.94190   -1.000
 5090.00    1.96281   1.95251   -1.000
 5091.00    1.96129   1.96758  194.907
 5092.00    1.97997   1.99205  193.836
 5093.00    2.02546   2.01848  192.833
 5094.00    2.02896   2.02841  190.590
 5095.00    1.98974   2.00077  188.881
 5096.00    1.93651   1.94248  190.642
 5097.00    1.88134   1.87090   -1.000
 5098.00    1.83014   1.81129   -1.000
 5099.00    1.80058   1.77888   -1.000
 5100.00    1.83169   1.80838   -1.000
 5101.00    1.89492   1.87414   -1.000
 5102.00    1.93408   1.93533  203.431
 5103.00    1.94622   1.94787  197.515
 5104.00    1.92271   1.92872  195.811
 5105.00    1.89215   1.90556  196.986
 5106.00    1.87709   1.87921  199.604
 5107.00    1.86614   1.85025   -1.000
 5108.00    1.86785   1.82669   -1.000
 5109.00    1.83994   1.81288   -1.000
 5110.00    1.86586   1.82310   -1.000
 5111.00    1.88157   1.85486   -1.000
 5112.00    1.92179   1.90258   -1.000
 5113.00    1.94824   1.93923   -1.000
 5114.00    1.95005   1.96042  198.623
 5115.00    1.97208   1.97996  196.203
 5116.00    1.99697   2.00347  194.436
 5117.00    2.01819   2.02573  193.398
 5118.00    2.03544   2.03819  191.349
 5119.00    2.03213   2.02851  189.748
 5120.00    2.00375   1.99761  190.318
 5121.00    1.95910   1.95236  192.824
 5122.00    1.89718   1.90016  195.733
 5123.00    1.82606   1.84243  198.970
 5124.00    1.79033   1.79898  204.109
 5125.00    1.81119   1.78809   -1.000
 5126.00    1.83006   1.80335   -1.000
 5127.00    1.82802   1.81729   -1.000
 5128.00    1.84208   1.81943   -1.000
 5129.00    1.85039   1.82290   -1.000
 5130.00    1.85557   1.83769   -1.000
 5131.00    1.88386   1.86818   -1.000
 5132.00    1.91431   1.90050   -1.000
 5133.00    1.94489   1.92419   -1.000
 5134.00    1.95896   1.94267   -1.000
 5135.00    1.96583   1.95734   -1.000
 5136.00    1.97273   1.95666   -1.000
 5137.00    1.92990   1.91751   -1.000
 5138.00    1.87845   1.85436   -1.000
 5139.00    1.84454   1.82414   -1.000
 5140.00    1.86425   1.82942   -1.000
 5141.00    1.86782   1.84409   -1.000
 5142.00    1.85772   1.83969   -1.000
 5143.00    1.83854   1.83029   -1.000
 5144.00    1.85486   1.84682   -1.000
 5145.00    1.87571   1.86821   -1.000
 5146.00    1.85144   1.85069  205.924
 5147.00    1.83965   1.82655   -1.000
 5148.00    1.85998   1.82747   -1.000
 5149.00    1.88882   1.84993   -1.000
 5150.00    1.87664   1.86218   -1.000
 5151.00    1.85270   1.84445   -1.000
 5152.00    1.82833   1.82138   -1.000
 5153.00    1.82370   1.81283   -1.000
 5154.00    1.83064   1.82202  211.630
 5155.00    1.87911   1.85674   -1.000
 5156.00    1.95410   1.91293   -1.000
 5157.00    2.00606   1.96837   -1.000
 5158.00    2.03979   2.00144   -1.000
 5159.00    2.04073   2.01391   -1.000
 5160.00    2.04696   2.01123   -1.000
 5161.00    2.04854   1.99545   -1.000
 5162.00    2.00930   1.96441   -1.000
 5163.00    1.96291   1.91902   -1.000
 5164.00    1.89760   1.85500   -1.000
 5165.00    1.77840   1.75740   -1.000
 5166.00    1.60505   1.60348  205.484
 5167.00    1.43233   1.43586  222.409
 5168.00    1.39568   1.38684  245.714
 5169.00    1.50566   1.45476   -1.000
 5170.00    1.59575   1.54981   -1.000
 5171.00    1.53792   1.52758   -1.000
 5172.00    1.38220   1.40819   -1.000
 5173.00    1.35040   1.36986   -1.000
 5174.00    1.50939   1.47040   -1.000
 5175.00    1.71775   1.66843   -1.000
 5176.00    1.82950   1.81586   -1.000
 5177.00    1.87165   1.87756  213.463
 5178.00    1.89825   1.89728  205.338
 5179.00    1.88361   1.89592  202.937
 5180.00    1.83993   1.86143   -1.000
 5181.00    1.71872   1.76199   -1.000
 5182.00    1.53670   1.57856   -1.000
 5183.00    1.36081   1.40926   -1.000
 5184.00    1.34720   1.34564  253.137
 5185.00    1.50668   1.47360   -1.000
 5186.00    1.74255   1.68273   -1.000
 5187.00    1.89518   1.83593   -1.000
 5188.00    1.92247   1.90236   -1.000
 5189.00    1.95424   1.92343   -1.000
 5190.00    1.96259   1.91603   -1.000
 5191.00    1.89387   1.86207   -1.000
 5192.00    1.82703   1.78061   -1.000
 5193.00    1.81279   1.74598   -1.000
 5194.00    1.82475   1.78149   -1.000
 5195.00    1.85502   1.81552   -1.000
 5196.00    1.90159   1.84468   -1.000
 5197.00    1.95185   1.88450   -1.000
 5198.00    1.99363   1.93345   -1.000
 5199.00    2.03000   1.97662   -1.000
 5200.00    2.04621   1.99916   -1.000
 5201.00    2.03172   1.99835   -1.000
 5202.00    1.98711   1.97052   -1.000
 5203.00    1.94483   1.91898   -1.000
 5204.00    1.87852   1.83754   -1.000
 5205.00    1.80236   1.75230   -1.000
 5206.00    1.76854   1.69246   -1.000
 5207.00    1.75212   1.67366   -1.000
 5208.00    1.73807   1.67519   -1.000
 5209.00    1.74336   1.69028   -1.000
 5210.00    1.81572   1.74635   -1.000
 5211.00    1.92020   1.84662   -1.000
 5212.00    1.99472   1.94445   -1.000
 5213.00    2.06969   2.01175   -1.000
 5214.00    2.07563   2.01157   -1.000
 5215.00    2.01667   1.96551   -1.000
 5216.00    1.97628   1.91509   -1.000
 5217.00    1.98465   1.91254   -1.000
 5218.00    2.03837   1.96198   -1.000
 5219.00    2.09375   2.02258   -1.000
 5220.00    2.10350   2.06920   -1.000
 5221.00    2.11155   2.08695   -1.000
 5222.00    2.11807   2.07399   -1.000
 5223.00    2.06063   2.02358   -1.000
 5224.00    1.95392   1.94109   -1.000
 5225.00    1.86296   1.82838   -1.000
 5226.00    1.79935   1.72800   -1.000
 5227.00    1.79412   1.69895   -1.000
 5228.00    1.88927   1.76864   -1.000
 5229.00    2.00704   1.89422   -1.000
 5230.00    2.08644   2.00690   20.470
 5231.00    2.08184   2.02922   19.623
 5232.00    2.04548   1.98818   19.263
 5233.00    2.02575   1.92257   19.226
 5234.00    2.02552   1.90009   19.606
 5235.00    2.02708   1.94467   19.959
 5236.00    2.08994   2.01496   19.926
 5237.00    2.15349   2.08533   19.478
 5238.00    2.17521   2.11757   19.011
 5239.00    2.16129   2.12052   18.791
 5240.00    2.13248   2.11314   18.769
 5241.00    2.15375   2.10594   18.828
 5242.00    2.14364   2.09995   18.797
 5243.00    2.13389   2.10584   18.687
 5244.00    2.16652   2.12117   18.712
 5245.00    2.16108   2.11842   18.676
 5246.00    2.08463   2.07027   18.646
 5247.00    2.00785   1.99952   19.008
 5248.00    2.00182   1.96034   19.601
 5249.00    2.01404   1.95005   20.064
 5250.00    1.98961   1.94382   20.127
 5251.00    1.99146   1.94700   20.163
 5252.00    2.03846   1.97479   20.290
 5253.00    2.05351   1.99685   20.201
 5254.00    2.03958   1.99606   19.925
 5255.00    2.04806   1.99232   19.725
 5256.00    2.09725   2.02643   19.722
 5257.00    2.17634   2.10888   19.586
 5258.00    2.22096   2.16975   19.137
 5259.00    2.22377   2.18161   18.620
 5260.00    2.17464   2.13842   18.445
 5261.00    2.07963   2.05202   18.607
 5262.00    1.97867   1.93957   19.108
 5263.00    1.89028   1.83201   19.911
 5264.00    1.83453   1.74137   20.857
 5265.00    1.80373   1.69745   21.591
 5266.00    1.81519   1.70181   22.047
 5267.00    1.85993   1.73903   22.120
 5268.00    1.84364   1.73745   21.749
 5269.00    1.76942   1.66753   21.360
 5270.00    1.73470   1.62235   21.793
 5271.00    1.83903   1.67758   -1.000
 5272.00    1.97394   1.82648   -1.000
 5273.00    2.05376   1.93771   21.028
 5274.00    2.07000   1.94773   20.111
 5275.00    2.05006   1.94482   19.881
 5276.00    2.08812   1.97666   19.885
 5277.00    2.16538   2.05876   19.842
 5278.00    2.23499   2.14186   19.473
 5279.00    2.22803   2.16261   18.816
 5280.00    2.17410   2.12521   18.452
 5281.00    2.13646   2.05696   18.547
 5282.00    2.09212   1.99499   18.982
 5283.00    2.05757   1.95447   19.478
 5284.00    2.07470   1.97367   19.840
 5285.00    2.16166   2.05290   19.949
 5286.00    2.25414   2.16279   19.565
 5287.00    2.30537   2.22032   18.972
 5288.00    2.26962   2.22922   18.374
 5289.00    2.25939   2.22964   18.216
 5290.00    2.28374   2.23872   18.305
 5291.00    2.28741   2.24819   18.307
 5292.00    2.30792   2.23839   18.204
 5293.00    2.30082   2.21636   18.162
 5294.00    2.25520   2.19746   18.262
 5295.00    2.20584   2.15880   18.433
 5296.00    2.13225   2.07408   18.675
 5297.00    2.03441   1.97668   19.171
 5298.00    1.99309   1.92127   19.901
 5299.00    2.05197   1.95164   20.448
 5300.00    2.12841   2.01944   20.351
 5301.00    2.16108   2.05903   19.849
 5302.00    2.18288   2.08606   19.471
 5303.00    2.23566   2.13239   19.336
 5304.00    2.30417   2.20141   19.105
 5305.00    2.33416   2.25707   18.601
 5306.00    2.31025   2.25653   18.251
 5307.00    2.29240   2.23255   18.190
 5308.00    2.27570   2.22307   18.358
 5309.00    2.30597   2.24243   18.520
 5310.00    2.34985   2.27281   18.413
 5311.00    2.35291   2.27803   18.221
 5312.00    2.32004   2.26253   18.101
 5313.00    2.29933   2.24248   18.112
 5314.00    2.29468   2.22184   18.211
 5315.00    2.28621   2.19942   18.291
 5316.00    2.26670   2.17378   18.421
 5317.00    2.25241   2.15766   18.602
 5318.00    2.28045   2.16887   18.768
 5319.00    2.29091   2.18587   18.783
 5320.00    2.29530   2.19004   18.650
 5321.00    2.28035   2.18225   18.567
 5322.00    2.24213   2.15785   18.627
 5323.00    2.20516   2.11012   18.756
 5324.00    2.17229   2.05951   18.973
 5325.00    2.14583   2.02430   19.300
 5326.00    2.10923   1.97443   19.489
 5327.00    2.00790   1.86526   -1.000
 5328.00    1.90124   1.76561   19.994
 5329.00    1.90936   1.75441   -1.000
 5330.00    2.04023   1.88832   -1.000
 5331.00    2.16433   2.03950   -1.000
 5332.00    2.20942   2.11720   19.952
 5333.00    2.24613   2.14283   19.277
 5334.00    2.28203   2.16707   19.053
 5335.00    2.29717   2.20441   18.872
 5336.00    2.31118   2.22725   18.654
 5337.00    2.28940   2.21582   18.565
 5338.00    2.25939   2.18167   18.674
 5339.00    2.20642   2.11671   18.796
 5340.00    2.12784   2.04280   18.997
 5341.00    2.13087   2.00927   19.462
 5342.00    2.16901   2.06190   19.815
 5343.00    2.23633   2.13172   19.682
 5344.00    2.26543   2.16615   19.168
 5345.00    2.25823   2.15996   18.812
 5346.00    2.25610   2.13890   18.791
 5347.00    2.22985   2.12028   18.908
 5348.00    2.22494   2.10083   19.030
 5349.00    2.20569   2.08427   19.125
 5350.00    2.22300   2.10589   19.293
 5351.00    2.28524   2.16300   19.348
 5352.00    2.31869   2.21574   19.069
 5353.00    2.35244   2.25283   18.633
 5354.00    2.38256   2.27485   18.387
 5355.00    2.42143   2.30581   18.319
 5356.00    2.41365   2.33607   18.181
 5357.00    2.42006   2.34461   17.953
 5358.00    2.42471   2.34049   17.812
 5359.00    2.41585   2.33025   17.818
 5360.00    2.37548   2.30753   17.846
 5361.00    2.33953   2.26980   17.909
 5362.00    2.30357   2.23485   18.110
 5363.00    2.28806   2.20643   18.409
 5364.00    2.27725   2.18381   18.683
 5365.00    2.24890   2.16448   18.823
 5366.00    2.23178   2.15014   18.933
 5367.00    2.24845   2.15131   19.047
 5368.00    2.24372   2.14303   19.000
 5369.00    2.18011   2.08654   18.994
 5370.00    2.10536   1.99954   19.174
 5371.00    2.08169   1.93810   -1.000
 5372.00    2.13504   1.96502   -1.000
 5373.00    2.24568   2.07935   -1.000
 5374.00    2.34667   2.19414   -1.000
 5375.00    2.37785   2.26761   18.736
 5376.00    2.37832   2.27765   18.249
 5377.00    2.37152   2.26581   18.094
 5378.00    2.37204   2.26029   18.137
 5379.00    2.37740   2.26272   18.149
 5380.00    2.35081   2.25753   18.182
 5381.00    2.32265   2.23311   18.283
 5382.00    2.29360   2.20489   18.459
 5383.00    2.27987   2.19048   18.642
 5384.00    2.31327   2.20017   18.740
 5385.00    2.35630   2.22690   18.734
 5386.00    2.36858   2.25017   18.650
 5387.00    2.36653   2.25261   18.457
 5388.00    2.34192   2.22835   18.408
 5389.00    2.28608   2.18967   18.484
 5390.00    2.25088   2.14682   18.657
 5391.00    2.22795   2.12066   18.936
 5392.00    2.22546   2.10922   19.155
 5393.00    2.24215   2.10805   -1.000
 5394.00    2.22972   2.10815   19.264
 5395.00    2.21221   2.08988   19.319
 5396.00    2.15852   2.04415   19.457
 5397.00    2.13292   2.00003   -1.000
 5398.00    2.16100   2.01379   -1.000
 5399.00    2.23305   2.07770   -1.000
 5400.00    2.27934   2.14382   -1.000
 5401.00    2.29897   2.17715   19.015
 5402.00    2.28545   2.17847   18.869
 5403.00    2.22885   2.13455   18.896
 5404.00    2.14492   2.04519   19.039
 5405.00    2.07679   1.94413   -1.000
 5406.00    2.07211   1.91473   -1.000
 5407.00    2.12125   1.97514   -1.000
 5408.00    2.17403   2.03273   -1.000
 5409.00    2.16930   2.05251   19.955
 5410.00    2.16661   2.03875   19.762
 5411.00    2.21989   2.06815   -1.000
 5412.00    2.29121   2.14897   -1.000
 5413.00    2.32556   2.20243   19.342
 5414.00    2.33355   2.21703   18.885
 5415.00    2.33597   2.21929   18.669
 5416.00    2.35675   2.24349   18.666
 5417.00    2.38328   2.28243   18.677
 5418.00    2.37578   2.29019   18.548
 5419.00    2.34841   2.26476   18.427
 5420.00    2.32012   2.23874   18.488
 5421.00    2.30703   2.22579   18.665
 5422.00    2.31438   2.22729   18.784
 5423.00    2.30697   2.21244   18.722
 5424.00    2.28182   2.18295   18.646
 5425.00    2.29046   2.19775   18.880
 5426.00    2.34482   2.25540   19.064
 5427.00    2.36518   2.29314   18.890
 5428.00    2.30899   2.25320   18.576
 5429.00    2.23073   2.14417   18.603
 5430.00    2.20472   2.08246   19.084
 5431.00    2.23109   2.09709   -1.000
 5432.00    2.25743   2.13341   19.781
 5433.00    2.23560   2.12960   19.452
 5434.00    2.18434   2.08051   19.411
 5435.00    2.18185   2.05796   19.668
 5436.00    2.22268   2.08981   -1.000
 5437.00    2.28270   2.16711   19.855
 5438.00    2.35198   2.25874   19.484
 5439.00    2.41265   2.32343   18.955
 5440.00    2.46085   2.35921   18.546
 5441.00    2.46455   2.36793   18.277
 5442.00    2.45104   2.37135   18.118
 5443.00    2.42267   2.36072   18.078
 5444.00    2.36729   2.31115   18.075
 5445.00    2.29347   2.21657   18.250
 5446.00    2.20055   2.10212   18.713
 5447.00    2.14690   2.05231   19.467
 5448.00    2.20180   2.09106   20.128
 5449.00    2.27818   2.18503   20.052
 5450.00    2.32945   2.26862   19.440
 5451.00    2.33989   2.28694   18.885
 5452.00    2.32315   2.27081   18.675
 5453.00    2.29060   2.22655   18.665
 5454.00    2.22483   2.15136   18.812
 5455.00    2.17403   2.07054   19.228
 5456.00    2.17928   2.05469   19.776
 5457.00    2.25001   2.12410   20.220
 5458.00    2.32669   2.24276   19.992
 5459.00    2.36134   2.29930   19.326
 5460.00    2.34863   2.28862   18.782
 5461.00    2.30344   2.23790   18.640
 5462.00    2.26416   2.17845   18.833
 5463.00    2.24864   2.14718   19.180
 5464.00    2.26805   2.16012   19.451
 5465.00    2.31796   2.20466   19.571
 5466.00    2.34502   2.23705   19.358
 5467.00    2.35014   2.25544   19.127
 5468.00    2.35747   2.26524   19.025
 5469.00    2.35055   2.26211   18.826
 5470.00    2.33618   2.24461   18.733
 5471.00    2.30539   2.22502   18.887
 5472.00    2.30017   2.20903   19.085
 5473.00    2.30244   2.19549   19.166
 5474.00    2.28622   2.17147   19.260
 5475.00    2.24122   2.12282   19.448
 5476.00    2.16703   2.06504   19.719
 5477.00    2.15779   2.03262   -1.000
 5478.00    2.22380   2.08916   -1.000
 5479.00    2.29445   2.17003   -1.000
 5480.00    2.29490   2.19103   19.731
 5481.00    2.25355   2.15961   19.329
 5482.00    2.23717   2.12611   19.428
 5483.00    2.28827   2.15977   -1.000
 5484.00    2.35683   2.23500   19.658
 5485.00    2.38530   2.28529   19.340
 5486.00    2.35430   2.28479   18.946
 5487.00    2.31239   2.23703   18.759
 5488.00    2.27941   2.20218   18.908
 5489.00    2.28528   2.19775   19.176
 5490.00    2.31150   2.22704   19.306
 5491.00    2.33632   2.25437   19.318
 5492.00    2.35126   2.26313   19.195
 5493.00    2.34935   2.25735   19.054
 5494.00    2.37089   2.24996   18.976
 5495.00    2.37113   2.25365   19.008
 5496.00    2.35340   2.24974   19.020
 5497.00    2.34082   2.23102   19.018
 5498.00    2.34585   2.23452   19.142
 5499.00    2.38142   2.26504   19.280
 5500.00    2.37256   2.27116   19.201
 5501.00    2.33874   2.23977   18.991
 5502.00    2.32905   2.19626   19.103
 5503.00    2.33055   2.18466   -1.000
 5504.00    2.32514   2.20149   19.465
 5505.00    2.30843   2.19352   19.321
 5506.00    2.28250   2.16631   19.266
 5507.00    2.27910   2.15781   19.497
 5508.00    2.32296   2.18686   -1.000
 5509.00    2.36115   2.23516   19.561
 5510.00    2.34464   2.24234   19.255
 5511.00    2.29652   2.20284   19.146
 5512.00    2.26055   2.14946   19.253
 5513.00    2.23024   2.11160   19.607
 5514.00    2.22001   2.11870   19.941
 5515.00    2.27532   2.14949   -1.000
 5516.00    2.33581   2.19071   -1.000
 5517.00    2.37638   2.23323   -1.000
 5518.00    2.41131   2.27911   -1.000
 5519.00    2.44164   2.31894   18.939
 5520.00    2.44345   2.33574   18.619
 5521.00    2.46995   2.32570   -1.000
 5522.00    2.45727   2.31793   -1.000
 5523.00    2.43579   2.31738   18.604
 5524.00    2.41374   2.31564   18.666
 5525.00    2.39258   2.29516   18.702
 5526.00    2.35319   2.24167   18.805
 5527.00    2.27543   2.17414   19.045
 5528.00    2.23598   2.11890   19.467
 5529.00    2.28194   2.13542   -1.000
 5530.00    2.34378   2.20377   -1.000
 5531.00    2.38568   2.27094   19.751
 5532.00    2.37635   2.29392   19.231
 5533.00    2.36345   2.27855   18.950
 5534.00    2.34568   2.25836   18.959
 5535.00    2.34145   2.24500   19.125
 5536.00    2.35673   2.24424   19.230
 5537.00    2.37918   2.25538   19.182
 5538.00    2.40197   2.27248   -1.000
 5539.00    2.43182   2.29297   -1.000
 5540.00    2.46854   2.32461   -1.000
 5541.00    2.47594   2.34371   -1.000
 5542.00    2.44732   2.33511   18.568
 5543.00    2.43282   2.30613   18.558
 5544.00    2.41210   2.28618   18.730
 5545.00    2.41000   2.28496   18.923
 5546.00    2.43027   2.29298   -1.000
 5547.00    2.44658   2.30771   -1.000
 5548.00    2.48263   2.33943   -1.000
 5549.00    2.50695   2.37350   -1.000
 5550.00    2.51326   2.38953   18.612
 5551.00    2.51475   2.38738   18.452
 5552.00    2.48645   2.36957   18.396
 5553.00    2.45541   2.33867   18.478
 5554.00    2.43391   2.31184   18.634
 5555.00    2.42096   2.30737   18.843
 5556.00    2.43606   2.31649   18.951
 5557.00    2.45059   2.32534   18.935
 5558.00    2.45889   2.32348   -1.000
 5559.00    2.46404   2.32396   -1.000
 5560.00    2.45424   2.32873   18.817
 5561.00    2.44897   2.32104   18.797
 5562.00    2.42560   2.29623   18.829
 5563.00    2.40831   2.27598   -1.000
 5564.00    2.38904   2.26561   19.102
 5565.00    2.39893   2.26388   -1.000
 5566.00    2.39433   2.25718   -1.000
 5567.00    2.40384   2.24857   -1.000
 5568.00    2.40695   2.24636   -1.000
 5569.00    2.41865   2.25064   -1.000
 5570.00    2.41137   2.26012   -1.000
 5571.00    2.40721   2.26515   -1.000
 5572.00    2.40049   2.25994   -1.000
 5573.00    2.39295   2.25194   -1.000
 5574.00    2.41630   2.25845   -1.000
 5575.00    2.40897   2.29044   19.322
 5576.00    2.18312   2.31531   19.129
 5577.00    1.68027   2.31701   -1.000
 5578.00    0.84668   2.32373   -1.000
 5579.00    0.70224   2.33891   -1.000
 5580.00    1.29578   2.34486   -1.000
 5581.00    2.18487   2.34361   19.235
 5582.00    2.82642   2.33023   -1.000
 5583.00    2.72043   2.31642   -1.000
 5584.00    2.49522   2.30609   -1.000
 5585.00    2.39762   2.26694   -1.000
 5586.00    2.32131   2.19311   19.145
 5587.00    2.26319   2.11451   -1.000
 5588.00    2.21959   2.06876   -1.000
 5589.00    2.22533   2.08296   -1.000
 5590.00    2.28847   2.12773   -1.000
 5591.00    2.33941   2.18438   -1.000
 5592.00    2.35753   2.21232   -1.000
 5593.00    2.34275   2.21780   -1.000
 5594.00    2.34622   2.22444   19.742
 5595.00    2.39952   2.25714   -1.000
 5596.00    2.43404   2.30629   -1.000
 5597.00    2.41787   2.31428   19.452
 5598.00    2.36790   2.27610   19.271
 5599.00    2.32679   2.22706   19.407
 5600.00    2.31023   2.19324   19.732
 5601.00    2.28828   2.16952   19.964
 5602.00    2.28022   2.15538   -1.000
 5603.00    2.31273   2.17564   -1.000
 5604.00    2.38439   2.24921   -1.000
 5605.00    2.46107   2.34078   19.904
 5606.00    2.49060   2.39884   19.379
 5607.00    2.50766   2.42219   18.920
 5608.00    2.52120   2.42048   18.667
 5609.00    2.51787   2.41325   18.604
 5610.00    2.52111   2.41195   18.625
 5611.00    2.52590   2.42632   18.663
 5612.00    2.52890   2.43203   18.653
 5613.00    2.47992   2.39549   18.599
 5614.00    2.39366   2.30096   18.665
 5615.00    2.32856   2.18406   -1.000
 5616.00    2.31299   2.14552   -1.000
 5617.00    2.36698   2.18723   -1.000
 5618.00    2.42275   2.26527   -1.000
 5619.00    2.43193   2.29925   -1.000
 5620.00    2.44920   2.30810   -1.000
 5621.00    2.47447   2.33150   -1.000
 5622.00    2.48044   2.34655   -1.000
 5623.00    2.44053   2.30987   -1.000
 5624.00    2.38049   2.24988   -1.000
 5625.00    2.34903   2.20378   -1.000
 5626.00    2.36636   2.22570   -1.000
 5627.00    2.41743   2.28577   -1.000
 5628.00    2.46417   2.33142   -1.000
 5629.00    2.49276   2.36780   19.207
 5630.00    2.51625   2.39728   18.978
 5631.00    2.53251   2.40855   18.827
 5632.00    2.53226   2.40099   18.762
 5633.00    2.51923   2.38311   -1.000
 5634.00    2.50202   2.35948   -1.000
 5635.00    2.47870   2.33183   -1.000
 5636.00    2.46009   2.30475   -1.000
 5637.00    2.44342   2.28491   -1.000
 5638.00    2.42525   2.28520   -1.000
 5639.00    2.43398   2.29727   -1.000
 5640.00    2.43282   2.29990   -1.000
 5641.00    2.39934   2.28713   19.359
 5642.00    2.39669   2.27482   19.412
 5643.00    2.41951   2.28756   -1.000
 5644.00    2.43288   2.30903   19.367
 5645.00    2.44309   2.32335   19.277
 5646.00    2.45865   2.33623   19.237
 5647.00    2.47739   2.34484   -1.000
 5648.00    2.47949   2.34117   -1.000
 5649.00    2.48167   2.32831   -1.000
 5650.00    2.48672   2.32440   -1.000
 5651.00    2.50109   2.33925   -1.000
 5652.00    2.51893   2.36440   -1.000
 5653.00    2.50686   2.36496   -1.000
 5654.00    2.47560   2.33961   -1.000
 5655.00    2.45144   2.31927   -1.000
 5656.00    2.44736   2.29633   -1.000
 5657.00    2.38345   2.25102   -1.000
 5658.00    2.31823   2.19215   -1.000
 5659.00    2.30864   2.16051   -1.000
 5660.00    2.36327   2.19832   -1.000
 5661.00    2.40012   2.25267   -1.000
 5662.00    2.39485   2.25516   -1.000
 5663.00    2.41503   2.25966   -1.000
 5664.00    2.45772   2.30168   -1.000
 5665.00    2.47137   2.33928   -1.000
 5666.00    2.46580   2.34658   19.284
 5667.00    2.45406   2.32436   -1.000
 5668.00    2.43710   2.30217   -1.000
 5669.00    2.43825   2.30449   -1.000
 5670.00    2.45230   2.31878   -1.000
 5671.00    2.46693   2.34035   -1.000
 5672.00    2.49795   2.37449   19.253
 5673.00    2.53747   2.41062   -1.000
 5674.00    2.55065   2.42385   18.902
 5675.00    2.54791   2.42260   18.718
 5676.00    2.55264   2.41726   -1.000
 5677.00    2.54980   2.42007   -1.000
 5678.00    2.54807   2.41839   -1.000
 5679.00    2.54433   2.40031   -1.000
 5680.00    2.52713   2.37742   -1.000
 5681.00    2.50449   2.35485   -1.000
 5682.00    2.48062   2.32185   -1.000
 5683.00    2.45998   2.29126   -1.000
 5684.00    2.46449   2.29954   -1.000
 5685.00    2.47885   2.32259   -1.000
 5686.00    2.47267   2.32155   -1.000
 5687.00    2.44857   2.30331   -1.000
 5688.00    2.45146   2.29181   -1.000
 5689.00    2.47557   2.30788   -1.000
 5690.00    2.50214   2.34769   -1.000
 5691.00    2.54379   2.38500   -1.000
 5692.00    2.56039   2.41108   -1.000
 5693.00    2.55508   2.42150   -1.000
 5694.00    2.56246   2.41714   -1.000
 5695.00    2.56282   2.40900   -1.000
 5696.00    2.55900   2.40249   -1.000
 5697.00    2.54065   2.38817   -1.000
 5698.00    2.49586   2.36093   -1.000
 5699.00    2.46527   2.33295   -1.000
 5700.00    2.44731   2.31274   -1.000
 5701.00    2.42641   2.29035   -1.000
 5702.00    2.41190   2.28092   -1.000
 5703.00    2.43794   2.30670   -1.000
 5704.00    2.48163   2.33218   -1.000
 5705.00    2.45505   2.33107   -1.000
 5706.00    2.40895   2.29913   19.292
 5707.00    2.36766   2.24886   19.396
 5708.00    2.33617   2.21465   -1.000
 5709.00    2.32041   2.19153   -1.000
 5710.00    2.33058   2.18308   -1.000
 5711.00    2.35310   2.19883   -1.000
 5712.00    2.38350   2.23358   -1.000
 5713.00    2.44492   2.29565   -1.000
 5714.00    2.49774   2.36231   -1.000
 5715.00    2.54132   2.39213   -1.000
 5716.00    2.55861   2.40708   -1.000
 5717.00    2.57789   2.41904   -1.000
 5718.00    2.57899   2.42717   -1.000
 5719.00    2.57878   2.43837   -1.000
 5720.00    2.59342   2.45641   -1.000
 5721.00    2.60985   2.47548   -1.000
 5722.00    2.62954   2.49173   -1.000
 5723.00    2.63722   2.50203   -1.000
 5724.00    2.62592   2.50346   18.492
 5725.00    2.60615   2.48397   18.468
 5726.00    2.58787   2.44682   -1.000
 5727.00    2.54925   2.41525   -1.000
 5728.00    2.54108   2.41767   18.833
 5729.00    2.58733   2.44506   -1.000
 5730.00    2.59338   2.44859   -1.000
 5731.00    2.57441   2.42994   -1.000
 5732.00    2.57032   2.41995   -1.000
 5733.00    2.58769   2.44083   -1.000
 5734.00    2.62669   2.48266   -1.000
 5735.00    2.64379   2.49695   -1.000
 5736.00    2.62755   2.48587   -1.000
 5737.00    2.60293   2.46813   -1.000
 5738.00    2.59138   2.45750   -1.000
 5739.00    2.60232   2.46161   -1.000
 5740.00    2.61832   2.46360   -1.000
 5741.00    2.62122   2.46033   -1.000
 5742.00    2.61663   2.45258   -1.000
 5743.00    2.62397   2.45320   -1.000
 5744.00    2.63395   2.47516   -1.000
 5745.00    2.64014   2.49823   -1.000
 5746.00    2.64585   2.49846   -1.000
 5747.00    2.61064   2.46711   -1.000
 5748.00    2.57800   2.43699   -1.000
 5749.00    2.59112   2.45199   -1.000
 5750.00    2.61221   2.47863   -1.000
 5751.00    2.60697   2.48015   -1.000
 5752.00    2.55892   2.43022   -1.000
 5753.00    2.51071   2.36335   -1.000
 5754.00    2.51944   2.34674   -1.000
 5755.00    2.56227   2.38351   -1.000
 5756.00    2.59961   2.45892   -1.000
 5757.00    2.63871   2.50880   -1.000
 5758.00    2.64618   2.51977   -1.000
 5759.00    2.62712   2.49422   -1.000
 5760.00    2.59431   2.44645   -1.000
 5761.00    2.54822   2.39573   -1.000
 5762.00    2.52290   2.36400   -1.000
 5763.00    2.54027   2.37208   -1.000
 5764.00    2.57010   2.42907   -1.000
 5765.00    2.59599   2.50152   19.127
 5766.00    2.64191   2.53170   18.802
 5767.00    2.66746   2.53833   -1.000
 5768.00    2.65553   2.53574   18.461
 5769.00    2.66490   2.52801   -1.000
 5770.00    2.65285   2.51575   -1.000
 5771.00    2.63417   2.50411   -1.000
 5772.00    2.62240   2.49033   -1.000
 5773.00    2.59540   2.47564   18.588
 5774.00    2.59344   2.46793   -1.000
 5775.00    2.59264   2.46746   -1.000
 5776.00    2.58548   2.48181   18.789
 5777.00    2.59543   2.49638   18.762
 5778.00    2.59168   2.48605   18.677
 5779.00    2.53923   2.44401   18.642
 5780.00    2.45691   2.37253   18.688
 5781.00    2.37636   2.31039   18.918
 5782.00    2.33144   2.27839   19.323
 5783.00    2.32956   2.28854   19.617
 5784.00    2.36880   2.29929   19.637
 5785.00    2.41418   2.29581   -1.000
 5786.00    2.46749   2.32239   -1.000
 5787.00    2.52833   2.38461   -1.000
 5788.00    2.56947   2.43114   -1.000
 5789.00    2.59841   2.45112   -1.000
 5790.00    2.59880   2.44132   -1.000
 5791.00    2.58795   2.42853   -1.000
 5792.00    2.59803   2.43617   -1.000
 5793.00    2.62955   2.47316   -1.000
 5794.00    2.67013   2.51435   -1.000
 5795.00    2.66814   2.53413   -1.000
 5796.00    2.63474   2.52213   18.489
 5797.00    2.60728   2.48399   -1.000
 5798.00    2.59220   2.46890   -1.000
 5799.00    2.61899   2.49488   -1.000
 5800.00    2.68285   2.54666   -1.000
 5801.00    2.72686   2.58389   -1.000
 5802.00    2.73095   2.58417   -1.000
 5803.00    2.70140   2.55606   -1.000
 5804.00    2.65961   2.51076   -1.000
 5805.00    2.65339   2.48530   -1.000
 5806.00    2.66058   2.48498   -1.000
 5807.00    2.66047   2.50026   -1.000
 5808.00    2.64958   2.51569   -1.000
 5809.00    2.65984   2.52820   -1.000
 5810.00    2.67441   2.54045   -1.000
 5811.00    2.67987   2.55121   -1.000
 5812.00    2.68387   2.55076   -1.000
 5813.00    2.67159   2.53998   -1.000
 5814.00    2.65441   2.51374   -1.000
 5815.00    2.63107   2.48199   -1.000
 5816.00    2.62651   2.46003   -1.000
 5817.00    2.64140   2.48115   -1.000
 5818.00    2.68661   2.52802   -1.000
 5819.00    2.72395   2.56914   -1.000
 5820.00    2.72650   2.58385   -1.000
 5821.00    2.72956   2.57743   -1.000
 5822.00    2.72116   2.56381   -1.000
 5823.00    2.71545   2.55295   -1.000
 5824.00    2.71827   2.55438   -1.000
 5825.00    2.71346   2.55970   -1.000
 5826.00    2.71067   2.56551   -1.000
 5827.00    2.72191   2.56910   -1.000
 5828.00    2.74357   2.57371   -1.000
 5829.00    2.75014   2.58181   -1.000
 5830.00    2.75245   2.58569   -1.000
 5831.00    2.75151   2.58236   -1.000
 5832.00    2.75045   2.57568   -1.000
 5833.00    2.73949   2.56406   -1.000
 5834.00    2.72656   2.54840   -1.000
 5835.00    2.71997   2.53886   -1.000
 5836.00    2.73027   2.54641   -1.000
 5837.00    2.72946   2.55206   -1.000
 5838.00    2.71757   2.54740   -1.000
 5839.00    2.71844   2.55363   -1.000
 5840.00    2.73276   2.57442   -1.000
 5841.00    2.75990   2.59599   -1.000
 5842.00    2.77219   2.60672   -1.000
 5843.00    2.75650   2.60141   -1.000
 5844.00    2.73312   2.58613   -1.000
 5845.00    2.71125   2.56179   -1.000
 5846.00    2.68537   2.53387   -1.000
 5847.00    2.66824   2.51120   -1.000
 5848.00    2.66931   2.50531   -1.000
 5849.00    2.66414   2.51452   -1.000
 5850.00    2.65377   2.52203   -1.000
 5851.00    2.64318   2.50381   -1.000
 5852.00    2.62334   2.46856   -1.000
 5853.00    2.61409   2.44166   -1.000
 5854.00    2.60765   2.43849   -1.000
 5855.00    2.60189   2.44498   -1.000
 5856.00    2.57615   2.41994   -1.000
 5857.00    2.54165   2.36966   -1.000
 5858.00    2.55505   2.34683   -1.000
 5859.00    2.58950   2.37410   -1.000
 5860.00    2.62975   2.43402   -1.000
 5861.00    2.64960   2.46817   -1.000
 5862.00    2.64353   2.47902   -1.000
 5863.00    2.65452   2.47945   -1.000
 5864.00    2.64509   2.48541   -1.000
 5865.00    2.63881   2.48553   -1.000
 5866.00    2.63145   2.46786   -1.000
 5867.00    2.63771   2.45270   -1.000
 5868.00    2.65799   2.47501   -1.000
 5869.00    2.68596   2.51355   -1.000
 5870.00    2.70581   2.53755   -1.000
 5871.00    2.69972   2.54223   -1.000
 5872.00    2.69980   2.53035   -1.000
 5873.00    2.69079   2.52098   -1.000
 5874.00    2.70304   2.51919   -1.000
 5875.00    2.70237   2.52352   -1.000
 5876.00    2.68347   2.52079   -1.000
 5877.00    2.66497   2.50331   -1.000
 5878.00    2.64978   2.47872   -1.000
 5879.00    2.62815   2.45247   -1.000
 5880.00    2.60646   2.43510   -1.000
 5881.00    2.62302   2.43354   -1.000
 5882.00    2.62808   2.44593   -1.000
 5883.00    2.60075   2.44364   -1.000
 5884.00    2.59391   2.42755   -1.000
 5885.00    2.60162   2.42926   -1.000
 5886.00    2.56930   2.42094   -1.000
 5887.00    2.44734   2.33714   18.946
 5888.00    2.20665   2.15233   19.136
 5889.00    1.82746   1.90791   19.711
 5890.00    1.46885   1.77622   -1.000
 5891.00    1.31257   1.82127   -1.000
 5892.00    1.46060   1.99307   -1.000
 5893.00    1.81839   2.10668   -1.000
 5894.00    2.05337   2.09117   21.646
 5895.00    1.95387   1.99084   21.105
 5896.00    1.67690   1.91091   -1.000
 5897.00    1.56540   2.00085   -1.000
 5898.00    1.74083   2.16006   -1.000
 5899.00    2.09762   2.27506   -1.000
 5900.00    2.40792   2.34485   20.588
 5901.00    2.52871   2.39865   -1.000
 5902.00    2.55733   2.42914   -1.000
 5903.00    2.56911   2.44217   -1.000
 5904.00    2.58455   2.44595   -1.000
 5905.00    2.59906   2.44362   -1.000
 5906.00    2.60959   2.44240   -1.000
 5907.00    2.62308   2.45513   -1.000
 5908.00    2.64199   2.47378   -1.000
 5909.00    2.63572   2.48275   -1.000
 5910.00    2.62520   2.49145   -1.000
 5911.00    2.62671   2.49654   -1.000
 5912.00    2.60555   2.48396   18.956
 5913.00    2.57973   2.44804   -1.000
 5914.00    2.55116   2.40227   -1.000
 5915.00    2.54621   2.37937   -1.000
 5916.00    2.57651   2.39330   -1.000
 5917.00    2.59352   2.41924   -1.000
 5918.00    2.61762   2.45524   -1.000
 5919.00    2.62438   2.47977   -1.000
 5920.00    2.61000   2.48996   -1.000
 5921.00    2.60082   2.48563   19.135
 5922.00    2.59711   2.47578   -1.000
 5923.00    2.61003   2.47585   -1.000
 5924.00    2.61656   2.48916   -1.000
 5925.00    2.62029   2.50636   19.023
 5926.00    2.61245   2.51710   18.955
 5927.00    2.61362   2.51312   18.915
 5928.00    2.61697   2.48661   -1.000
 5929.00    2.60376   2.45550   -1.000
 5930.00    2.60994   2.44170   -1.000
 5931.00    2.63918   2.46642   -1.000
 5932.00    2.65083   2.49700   -1.000
 5933.00    2.63901   2.49353   -1.000
 5934.00    2.61504   2.47053   -1.000
 5935.00    2.60008   2.45671   -1.000
 5936.00    2.63024   2.47965   -1.000
 5937.00    2.66415   2.51391   -1.000
 5938.00    2.67500   2.52698   -1.000
 5939.00    2.66802   2.52297   -1.000
 5940.00    2.66340   2.49938   -1.000
 5941.00    2.65059   2.46854   -1.000
 5942.00    2.63513   2.45139   -1.000
 5943.00    2.61570   2.46719   -1.000
 5944.00    2.61549   2.49567   -1.000
 5945.00    2.63632   2.51943   19.143
 5946.00    2.64507   2.52511   -1.000
 5947.00    2.62001   2.50329   18.943
 5948.00    2.59694   2.46972   -1.000
 5949.00    2.60027   2.45398   -1.000
 5950.00    2.61082   2.47395   -1.000
 5951.00    2.61348   2.48551   -1.000
 5952.00    2.60914   2.47378   -1.000
 5953.00    2.60093   2.46213   -1.000
 5954.00    2.61891   2.47077   -1.000
 5955.00    2.63787   2.48417   -1.000
 5956.00    2.62464   2.47562   -1.000
 5957.00    2.60957   2.45664   -1.000
 5958.00    2.61304   2.46325   -1.000
 5959.00    2.63839   2.49408   -1.000
 5960.00    2.66278   2.52695   -1.000
 5961.00    2.66951   2.55127   19.095
 5962.00    2.68138   2.55819   -1.000
 5963.00    2.69649   2.55386   -1.000
 5964.00    2.69593   2.53939   -1.000
 5965.00    2.68169   2.52164   -1.000
 5966.00    2.67305   2.51186   -1.000
 5967.00    2.67928   2.52586   -1.000
 5968.00    2.68749   2.54553   -1.000
 5969.00    2.70631   2.55709   -1.000
 5970.00    2.70653   2.56809   -1.000
 5971.00    2.69288   2.57730   18.813
 5972.00    2.68664   2.57838   18.802
 5973.00    2.68601   2.57059   18.772
 5974.00    2.67557   2.55054   -1.000
 5975.00    2.64569   2.51565   -1.000
 5976.00    2.63155   2.47740   -1.000
 5977.00    2.62013   2.46196   -1.000
 5978.00    2.62860   2.46905   -1.000
 5979.00    2.63798   2.49816   -1.000
 5980.00    2.65204   2.52948   -1.000
 5981.00    2.65630   2.54279   19.150
 5982.00    2.65536   2.51727   -1.000
 5983.00    2.63485   2.46873   -1.000
 5984.00    2.60639   2.43096   -1.000
 5985.00    2.59342   2.43330   -1.000
 5986.00    2.62123   2.47400   -1.000
 5987.00    2.66854   2.50416   -1.000
 5988.00    2.69299   2.52275   -1.000
 5989.00    2.69447   2.53569   -1.000
 5990.00    2.68943   2.53801   -1.000
 5991.00    2.68684   2.53038   -1.000
 5992.00    2.69378   2.53586   -1.000
 5993.00    2.71500   2.56547   -1.000
 5994.00    2.72917   2.58839   -1.000
 5995.00    2.72400   2.58278   -1.000
 5996.00    2.70879   2.54910   -1.000
 5997.00    2.68302   2.51564   -1.000
 5998.00    2.66449   2.50099   -1.000
 5999.00    2.67218   2.51482   -1.000
 6000.00    2.68253   2.53486   -1.000
 6001.00    2.68725   2.53790   -1.000
 6002.00    2.68093   2.52628   -1.000
 6003.00    2.67393   2.50980   -1.000
 6004.00    2.66664   2.51743   -1.000
 6005.00    2.66494   2.52661   -1.000
 6006.00    2.64134   2.50135   -1.000
 6007.00    2.60568   2.45948   -1.000
 6008.00    2.60455   2.43719   -1.000
 6009.00    2.63070   2.46737   -1.000
 6010.00    2.66359   2.52695   -1.000
 6011.00    2.66740   2.54239   -1.000
 6012.00    2.65477   2.51817   -1.000
 6013.00    2.64582   2.49103   -1.000
 6014.00    2.63906   2.48637   -1.000
 6015.00    2.62952   2.49967   -1.000
 6016.00    2.63358   2.49777   -1.000
 6017.00    2.64661   2.49129   -1.000
 6018.00    2.64603   2.49647   -1.000
 6019.00    2.64672   2.48911   -1.000
 6020.00    2.64651   2.46618   -1.000
 6021.00    2.64024   2.46250   -1.000
 6022.00    2.64167   2.47712   -1.000
 6023.00    2.66345   2.49632   -1.000
 6024.00    2.69879   2.51565   -1.000
 6025.00    2.71831   2.53754   -1.000
 6026.00    2.71975   2.55683   -1.000
 6027.00    2.72118   2.56652   -1.000
 6028.00    2.72310   2.58157   -1.000
 6029.00    2.73635   2.60101   -1.000
 6030.00    2.76044   2.60700   -1.000
 6031.00    2.77328   2.60943   -1.000
 6032.00    2.77933   2.61791   -1.000
 6033.00    2.78724   2.63024   -1.000
 6034.00    2.79569   2.64484   -1.000
 6035.00    2.78452   2.65625   -1.000
 6036.00    2.77205   2.65423   -1.000
 6037.00    2.77331   2.64419   -1.000
 6038.00    2.75966   2.62915   -1.000
 6039.00    2.74168   2.61393   -1.000
 6040.00    2.73882   2.60276   -1.000
 6041.00    2.74442   2.60321   -1.000
 6042.00    2.74772   2.60753   -1.000
 6043.00    2.76038   2.61720   -1.000
 6044.00    2.77150   2.64040   -1.000
 6045.00    2.77721   2.65374   -1.000
 6046.00    2.78905   2.66031   -1.000
 6047.00    2.79308   2.66246   -1.000
 6048.00    2.78944   2.66497   -1.000
 6049.00    2.79433   2.66484   -1.000
 6050.00    2.79551   2.66606   -1.000
 6051.00    2.79050   2.66276   -1.000
 6052.00    2.79426   2.64747   -1.000
 6053.00    2.78665   2.62512   -1.000
 6054.00    2.77112   2.60511   -1.000
 6055.00    2.76062   2.58696   -1.000
 6056.00    2.73619   2.57385   -1.000
 6057.00    2.73467   2.58085   -1.000
 6058.00    2.75927   2.60187   -1.000
 6059.00    2.77318   2.62281   -1.000
 6060.00    2.78143   2.63413   -1.000
 6061.00    2.77218   2.62808   -1.000
 6062.00    2.74879   2.60528   -1.000
 6063.00    2.72302   2.56651   -1.000
 6064.00    2.68772   2.52778   -1.000
 6065.00    2.66972   2.51242   -1.000
 6066.00    2.64972   2.54496   19.143
 6067.00    2.69131   2.60477   -1.000
 6068.00    2.65299   2.65476    8.608
 6069.00    2.75152   2.67297    9.852
 6070.00    2.85224   2.67967   -1.000
 6071.00    2.81478   2.68609   -1.000
 6072.00    2.77177   2.68732   18.581
 6073.00    2.76277   2.67268   18.226
 6074.00    1.56955   2.67517   -1.000
 6075.00    1.50038   2.67373   -1.000
 6076.00    2.55362   2.65069   18.710
 6077.00    2.80294   2.61979   -1.000
 6078.00    2.73710   2.58867   -1.000
 6079.00    2.73071   2.57841   -1.000
 6080.00    2.73006   2.57664   -1.000
 6081.00    2.71925   2.56482   -1.000
 6082.00    2.71099   2.55300   -1.000
 6083.00    2.72721   2.55753   -1.000
 6084.00    2.71922   2.56574   -1.000
 6085.00    2.70059   2.57079   -1.000
 6086.00    2.71657   2.58211   -1.000
 6087.00    2.73396   2.59501   -1.000
 6088.00    2.73796   2.59741   -1.000
 6089.00    2.72541   2.58086   -1.000
 6090.00    2.69497   2.55487   -1.000
 6091.00    2.68455   2.54532   -1.000
 6092.00    2.70901   2.55381   -1.000
 6093.00    2.72935   2.57420   -1.000
 6094.00    2.74682   2.60050   -1.000
 6095.00    2.77761   2.62074   -1.000
 6096.00    2.78565   2.62430   -1.000
 6097.00    2.76445   2.62264   -1.000
 6098.00    2.75848   2.63463   -1.000
 6099.00    2.77217   2.64307   -1.000
 6100.00    2.75970   2.61487   -1.000
 6101.00    2.69735   2.54322   -1.000
 6102.00    2.62430   2.45313   -1.000
 6103.00    2.60525   2.44058   -1.000
 6104.00    2.64321   2.49717   -1.000
 6105.00    2.70838   2.56827   -1.000
 6106.00    2.74935   2.60341   -1.000
 6107.00    2.74151   2.60986   -1.000
 6108.00    2.74076   2.61797   -1.000
 6109.00    2.73837   2.63374   19.224
 6110.00    2.72835   2.63552   19.286
 6111.00    2.74873   2.62660   -1.000
 6112.00    2.76383   2.63021   -1.000
 6113.00    2.76278   2.64761   -1.000
 6114.00    2.76923   2.66282   19.157
 6115.00    2.76778   2.65454   -1.000
 6116.00    2.74583   2.63799   19.023
 6117.00    2.72997   2.63487   19.058
 6118.00    2.72428   2.62710   19.172
 6119.00    2.70512   2.59361   -1.000
 6120.00    2.66615   2.53586   -1.000
 6121.00    2.62335   2.47618   -1.000
 6122.00    2.61639   2.45293   -1.000
 6123.00    2.65155   2.49185   -1.000
 6124.00    2.70080   2.56060   -1.000
 6125.00    2.71796   2.59116   -1.000
 6126.00    2.70212   2.58980   -1.000
 6127.00    2.70036   2.57661   -1.000
 6128.00    2.70679   2.56927   -1.000
 6129.00    2.71319   2.58810   -1.000
 6130.00    2.73687   2.62560   -1.000
 6131.00    2.76906   2.65956   -1.000
 6132.00    2.77321   2.67090   19.250
 6133.00    2.75076   2.65410   19.158
 6134.00    2.70175   2.58861   -1.000
 6135.00    2.61176   2.48009   -1.000
 6136.00    2.52956   2.36805   -1.000
 6137.00    2.50321   2.34802   -1.000
 6138.00    2.55242   2.42039   -1.000
 6139.00    2.64929   2.52521   -1.000
 6140.00    2.70613   2.57385   -1.000
 6141.00    2.69817   2.56041   -1.000
 6142.00    2.70043   2.56524   -1.000
 6143.00    2.72418   2.60488   -1.000
 6144.00    2.75025   2.64433   -1.000
 6145.00    2.75319   2.65819   19.592
 6146.00    2.76204   2.64840   -1.000
 6147.00    2.74818   2.62630   -1.000
 6148.00    2.70450   2.59897   19.310
 6149.00    2.67855   2.57777   19.425
 6150.00    2.67504   2.56887   -1.000
 6151.00    2.68158   2.58164   19.686
 6152.00    2.70197   2.60006   19.728
 6153.00    2.71464   2.60487   -1.000
 6154.00    2.68419   2.58460   19.560
 6155.00    2.66230   2.56167   19.491
 6156.00    2.65818   2.55783   19.593
 6157.00    2.64135   2.55809   19.728
 6158.00    2.61767   2.54810   19.769
 6159.00    2.58158   2.50131   19.822
 6160.00    2.50200   2.40422   19.989
 6161.00    2.40506   2.29140   -1.000
 6162.00    2.34853   2.22950   -1.000
 6163.00    2.36970   2.26251   21.484
 6164.00    2.43721   2.33857   21.845
 6165.00    2.48392   2.42024   21.697
 6166.00    2.51117   2.46216   21.173
 6167.00    2.52322   2.46642   20.739
 6168.00    2.49983   2.42338   20.581
 6169.00    2.46838   2.37564   20.592
 6170.00    2.46043   2.37653   20.786
 6171.00    2.49992   2.43451   21.032
 6172.00    2.54774   2.49619   21.010
 6173.00    2.56497   2.51903   20.676
 6174.00    2.57379   2.52692   20.333
 6175.00    2.57120   2.52918   20.246
 6176.00    2.56756   2.52758   20.280
 6177.00    2.58304   2.53360   20.252
 6178.00    2.59792   2.55076   20.206
 6179.00    2.60523   2.56441   20.158
 6180.00    2.61017   2.57018   20.074
 6181.00    2.62037   2.58553   19.989
 6182.00    2.64313   2.60299   19.924
 6183.00    2.65094   2.60334   19.842
 6184.00    2.62636   2.59078   19.774
 6185.00    2.59568   2.56539   19.783
 6186.00    2.57676   2.53403   19.846
 6187.00    2.55775   2.50628   19.972
 6188.00    2.52731   2.48988   20.174
 6189.00    2.49808   2.46491   20.390
 6190.00    2.47908   2.41884   20.590
 6191.00    2.45928   2.38871   20.755
 6192.00    2.46242   2.41711   20.978
 6193.00    2.51659   2.48233   21.175
 6194.00    2.57735   2.54416   21.070
 6195.00    2.59966   2.57477   20.634
 6196.00    2.59775   2.58733   20.215
 6197.00    2.58808   2.57824   20.026
 6198.00    2.57205   2.54606   19.971
 6199.00    2.55424   2.50648   20.044
 6200.00    2.55276   2.50587   20.248
 6201.00    2.58053   2.54065   20.445
 6202.00    2.60433   2.57877   20.492
 6203.00    2.59614   2.60402   20.345
 6204.00    2.57840   2.61022   20.098
 6205.00    2.57441   2.61271   19.965
 6206.00    2.59279   2.61717   19.957
 6207.00    2.61241   2.62289   19.938
 6208.00    2.62938   2.62256   19.922
 6209.00    2.63113   2.61129   19.972
 6210.00    2.59104   2.59060   20.006
 6211.00    2.56212   2.56030   20.053
 6212.00    2.55249   2.51045   20.207
 6213.00    2.50870   2.45142   20.381
 6214.00    2.46469   2.41255   20.562
 6215.00    2.45592   2.41040   20.836
 6216.00    2.48249   2.43603   21.096
 6217.00    2.52606   2.46100   21.204
 6218.00    2.53703   2.46278   21.047
 6219.00    2.51397   2.44108   20.857
 6220.00    2.50199   2.43325   20.929
 6221.00    2.52692   2.45346   20.959
 6222.00    2.55433   2.47938   20.816
 6223.00    2.55922   2.49456   20.831
 6224.00    2.58256   2.49977   21.821
 6225.00    2.54263   2.50661   22.114
 6226.00    2.37987   2.51315   21.037
 6227.00    2.42020   2.50532   20.620
 6228.00    2.53387   2.47022   20.667
 6229.00    2.48878   2.40635   20.737
 6230.00    2.43419   2.34719   20.962
 6231.00    2.41861   2.33842   21.296
 6232.00    2.45991   2.37913   21.604
 6233.00    2.52196   2.44842   21.653
 6234.00    2.57574   2.51399   21.406
 6235.00    2.60188   2.55455   21.028
 6236.00    2.59388   2.55011   20.659
 6237.00    2.57149   2.51868   20.471
 6238.00    2.53372   2.47883   20.529
 6239.00    2.50899   2.44745   20.722
 6240.00    2.50663   2.43100   20.935
 6241.00    2.49979   2.42612   21.154
 6242.00    2.48360   2.41325   21.299
 6243.00    2.45547   2.39165   21.321
 6244.00    2.45297   2.38239   21.405
 6245.00    2.46806   2.38985   21.565
 6246.00    2.48365   2.41523   21.612
 6247.00    2.52048   2.46317   21.515
 6248.00    2.54815   2.51003   21.326
 6249.00    2.56362   2.52914   21.075
 6250.00    2.56118   2.51249   20.832
 6251.00    2.51483   2.46376   20.733
 6252.00    2.46673   2.40840   20.849
 6253.00    2.44605   2.38199   21.168
 6254.00    2.42914   2.38034   21.495
 6255.00    2.42761   2.38080   21.681
 6256.00    2.42952   2.36291   21.772
 6257.00    2.40719   2.33874   21.787
 6258.00    2.39079   2.34117   21.894
 6259.00    2.43373   2.37586   22.106
 6260.00    2.51351   2.43208   22.131
 6261.00    2.56237   2.48573   21.879
 6262.00    2.58670   2.52900   21.538
 6263.00    2.59351   2.54492   21.234
 6264.00    2.58872   2.53262   20.924
 6265.00    2.57591   2.51609   20.724
 6266.00    2.56149   2.51995   20.789
 6267.00    2.55813   2.53841   20.954
 6268.00    2.56993   2.53933   20.955
 6269.00    2.57344   2.52707   20.813
 6270.00    2.56156   2.52553   20.789
 6271.00    2.57712   2.53854   20.895
 6272.00    2.59014   2.55584   20.925
 6273.00    2.58293   2.56112   20.863
 6274.00    2.58628   2.54807   20.803
 6275.00    2.59042   2.52347   20.815
 6276.00    2.58375   2.49832   20.931
 6277.00    2.56319   2.46804   21.098
 6278.00    2.50902   2.44067   21.364
 6279.00    2.43902   2.41324   21.831
 6280.00    2.39259   2.40340   22.307
 6281.00    2.36889   2.42127   22.550
 6282.00    2.36847   2.46252   22.547
 6283.00    2.39169   2.50710   22.296
 6284.00    2.41715   2.54144   21.910
 6285.00    2.41601   2.56297   21.555
 6286.00    2.41205   2.58303   21.266
 6287.00    2.44952   2.60316   21.060
 6288.00    2.50595   2.61484   20.881
 6289.00    2.54272   2.60288   20.713
 6290.00    2.56270   2.57467   20.630
 6291.00    2.57157   2.54623   20.680
 6292.00    2.56603   2.53442   20.835
 6293.00    2.56323   2.53603   21.004
 6294.00    2.56378   2.53885   21.094
 6295.00    2.55374   2.52314   21.117
 6296.00    2.53413   2.48910   21.148
 6297.00    2.51741   2.46854   21.257
 6298.00    2.51594   2.47478   21.417
 6299.00    2.51280   2.48605   21.495
 6300.00    2.48374   2.47729   21.485
 6301.00    2.41050   2.45523   21.417
 6302.00    2.36392   2.45567   21.321
 6303.00    2.44392   2.48287   21.378
 6304.00    2.58413   2.51759   21.612
 6305.00    2.66249   2.54733   -1.000
 6306.00    2.65944   2.57604   21.327
 6307.00    2.64720   2.60550   21.025
 6308.00    2.64585   2.61992   20.816
 6309.00    2.63493   2.60961   20.636
 6310.00    2.61904   2.58737   20.531
 6311.00    2.60067   2.56848   20.576
 6312.00    2.58840   2.55829   20.700
 6313.00    2.58888   2.54780   20.810
 6314.00    2.58635   2.52359   20.889
 6315.00    2.56387   2.49843   20.939
 6316.00    2.54391   2.48739   21.049
 6317.00    2.53267   2.47526   21.191
 6318.00    2.52684   2.46835   21.209
 6319.00    2.54127   2.49479   21.187
 6320.00    2.57424   2.53936   21.194
 6321.00    2.60328   2.56633   21.168
 6322.00    2.61484   2.58375   20.986
 6323.00    2.62650   2.60505   20.748
 6324.00    2.64651   2.62803   20.616
 6325.00    2.65636   2.63990   20.550
 6326.00    2.64946   2.63895   20.458
 6327.00    2.64637   2.63614   20.369
 6328.00    2.65920   2.63901   20.337
 6329.00    2.68107   2.63900   20.279
 6330.00    2.69353   2.63578   20.237
 6331.00    2.68781   2.64749   20.262
 6332.00    2.68561   2.66237   20.274
 6333.00    2.68372   2.64929   20.241
 6334.00    2.65301   2.60181   20.184
 6335.00    2.61868   2.54404   20.201
 6336.00    2.60837   2.52183   20.258
 6337.00    2.60433   2.54108   20.532
 6338.00    2.61428   2.57571   20.810
 6339.00    2.64979   2.61133   20.709
 6340.00    2.68855   2.64139   20.505
 6341.00    2.70188   2.64642   20.286
 6342.00    2.68395   2.62329   20.128
 6343.00    2.66282   2.59161   20.037
 6344.00    2.65203   2.58006   19.998
 6345.00    2.65768   2.60089   20.108
 6346.00    2.67766   2.63286   20.219
 6347.00    2.70248   2.66092   20.193
 6348.00    2.72870   2.68316   20.105
 6349.00    2.72097   2.69775   19.976
 6350.00    2.70194   2.70378   19.868
 6351.00    2.71442   2.70235   19.838
 6352.00    2.71254   2.68792   19.822
 6353.00    2.68274   2.65788   19.807
 6354.00    2.65142   2.62272   19.865
 6355.00    2.62067   2.60715   19.957
 6356.00    2.60747   2.60339   20.121
 6357.00    2.59980   2.58382   20.331
 6358.00    2.58014   2.55022   20.416
 6359.00    2.56836   2.52508   20.442
 6360.00    2.57416   2.51219   20.596
 6361.00    2.57552   2.50101   20.765
 6362.00    2.57079   2.49862   20.755
 6363.00    2.58266   2.51396   20.671
 6364.00    2.60003   2.54519   20.631
 6365.00    2.62068   2.58001   20.587
 6366.00    2.64408   2.61573   20.479
 6367.00    2.67324   2.64782   20.343
 6368.00    2.70554   2.66922   20.224
 6369.00    2.71177   2.67218   20.106
 6370.00    2.71441   2.67342   19.974
 6371.00    2.72385   2.68463   19.882
 6372.00    2.72573   2.70545   19.869
 6373.00    2.74204   2.72012   19.845
 6374.00    2.75504   2.72081   19.767
 6375.00    2.74379   2.71680   19.755
 6376.00    2.71037   2.71003   19.796
 6377.00    2.68758   2.69440   19.823
 6378.00    2.67951   2.67381   19.883
 6379.00    2.66702   2.66083   19.973
 6380.00    2.66096   2.65701   20.093
 6381.00    2.66334   2.66286   20.202
 6382.00    2.67013   2.67305   20.243
 6383.00    2.67661   2.67821   20.266
 6384.00    2.68376   2.67847   20.285
 6385.00    2.67692   2.68505   20.252
 6386.00    2.66689   2.69884   20.270
 6387.00    2.67777   2.70732   20.349
 6388.00    2.67469   2.70916   20.360
 6389.00    2.65940   2.70901   20.379
 6390.00    2.64358   2.69739   20.448
 6391.00    2.60691   2.65983   20.565
 6392.00    2.57991   2.60591   20.737
 6393.00    2.55277   2.57119   20.936
 6394.00    2.51825   2.59327   21.221
 6395.00    2.52912   2.65376   21.478
 6396.00    2.56246   2.69919   21.528
 6397.00    2.56715   2.70119   21.321
 6398.00    2.53767   2.65142   21.129
 6399.00    2.49100   2.58429   21.192
 6400.00    2.45854   2.56228   21.425
 6401.00    2.46190   2.61367   21.843
 6402.00    2.49729   2.68881   -1.000
 6403.00    2.53893   2.73589   -1.000
 6404.00    2.55378   2.74900   -1.000
 6405.00    2.54003   2.72964   21.591
 6406.00    2.50484   2.69115   21.580
 6407.00    2.45820   2.65656   -1.000
 6408.00    2.44013   2.65148   -1.000
 6409.00    2.44355   2.66541   -1.000
 6410.00    2.43375   2.66733   -1.000
 6411.00    2.40354   2.65244   -1.000
 6412.00    2.38134   2.65045   -1.000
 6413.00    2.37087   2.66360   -1.000
 6414.00    2.35554   2.67785   -1.000
 6415.00    2.35020   2.69135   -1.000
 6416.00    2.34842   2.70173   -1.000
 6417.00    2.32984   2.69773   -1.000
 6418.00    2.30737   2.67069   -1.000
 6419.00    2.26603   2.62719   -1.000
 6420.00    2.22397   2.59645   -1.000
 6421.00    2.21823   2.60700   -1.000
 6422.00    2.21717   2.66045   -1.000
 6423.00    2.21531   2.71105   -1.000
 6424.00    2.23042   2.73674   -1.000
 6425.00    2.23032   2.74895   -1.000
 6426.00    2.21384   2.76135   -1.000
 6427.00    2.18661   2.76469   -1.000
 6428.00    2.15560   2.73638   -1.000
