###################################################################
## OUTPUT of StarlightChains_v04.for    [Cid@UFSC - 01/Apr/2007] ##
###################################################################

## Some input info
NGC5904_b_1.cxt                          [arq_obs]
Base.BC03.S                              [arq_base]
NGC5904_b_1.msk                          [arq_masks]
StCv04.C11.config                        [arq_config]
  150                                    [N_base]
    0                                    [N_YAV_components = # of components with extra extinction!]
    0                                    [i_FitPowerLaw (1/0 = Yes/No)]
-9.99                                    [alpha_PowerLaw]
CCM                                      [red_law_option]
 1.458241                                [q_norm = A(l_norm)/A(V)]

## (Re)Sampling Parameters
 3359.00                                 [l_ini (A)]
 6428.00                                 [l_fin (A)]
    1.00                                 [dl    (A)]     (OBS: dl_cushion =    50.00 A)

## Normalization info
 4020.00                                 [l_norm (A) - for base]
 4010.00                                 [llow_norm (A) - window for f_obs]
 4060.00                                 [lupp_norm (A) - window for f_obs]
8.938202E-14                             [fobs_norm (in input units)]

## S/N
 4730.00                                 [llow_SN (A) - window for S/N]
 4780.00                                 [lupp_SN (A) - window for S/N]
  94.706                                 [S/N in S/N window]
  90.136                                 [S/N in norm. window]
 354.791                                 [S/N_err in S/N window]
 337.672                                 [S/N_err in norm. window]
  1.0000                                 [fscale_chi2]

## etc...
  2147483634                             [idum_orig]
  3069                                   [NOl_eff]
   976                                   [Nl_eff]
  2093    NSIGMA                         [Ntot_cliped & clip_method]
  1778770                                [Nglobal_steps]
   7                                     [N_chains]
  19                                     [NEX0s_base = N_base in EX0s-fits]
 0   0   1      257   2.0   7.095E+02    [Clip-Bug, RC-Crash & Burn-In warning-flags, n_censored_weights, wei_nsig_threshold & wei_limit]
    83     82.658     82.642      0.016  [idt_all, wdt_TotTime, wdt_UsrTime & wdt_SysTime (sec)]

## Synthesis Results - Best model ##

 2.67613E+00                             [chi2/Nl_eff]
     0.53442                             [adev (%)]

   100.99282                             [sum-of-x (%)]
 1.16849E-13                             [Flux_tot (units of input spectrum!)]
 1.29602E-09                             [Mini_tot (???)]
 6.77989E-10                             [Mcor_tot (???)]

 -17.60                                  [v0_min  (km/s)]
  67.27                                  [vd_min  (km/s)]
 0.1922                                  [AV_min  (mag)]
 0.0000                                  [YAV_min (mag)]

# j     x_j(%)      Mini_j(%)     Mcor_j(%)     age_j(yr)     Z_j      (L/M)_j    YAV?  Mstars   component_j        a/Fe...       SSP_chi2r SSP_adev(%)   SSP_AV   SSP_x(%)
  1      0.0000     0.0000E+00    0.0000E+00    1.000000E+06  0.00010  8.160E-03    0   1.0000   age020_m22            0.0000     1.8297E+03    11.5584   3.5839    74.2513
  2     19.2734     3.6155E-02    6.9112E-02    3.160000E+06  0.00010  4.759E-02    0   1.0000   age045_m22            0.0000     2.5379E+02     4.6135   1.5298    95.4879
  3      0.0000     0.0000E+00    0.0000E+00    5.010000E+06  0.00010  1.932E-02    0   0.9582   age055_m22            0.0000     1.7660E+03    11.4638   1.8654    80.9148
  4      0.0000     0.0000E+00    0.0000E+00    6.610000E+06  0.00010  9.973E-03    0   0.9297   age061_m22            0.0000     1.8905E+03    11.8605   3.5314    77.3343
  5      0.0000     0.0000E+00    0.0000E+00    8.710000E+06  0.00010  7.690E-03    0   0.9030   age067_m22            0.0000     1.7900E+03    11.5766   3.5218    77.8145
  6      0.0000     0.0000E+00    0.0000E+00    1.000000E+07  0.00010  6.375E-03    0   0.8902   age070_m22            0.0000     1.7125E+03    11.3556   3.5359    77.9836
  7      0.0000     0.0000E+00    0.0000E+00    1.445000E+07  0.00010  4.874E-03    0   0.8589   age078_m22            0.0000     1.2547E+03     9.9267   3.3518    80.9897
  8      0.0000     0.0000E+00    0.0000E+00    2.512000E+07  0.00010  4.103E-03    0   0.8174   age090_m22            0.0000     5.3933E+02     6.9902   2.9247    88.2604
  9      0.0000     0.0000E+00    0.0000E+00    4.000000E+07  0.00010  3.654E-03    0   0.7830   age104_m22            0.0000     2.9023E+02     4.9950   2.6045    94.0780
 10      0.0000     0.0000E+00    0.0000E+00    5.500000E+07  0.00010  3.093E-03    0   0.7597   age110_m22            0.0000     2.5800E+02     4.3576   2.4967    96.0034
 11      0.0000     0.0000E+00    0.0000E+00    1.015200E+08  0.00010  2.431E-03    0   0.7138   age116_m22            0.0000     3.2754E+02     4.0605   2.1368    99.6673
 12      0.0000     0.0000E+00    0.0000E+00    1.609000E+08  0.00010  1.319E-03    0   0.6775   age120_m22            0.0000     3.1773E+02     3.6258   1.6608   102.0271
 13      0.0000     0.0000E+00    0.0000E+00    2.861200E+08  0.00010  1.075E-03    0   0.6412   age125_m22            0.0000     1.0191E+03     6.2925   1.7051   106.9618
 14      0.0000     0.0000E+00    0.0000E+00    5.088000E+08  0.00010  7.183E-04    0   0.6083   age130_m22            0.0000     1.3077E+03     7.3346   1.4708   109.0621
 15      0.0000     0.0000E+00    0.0000E+00    9.047900E+08  0.00010  4.524E-04    0   0.5785   age135_m22            0.0000     1.3313E+03     7.4865   1.2712   110.3815
 16      0.0000     0.0000E+00    0.0000E+00    1.278050E+09  0.00010  3.018E-04    0   0.5588   age138_m22            0.0000     5.2608E+02     4.6004   0.7537   107.5879
 17      0.0000     0.0000E+00    0.0000E+00    1.434000E+09  0.00010  2.691E-04    0   0.5532   age139_m22            0.0000     3.9910E+02     4.0141   0.6010   106.7788
 18      0.0000     0.0000E+00    0.0000E+00    2.500000E+09  0.00010  1.582E-04    0   0.5296   age150_m22            0.0000     3.1508E+02     3.4294   0.4892   107.3654
 19      0.0000     0.0000E+00    0.0000E+00    4.250000E+09  0.00010  1.007E-04    0   0.5110   age158_m22            0.0000     1.3017E+02     2.3109   0.3482   104.9285
 20      0.0087     1.1370E-02    1.0834E-02    6.250000E+09  0.00010  6.869E-05    0   0.4985   age166_m22            0.0000     4.2248E+01     1.6394   0.3018   101.3869
 21      0.0000     0.0000E+00    0.0000E+00    7.500000E+09  0.00010  5.873E-05    0   0.4931   age171_m22            0.0000     4.4951E+01     1.7716   0.2915   100.7263
 22      0.0000     0.0000E+00    0.0000E+00    1.000000E+10  0.00010  4.481E-05    0   0.4854   age181_m22            0.0000     4.1411E+01     1.7221   0.2544   100.3270
 23      0.0000     0.0000E+00    0.0000E+00    1.300000E+10  0.00010  3.489E-05    0   0.4791   age193_m22            0.0000     3.4642E+01     1.6011   0.2000    99.6732
 24      0.0000     0.0000E+00    0.0000E+00    1.500000E+10  0.00010  3.035E-05    0   0.4766   age201_m22            0.0000     3.2277E+01     1.5513   0.1619    99.4201
 25      0.0000     0.0000E+00    0.0000E+00    1.800000E+10  0.00010  2.510E-05    0   0.4735   age213_m22            0.0000     3.0338E+01     1.5041   0.0957    98.6601
 26      0.0000     0.0000E+00    0.0000E+00    1.000000E+06  0.00040  8.458E-03    0   1.0000   age020_m32            0.0000     1.8288E+03    11.5812   3.5935    75.0148
 27      0.0000     0.0000E+00    0.0000E+00    3.160000E+06  0.00040  3.973E-02    0   1.0000   age045_m32            0.0000     6.0549E+02     7.2809   2.8211    88.1679
 28      0.0000     0.0000E+00    0.0000E+00    5.010000E+06  0.00040  1.935E-02    0   0.9532   age055_m32            0.0000     1.4420E+03    10.6630   3.0663    81.5595
 29      0.0000     0.0000E+00    0.0000E+00    6.610000E+06  0.00040  1.204E-02    0   0.9243   age061_m32            0.0000     1.5652E+03    10.9376   3.3865    79.4593
 30      0.0000     0.0000E+00    0.0000E+00    8.710000E+06  0.00040  9.433E-03    0   0.9001   age067_m32            0.0000     1.3962E+03    10.4200   3.3577    80.4075
 31      0.0000     0.0000E+00    0.0000E+00    1.000000E+07  0.00040  8.053E-03    0   0.8877   age070_m32            0.0000     1.3308E+03    10.1968   3.3208    80.9093
 32      0.0000     0.0000E+00    0.0000E+00    1.445000E+07  0.00040  7.027E-03    0   0.8578   age078_m32            0.0000     8.0305E+02     8.3187   2.7827    86.7042
 33      0.0000     0.0000E+00    0.0000E+00    2.512000E+07  0.00040  4.707E-03    0   0.8166   age090_m32            0.0000     4.6556E+02     6.6009   2.4752    91.2059
 34      0.0000     0.0000E+00    0.0000E+00    4.000000E+07  0.00040  3.714E-03    0   0.7827   age104_m32            0.0000     2.7952E+02     4.9992   2.2578    95.3452
 35      0.0000     0.0000E+00    0.0000E+00    5.500000E+07  0.00040  2.982E-03    0   0.7593   age110_m32            0.0000     2.5498E+02     4.4719   2.1907    96.8874
 36      0.0000     0.0000E+00    0.0000E+00    1.015200E+08  0.00040  2.188E-03    0   0.7143   age116_m32            0.0000     4.7643E+02     4.3476   1.9033   102.5269
 37      0.0000     0.0000E+00    0.0000E+00    1.609000E+08  0.00040  1.690E-03    0   0.6856   age120_m32            0.0000     7.8226E+02     5.2344   1.6805   106.0316
 38      0.0000     0.0000E+00    0.0000E+00    2.861200E+08  0.00040  1.152E-03    0   0.6509   age125_m32            0.0000     1.0884E+03     6.5151   1.4547   108.3042
 39      0.0000     0.0000E+00    0.0000E+00    5.088000E+08  0.00040  7.331E-04    0   0.6182   age130_m32            0.0000     1.2130E+03     7.0788   1.2926   109.1183
 40      0.0000     0.0000E+00    0.0000E+00    9.047900E+08  0.00040  3.960E-04    0   0.5890   age135_m32            0.0000     5.6374E+02     5.1277   0.8483   106.7933
 41      0.0000     0.0000E+00    0.0000E+00    1.278050E+09  0.00040  2.854E-04    0   0.5687   age138_m32            0.0000     3.9446E+02     3.9214   0.5549   108.4586
 42      0.0000     0.0000E+00    0.0000E+00    1.434000E+09  0.00040  2.531E-04    0   0.5632   age139_m32            0.0000     3.7809E+02     3.7725   0.4928   108.4439
 43     13.9865     8.3913E+00    8.6394E+00    2.500000E+09  0.00040  1.488E-04    0   0.5386   age150_m32            0.0000     2.2161E+02     2.8791   0.2397   106.3128
 44     38.3138     3.7661E+01    3.7429E+01    4.250000E+09  0.00040  9.082E-05    0   0.5199   age158_m32            0.0000     2.8365E+01     1.1808   0.1607   101.6998
 45      1.0675     1.4979E+00    1.4534E+00    6.250000E+09  0.00040  6.362E-05    0   0.5076   age166_m32            0.0000     5.1372E+01     1.7424   0.1349    97.2985
 46      1.5891     2.6823E+00    2.5775E+00    7.500000E+09  0.00040  5.289E-05    0   0.5027   age171_m32            0.0000     6.6962E+01     1.9033   0.1020    95.8758
 47      0.0000     0.0000E+00    0.0000E+00    1.000000E+10  0.00040  3.972E-05    0   0.4948   age181_m32            0.0000     7.6033E+01     1.9185   0.0434    94.4277
 48      0.0000     0.0000E+00    0.0000E+00    1.300000E+10  0.00040  3.283E-05    0   0.4870   age193_m32            0.0000     2.0714E+01     1.1349  -0.0098    97.6252
 49      0.0000     0.0000E+00    0.0000E+00    1.500000E+10  0.00040  2.925E-05    0   0.4854   age201_m32            0.0000     1.1439E+01     0.9304  -0.0338    99.5164
 50      0.0000     0.0000E+00    0.0000E+00    1.800000E+10  0.00040  2.469E-05    0   0.4819   age213_m32            0.0000     1.2491E+01     0.9494  -0.0765   100.1397
 51      0.0000     0.0000E+00    0.0000E+00    1.000000E+06  0.00400  1.114E-02    0   1.0000   age020_m42            0.0000     1.7410E+03    11.2569   3.5240    75.4421
 52      0.0000     0.0000E+00    0.0000E+00    3.160000E+06  0.00400  4.073E-02    0   0.9999   age045_m42            0.0000     3.9065E+02     5.9111   2.5136    91.1050
 53      0.0000     0.0000E+00    0.0000E+00    5.010000E+06  0.00400  2.534E-02    0   0.9488   age055_m42            0.0000     9.0840E+02     8.5774   2.9394    83.9870
 54      0.0000     0.0000E+00    0.0000E+00    6.610000E+06  0.00400  2.583E-02    0   0.9220   age061_m42            0.0000     2.9109E+02     5.2323   2.3236    92.3209
 55      0.0000     0.0000E+00    0.0000E+00    8.710000E+06  0.00400  1.706E-02    0   0.8983   age067_m42            0.0000     5.4065E+02     7.0721   2.1559    89.9144
 56      0.0000     0.0000E+00    0.0000E+00    1.000000E+07  0.00400  1.271E-02    0   0.8862   age070_m42            0.0000     8.2683E+02     8.6592   2.1464    88.0848
 57      0.0000     0.0000E+00    0.0000E+00    1.445000E+07  0.00400  7.666E-03    0   0.8571   age078_m42            0.0000     1.0670E+03     9.3608   2.5625    84.3548
 58      0.0000     0.0000E+00    0.0000E+00    2.512000E+07  0.00400  5.070E-03    0   0.8174   age090_m42            0.0000     7.0418E+02     8.0231   2.0111    89.8137
 59      0.0000     0.0000E+00    0.0000E+00    4.000000E+07  0.00400  3.505E-03    0   0.7851   age104_m42            0.0000     3.9631E+02     6.0666   1.6850    93.1883
 60      0.0000     0.0000E+00    0.0000E+00    5.500000E+07  0.00400  3.059E-03    0   0.7629   age110_m42            0.0000     1.6643E+02     3.2192   1.7192    99.2135
 61      0.0000     0.0000E+00    0.0000E+00    1.015200E+08  0.00400  2.268E-03    0   0.7207   age116_m42            0.0000     6.5630E+02     4.8300   1.6032   106.2247
 62      0.0000     0.0000E+00    0.0000E+00    1.609000E+08  0.00400  1.720E-03    0   0.6930   age120_m42            0.0000     7.5847E+02     5.4395   1.4589   108.0301
 63      0.0000     0.0000E+00    0.0000E+00    2.861200E+08  0.00400  1.079E-03    0   0.6613   age125_m42            0.0000     7.6103E+02     5.4677   1.1063   108.5811
 64      0.0000     0.0000E+00    0.0000E+00    5.088000E+08  0.00400  6.261E-04    0   0.6313   age130_m42            0.0000     9.1005E+02     5.9866   0.9020   112.0724
 65      0.0000     0.0000E+00    0.0000E+00    9.047900E+08  0.00400  3.535E-04    0   0.6024   age135_m42            0.0000     4.5983E+02     4.5398   0.5129   111.4783
 66      0.0000     0.0000E+00    0.0000E+00    1.278050E+09  0.00400  2.677E-04    0   0.5837   age138_m42            0.0000     2.2230E+02     4.2212  -0.1400   106.8966
 67      0.8110     3.7906E-01    4.1418E-01    1.434000E+09  0.00400  1.910E-04    0   0.5716   age139_m42            0.0000     2.3174E+02     4.0932   0.0199   108.2447
 68     10.5228     9.5682E+00    9.9920E+00    2.500000E+09  0.00400  9.818E-05    0   0.5463   age150_m42            0.0000     1.6730E+02     3.5576  -0.2186   101.6639
 69      0.0000     0.0000E+00    0.0000E+00    4.250000E+09  0.00400  5.491E-05    0   0.5269   age158_m42            0.0000     2.2587E+02     3.5470  -0.3324    98.2525
 70      0.4846     1.1217E+00    1.1045E+00    6.250000E+09  0.00400  3.857E-05    0   0.5151   age166_m42            0.0000     3.3444E+02     4.1599  -0.4498    96.5118
 71      1.9533     5.3772E+00    5.2525E+00    7.500000E+09  0.00400  3.243E-05    0   0.5110   age171_m42            0.0000     4.1088E+02     4.5671  -0.5236    95.7648
 72      0.0000     0.0000E+00    0.0000E+00    1.000000E+10  0.00400  2.424E-05    0   0.5028   age181_m42            0.0000     5.2035E+02     5.0889  -0.5975    94.9136
 73      0.0000     0.0000E+00    0.0000E+00    1.300000E+10  0.00400  1.883E-05    0   0.4927   age193_m42            0.0000     6.0597E+02     5.4395  -0.6331    94.4212
 74      0.0000     0.0000E+00    0.0000E+00    1.500000E+10  0.00400  1.685E-05    0   0.4919   age201_m42            0.0000     5.8000E+02     5.3033  -0.6305    94.4867
 75      0.0000     0.0000E+00    0.0000E+00    1.800000E+10  0.00400  1.452E-05    0   0.4874   age213_m42            0.0000     5.3434E+02     5.0793  -0.6185    94.8209
 76      0.0000     0.0000E+00    0.0000E+00    1.000000E+06  0.00800  1.286E-02    0   1.0000   age020_m52            0.0000     1.5516E+03    10.7050   3.4952    77.3924
 77      0.0000     0.0000E+00    0.0000E+00    3.160000E+06  0.00800  3.147E-02    0   0.9966   age045_m52            0.0000     1.4876E+03    10.5425   3.4007    79.0863
 78      0.0000     0.0000E+00    0.0000E+00    5.010000E+06  0.00800  2.664E-02    0   0.9443   age055_m52            0.0000     1.0478E+03     8.9652   3.0652    82.8064
 79      0.0000     0.0000E+00    0.0000E+00    6.610000E+06  0.00800  2.151E-02    0   0.9177   age061_m52            0.0000     6.6421E+02     7.1813   1.7449    89.5657
 80      0.0000     0.0000E+00    0.0000E+00    8.710000E+06  0.00800  1.628E-02    0   0.8948   age067_m52            0.0000     6.3764E+02     7.4646   2.1094    90.3017
 81      0.0000     0.0000E+00    0.0000E+00    1.000000E+07  0.00800  1.215E-02    0   0.8827   age070_m52            0.0000     7.9444E+02     8.2621   2.4546    88.2431
 82      0.0000     0.0000E+00    0.0000E+00    1.445000E+07  0.00800  8.739E-03    0   0.8552   age078_m52            0.0000     6.1853E+02     7.3770   2.4885    89.9096
 83      0.0000     0.0000E+00    0.0000E+00    2.512000E+07  0.00800  5.676E-03    0   0.8162   age090_m52            0.0000     3.9524E+02     5.9757   2.0664    95.6896
 84      0.0000     0.0000E+00    0.0000E+00    4.000000E+07  0.00800  3.939E-03    0   0.7841   age104_m52            0.0000     2.8472E+02     4.5419   1.8974    98.8039
 85      0.0000     0.0000E+00    0.0000E+00    5.500000E+07  0.00800  3.155E-03    0   0.7627   age110_m52            0.0000     2.7551E+02     3.6536   1.8626   100.9719
 86      0.0000     0.0000E+00    0.0000E+00    1.015200E+08  0.00800  2.206E-03    0   0.7226   age116_m52            0.0000     4.6001E+02     3.9220   1.6695   105.5147
 87      0.0000     0.0000E+00    0.0000E+00    1.609000E+08  0.00800  1.596E-03    0   0.6963   age120_m52            0.0000     5.8179E+02     4.6882   1.4493   107.5292
 88      0.0000     0.0000E+00    0.0000E+00    2.861200E+08  0.00800  1.002E-03    0   0.6665   age125_m52            0.0000     1.0083E+03     6.8405   1.1478   110.9819
 89      0.0000     0.0000E+00    0.0000E+00    5.088000E+08  0.00800  5.759E-04    0   0.6377   age130_m52            0.0000     1.1279E+03     7.7056   0.7961   115.1264
 90      0.0000     0.0000E+00    0.0000E+00    9.047900E+08  0.00800  2.972E-04    0   0.6086   age135_m52            0.0000     6.3113E+02     6.5063   0.2831   112.6475
 91      0.0000     0.0000E+00    0.0000E+00    1.278050E+09  0.00800  2.242E-04    0   0.5907   age138_m52            0.0000     3.8992E+02     5.4999  -0.3066   109.5288
 92      0.0000     0.0000E+00    0.0000E+00    1.434000E+09  0.00800  1.645E-04    0   0.5787   age139_m52            0.0000     3.0092E+02     4.8412  -0.1593   108.8679
 93      1.7241     1.9930E+00    2.1026E+00    2.500000E+09  0.00800  7.723E-05    0   0.5519   age150_m52            0.0000     3.9394E+02     5.1282  -0.4755   103.7961
 94      1.5514     3.3364E+00    3.3930E+00    4.250000E+09  0.00800  4.151E-05    0   0.5320   age158_m52            0.0000     4.3132E+02     5.1140  -0.5341   100.7173
 95      0.0000     0.0000E+00    0.0000E+00    6.250000E+09  0.00800  3.010E-05    0   0.5197   age166_m52            0.0000     6.4092E+02     5.9996  -0.7166    98.8340
 96      2.1538     7.7939E+00    7.6563E+00    7.500000E+09  0.00800  2.467E-05    0   0.5139   age171_m52            0.0000     7.0100E+02     6.2573  -0.7555    98.3430
 97      0.7338     3.5181E+00    3.3988E+00    1.000000E+10  0.00800  1.862E-05    0   0.5054   age181_m52            0.0000     8.9879E+02     7.0859  -0.8788    97.7155
 98      1.6034     9.9887E+00    9.5241E+00    1.300000E+10  0.00800  1.433E-05    0   0.4988   age193_m52            0.0000     1.1309E+03     7.9183  -0.9706    98.1347
 99      0.4329     3.1064E+00    2.9311E+00    1.500000E+10  0.00800  1.244E-05    0   0.4936   age201_m52            0.0000     1.2248E+03     8.2063  -0.9988    98.5270
100      0.0000     0.0000E+00    0.0000E+00    1.800000E+10  0.00800  1.070E-05    0   0.4888   age213_m52            0.0000     1.2939E+03     8.2419  -1.0000    97.4184
101      0.0000     0.0000E+00    0.0000E+00    1.000000E+06  0.02000  1.989E-02    0   1.0000   age020_m62            0.0000     1.7437E+03    11.1327   3.4797    76.3198
102      0.0000     0.0000E+00    0.0000E+00    3.160000E+06  0.02000  3.772E-02    0   0.9858   age045_m62            0.0000     1.5614E+03    10.6649   3.3326    78.7149
103      0.0000     0.0000E+00    0.0000E+00    5.010000E+06  0.02000  3.227E-02    0   0.9342   age055_m62            0.0000     5.9694E+02     7.1995   2.7804    87.5098
104      0.0000     0.0000E+00    0.0000E+00    6.610000E+06  0.02000  2.387E-02    0   0.9090   age061_m62            0.0000     9.9159E+02     9.1827   2.5306    86.5679
105      0.0000     0.0000E+00    0.0000E+00    8.710000E+06  0.02000  1.102E-02    0   0.8861   age067_m62            0.0000     2.9276E+03    15.1211   2.1610    80.8576
106      0.0000     0.0000E+00    0.0000E+00    1.000000E+07  0.02000  1.011E-02    0   0.8751   age070_m62            0.0000     2.0464E+03    12.7485   2.1774    83.6936
107      0.0000     0.0000E+00    0.0000E+00    1.445000E+07  0.02000  7.331E-03    0   0.8472   age078_m62            0.0000     1.4215E+03    10.6841   2.1921    85.4987
108      0.0000     0.0000E+00    0.0000E+00    2.512000E+07  0.02000  4.206E-03    0   0.8099   age090_m62            0.0000     1.4291E+03    10.5751   2.1012    85.0531
109      0.0000     0.0000E+00    0.0000E+00    4.000000E+07  0.02000  3.373E-03    0   0.7799   age104_m62            0.0000     3.7408E+02     5.8023   1.8736    95.5959
110      0.0000     0.0000E+00    0.0000E+00    5.500000E+07  0.02000  2.747E-03    0   0.7595   age110_m62            0.0000     2.5836E+02     4.1049   1.7929   100.0884
111      0.0000     0.0000E+00    0.0000E+00    1.015200E+08  0.02000  1.878E-03    0   0.7221   age116_m62            0.0000     5.3582E+02     4.0334   1.6334   106.4268
112      0.0000     0.0000E+00    0.0000E+00    1.609000E+08  0.02000  1.378E-03    0   0.6978   age120_m62            0.0000     8.5888E+02     5.4914   1.4699   109.7710
113      0.0000     0.0000E+00    0.0000E+00    2.861200E+08  0.02000  8.869E-04    0   0.6700   age125_m62            0.0000     1.4705E+03     7.6849   1.0874   114.9439
114      0.0000     0.0000E+00    0.0000E+00    5.088000E+08  0.02000  4.834E-04    0   0.6430   age130_m62            0.0000     1.2847E+03     8.1154   0.6596   116.9546
115      0.0000     0.0000E+00    0.0000E+00    9.047900E+08  0.02000  2.312E-04    0   0.6152   age135_m62            0.0000     5.6460E+02     6.2216   0.0856   114.4001
116      0.0000     0.0000E+00    0.0000E+00    1.278050E+09  0.02000  1.387E-04    0   0.5927   age138_m62            0.0000     3.0642E+02     4.9105  -0.2690   108.1678
117      0.3883     2.9679E-01    3.3274E-01    1.434000E+09  0.02000  1.168E-04    0   0.5865   age139_m62            0.0000     3.0026E+02     4.7966  -0.2871   106.1525
118      0.0000     0.0000E+00    0.0000E+00    2.500000E+09  0.02000  5.505E-05    0   0.5610   age150_m62            0.0000     5.3947E+02     5.9024  -0.6389   102.0546
119      0.0000     0.0000E+00    0.0000E+00    4.250000E+09  0.02000  3.070E-05    0   0.5407   age158_m62            0.0000     9.8273E+02     7.7322  -0.9199   101.4343
120      0.0000     0.0000E+00    0.0000E+00    6.250000E+09  0.02000  2.104E-05    0   0.5277   age166_m62            0.0000     1.2652E+03     8.3611  -1.0000   100.3051
121      0.0000     0.0000E+00    0.0000E+00    7.500000E+09  0.02000  1.770E-05    0   0.5223   age171_m62            0.0000     1.4746E+03     8.5885  -1.0000    98.1054
122      0.0000     0.0000E+00    0.0000E+00    1.000000E+10  0.02000  1.297E-05    0   0.5121   age181_m62            0.0000     2.0413E+03     9.7035  -1.0000    93.9075
123      0.0000     0.0000E+00    0.0000E+00    1.300000E+10  0.02000  9.691E-06    0   0.5047   age193_m62            0.0000     2.4582E+03    10.5651  -1.0000    91.7721
124      0.0000     0.0000E+00    0.0000E+00    1.500000E+10  0.02000  8.360E-06    0   0.4999   age201_m62            0.0000     2.8436E+03    11.3323  -1.0000    89.9057
125      0.0000     0.0000E+00    0.0000E+00    1.800000E+10  0.02000  6.911E-06    0   0.4946   age213_m62            0.0000     3.3103E+03    12.2006  -1.0000    87.9679
126      0.0000     0.0000E+00    0.0000E+00    1.000000E+06  0.05000  2.651E-02    0   0.9998   age020_m72            0.0000     1.6105E+03    10.5507   3.4811    77.2351
127      0.0000     0.0000E+00    0.0000E+00    3.160000E+06  0.05000  4.817E-02    0   0.9577   age045_m72            0.0000     1.0806E+03     8.9018   3.1793    82.2650
128      0.0000     0.0000E+00    0.0000E+00    5.010000E+06  0.05000  3.101E-02    0   0.9147   age055_m72            0.0000     1.0355E+03     8.9313   2.8055    85.1625
129      0.0000     0.0000E+00    0.0000E+00    6.610000E+06  0.05000  1.472E-02    0   0.8877   age061_m72            0.0000     2.3564E+03    13.2806   2.3510    82.6769
130      0.0000     0.0000E+00    0.0000E+00    8.710000E+06  0.05000  1.050E-02    0   0.8638   age067_m72            0.0000     1.5604E+03    10.6872   2.7553    83.4315
131      0.0000     0.0000E+00    0.0000E+00    1.000000E+07  0.05000  8.954E-03    0   0.8524   age070_m72            0.0000     1.0878E+03     8.7566   3.0451    83.6191
132      0.0000     0.0000E+00    0.0000E+00    1.445000E+07  0.05000  6.392E-03    0   0.8262   age078_m72            0.0000     9.0814E+02     8.0187   2.9905    84.8201
133      0.0000     0.0000E+00    0.0000E+00    2.512000E+07  0.05000  4.207E-03    0   0.7902   age090_m72            0.0000     5.0209E+02     6.2617   2.5862    90.2027
134      0.0000     0.0000E+00    0.0000E+00    4.000000E+07  0.05000  3.198E-03    0   0.7618   age104_m72            0.0000     2.9633E+02     3.6022   2.0258   100.6607
135      0.0000     0.0000E+00    0.0000E+00    5.500000E+07  0.05000  2.593E-03    0   0.7432   age110_m72            0.0000     4.1150E+02     3.8492   1.9166   103.3284
136      0.0000     0.0000E+00    0.0000E+00    1.015200E+08  0.05000  1.716E-03    0   0.7092   age116_m72            0.0000     6.8774E+02     4.7060   1.7037   107.0566
137      0.0000     0.0000E+00    0.0000E+00    1.609000E+08  0.05000  1.218E-03    0   0.6876   age120_m72            0.0000     1.0632E+03     6.2906   1.4324   110.4304
138      0.0000     0.0000E+00    0.0000E+00    2.861200E+08  0.05000  7.047E-04    0   0.6618   age125_m72            0.0000     1.4524E+03     8.0929   0.8807   115.0267
139      0.0000     0.0000E+00    0.0000E+00    5.088000E+08  0.05000  3.590E-04    0   0.6356   age130_m72            0.0000     1.1462E+03     7.9280   0.3171   117.0727
140      2.6645     1.6029E+00    1.8654E+00    9.047900E+08  0.05000  1.484E-04    0   0.6088   age135_m72            0.0000     5.0735E+02     6.3388  -0.3707   107.8210
141      1.7301     1.6370E+00    1.8538E+00    1.278050E+09  0.05000  9.435E-05    0   0.5924   age138_m72            0.0000     7.8017E+02     7.4797  -0.7453   103.3579
142      0.0000     0.0000E+00    0.0000E+00    1.434000E+09  0.05000  7.827E-05    0   0.5847   age139_m72            0.0000     7.6491E+02     7.2718  -0.7310   102.5876
143      0.0000     0.0000E+00    0.0000E+00    2.500000E+09  0.05000  3.759E-05    0   0.5583   age150_m72            0.0000     1.2085E+03     8.3480  -1.0000    99.8449
144      0.0000     0.0000E+00    0.0000E+00    4.250000E+09  0.05000  1.842E-05    0   0.5374   age158_m72            0.0000     2.1639E+03    10.3815  -1.0000    90.1457
145      0.0000     0.0000E+00    0.0000E+00    6.250000E+09  0.05000  1.207E-05    0   0.5242   age166_m72            0.0000     3.4145E+03    12.8825  -1.0000    83.0424
146      0.0000     0.0000E+00    0.0000E+00    7.500000E+09  0.05000  9.993E-06    0   0.5183   age171_m72            0.0000     3.6583E+03    13.3210  -1.0000    81.7481
147      0.0000     0.0000E+00    0.0000E+00    1.000000E+10  0.05000  7.291E-06    0   0.5081   age181_m72            0.0000     4.4814E+03    14.5723  -1.0000    78.2751
148      0.0000     0.0000E+00    0.0000E+00    1.300000E+10  0.05000  5.316E-06    0   0.5018   age193_m72            0.0000     5.8334E+03    16.3634  -1.0000    73.2116
149      0.0000     0.0000E+00    0.0000E+00    1.500000E+10  0.05000  4.497E-06    0   0.4972   age201_m72            0.0000     6.4308E+03    17.0556  -1.0000    71.4736
150      0.0000     0.0000E+00    0.0000E+00    1.800000E+10  0.05000  3.739E-06    0   0.4924   age213_m72            0.0000     7.2635E+03    17.9402  -1.0000    68.8702


## Synthesis Results - Average & Chains ##

# j      x_j: min, <> & last-chain-values for 1 ...  7 chains
  1      0.0000      0.0003      0.0000      0.0000      0.0000      0.0000      0.0000      0.0000      0.0000
  2     19.2734     19.3609     19.5258     19.5396     19.6073     19.5207     19.3151     19.6308     19.3864
  3      0.0000      0.0025      0.0000      0.0000      0.0000      0.0000      0.0000      0.0000      0.0000
  4      0.0000      0.0005      0.0000      0.0000      0.0000      0.0000      0.0000      0.0000      0.0000
  5      0.0000      0.0004      0.0000      0.0000      0.0000      0.0000      0.0000      0.0000      0.0000
  6      0.0000      0.0004      0.0000      0.0000      0.0000      0.0000      0.0000      0.0000      0.0000
  7      0.0000      0.0015      0.0000      0.0000      0.0000      0.0000      0.0000      0.0000      0.0000
  8      0.0000      0.0010      0.0000      0.0000      0.0000      0.0000      0.0000      0.0000      0.0000
  9      0.0000      0.0011      0.0000      0.0000      0.0000      0.0000      0.0000      0.0000      0.0000
 10      0.0000      0.0053      0.0000      0.0000      0.0000      0.0000      0.0000      0.0000      0.0000
 11      0.0000      0.0082      0.0000      0.0396      0.0000      0.0000      0.0000      0.0000      0.0043
 12      0.0000      0.0068      0.0000      0.0000      0.0000      0.0000      0.0000      0.0000      0.0059
 13      0.0000      0.0063      0.0000      0.0000      0.0000      0.0771      0.0000      0.0000      0.0085
 14      0.0000      0.0059      0.0000      0.0000      0.0000      0.0000      0.0000      0.0063      0.0814
 15      0.0000      0.0101      0.0016      0.0000      0.0024      0.0000      0.0437      0.0000      0.0000
 16      0.0000      0.0153      0.0000      0.0000      0.0000      0.0000      0.0000      0.0087      0.0000
 17      0.0000      0.0165      0.0386      0.0000      0.0000      0.0000      0.0000      0.0000      0.0000
 18      0.0000      0.0249      0.0380      0.0000      0.0000      0.0000      0.0195      0.1461      0.0000
 19      0.0000      0.0443      0.2010      0.0000      0.0000      0.2624      0.0956      0.0000      0.1883
 20      0.0087      0.2289      0.5348      0.0653      0.0620      0.0601      0.2746      0.0000      0.0000
 21      0.0000      0.1265      0.0534      0.0000      0.0000      0.0000      0.0000      0.3028      0.0071
 22      0.0000      0.1533      0.1110      0.1512      0.1492      0.0000      0.0000      0.0000      0.0513
 23      0.0000      0.1522      0.0000      0.0000      0.0000      0.2178      0.1843      0.0953      0.0000
 24      0.0000      0.0835      0.0000      0.0851      0.0000      0.0000      0.1012      0.0000      0.0000
 25      0.0000      0.0902      0.0063      0.0478      0.1067      0.0000      0.0000      0.0000      0.0000
 26      0.0000      0.0003      0.0000      0.0000      0.0000      0.0000      0.0000      0.0000      0.0000
 27      0.0000      0.0024      0.0000      0.0000      0.0000      0.0000      0.0000      0.0000      0.0000
 28      0.0000      0.0011      0.0000      0.0000      0.0000      0.0000      0.0000      0.0000      0.0000
 29      0.0000      0.0004      0.0000      0.0000      0.0000      0.0000      0.0000      0.0000      0.0000
 30      0.0000      0.0023      0.0000      0.0086      0.0000      0.0000      0.0000      0.0000      0.0000
 31      0.0000      0.0008      0.0000      0.0000      0.0000      0.0000      0.0000      0.0000      0.0028
 32      0.0000      0.0029      0.0000      0.0000      0.0000      0.0000      0.0000      0.0000      0.0000
 33      0.0000      0.0023      0.0000      0.0000      0.0000      0.0000      0.0000      0.0000      0.0000
 34      0.0000      0.0014      0.0000      0.0000      0.0000      0.0000      0.0000      0.0000      0.0000
 35      0.0000      0.0126      0.0000      0.0000      0.0000      0.0000      0.0000      0.0000      0.0000
 36      0.0000      0.0057      0.0000      0.0219      0.0000      0.0000      0.0000      0.0087      0.0000
 37      0.0000      0.0073      0.0000      0.0520      0.0655      0.0000      0.0000      0.0000      0.0000
 38      0.0000      0.0044      0.0000      0.0072      0.0000      0.0000      0.0000      0.0000      0.0000
 39      0.0000      0.0136      0.0000      0.0000      0.0000      0.1037      0.0768      0.0000      0.0000
 40      0.0000      0.0161      0.0000      0.0015      0.0000      0.0000      0.0000      0.0239      0.0000
 41      0.0000      0.0292      0.0276      0.0000      0.0000      0.0000      0.0000      0.0000      0.0510
 42      0.0000      0.0293      0.1395      0.0000      0.0000      0.0000      0.0000      0.0000      0.0000
 43     13.9865     15.4413     15.6816     14.8528     15.3936     15.4135     15.7907     15.4664     15.4978
 44     38.3138     35.1213     35.3907     36.0666     35.8383     35.1015     35.3860     35.1720     35.4469
 45      1.0675      0.6431      0.6942      0.4281      0.6629      0.6524      0.9173      0.4361      0.9818
 46      1.5891      0.9605      1.0488      0.8310      0.6770      1.2053      1.1988      0.9958      1.0880
 47      0.0000      0.3428      0.4628      0.3463      0.2532      0.5385      0.2492      0.5542      0.3156
 48      0.0000      0.0860      0.0000      0.2547      0.1548      0.0399      0.0000      0.0000      0.1205
 49      0.0000      0.1066      0.0139      0.1489      0.2493      0.1319      0.0000      0.0602      0.0894
 50      0.0000      0.0307      0.0971      0.2767      0.1151      0.0000      0.0000      0.0075      0.0000
 51      0.0000      0.0007      0.0000      0.0000      0.0000      0.0000      0.0000      0.0000      0.0000
 52      0.0000      0.0044      0.0000      0.0377      0.0000      0.0000      0.0000      0.0000      0.0000
 53      0.0000      0.0015      0.0000      0.0000      0.0000      0.0000      0.0000      0.0000      0.0000
 54      0.0000      0.0085      0.0000      0.0000      0.0000      0.0045      0.0000      0.0000      0.0000
 55      0.0000      0.0073      0.0000      0.0000      0.0000      0.0000      0.0000      0.0000      0.0000
 56      0.0000      0.0021      0.0000      0.0000      0.0000      0.0154      0.0000      0.0000      0.0000
 57      0.0000      0.0022      0.0000      0.0000      0.0000      0.0000      0.0000      0.0148      0.0000
 58      0.0000      0.0017      0.0000      0.0000      0.0000      0.0000      0.0000      0.0000      0.0000
 59      0.0000      0.0030      0.0000      0.0000      0.0000      0.0000      0.0000      0.0000      0.0000
 60      0.0000      0.0067      0.0000      0.0000      0.0000      0.0000      0.0007      0.0000      0.0000
 61      0.0000      0.0077      0.0000      0.0000      0.0000      0.0097      0.0000      0.0000      0.0000
 62      0.0000      0.0110      0.0000      0.0046      0.0000      0.0000      0.0000      0.0877      0.0000
 63      0.0000      0.0073      0.0000      0.0000      0.0201      0.0000      0.0000      0.0000      0.0034
 64      0.0000      0.0079      0.0032      0.0157      0.0000      0.0000      0.0000      0.0392      0.0000
 65      0.0000      0.0252      0.0000      0.0000      0.0000      0.1179      0.0000      0.0000      0.0000
 66      0.0000      0.0297      0.0000      0.0194      0.0000      0.0227      0.0000      0.0104      0.0000
 67      0.8110      1.9623      1.0847      1.8013      1.9175      1.8542      1.9438      1.9489      1.6389
 68     10.5228     10.2602     10.1219     10.2527     10.5013     10.2557     10.3606     10.5154     10.1942
 69      0.0000      0.0363      0.0677      0.0000      0.0000      0.0362      0.0000      0.1779      0.1496
 70      0.4846      1.1040      0.9735      1.1347      1.1315      1.1685      1.1119      0.9394      1.1254
 71      1.9533      2.2743      2.3271      2.1113      2.2726      2.4484      2.1500      2.4144      2.2545
 72      0.0000      0.0630      0.0602      0.0176      0.0000      0.0000      0.0000      0.0000      0.0649
 73      0.0000      0.0077      0.0120      0.0000      0.0000      0.0000      0.0197      0.0000      0.0000
 74      0.0000      0.0059      0.0000      0.0000      0.0000      0.0000      0.0000      0.0000      0.0000
 75      0.0000      0.0073      0.0000      0.0000      0.0000      0.0000      0.0000      0.0000      0.0000
 76      0.0000      0.0006      0.0000      0.0000      0.0000      0.0000      0.0000      0.0000      0.0000
 77      0.0000      0.0005      0.0029      0.0000      0.0000      0.0000      0.0000      0.0000      0.0000
 78      0.0000      0.0007      0.0000      0.0000      0.0000      0.0000      0.0000      0.0000      0.0000
 79      0.0000      0.0092      0.0000      0.0000      0.0699      0.0000      0.0011      0.0000      0.0000
 80      0.0000      0.0033      0.0113      0.0000      0.0114      0.0000      0.0000      0.0000      0.0000
 81      0.0000      0.0016      0.0000      0.0000      0.0000      0.0000      0.0000      0.0000      0.0000
 82      0.0000      0.0027      0.0000      0.0000      0.0000      0.0000      0.0000      0.0000      0.0000
 83      0.0000      0.0037      0.0000      0.0000      0.0000      0.0025      0.0011      0.0000      0.0000
 84      0.0000      0.0057      0.0008      0.0000      0.0000      0.0000      0.0000      0.0000      0.0000
 85      0.0000      0.0075      0.0425      0.0000      0.0000      0.0000      0.0000      0.0000      0.0488
 86      0.0000      0.0081      0.0000      0.0923      0.0000      0.0000      0.0050      0.0000      0.0000
 87      0.0000      0.0093      0.0000      0.0062      0.0000      0.0000      0.0000      0.0000      0.0082
 88      0.0000      0.0048      0.0000      0.0000      0.0000      0.0000      0.0000      0.0000      0.0000
 89      0.0000      0.0145      0.0000      0.1141      0.0000      0.0000      0.0000      0.0000      0.0385
 90      0.0000      0.0670      0.0000      0.0732      0.0026      0.0257      0.0000      0.0520      0.0000
 91      0.0000      0.0260      0.0000      0.0000      0.0000      0.0672      0.0000      0.0196      0.0000
 92      0.0000      0.0525      0.0000      0.0093      0.1712      0.2146      0.0000      0.0051      0.0000
 93      1.7241      1.6393      1.6916      2.0556      1.6671      1.6279      1.6473      1.8040      1.4798
 94      1.5514      1.6725      1.7130      1.5029      1.6360      1.8250      1.6988      1.6261      1.6300
 95      0.0000      0.2410      0.2353      0.1154      0.1508      0.2243      0.2243      0.3013      0.2375
 96      2.1538      2.0879      2.1884      2.0640      2.1530      2.0759      2.1423      1.9771      2.1475
 97      0.7338      0.6986      0.5569      0.7475      0.7532      0.6670      0.7433      0.5778      0.7088
 98      1.6034      1.6791      1.7429      1.6110      1.7110      1.7362      1.6497      1.6932      1.6727
 99      0.4329      0.6816      0.7088      0.6032      0.5826      0.6200      0.7172      0.6485      0.6286
100      0.0000      0.2473      0.2282      0.2209      0.1916      0.2637      0.2099      0.2027      0.2415
101      0.0000      0.0008      0.0000      0.0000      0.0000      0.0000      0.0022      0.0000      0.0000
102      0.0000      0.0008      0.0000      0.0000      0.0045      0.0000      0.0000      0.0000      0.0000
103      0.0000      0.0037      0.0000      0.0000      0.0000      0.0000      0.0000      0.0000      0.0000
104      0.0000      0.0025      0.0000      0.0000      0.0000      0.0000      0.0000      0.0000      0.0000
105      0.0000      0.0007      0.0000      0.0000      0.0000      0.0000      0.0000      0.0000      0.0000
106      0.0000      0.0012      0.0000      0.0000      0.0000      0.0000      0.0000      0.0000      0.0000
107      0.0000      0.0017      0.0000      0.0000      0.0000      0.0000      0.0000      0.0000      0.0000
108      0.0000      0.0017      0.0000      0.0000      0.0000      0.0000      0.0000      0.0000      0.0000
109      0.0000      0.0024      0.0000      0.0000      0.0000      0.0000      0.0000      0.0000      0.0000
110      0.0000      0.0039      0.0000      0.0000      0.0000      0.0000      0.0000      0.0000      0.0074
111      0.0000      0.0022      0.0000      0.0018      0.0000      0.0000      0.0000      0.0000      0.0000
112      0.0000      0.0070      0.0000      0.0000      0.0000      0.0000      0.0000      0.0049      0.0000
113      0.0000      0.0064      0.0000      0.0013      0.0000      0.0000      0.0000      0.0000      0.0000
114      0.0000      0.0140      0.1518      0.0558      0.0000      0.0000      0.0000      0.0135      0.0000
115      0.0000      0.1733      0.0000      0.0000      0.1276      0.1955      0.0336      0.0235      0.2249
116      0.0000      0.1583      0.0427      0.1823      0.1582      0.0536      0.0491      0.6036      0.0000
117      0.3883      0.3635      0.2966      0.1900      0.0780      0.0000      0.4728      0.3046      0.7965
118      0.0000      0.0408      0.0000      0.0849      0.0000      0.0713      0.0595      0.0310      0.0000
119      0.0000      0.0342      0.0000      0.0000      0.0000      0.0000      0.0265      0.0170      0.0060
120      0.0000      0.0256      0.1182      0.0344      0.0058      0.0000      0.0000      0.0000      0.0000
121      0.0000      0.0045      0.0000      0.0000      0.0234      0.0082      0.0000      0.0000      0.0000
122      0.0000      0.0079      0.0000      0.0000      0.0000      0.0000      0.0000      0.0000      0.0000
123      0.0000      0.0029      0.0000      0.0000      0.0000      0.0000      0.0000      0.0000      0.0000
124      0.0000      0.0012      0.0000      0.0000      0.0000      0.0000      0.0000      0.0000      0.0000
125      0.0000      0.0026      0.0000      0.0000      0.0344      0.0000      0.0000      0.0111      0.0000
126      0.0000      0.0010      0.0000      0.0000      0.0000      0.0000      0.0000      0.0000      0.0000
127      0.0000      0.0009      0.0000      0.0000      0.0000      0.0000      0.0000      0.0000      0.0000
128      0.0000      0.0014      0.0000      0.0000      0.0000      0.0000      0.0004      0.0000      0.0000
129      0.0000      0.0010      0.0000      0.0000      0.0000      0.0000      0.0000      0.0000      0.0000
130      0.0000      0.0007      0.0000      0.0000      0.0000      0.0000      0.0000      0.0000      0.0000
131      0.0000      0.0010      0.0000      0.0000      0.0000      0.0000      0.0000      0.0000      0.0447
132      0.0000      0.0015      0.0000      0.0000      0.0000      0.0000      0.0000      0.0000      0.0000
133      0.0000      0.0009      0.0000      0.0000      0.0000      0.0000      0.0000      0.0001      0.0000
134      0.0000      0.0034      0.0000      0.0000      0.0000      0.0000      0.0000      0.0000      0.0000
135      0.0000      0.0033      0.0000      0.0000      0.0000      0.0000      0.0000      0.0000      0.0000
136      0.0000      0.0025      0.0000      0.0000      0.0411      0.0000      0.0000      0.0000      0.0000
137      0.0000      0.0070      0.0000      0.0000      0.0000      0.0000      0.0000      0.0000      0.0000
138      0.0000      0.0155      0.0000      0.0000      0.0000      0.0612      0.0000      0.0000      0.0009
139      0.0000      0.1157      0.4934      0.0000      0.0728      0.2054      0.1158      0.0000      0.1315
140      2.6645      0.5361      0.5452      1.4532      0.9405      0.4619      0.7347      0.7884      1.0281
141      1.7301      0.9494      1.1452      0.8647      0.9562      1.0755      0.9815      1.0680      0.9413
142      0.0000      0.2524      0.3697      0.2527      0.2913      0.2689      0.2648      0.1856      0.2172
143      0.0000      0.0215      0.0000      0.0683      0.0000      0.0000      0.0000      0.0000      0.0218
144      0.0000      0.0023      0.0066      0.0000      0.0000      0.0000      0.0000      0.0000      0.0000
145      0.0000      0.0035      0.0000      0.0000      0.0000      0.0000      0.0000      0.0000      0.0000
146      0.0000      0.0019      0.0000      0.0000      0.0000      0.0000      0.0000      0.0000      0.0000
147      0.0000      0.0027      0.0000      0.0000      0.0000      0.0000      0.0000      0.0000      0.0000
148      0.0000      0.0019      0.0000      0.0000      0.0000      0.0000      0.0000      0.0000      0.0000
149      0.0000      0.0004      0.0000      0.0000      0.0000      0.0000      0.0000      0.0000      0.0000
150      0.0000      0.0009      0.0000      0.0085      0.0000      0.0000      0.0000      0.0000      0.0000

# j      m_j: min, <> & last-chain-values for 1 ...  7 chains
  1  0.0000E+00  6.4228E-06  0.0000E+00  0.0000E+00  0.0000E+00  0.0000E+00  0.0000E+00  0.0000E+00  0.0000E+00
  2  6.9112E-02  6.5675E-02  6.6392E-02  6.7064E-02  6.7128E-02  6.6514E-02  6.6076E-02  6.7991E-02  6.6527E-02
  3  0.0000E+00  1.9785E-05  0.0000E+00  0.0000E+00  0.0000E+00  0.0000E+00  0.0000E+00  0.0000E+00  0.0000E+00
  4  0.0000E+00  7.7189E-06  0.0000E+00  0.0000E+00  0.0000E+00  0.0000E+00  0.0000E+00  0.0000E+00  0.0000E+00
  5  0.0000E+00  8.1543E-06  0.0000E+00  0.0000E+00  0.0000E+00  0.0000E+00  0.0000E+00  0.0000E+00  0.0000E+00
  6  0.0000E+00  9.0556E-06  0.0000E+00  0.0000E+00  0.0000E+00  0.0000E+00  0.0000E+00  0.0000E+00  0.0000E+00
  7  0.0000E+00  4.3549E-05  0.0000E+00  0.0000E+00  0.0000E+00  0.0000E+00  0.0000E+00  0.0000E+00  0.0000E+00
  8  0.0000E+00  3.1807E-05  0.0000E+00  0.0000E+00  0.0000E+00  0.0000E+00  0.0000E+00  0.0000E+00  0.0000E+00
  9  0.0000E+00  3.8440E-05  0.0000E+00  0.0000E+00  0.0000E+00  0.0000E+00  0.0000E+00  0.0000E+00  0.0000E+00
 10  0.0000E+00  2.1044E-04  0.0000E+00  0.0000E+00  0.0000E+00  0.0000E+00  0.0000E+00  0.0000E+00  0.0000E+00
 11  0.0000E+00  3.8796E-04  0.0000E+00  1.8993E-03  0.0000E+00  0.0000E+00  0.0000E+00  0.0000E+00  2.0536E-04
 12  0.0000E+00  5.6700E-04  0.0000E+00  0.0000E+00  0.0000E+00  0.0000E+00  0.0000E+00  0.0000E+00  4.9668E-04
 13  0.0000E+00  6.0690E-04  0.0000E+00  0.0000E+00  0.0000E+00  7.4570E-03  0.0000E+00  0.0000E+00  8.2454E-04
 14  0.0000E+00  8.0088E-04  0.0000E+00  0.0000E+00  0.0000E+00  0.0000E+00  6.0806E-06  8.7523E-04  1.1257E-02
 15  0.0000E+00  2.0926E-03  3.2647E-04  0.0000E+00  4.9444E-04  0.0000E+00  9.0963E-03  0.0000E+00  0.0000E+00
 16  0.0000E+00  4.5844E-03  0.0000E+00  0.0000E+00  0.0000E+00  0.0000E+00  0.0000E+00  2.6505E-03  0.0000E+00
 17  0.0000E+00  5.4635E-03  1.2828E-02  0.0000E+00  0.0000E+00  0.0000E+00  0.0000E+00  0.0000E+00  0.0000E+00
 18  0.0000E+00  1.3431E-02  2.0568E-02  0.0000E+00  0.0000E+00  0.0000E+00  1.0633E-02  8.0622E-02  0.0000E+00
 19  0.0000E+00  3.6264E-02  1.6509E-01  0.0000E+00  0.0000E+00  2.1592E-01  7.8942E-02  0.0000E+00  1.5607E-01
 20  1.0834E-02  2.6814E-01  6.2807E-01  7.7449E-02  7.3367E-02  7.0734E-02  3.2444E-01  0.0000E+00  0.0000E+00
 21  0.0000E+00  1.7140E-01  7.2552E-02  0.0000E+00  0.0000E+00  0.0000E+00  0.0000E+00  4.1901E-01  9.6761E-03
 22  0.0000E+00  2.6801E-01  1.9462E-01  2.6755E-01  2.6336E-01  0.0000E+00  0.0000E+00  0.0000E+00  9.0758E-02
 23  0.0000E+00  3.3746E-01  0.0000E+00  0.0000E+00  0.0000E+00  4.8497E-01  4.1200E-01  2.1564E-01  0.0000E+00
 24  0.0000E+00  2.1156E-01  0.0000E+00  2.1835E-01  0.0000E+00  0.0000E+00  2.5862E-01  0.0000E+00  0.0000E+00
 25  0.0000E+00  2.7481E-01  1.9214E-02  1.4719E-01  3.2798E-01  0.0000E+00  0.0000E+00  0.0000E+00  0.0000E+00
 26  0.0000E+00  6.0219E-06  0.0000E+00  0.0000E+00  0.0000E+00  0.0000E+00  0.0000E+00  0.0000E+00  0.0000E+00
 27  0.0000E+00  9.8654E-06  0.0000E+00  0.0000E+00  0.0000E+00  0.0000E+00  0.0000E+00  0.0000E+00  0.0000E+00
 28  0.0000E+00  8.4247E-06  0.0000E+00  0.0000E+00  0.0000E+00  0.0000E+00  0.0000E+00  0.0000E+00  0.0000E+00
 29  0.0000E+00  4.9319E-06  0.0000E+00  0.0000E+00  0.0000E+00  0.0000E+00  0.0000E+00  0.0000E+00  0.0000E+00
 30  0.0000E+00  3.4849E-05  0.0000E+00  1.3405E-04  0.0000E+00  0.0000E+00  0.0000E+00  0.0000E+00  0.0000E+00
 31  0.0000E+00  1.3620E-05  0.0000E+00  0.0000E+00  0.0000E+00  0.0000E+00  0.0000E+00  0.0000E+00  5.0792E-05
 32  0.0000E+00  5.6481E-05  0.0000E+00  0.0000E+00  0.0000E+00  0.0000E+00  0.0000E+00  0.0000E+00  0.0000E+00
 33  0.0000E+00  6.3366E-05  0.0000E+00  0.0000E+00  0.0000E+00  0.0000E+00  0.0000E+00  0.0000E+00  0.0000E+00
 34  0.0000E+00  4.6041E-05  1.2841E-06  0.0000E+00  0.0000E+00  0.0000E+00  0.0000E+00  0.0000E+00  0.0000E+00
 35  0.0000E+00  5.1980E-04  0.0000E+00  0.0000E+00  0.0000E+00  0.0000E+00  0.0000E+00  0.0000E+00  0.0000E+00
 36  0.0000E+00  3.0271E-04  0.0000E+00  1.1688E-03  0.0000E+00  0.0000E+00  0.0000E+00  4.6757E-04  0.0000E+00
 37  0.0000E+00  4.7951E-04  0.0000E+00  3.4461E-03  4.3270E-03  0.0000E+00  0.0000E+00  0.0000E+00  0.0000E+00
 38  0.0000E+00  4.0211E-04  0.0000E+00  6.6121E-04  0.0000E+00  0.0000E+00  0.0000E+00  0.0000E+00  0.0000E+00
 39  0.0000E+00  1.8534E-03  0.0000E+00  0.0000E+00  0.0000E+00  1.4181E-02  1.0546E-02  0.0000E+00  0.0000E+00
 40  0.0000E+00  3.8585E-03  0.0000E+00  3.5862E-04  0.0000E+00  0.0000E+00  0.0000E+00  5.8588E-03  0.0000E+00
 41  0.0000E+00  9.3858E-03  8.9031E-03  0.0000E+00  0.0000E+00  0.0000E+00  0.0000E+00  0.0000E+00  1.6610E-02
 42  0.0000E+00  1.0541E-02  5.0242E-02  0.0000E+00  0.0000E+00  0.0000E+00  0.0000E+00  0.0000E+00  0.0000E+00
 43  8.6394E+00  9.0228E+00  9.1849E+00  8.7813E+00  9.0783E+00  9.0469E+00  9.3053E+00  9.2274E+00  9.1612E+00
 44  3.7429E+01  3.2456E+01  3.2783E+01  3.3724E+01  3.3426E+01  3.2584E+01  3.2979E+01  3.3187E+01  3.3139E+01
 45  1.4534E+00  8.2833E-01  8.9625E-01  5.5795E-01  8.6180E-01  8.4406E-01  1.1916E+00  5.7349E-01  1.2793E+00
 46  2.5775E+00  1.4737E+00  1.6131E+00  1.2900E+00  1.0485E+00  1.8576E+00  1.8551E+00  1.5600E+00  1.6889E+00
 47  0.0000E+00  6.8935E-01  9.3297E-01  7.0462E-01  5.1396E-01  1.0878E+00  5.0536E-01  1.1379E+00  6.4214E-01
 48  0.0000E+00  2.0585E-01  0.0000E+00  6.1718E-01  3.7405E-01  9.6062E-02  0.0000E+00  0.0000E+00  2.9181E-01
 49  0.0000E+00  2.8555E-01  3.7251E-02  4.0349E-01  6.7394E-01  3.5484E-01  0.0000E+00  1.6477E-01  2.4232E-01
 50  0.0000E+00  9.6723E-02  3.0668E-01  8.8213E-01  3.6599E-01  0.0000E+00  0.0000E+00  2.4084E-02  0.0000E+00
 51  0.0000E+00  1.0416E-05  0.0000E+00  0.0000E+00  0.0000E+00  0.0000E+00  0.0000E+00  0.0000E+00  0.0000E+00
 52  0.0000E+00  1.7578E-05  0.0000E+00  1.5120E-04  0.0000E+00  0.0000E+00  0.0000E+00  0.0000E+00  0.0000E+00
 53  0.0000E+00  8.9085E-06  0.0000E+00  0.0000E+00  0.0000E+00  0.0000E+00  0.0000E+00  0.0000E+00  0.0000E+00
 54  0.0000E+00  4.8918E-05  0.0000E+00  0.0000E+00  0.0000E+00  2.6123E-05  0.0000E+00  0.0000E+00  0.0000E+00
 55  0.0000E+00  6.2321E-05  0.0000E+00  0.0000E+00  0.0000E+00  0.0000E+00  0.0000E+00  0.0000E+00  0.0000E+00
 56  0.0000E+00  2.3895E-05  0.0000E+00  0.0000E+00  0.0000E+00  1.7360E-04  0.0000E+00  0.0000E+00  0.0000E+00
 57  0.0000E+00  3.9256E-05  0.0000E+00  0.0000E+00  0.0000E+00  0.0000E+00  0.0000E+00  2.7260E-04  0.0000E+00
 58  0.0000E+00  4.4387E-05  0.0000E+00  0.0000E+00  0.0000E+00  0.0000E+00  0.0000E+00  0.0000E+00  0.0000E+00
 59  0.0000E+00  1.0951E-04  0.0000E+00  0.0000E+00  0.0000E+00  0.0000E+00  0.0000E+00  0.0000E+00  0.0000E+00
 60  0.0000E+00  2.6883E-04  0.0000E+00  0.0000E+00  0.0000E+00  0.0000E+00  2.7854E-05  0.0000E+00  0.0000E+00
 61  0.0000E+00  3.9606E-04  0.0000E+00  0.0000E+00  0.0000E+00  4.9989E-04  0.0000E+00  0.0000E+00  0.0000E+00
 62  0.0000E+00  7.1462E-04  0.0000E+00  2.9963E-04  0.0000E+00  0.0000E+00  0.0000E+00  5.8219E-03  0.0000E+00
 63  0.0000E+00  7.2339E-04  0.0000E+00  0.0000E+00  2.0097E-03  0.0000E+00  0.0000E+00  0.0000E+00  3.4431E-04
 64  0.0000E+00  1.2856E-03  5.2648E-04  2.5928E-03  0.0000E+00  0.0000E+00  0.0000E+00  6.5083E-03  0.0000E+00
 65  0.0000E+00  6.9423E-03  0.0000E+00  0.0000E+00  0.0000E+00  3.2576E-02  0.0000E+00  0.0000E+00  0.0000E+00
 66  0.0000E+00  1.0471E-02  0.0000E+00  6.8954E-03  0.0000E+00  8.0410E-03  0.0000E+00  3.7467E-03  0.0000E+00
 67  4.1418E-01  9.4803E-01  5.2526E-01  8.8052E-01  9.3498E-01  8.9979E-01  9.4705E-01  9.6132E-01  8.0099E-01
 68  9.9920E+00  9.2163E+00  9.1136E+00  9.3183E+00  9.5204E+00  9.2535E+00  9.3855E+00  9.6441E+00  9.2636E+00
 69  0.0000E+00  5.6220E-02  1.0505E-01  0.0000E+00  0.0000E+00  5.6384E-02  0.0000E+00  2.8137E-01  2.3446E-01
 70  1.1045E+00  2.3802E+00  2.1037E+00  2.4752E+00  2.4621E+00  2.5304E+00  2.4176E+00  2.0678E+00  2.4546E+00
 71  5.2525E+00  5.7852E+00  5.9335E+00  5.4340E+00  5.8344E+00  6.2560E+00  5.5155E+00  6.2706E+00  5.8015E+00
 72  0.0000E+00  2.1106E-01  2.0197E-01  5.9762E-02  0.0000E+00  0.0000E+00  0.0000E+00  0.0000E+00  2.1971E-01
 73  0.0000E+00  3.2371E-02  5.0600E-02  0.0000E+00  0.0000E+00  0.0000E+00  8.3984E-02  0.0000E+00  0.0000E+00
 74  0.0000E+00  2.7596E-02  0.0000E+00  0.0000E+00  0.0000E+00  0.0000E+00  0.0000E+00  0.0000E+00  0.0000E+00
 75  0.0000E+00  3.9417E-02  0.0000E+00  0.0000E+00  0.0000E+00  0.0000E+00  0.0000E+00  0.0000E+00  0.0000E+00
 76  0.0000E+00  7.3551E-06  0.0000E+00  0.0000E+00  0.0000E+00  0.0000E+00  0.0000E+00  0.0000E+00  0.0000E+00
 77  0.0000E+00  2.7691E-06  1.4732E-05  0.0000E+00  0.0000E+00  0.0000E+00  0.0000E+00  0.0000E+00  0.0000E+00
 78  0.0000E+00  4.0038E-06  0.0000E+00  0.0000E+00  0.0000E+00  0.0000E+00  0.0000E+00  0.0000E+00  0.0000E+00
 79  0.0000E+00  6.3495E-05  0.0000E+00  0.0000E+00  4.8598E-04  0.0000E+00  7.4603E-06  0.0000E+00  0.0000E+00
 80  0.0000E+00  2.9480E-05  1.0047E-04  0.0000E+00  1.0245E-04  0.0000E+00  0.0000E+00  0.0000E+00  0.0000E+00
 81  0.0000E+00  1.8723E-05  0.0000E+00  0.0000E+00  0.0000E+00  0.0000E+00  0.0000E+00  0.0000E+00  0.0000E+00
 82  0.0000E+00  4.2321E-05  0.0000E+00  0.0000E+00  0.0000E+00  0.0000E+00  0.0000E+00  0.0000E+00  0.0000E+00
 83  0.0000E+00  8.6096E-05  0.0000E+00  0.0000E+00  0.0000E+00  5.7578E-05  2.6173E-05  0.0000E+00  0.0000E+00
 84  0.0000E+00  1.8249E-04  2.6756E-05  0.0000E+00  0.0000E+00  0.0000E+00  0.0000E+00  0.0000E+00  0.0000E+00
 85  0.0000E+00  2.9370E-04  1.6622E-03  0.0000E+00  0.0000E+00  0.0000E+00  0.0000E+00  0.0000E+00  1.9254E-03
 86  0.0000E+00  4.2905E-04  0.0000E+00  4.9408E-03  0.0000E+00  0.0000E+00  2.6613E-04  0.0000E+00  0.0000E+00
 87  0.0000E+00  6.5339E-04  0.0000E+00  4.4154E-04  0.0000E+00  0.0000E+00  0.0000E+00  0.0000E+00  5.8086E-04
 88  0.0000E+00  5.1492E-04  0.0000E+00  0.0000E+00  0.0000E+00  0.0000E+00  0.0000E+00  0.0000E+00  0.0000E+00
 89  0.0000E+00  2.5855E-03  0.0000E+00  2.0636E-02  0.0000E+00  0.0000E+00  0.0000E+00  0.0000E+00  6.9696E-03
 90  0.0000E+00  2.2140E-02  0.0000E+00  2.4475E-02  8.8103E-04  8.5351E-03  0.0000E+00  1.7551E-02  0.0000E+00
 91  0.0000E+00  1.1058E-02  0.0000E+00  0.0000E+00  0.0000E+00  2.8716E-02  0.0000E+00  8.5051E-03  0.0000E+00
 92  0.0000E+00  2.9836E-02  0.0000E+00  5.3726E-03  9.8128E-02  1.2240E-01  0.0000E+00  2.9523E-03  0.0000E+00
 93  2.1026E+00  1.8912E+00  1.9561E+00  2.3994E+00  1.9411E+00  1.8864E+00  1.9165E+00  2.1249E+00  1.7270E+00
 94  3.3930E+00  3.4604E+00  3.5525E+00  3.1461E+00  3.4162E+00  3.7927E+00  3.5446E+00  3.4351E+00  3.4116E+00
 95  0.0000E+00  6.7174E-01  6.5745E-01  3.2559E-01  4.2434E-01  6.2811E-01  6.3057E-01  8.5751E-01  6.6968E-01
 96  7.6563E+00  7.0212E+00  7.3767E+00  7.0227E+00  7.3072E+00  7.0121E+00  7.2654E+00  6.7882E+00  7.3056E+00
 97  3.3988E+00  3.0611E+00  2.4461E+00  3.3140E+00  3.3311E+00  2.9355E+00  3.2848E+00  2.5848E+00  3.1418E+00
 98  9.5241E+00  9.4353E+00  9.8167E+00  9.1591E+00  9.7035E+00  9.7996E+00  9.3484E+00  9.7144E+00  9.5084E+00
 99  2.9311E+00  4.3660E+00  4.5511E+00  3.9094E+00  3.7663E+00  3.9893E+00  4.6329E+00  4.2410E+00  4.0734E+00
100  0.0000E+00  1.8234E+00  1.6867E+00  1.6486E+00  1.4259E+00  1.9535E+00  1.5609E+00  1.5260E+00  1.8018E+00
101  0.0000E+00  6.1444E-06  0.0000E+00  0.0000E+00  0.0000E+00  0.0000E+00  1.8023E-05  0.0000E+00  0.0000E+00
102  0.0000E+00  3.3021E-06  0.0000E+00  0.0000E+00  1.9347E-05  0.0000E+00  0.0000E+00  0.0000E+00  0.0000E+00
103  0.0000E+00  1.7315E-05  0.0000E+00  0.0000E+00  0.0000E+00  0.0000E+00  0.0000E+00  0.0000E+00  0.0000E+00
104  0.0000E+00  1.5285E-05  0.0000E+00  0.0000E+00  0.0000E+00  0.0000E+00  0.0000E+00  0.0000E+00  0.0000E+00
105  0.0000E+00  8.6062E-06  0.0000E+00  0.0000E+00  0.0000E+00  0.0000E+00  0.0000E+00  0.0000E+00  0.0000E+00
106  0.0000E+00  1.7266E-05  0.0000E+00  0.0000E+00  0.0000E+00  0.0000E+00  0.0000E+00  0.0000E+00  0.0000E+00
107  0.0000E+00  3.1967E-05  0.0000E+00  0.0000E+00  0.0000E+00  0.0000E+00  0.0000E+00  0.0000E+00  0.0000E+00
108  0.0000E+00  5.2599E-05  0.0000E+00  0.0000E+00  0.0000E+00  0.0000E+00  0.0000E+00  0.0000E+00  0.0000E+00
109  0.0000E+00  8.9920E-05  0.0000E+00  0.0000E+00  0.0000E+00  0.0000E+00  0.0000E+00  0.0000E+00  0.0000E+00
110  0.0000E+00  1.7256E-04  0.0000E+00  0.0000E+00  0.0000E+00  0.0000E+00  0.0000E+00  0.0000E+00  3.3556E-04
111  0.0000E+00  1.3687E-04  0.0000E+00  1.1401E-04  0.0000E+00  0.0000E+00  0.0000E+00  0.0000E+00  0.0000E+00
112  0.0000E+00  5.6934E-04  0.0000E+00  0.0000E+00  0.0000E+00  0.0000E+00  0.0000E+00  4.0910E-04  0.0000E+00
113  0.0000E+00  7.7747E-04  0.0000E+00  1.6081E-04  0.0000E+00  0.0000E+00  0.0000E+00  0.0000E+00  0.0000E+00
114  0.0000E+00  3.0144E-03  3.2669E-02  1.2119E-02  0.0000E+00  0.0000E+00  0.0000E+00  2.9513E-03  0.0000E+00
115  0.0000E+00  7.4455E-02  0.0000E+00  0.0000E+00  5.5308E-02  8.4366E-02  1.4545E-02  1.0307E-02  9.7753E-02
116  0.0000E+00  1.0920E-01  2.9512E-02  1.2725E-01  1.1013E-01  3.7128E-02  3.4166E-02  4.2514E-01  0.0000E+00
117  3.3274E-01  2.9463E-01  2.4096E-01  1.5586E-01  6.3787E-02  0.0000E+00  3.8650E-01  2.5213E-01  6.5315E-01
118  0.0000E+00  6.7149E-02  0.0000E+00  1.4139E-01  0.0000E+00  1.1781E-01  9.8649E-02  5.2070E-02  0.0000E+00
119  0.0000E+00  9.7182E-02  0.0000E+00  0.0000E+00  0.0000E+00  0.0000E+00  7.5990E-02  4.9209E-02  1.7392E-02
120  0.0000E+00  1.0354E-01  4.7981E-01  1.4111E-01  2.3622E-02  0.0000E+00  0.0000E+00  0.0000E+00  0.0000E+00
121  0.0000E+00  2.1230E-02  0.0000E+00  0.0000E+00  1.1273E-01  3.9358E-02  0.0000E+00  0.0000E+00  0.0000E+00
122  0.0000E+00  5.0671E-02  0.0000E+00  0.0000E+00  0.0000E+00  0.0000E+00  0.0000E+00  0.0000E+00  0.0000E+00
123  0.0000E+00  2.4356E-02  0.0000E+00  0.0000E+00  0.0000E+00  0.0000E+00  0.0000E+00  0.0000E+00  0.0000E+00
124  0.0000E+00  1.1116E-02  0.0000E+00  0.0000E+00  0.0000E+00  0.0000E+00  0.0000E+00  0.0000E+00  0.0000E+00
125  0.0000E+00  3.0153E-02  0.0000E+00  0.0000E+00  4.0090E-01  0.0000E+00  0.0000E+00  1.3096E-01  0.0000E+00
126  0.0000E+00  6.2959E-06  0.0000E+00  0.0000E+00  0.0000E+00  0.0000E+00  0.0000E+00  0.0000E+00  0.0000E+00
127  0.0000E+00  2.9524E-06  0.0000E+00  0.0000E+00  0.0000E+00  0.0000E+00  0.0000E+00  0.0000E+00  0.0000E+00
128  0.0000E+00  6.4489E-06  0.0000E+00  0.0000E+00  0.0000E+00  0.0000E+00  2.0603E-06  0.0000E+00  0.0000E+00
129  0.0000E+00  9.9494E-06  0.0000E+00  0.0000E+00  0.0000E+00  0.0000E+00  0.0000E+00  0.0000E+00  0.0000E+00
130  0.0000E+00  9.2895E-06  0.0000E+00  0.0000E+00  0.0000E+00  0.0000E+00  0.0000E+00  0.0000E+00  0.0000E+00
131  0.0000E+00  1.5864E-05  0.0000E+00  0.0000E+00  0.0000E+00  0.0000E+00  0.0000E+00  0.0000E+00  6.9544E-04
132  0.0000E+00  3.0349E-05  0.0000E+00  0.0000E+00  0.0000E+00  0.0000E+00  0.0000E+00  0.0000E+00  0.0000E+00
133  0.0000E+00  2.6212E-05  0.0000E+00  0.0000E+00  0.0000E+00  0.0000E+00  0.0000E+00  2.0827E-06  0.0000E+00
134  0.0000E+00  1.2941E-04  0.0000E+00  0.0000E+00  0.0000E+00  0.0000E+00  0.0000E+00  0.0000E+00  0.0000E+00
135  0.0000E+00  1.5195E-04  0.0000E+00  0.0000E+00  0.0000E+00  0.0000E+00  0.0000E+00  0.0000E+00  0.0000E+00
136  0.0000E+00  1.6926E-04  0.0000E+00  0.0000E+00  2.7653E-03  0.0000E+00  0.0000E+00  0.0000E+00  0.0000E+00
137  0.0000E+00  6.3433E-04  0.0000E+00  0.0000E+00  0.0000E+00  0.0000E+00  0.0000E+00  0.0000E+00  0.0000E+00
138  0.0000E+00  2.3535E-03  0.0000E+00  0.0000E+00  0.0000E+00  9.3204E-03  0.0000E+00  0.0000E+00  1.4030E-04
139  0.0000E+00  3.3076E-02  1.4137E-01  0.0000E+00  2.0993E-02  5.8955E-02  3.3374E-02  0.0000E+00  3.8024E-02
140  1.8654E+00  3.5504E-01  3.6190E-01  9.7377E-01  6.2864E-01  3.0726E-01  4.9068E-01  5.3312E-01  6.8881E-01
141  1.8538E+00  9.6226E-01  1.1635E+00  8.8684E-01  9.7816E-01  1.0950E+00  1.0033E+00  1.1053E+00  9.6516E-01
142  0.0000E+00  3.0438E-01  4.4685E-01  3.0830E-01  3.5457E-01  3.2578E-01  3.2210E-01  2.2859E-01  2.6494E-01
143  0.0000E+00  5.1663E-02  0.0000E+00  1.6568E-01  0.0000E+00  0.0000E+00  0.0000E+00  0.0000E+00  5.2845E-02
144  0.0000E+00  1.0926E-02  3.0951E-02  0.0000E+00  0.0000E+00  0.0000E+00  0.0000E+00  0.0000E+00  0.0000E+00
145  0.0000E+00  2.4317E-02  0.0000E+00  0.0000E+00  0.0000E+00  0.0000E+00  0.0000E+00  0.0000E+00  0.0000E+00
146  0.0000E+00  1.6267E-02  0.0000E+00  0.0000E+00  0.0000E+00  0.0000E+00  0.0000E+00  0.0000E+00  0.0000E+00
147  0.0000E+00  3.0344E-02  0.0000E+00  0.0000E+00  0.0000E+00  0.0000E+00  0.0000E+00  0.0000E+00  0.0000E+00
148  0.0000E+00  2.9342E-02  0.0000E+00  0.0000E+00  0.0000E+00  0.0000E+00  0.0000E+00  0.0000E+00  0.0000E+00
149  0.0000E+00  6.9571E-03  0.0000E+00  0.0000E+00  0.0000E+00  0.0000E+00  0.0000E+00  0.0000E+00  0.0000E+00
150  0.0000E+00  1.9433E-02  0.0000E+00  1.8343E-01  0.0000E+00  0.0000E+00  0.0000E+00  0.0000E+00  0.0000E+00

# AV, chi2 & Mass for <> & i_chain = 1 ...  7 solutions
AV       0.1922      0.1929      0.1930      0.1938      0.1934      0.1927      0.1907      0.1932      0.1918
chi2 2.6761E+00  2.7964E+00  2.7687E+00  2.7669E+00  2.7714E+00  2.7837E+00  2.7603E+00  2.7690E+00  2.7677E+00
Mass 6.7799E-10  7.1740E-10  7.1586E-10  7.0986E-10  7.1132E-10  7.1405E-10  7.0925E-10  7.0297E-10  7.0814E-10
 -17.60                                  [v0_min (km/s) before EX0s...]
  67.27                                  [vd_min (km/s) before EX0s...]


## Synthetic spectrum (Best Model) ##l_obs f_obs f_syn wei
 3070    [Nl_obs]
 3359.00    0.14878   0.45467   -1.000
 3360.00    0.26208   0.44160   -1.000
 3361.00    0.26586   0.45109   -1.000
 3362.00    0.28078   0.47693   -1.000
 3363.00    0.30071   0.50603   -1.000
 3364.00    0.31812   0.52314   -1.000
 3365.00    0.32998   0.52243   -1.000
 3366.00    0.33426   0.51128   -1.000
 3367.00    0.33224   0.49783   -1.000
 3368.00    0.32658   0.48583   -1.000
 3369.00    0.31928   0.47484   -1.000
 3370.00    0.31670   0.46339   -1.000
 3371.00    0.31832   0.45647   -1.000
 3372.00    0.31792   0.46086   -1.000
 3373.00    0.32746   0.47801   -1.000
 3374.00    0.34536   0.50218   -1.000
 3375.00    0.36284   0.52485   -1.000
 3376.00    0.37593   0.53620   -1.000
 3377.00    0.38385   0.53194   -1.000
 3378.00    0.38489   0.51735   -1.000
 3379.00    0.38364   0.50433   -1.000
 3380.00    0.38041   0.50124   -1.000
 3381.00    0.37919   0.50731   -1.000
 3382.00    0.38480   0.51698   -1.000
 3383.00    0.39040   0.52585   -1.000
 3384.00    0.40044   0.53301   -1.000
 3385.00    0.40775   0.53745   -1.000
 3386.00    0.40989   0.53566   -1.000
 3387.00    0.41715   0.53019   -1.000
 3388.00    0.42137   0.52838   -1.000
 3389.00    0.42515   0.53166   -1.000
 3390.00    0.42955   0.53464   -1.000
 3391.00    0.43145   0.53196   -1.000
 3392.00    0.42958   0.52431   -1.000
 3393.00    0.42695   0.52119   -1.000
 3394.00    0.43080   0.52866   -1.000
 3395.00    0.44111   0.54390   -1.000
 3396.00    0.45280   0.56095   -1.000
 3397.00    0.46937   0.57477   -1.000
 3398.00    0.47936   0.58237   -1.000
 3399.00    0.48309   0.58137   -1.000
 3400.00    0.48750   0.57266   -1.000
 3401.00    0.48389   0.55824   -1.000
 3402.00    0.47729   0.54255   -1.000
 3403.00    0.46790   0.53276   -1.000
 3404.00    0.46235   0.52999   -1.000
 3405.00    0.45768   0.53037   -1.000
 3406.00    0.45163   0.52750   -1.000
 3407.00    0.44809   0.52101   -1.000
 3408.00    0.44693   0.51679   -1.000
 3409.00    0.44631   0.52019   -1.000
 3410.00    0.44963   0.52723   -1.000
 3411.00    0.45698   0.52890   -1.000
 3412.00    0.46156   0.52419   -1.000
 3413.00    0.45735   0.51846   -1.000
 3414.00    0.45023   0.51911   -1.000
 3415.00    0.45360   0.52738   -1.000
 3416.00    0.46353   0.53892   -1.000
 3417.00    0.47219   0.55090   -1.000
 3418.00    0.48222   0.56209   -1.000
 3419.00    0.49312   0.57083   -1.000
 3420.00    0.49720   0.57415   -1.000
 3421.00    0.49537   0.56907   -1.000
 3422.00    0.49217   0.55750   -1.000
 3423.00    0.48752   0.54689   -1.000
 3424.00    0.48634   0.54320   -1.000
 3425.00    0.49195   0.54602   -1.000
 3426.00    0.49896   0.55253   -1.000
 3427.00    0.50648   0.56350   -1.000
 3428.00    0.51291   0.57882   -1.000
 3429.00    0.51913   0.59141   -1.000
 3430.00    0.52523   0.59108   -1.000
 3431.00    0.52557   0.57682   -1.000
 3432.00    0.51700   0.56093   -1.000
 3433.00    0.51244   0.55597   -1.000
 3434.00    0.51408   0.56415   -1.000
 3435.00    0.52096   0.57493   -1.000
 3436.00    0.52599   0.57635   -1.000
 3437.00    0.52085   0.56642   -1.000
 3438.00    0.50848   0.54935   -1.000
 3439.00    0.48915   0.52896   -1.000
 3440.00    0.46991   0.50856   -1.000
 3441.00    0.45944   0.49315   -1.000
 3442.00    0.45827   0.48781   -1.000
 3443.00    0.46198   0.49263   -1.000
 3444.00    0.47046   0.50434   -1.000
 3445.00    0.48191   0.52057   -1.000
 3446.00    0.49840   0.54062   -1.000
 3447.00    0.51478   0.56158   -1.000
 3448.00    0.52790   0.57794   -1.000
 3449.00    0.53903   0.58261   -1.000
 3450.00    0.54528   0.57191   -1.000
 3451.00    0.53826   0.55338   -1.000
 3452.00    0.52767   0.53944   -1.000
 3453.00    0.52750   0.53664   -1.000
 3454.00    0.53102   0.54249   -1.000
 3455.00    0.53814   0.54964   -1.000
 3456.00    0.54550   0.55156   -1.000
 3457.00    0.54374   0.54638  709.504
 3458.00    0.53549   0.53676  144.415
 3459.00    0.52884   0.52622   91.326
 3460.00    0.52347   0.51829   91.474
 3461.00    0.52068   0.51911  191.585
 3462.00    0.52619   0.53042   -1.000
 3463.00    0.53761   0.54319   -1.000
 3464.00    0.54756   0.54797  709.504
 3465.00    0.55469   0.54634   -1.000
 3466.00    0.55679   0.54722   -1.000
 3467.00    0.55395   0.55554  709.504
 3468.00    0.56331   0.56852   -1.000
 3469.00    0.57350   0.57916   -1.000
 3470.00    0.57544   0.58158   -1.000
 3471.00    0.57314   0.57485  709.504
 3472.00    0.56471   0.56110  709.504
 3473.00    0.55236   0.54246   -1.000
 3474.00    0.53840   0.52442  145.020
 3475.00    0.52201   0.51413   93.367
 3476.00    0.51116   0.51611   93.562
 3477.00    0.51718   0.52879  194.551
 3478.00    0.53877   0.54482   -1.000
 3479.00    0.56093   0.55880  709.504
 3480.00    0.57464   0.56751   -1.000
 3481.00    0.57763   0.56840   -1.000
 3482.00    0.57240   0.56316   -1.000
 3483.00    0.56952   0.55779   -1.000
 3484.00    0.57126   0.55906   -1.000
 3485.00    0.57776   0.56890   -1.000
 3486.00    0.58810   0.57935   -1.000
 3487.00    0.59122   0.58051   -1.000
 3488.00    0.58273   0.57028   -1.000
 3489.00    0.56827   0.55432   -1.000
 3490.00    0.55111   0.54320   -1.000
 3491.00    0.54494   0.54332  709.504
 3492.00    0.54721   0.54939  709.504
 3493.00    0.55192   0.55178  709.504
 3494.00    0.55299   0.54655   -1.000
 3495.00    0.54921   0.53628   -1.000
 3496.00    0.54306   0.52980   -1.000
 3497.00    0.53989   0.53463   -1.000
 3498.00    0.55358   0.54767   -1.000
 3499.00    0.57209   0.55991   -1.000
 3500.00    0.58339   0.56492   -1.000
 3501.00    0.59026   0.56608   -1.000
 3502.00    0.59207   0.56858   -1.000
 3503.00    0.59477   0.57038   -1.000
 3504.00    0.59622   0.56765   -1.000
 3505.00    0.59142   0.56102   -1.000
 3506.00    0.58793   0.55522   -1.000
 3507.00    0.58563   0.55270   -1.000
 3508.00    0.58604   0.55194   -1.000
 3509.00    0.58911   0.55033   -1.000
 3510.00    0.58167   0.54645   -1.000
 3511.00    0.57265   0.54105   -1.000
 3512.00    0.56470   0.53498   -1.000
 3513.00    0.55760   0.53105   -1.000
 3514.00    0.55506   0.53441   -1.000
 3515.00    0.56159   0.54814   -1.000
 3516.00    0.57844   0.56822   -1.000
 3517.00    0.59216   0.58327   -1.000
 3518.00    0.59647   0.58440   -1.000
 3519.00    0.59027   0.57250   -1.000
 3520.00    0.57790   0.55668   -1.000
 3521.00    0.56629   0.54426   -1.000
 3522.00    0.55511   0.53517   -1.000
 3523.00    0.54448   0.52559  142.259
 3524.00    0.52988   0.51540   92.497
 3525.00    0.51571   0.51122   93.466
 3526.00    0.51545   0.51901  199.004
 3527.00    0.53151   0.53633   -1.000
 3528.00    0.55345   0.55642  709.504
 3529.00    0.56901   0.57203  709.504
 3530.00    0.57818   0.57949  709.504
 3531.00    0.58200   0.58005  709.504
 3532.00    0.58575   0.57634   -1.000
 3533.00    0.58882   0.57154   -1.000
 3534.00    0.58999   0.56937   -1.000
 3535.00    0.58994   0.57234   -1.000
 3536.00    0.58847   0.58068   -1.000
 3537.00    0.59081   0.59130  709.504
 3538.00    0.59883   0.60048  709.504
 3539.00    0.60365   0.60525  709.504
 3540.00    0.60165   0.60471   -1.000
 3541.00    0.59466   0.60204   -1.000
 3542.00    0.59360   0.60214   -1.000
 3543.00    0.59775   0.60629   -1.000
 3544.00    0.59998   0.61020   -1.000
 3545.00    0.60254   0.60987   -1.000
 3546.00    0.60052   0.60640   -1.000
 3547.00    0.59324   0.60322   -1.000
 3548.00    0.59104   0.60284   -1.000
 3549.00    0.59165   0.60525   -1.000
 3550.00    0.59104   0.60815   -1.000
 3551.00    0.58904   0.60758   -1.000
 3552.00    0.58276   0.60115   -1.000
 3553.00    0.57396   0.59250   -1.000
 3554.00    0.56937   0.58778   -1.000
 3555.00    0.57349   0.58923   -1.000
 3556.00    0.57670   0.59465   -1.000
 3557.00    0.57495   0.59994   -1.000
 3558.00    0.57208   0.60172   -1.000
 3559.00    0.57191   0.60136   -1.000
 3560.00    0.57467   0.60258   -1.000
 3561.00    0.58160   0.60563   -1.000
 3562.00    0.58512   0.60488   -1.000
 3563.00    0.57765   0.59363   -1.000
 3564.00    0.56189   0.57260  141.857
 3565.00    0.53844   0.55175   93.725
 3566.00    0.51990   0.54022   94.562
 3567.00    0.51815   0.53777   93.794
 3568.00    0.51891   0.53695   95.524
 3569.00    0.51553   0.53159   97.899
 3570.00    0.50909   0.52360   96.685
 3571.00    0.50971   0.51950   92.821
 3572.00    0.51757   0.52147  198.367
 3573.00    0.52783   0.52633  709.504
 3574.00    0.53518   0.53195  709.504
 3575.00    0.53882   0.53861  709.504
 3576.00    0.54250   0.54554  709.504
 3577.00    0.54483   0.55029   -1.000
 3578.00    0.54401   0.54871  146.388
 3579.00    0.53320   0.53880   99.007
 3580.00    0.51381   0.52513  105.450
 3581.00    0.50044   0.51435  108.110
 3582.00    0.49565   0.51065  108.631
 3583.00    0.49751   0.51067  110.476
 3584.00    0.49417   0.50499  113.806
 3585.00    0.48318   0.49173  116.261
 3586.00    0.47565   0.47992  113.186
 3587.00    0.47891   0.47947  107.231
 3588.00    0.48927   0.49260  101.843
 3589.00    0.50626   0.51402   94.250
 3590.00    0.52834   0.53558  197.760
 3591.00    0.54584   0.55094   -1.000
 3592.00    0.55678   0.55860  709.504
 3593.00    0.56146   0.56242  709.504
 3594.00    0.56343   0.56832   -1.000
 3595.00    0.57299   0.57849   -1.000
 3596.00    0.58588   0.58941   -1.000
 3597.00    0.59425   0.59760   -1.000
 3598.00    0.60118   0.60260  683.616
 3599.00    0.60662   0.60389  684.382
 3600.00    0.60658   0.59838   -1.000
 3601.00    0.59316   0.58504   -1.000
 3602.00    0.57614   0.56927   -1.000
 3603.00    0.56594   0.55826   -1.000
 3604.00    0.55924   0.55585  709.504
 3605.00    0.55756   0.55817  709.504
 3606.00    0.55923   0.55842  709.504
 3607.00    0.55610   0.55411  709.504
 3608.00    0.54761   0.54766  709.504
 3609.00    0.53851   0.54395   -1.000
 3610.00    0.53583   0.54543   -1.000
 3611.00    0.54401   0.55082   -1.000
 3612.00    0.55479   0.55756  709.504
 3613.00    0.55928   0.56511   -1.000
 3614.00    0.56378   0.57560   -1.000
 3615.00    0.57454   0.58569   -1.000
 3616.00    0.57903   0.58524   -1.000
 3617.00    0.56284   0.57127   -1.000
 3618.00    0.53878   0.55361  138.530
 3619.00    0.52883   0.54664   -1.000
 3620.00    0.54061   0.55562   -1.000
 3621.00    0.56348   0.57266   -1.000
 3622.00    0.58298   0.58767   -1.000
 3623.00    0.59154   0.59787   -1.000
 3624.00    0.59797   0.60849   -1.000
 3625.00    0.60965   0.62410   -1.000
 3626.00    0.62056   0.64138   -1.000
 3627.00    0.62709   0.65050   -1.000
 3628.00    0.62563   0.64163   -1.000
 3629.00    0.60567   0.61484   -1.000
 3630.00    0.57278   0.58228   -1.000
 3631.00    0.54935   0.56046   -1.000
 3632.00    0.54267   0.55771   -1.000
 3633.00    0.55028   0.56919   -1.000
 3634.00    0.56397   0.58257   -1.000
 3635.00    0.57487   0.59033   -1.000
 3636.00    0.58451   0.59580   -1.000
 3637.00    0.59385   0.60505   -1.000
 3638.00    0.60720   0.61730   -1.000
 3639.00    0.62044   0.62635   -1.000
 3640.00    0.62267   0.62688   -1.000
 3641.00    0.61544   0.61809   -1.000
 3642.00    0.60163   0.60378  709.504
 3643.00    0.58715   0.59005  709.504
 3644.00    0.57395   0.58066   -1.000
 3645.00    0.56689   0.57520   -1.000
 3646.00    0.56592   0.57196   -1.000
 3647.00    0.56590   0.57078   -1.000
 3648.00    0.56627   0.57199   -1.000
 3649.00    0.57288   0.57595  709.504
 3650.00    0.58066   0.58369  709.504
 3651.00    0.58991   0.59548   -1.000
 3652.00    0.60404   0.60946   -1.000
 3653.00    0.61684   0.62237   -1.000
 3654.00    0.62440   0.63298   -1.000
 3655.00    0.62669   0.64191   -1.000
 3656.00    0.62932   0.64921   -1.000
 3657.00    0.63543   0.65377   -1.000
 3658.00    0.63965   0.65493   -1.000
 3659.00    0.63796   0.65296   -1.000
 3660.00    0.63258   0.64796   -1.000
 3661.00    0.63012   0.64061   -1.000
 3662.00    0.62580   0.63328   -1.000
 3663.00    0.62352   0.62898   -1.000
 3664.00    0.62701   0.62897  646.264
 3665.00    0.62940   0.63093  643.522
 3666.00    0.62874   0.63124  652.317
 3667.00    0.62765   0.62769  662.061
 3668.00    0.61878   0.62173  675.053
 3669.00    0.60959   0.61833   -1.000
 3670.00    0.60716   0.62093   -1.000
 3671.00    0.61591   0.62894   -1.000
 3672.00    0.62803   0.63761   -1.000
 3673.00    0.63277   0.64161   -1.000
 3674.00    0.63222   0.63909   -1.000
 3675.00    0.62849   0.63051  649.694
 3676.00    0.62284   0.61747  670.099
 3677.00    0.61153   0.60369   -1.000
 3678.00    0.59750   0.59419  709.486
 3679.00    0.59427   0.59234  709.504
 3680.00    0.59718   0.59672  701.947
 3681.00    0.60214   0.60328  682.163
 3682.00    0.60632   0.60818  670.940
 3683.00    0.60615   0.60810  679.065
 3684.00    0.60060   0.60161  703.007
 3685.00    0.59432   0.59098  709.504
 3686.00    0.58350   0.58368  709.504
 3687.00    0.57942   0.58791   -1.000
 3688.00    0.58944   0.60476   -1.000
 3689.00    0.60911   0.62549   -1.000
 3690.00    0.63018   0.63991   -1.000
 3691.00    0.63768   0.64508   -1.000
 3692.00    0.63596   0.64524   -1.000
 3693.00    0.63990   0.64533   -1.000
 3694.00    0.64188   0.64556   -1.000
 3695.00    0.63752   0.64345   -1.000
 3696.00    0.63265   0.63964   -1.000
 3697.00    0.63246   0.64181   -1.000
 3698.00    0.64625   0.65645   -1.000
 3699.00    0.66931   0.67789   -1.000
 3700.00    0.68138   0.69055   -1.000
 3701.00    0.67276   0.67982   -1.000
 3702.00    0.64467   0.64576  667.725
 3703.00    0.60950   0.60329   -1.000
 3704.00    0.57940   0.57112   -1.000
 3705.00    0.56511   0.56073   -1.000
 3706.00    0.57367   0.57009  709.504
 3707.00    0.59014   0.58731  709.504
 3708.00    0.60037   0.59943  709.504
 3709.00    0.60471   0.60029  709.504
 3710.00    0.60354   0.59425   -1.000
 3711.00    0.60596   0.59266   -1.000
 3712.00    0.62151   0.60502   -1.000
 3713.00    0.65098   0.63238   -1.000
 3714.00    0.67986   0.66566   -1.000
 3715.00    0.69756   0.69177  595.769
 3716.00    0.70385   0.70297  618.769
 3717.00    0.69268   0.69527  666.255
 3718.00    0.65898   0.66412   -1.000
 3719.00    0.60773   0.61194   -1.000
 3720.00    0.55258   0.55667  137.978
 3721.00    0.51879   0.52322  209.444
 3722.00    0.52640   0.52559  709.504
 3723.00    0.57061   0.56179   -1.000
 3724.00    0.62398   0.61431   -1.000
 3725.00    0.66307   0.65682   -1.000
 3726.00    0.68043   0.67764  672.769
 3727.00    0.67892   0.68520   -1.000
 3728.00    0.67748   0.68994   -1.000
 3729.00    0.67793   0.69121   -1.000
 3730.00    0.66862   0.67838   -1.000
 3731.00    0.63972   0.64125   -1.000
 3732.00    0.59118   0.58413  134.311
 3733.00    0.53493   0.52599   96.887
 3734.00    0.49350   0.48695  103.558
 3735.00    0.48156   0.48098  101.529
 3736.00    0.50166   0.50957   93.451
 3737.00    0.54615   0.56097  204.704
 3738.00    0.60439   0.61995   -1.000
 3739.00    0.65901   0.67231   -1.000
 3740.00    0.69289   0.70470   -1.000
 3741.00    0.70333   0.71230   -1.000
 3742.00    0.69623   0.70064   -1.000
 3743.00    0.67528   0.67946   -1.000
 3744.00    0.64971   0.65473   -1.000
 3745.00    0.62343   0.62744   -1.000
 3746.00    0.59154   0.59533  136.470
 3747.00    0.55982   0.55744   95.236
 3748.00    0.52112   0.51950   98.150
 3749.00    0.49120   0.49580  225.307
 3750.00    0.50192   0.50235  709.504
 3751.00    0.54935   0.54255   -1.000
 3752.00    0.61079   0.60245   -1.000
 3753.00    0.66595   0.66217  624.286
 3754.00    0.71080   0.70625  604.898
 3755.00    0.73691   0.72664   -1.000
 3756.00    0.73265   0.72104   -1.000
 3757.00    0.70317   0.69692   -1.000
 3758.00    0.67508   0.67172  709.504
 3759.00    0.66712   0.66010   -1.000
 3760.00    0.67974   0.66414   -1.000
 3761.00    0.70217   0.67704   -1.000
 3762.00    0.71300   0.68997   -1.000
 3763.00    0.71508   0.69668   -1.000
 3764.00    0.71183   0.69430   -1.000
 3765.00    0.70272   0.68250   -1.000
 3766.00    0.68482   0.66204   -1.000
 3767.00    0.66171   0.63322   -1.000
 3768.00    0.63489   0.59893   -1.000
 3769.00    0.60932   0.56746   -1.000
 3770.00    0.59054   0.55215   -1.000
 3771.00    0.59673   0.56449   -1.000
 3772.00    0.63261   0.60060   -1.000
 3773.00    0.67539   0.64308   -1.000
 3774.00    0.70612   0.67672   -1.000
 3775.00    0.72385   0.69958   -1.000
 3776.00    0.73813   0.71898   -1.000
 3777.00    0.75888   0.74183   -1.000
 3778.00    0.78375   0.76774   -1.000
 3779.00    0.80517   0.79223   -1.000
 3780.00    0.82273   0.81118   -1.000
 3781.00    0.83252   0.82154   -1.000
 3782.00    0.83573   0.82342   -1.000
 3783.00    0.83138   0.81869   -1.000
 3784.00    0.82533   0.80731   -1.000
 3785.00    0.81021   0.78825   -1.000
 3786.00    0.78447   0.76439   -1.000
 3787.00    0.76136   0.74280   -1.000
 3788.00    0.74953   0.73041   -1.000
 3789.00    0.74366   0.72759   -1.000
 3790.00    0.74083   0.72816   -1.000
 3791.00    0.74041   0.72407   -1.000
 3792.00    0.72824   0.70956   -1.000
 3793.00    0.69759   0.68244   -1.000
 3794.00    0.66289   0.64430   -1.000
 3795.00    0.62576   0.60001   -1.000
 3796.00    0.58458   0.55562   -1.000
 3797.00    0.54889   0.52150   -1.000
 3798.00    0.53588   0.51413   -1.000
 3799.00    0.56031   0.54375   -1.000
 3800.00    0.61304   0.60188   -1.000
 3801.00    0.67065   0.66663   -1.000
 3802.00    0.72007   0.71917  644.012
 3803.00    0.75796   0.75232   -1.000
 3804.00    0.77789   0.76770   -1.000
 3805.00    0.78477   0.76993   -1.000
 3806.00    0.78340   0.76923   -1.000
 3807.00    0.78453   0.77646   -1.000
 3808.00    0.79547   0.79420  647.960
 3809.00    0.81616   0.81523  634.526
 3810.00    0.83095   0.82703  640.399
 3811.00    0.82538   0.81955   -1.000
 3812.00    0.80814   0.79361   -1.000
 3813.00    0.78293   0.76203   -1.000
 3814.00    0.75948   0.74062   -1.000
 3815.00    0.75430   0.73832   -1.000
 3816.00    0.76609   0.75076   -1.000
 3817.00    0.77962   0.76368   -1.000
 3818.00    0.78226   0.76329   -1.000
 3819.00    0.75770   0.74849   -1.000
 3820.00    0.73208   0.73280  709.504
 3821.00    0.73197   0.72851   -1.000
 3822.00    0.74741   0.73149   -1.000
 3823.00    0.74688   0.72558   -1.000
 3824.00    0.71843   0.70496  138.530
 3825.00    0.68924   0.68105   95.932
 3826.00    0.67484   0.66482   96.070
 3827.00    0.66800   0.65642   94.735
 3828.00    0.66330   0.65026   93.177
 3829.00    0.65831   0.64109   93.423
 3830.00    0.64737   0.62371   96.648
 3831.00    0.61478   0.59378  103.285
 3832.00    0.56969   0.55142  108.259
 3833.00    0.52678   0.50557  107.890
 3834.00    0.49845   0.47202  104.198
 3835.00    0.49286   0.46100   -1.000
 3836.00    0.50824   0.47285   -1.000
 3837.00    0.52959   0.50104   -1.000
 3838.00    0.55272   0.53633  103.961
 3839.00    0.58086   0.57335   99.289
 3840.00    0.61489   0.61291  229.859
 3841.00    0.66087   0.65523   -1.000
 3842.00    0.70840   0.69690   -1.000
 3843.00    0.74578   0.73263   -1.000
 3844.00    0.77082   0.75842   -1.000
 3845.00    0.78330   0.77594   -1.000
 3846.00    0.79085   0.78907  709.504
 3847.00    0.79968   0.79787  709.504
 3848.00    0.80196   0.79972  709.504
 3849.00    0.79433   0.79710  709.504
 3850.00    0.78652   0.79843   -1.000
 3851.00    0.79363   0.80892   -1.000
 3852.00    0.81154   0.82326   -1.000
 3853.00    0.81918   0.83109   -1.000
 3854.00    0.81292   0.82770   -1.000
 3855.00    0.80034   0.81642   -1.000
 3856.00    0.78902   0.80305   -1.000
 3857.00    0.77687   0.79066  130.173
 3858.00    0.76004   0.78083   93.274
 3859.00    0.74642   0.77865   93.841
 3860.00    0.75089   0.78881   -1.000
 3861.00    0.77878   0.80793   -1.000
 3862.00    0.81375   0.82574   -1.000
 3863.00    0.83604   0.83440  709.504
 3864.00    0.84256   0.83440   -1.000
 3865.00    0.83717   0.83153   -1.000
 3866.00    0.83300   0.83134  709.504
 3867.00    0.83224   0.83470  709.504
 3868.00    0.82728   0.83636   -1.000
 3869.00    0.81368   0.82903   -1.000
 3870.00    0.79160   0.81064  131.810
 3871.00    0.76857   0.78700   -1.000
 3872.00    0.75531   0.76920   -1.000
 3873.00    0.76203   0.76691  709.504
 3874.00    0.78390   0.77790   -1.000
 3875.00    0.79857   0.78726   -1.000
 3876.00    0.79070   0.78131   -1.000
 3877.00    0.75866   0.76246  709.504
 3878.00    0.73191   0.74563   -1.000
 3879.00    0.72893   0.74035   -1.000
 3880.00    0.72811   0.74175   -1.000
 3881.00    0.71998   0.73875   -1.000
 3882.00    0.71171   0.72743   -1.000
 3883.00    0.70660   0.70931  709.504
 3884.00    0.69312   0.68216   -1.000
 3885.00    0.66642   0.64197   -1.000
 3886.00    0.62638   0.59161   -1.000
 3887.00    0.58737   0.54439   -1.000
 3888.00    0.55759   0.51746   -1.000
 3889.00    0.55650   0.52236   -1.000
 3890.00    0.59061   0.55905   -1.000
 3891.00    0.65122   0.61266   -1.000
 3892.00    0.69531   0.66114   -1.000
 3893.00    0.71811   0.69246   -1.000
 3894.00    0.73197   0.71040   -1.000
 3895.00    0.74676   0.72486   -1.000
 3896.00    0.76765   0.74092   -1.000
 3897.00    0.78174   0.75561   -1.000
 3898.00    0.78671   0.76458   -1.000
 3899.00    0.79015   0.76999   -1.000
 3900.00    0.79890   0.77838   -1.000
 3901.00    0.81073   0.78979   -1.000
 3902.00    0.81738   0.79751   -1.000
 3903.00    0.81892   0.79732   -1.000
 3904.00    0.81375   0.79217   -1.000
 3905.00    0.80131   0.79030   -1.000
 3906.00    0.80297   0.79938  627.253
 3907.00    0.82825   0.82188   -1.000
 3908.00    0.85712   0.85091   -1.000
 3909.00    0.87682   0.87483  556.564
 3910.00    0.88409   0.88732  551.409
 3911.00    0.88981   0.88862  547.497
 3912.00    0.88843   0.88109   -1.000
 3913.00    0.88017   0.86867   -1.000
 3914.00    0.87203   0.85788   -1.000
 3915.00    0.86679   0.85303   -1.000
 3916.00    0.86162   0.85172   -1.000
 3917.00    0.85354   0.84854  604.823
 3918.00    0.84320   0.84109  628.816
 3919.00    0.83174   0.83170  658.375
 3920.00    0.82121   0.82483  677.799
 3921.00    0.81409   0.82296   -1.000
 3922.00    0.81540   0.82520   -1.000
 3923.00    0.81839   0.82746   -1.000
 3924.00    0.81484   0.82385   -1.000
 3925.00    0.80320   0.80871   -1.000
 3926.00    0.77288   0.77966   -1.000
 3927.00    0.72915   0.73870  142.728
 3928.00    0.67398   0.68867  111.043
 3929.00    0.61677   0.63062  130.024
 3930.00    0.54911   0.56200  153.255
 3931.00    0.46838   0.48323   -1.000
 3932.00    0.39688   0.40836   -1.000
 3933.00    0.35363   0.36381  201.550
 3934.00    0.35806   0.37097  180.151
 3935.00    0.41024   0.42668  150.972
 3936.00    0.48939   0.50747  124.180
 3937.00    0.57162   0.59087  103.680
 3938.00    0.64083   0.66379   -1.000
 3939.00    0.69409   0.71990   -1.000
 3940.00    0.73717   0.75773   -1.000
 3941.00    0.76247   0.77855   -1.000
 3942.00    0.77047   0.78773   -1.000
 3943.00    0.77332   0.79353   -1.000
 3944.00    0.78504   0.80213   -1.000
 3945.00    0.80908   0.81441   -1.000
 3946.00    0.83224   0.82617   -1.000
 3947.00    0.83778   0.83225   -1.000
 3948.00    0.83677   0.83259  597.163
 3949.00    0.84322   0.83090   -1.000
 3950.00    0.85178   0.82948   -1.000
 3951.00    0.85437   0.82884   -1.000
 3952.00    0.85394   0.83085   -1.000
 3953.00    0.85734   0.83560   -1.000
 3954.00    0.86291   0.83751   -1.000
 3955.00    0.85781   0.83175   -1.000
 3956.00    0.83606   0.82082   -1.000
 3957.00    0.82348   0.81203   -1.000
 3958.00    0.82609   0.80663   -1.000
 3959.00    0.81683   0.79528   -1.000
 3960.00    0.78471   0.76991   -1.000
 3961.00    0.74039   0.73287   -1.000
 3962.00    0.69906   0.69201   -1.000
 3963.00    0.65953   0.65011  133.732
 3964.00    0.60887   0.59963  104.686
 3965.00    0.54071   0.53165  126.915
 3966.00    0.45188   0.44743  155.824
 3967.00    0.36371   0.36400  178.473
 3968.00    0.30667   0.30822  175.170
 3969.00    0.29904   0.29973  149.359
 3970.00    0.34308   0.33971  122.742
 3971.00    0.41708   0.41233  102.156
 3972.00    0.49761   0.49523  237.337
 3973.00    0.57740   0.57217   -1.000
 3974.00    0.64925   0.63773   -1.000
 3975.00    0.70707   0.69182   -1.000
 3976.00    0.75071   0.73621   -1.000
 3977.00    0.78588   0.77301   -1.000
 3978.00    0.82200   0.80394   -1.000
 3979.00    0.85059   0.82683   -1.000
 3980.00    0.86780   0.83834   -1.000
 3981.00    0.87554   0.84074   -1.000
 3982.00    0.87436   0.84211   -1.000
 3983.00    0.87966   0.84997   -1.000
 3984.00    0.89621   0.86431   -1.000
 3985.00    0.90955   0.87898   -1.000
 3986.00    0.91841   0.88997   -1.000
 3987.00    0.92871   0.89899   -1.000
 3988.00    0.94024   0.90754   -1.000
 3989.00    0.94377   0.91483   -1.000
 3990.00    0.94765   0.92230   -1.000
 3991.00    0.96233   0.93179   -1.000
 3992.00    0.97198   0.94177   -1.000
 3993.00    0.97717   0.94707   -1.000
 3994.00    0.96777   0.94266   -1.000
 3995.00    0.95058   0.92913   -1.000
 3996.00    0.93625   0.91422   -1.000
 3997.00    0.93351   0.90816   -1.000
 3998.00    0.94115   0.91498   -1.000
 3999.00    0.96131   0.92997   -1.000
 4000.00    0.97945   0.94485   -1.000
 4001.00    0.99129   0.95318   -1.000
 4002.00    0.99649   0.95206   -1.000
 4003.00    0.98692   0.94159   -1.000
 4004.00    0.96412   0.92561   -1.000
 4005.00    0.94036   0.91452   -1.000
 4006.00    0.93896   0.91863   -1.000
 4007.00    0.96288   0.93662   -1.000
 4008.00    0.98214   0.95725   -1.000
 4009.00    0.99529   0.97074   -1.000
 4010.00    1.00100   0.97545   -1.000
 4011.00    1.00000   0.97459   -1.000
 4012.00    0.99510   0.97246   -1.000
 4013.00    0.99244   0.97295   -1.000
 4014.00    0.99899   0.97689   -1.000
 4015.00    1.00728   0.98215   -1.000
 4016.00    1.00905   0.98703   -1.000
 4017.00    1.00819   0.99211   -1.000
 4018.00    1.00881   0.99836   -1.000
 4019.00    1.01510   1.00409   -1.000
 4020.00    1.01440   1.00545   -1.000
 4021.00    1.00667   1.00037  438.407
 4022.00    1.00057   0.99075   -1.000
 4023.00    0.99532   0.98067   -1.000
 4024.00    0.99034   0.97562   -1.000
 4025.00    0.99452   0.98044   -1.000
 4026.00    1.00937   0.99286   -1.000
 4027.00    1.02299   1.00164   -1.000
 4028.00    1.02152   0.99681   -1.000
 4029.00    0.99920   0.97870   -1.000
 4030.00    0.97197   0.95608   -1.000
 4031.00    0.95148   0.93958   -1.000
 4032.00    0.94450   0.93489   -1.000
 4033.00    0.95074   0.94164   -1.000
 4034.00    0.97001   0.95747   -1.000
 4035.00    0.99026   0.97978   -1.000
 4036.00    1.01487   1.00450   -1.000
 4037.00    1.03498   1.02423   -1.000
 4038.00    1.04282   1.03184   -1.000
 4039.00    1.03843   1.02792   -1.000
 4040.00    1.02517   1.01948  425.029
 4041.00    1.01450   1.01105  427.788
 4042.00    1.00881   0.99879   -1.000
 4043.00    0.98951   0.97591   -1.000
 4044.00    0.95078   0.94650  520.372
 4045.00    0.91867   0.92723   -1.000
 4046.00    0.92581   0.93229  473.697
 4047.00    0.96074   0.95855  439.735
 4048.00    0.99923   0.98849   -1.000
 4049.00    1.02077   1.00782   -1.000
 4050.00    1.02746   1.01403   -1.000
 4051.00    1.01984   1.01038   -1.000
 4052.00    1.01196   1.00034   -1.000
 4053.00    1.00197   0.98892   -1.000
 4054.00    0.99205   0.98100   -1.000
 4055.00    0.98887   0.97739   -1.000
 4056.00    0.98466   0.97659   -1.000
 4057.00    0.98283   0.97946  455.057
 4058.00    0.98564   0.98812  441.547
 4059.00    0.99865   0.99804  430.553
 4060.00    1.00719   0.99824   -1.000
 4061.00    0.99606   0.98335   -1.000
 4062.00    0.96167   0.95948  490.786
 4063.00    0.93638   0.93842  495.206
 4064.00    0.93709   0.92895   -1.000
 4065.00    0.95341   0.93196   -1.000
 4066.00    0.96762   0.94189   -1.000
 4067.00    0.97661   0.95237   -1.000
 4068.00    0.99319   0.95907   -1.000
 4069.00    1.00313   0.95733   -1.000
 4070.00    0.98972   0.94573   -1.000
 4071.00    0.96868   0.93233   -1.000
 4072.00    0.96455   0.92805   -1.000
 4073.00    0.97352   0.93272   -1.000
 4074.00    0.97866   0.93376   -1.000
 4075.00    0.96105   0.92046   -1.000
 4076.00    0.92976   0.89765   -1.000
 4077.00    0.91114   0.88190   -1.000
 4078.00    0.91440   0.88692   -1.000
 4079.00    0.93926   0.91138   -1.000
 4080.00    0.97078   0.93936   -1.000
 4081.00    0.98960   0.95502   -1.000
 4082.00    0.98757   0.95422   -1.000
 4083.00    0.97202   0.94367   -1.000
 4084.00    0.95900   0.93380   -1.000
 4085.00    0.95820   0.93223   -1.000
 4086.00    0.96934   0.94026   -1.000
 4087.00    0.98756   0.95284   -1.000
 4088.00    1.00180   0.96229   -1.000
 4089.00    1.00154   0.96343   -1.000
 4090.00    0.98870   0.95691   -1.000
 4091.00    0.97386   0.94682   -1.000
 4092.00    0.96325   0.93450   -1.000
 4093.00    0.95490   0.91897   -1.000
 4094.00    0.93773   0.89936   -1.000
 4095.00    0.90760   0.87533   -1.000
 4096.00    0.88005   0.84743   -1.000
 4097.00    0.85751   0.81459   -1.000
 4098.00    0.82828   0.77297   -1.000
 4099.00    0.78027   0.71943   -1.000
 4100.00    0.71386   0.66253   -1.000
 4101.00    0.66160   0.62470   -1.000
 4102.00    0.65848   0.62731   -1.000
 4103.00    0.70491   0.67183   -1.000
 4104.00    0.77356   0.73704   -1.000
 4105.00    0.83178   0.79636   -1.000
 4106.00    0.86879   0.83647   -1.000
 4107.00    0.88351   0.85880   -1.000
 4108.00    0.89168   0.87026   -1.000
 4109.00    0.89840   0.87796   -1.000
 4110.00    0.90435   0.88704   -1.000
 4111.00    0.91852   0.90018   -1.000
 4112.00    0.93788   0.91706   -1.000
 4113.00    0.95131   0.93545   -1.000
 4114.00    0.96312   0.95221   -1.000
 4115.00    0.97245   0.96286   -1.000
 4116.00    0.97875   0.96398   -1.000
 4117.00    0.97192   0.95674   -1.000
 4118.00    0.95850   0.94686   -1.000
 4119.00    0.95379   0.94100   -1.000
 4120.00    0.95608   0.94148   -1.000
 4121.00    0.95961   0.94525   -1.000
 4122.00    0.96316   0.94981   -1.000
 4123.00    0.96972   0.95624   -1.000
 4124.00    0.98192   0.96423   -1.000
 4125.00    0.98806   0.96912   -1.000
 4126.00    0.98494   0.96702   -1.000
 4127.00    0.97772   0.95993   -1.000
 4128.00    0.96829   0.95346   -1.000
 4129.00    0.96504   0.94939   -1.000
 4130.00    0.96003   0.94417   -1.000
 4131.00    0.94754   0.93638   -1.000
 4132.00    0.93592   0.93175  490.302
 4133.00    0.93033   0.93759   -1.000
 4134.00    0.94275   0.95409   -1.000
 4135.00    0.96488   0.97500   -1.000
 4136.00    0.98867   0.99433  430.296
 4137.00    1.00440   1.00975  423.578
 4138.00    1.01105   1.02085   -1.000
 4139.00    1.01612   1.02470   -1.000
 4140.00    1.01190   1.01645  445.143
 4141.00    0.98960   0.99565   -1.000
 4142.00    0.95428   0.97006   -1.000
 4143.00    0.92706   0.95329   -1.000
 4144.00    0.93280   0.95495   -1.000
 4145.00    0.95776   0.97127   -1.000
 4146.00    0.98228   0.98847  446.024
 4147.00    0.99131   0.99613  451.029
 4148.00    0.98750   0.99502   -1.000
 4149.00    0.97934   0.99209   -1.000
 4150.00    0.97945   0.99149   -1.000
 4151.00    0.98040   0.99116   -1.000
 4152.00    0.97597   0.98726   -1.000
 4153.00    0.96696   0.97989   -1.000
 4154.00    0.97184   0.97343  469.351
 4155.00    0.98986   0.97252   -1.000
 4156.00    0.97246   0.97833  466.470
 4157.00    0.96503   0.98881   -1.000
 4158.00    0.97118   1.00004   -1.000
 4159.00    0.98171   1.00801   -1.000
 4160.00    0.99784   1.01146   -1.000
 4161.00    1.00388   1.01268   -1.000
 4162.00    1.00535   1.01499   -1.000
 4163.00    1.00242   1.01913   -1.000
 4164.00    1.00095   1.02288   -1.000
 4165.00    0.99812   1.02285   -1.000
 4166.00    0.99143   1.01847   -1.000
 4167.00    0.98508   1.01329   -1.000
 4168.00    0.98308   1.00905   -1.000
 4169.00    0.98684   1.00116   -1.000
 4170.00    0.98007   0.98304  477.038
 4171.00    0.95183   0.95626   -1.000
 4172.00    0.92325   0.93339   -1.000
 4173.00    0.91253   0.92696   -1.000
 4174.00    0.92157   0.93817   -1.000
 4175.00    0.93737   0.95492   -1.000
 4176.00    0.94806   0.96416   -1.000
 4177.00    0.95069   0.96517   -1.000
 4178.00    0.95255   0.96645   -1.000
 4179.00    0.96423   0.97351   -1.000
 4180.00    0.97548   0.98195   -1.000
 4181.00    0.97609   0.98542   -1.000
 4182.00    0.96863   0.98596   -1.000
 4183.00    0.96719   0.98848   -1.000
 4184.00    0.97077   0.99181   -1.000
 4185.00    0.97063   0.99088   -1.000
 4186.00    0.95893   0.98445   -1.000
 4187.00    0.94763   0.97842   -1.000
 4188.00    0.95159   0.97870   -1.000
 4189.00    0.96011   0.98384   -1.000
 4190.00    0.96593   0.98927   -1.000
 4191.00    0.97248   0.99420   -1.000
 4192.00    0.98493   0.99960   -1.000
 4193.00    0.99526   1.00295   -1.000
 4194.00    0.99113   0.99845   -1.000
 4195.00    0.97264   0.98412   -1.000
 4196.00    0.95138   0.96493   -1.000
 4197.00    0.93458   0.94774   -1.000
 4198.00    0.92344   0.93691   -1.000
 4199.00    0.92201   0.93388   -1.000
 4200.00    0.92787   0.93627   -1.000
 4201.00    0.93032   0.93994   -1.000
 4202.00    0.93098   0.94447   -1.000
 4203.00    0.93546   0.95219   -1.000
 4204.00    0.94240   0.96270   -1.000
 4205.00    0.94968   0.97398   -1.000
 4206.00    0.95860   0.98502   -1.000
 4207.00    0.97170   0.99365   -1.000
 4208.00    0.98230   0.99764   -1.000
 4209.00    0.98426   0.99862   -1.000
 4210.00    0.98069   1.00045   -1.000
 4211.00    0.98088   1.00430   -1.000
 4212.00    0.98326   1.00539   -1.000
 4213.00    0.97717   0.99726   -1.000
 4214.00    0.95754   0.98128   -1.000
 4215.00    0.93909   0.96726   -1.000
 4216.00    0.93726   0.96580   -1.000
 4217.00    0.95527   0.97846   -1.000
 4218.00    0.97396   0.99642   -1.000
 4219.00    0.98773   1.01025   -1.000
 4220.00    0.99635   1.01599   -1.000
 4221.00    0.99362   1.01159   -1.000
 4222.00    0.98216   0.99451   -1.000
 4223.00    0.95576   0.96355   -1.000
 4224.00    0.91733   0.92396   -1.000
 4225.00    0.86604   0.88842   -1.000
 4226.00    0.82577   0.87340   -1.000
 4227.00    0.83466   0.88992   -1.000
 4228.00    0.88740   0.93187   -1.000
 4229.00    0.94577   0.97601   -1.000
 4230.00    0.97932   1.00026   -1.000
 4231.00    0.98006   1.00026   -1.000
 4232.00    0.96497   0.98619   -1.000
 4233.00    0.95139   0.97065   -1.000
 4234.00    0.94557   0.96151   -1.000
 4235.00    0.94118   0.95945   -1.000
 4236.00    0.93672   0.96130   -1.000
 4237.00    0.93591   0.96621   -1.000
 4238.00    0.93930   0.97453   -1.000
 4239.00    0.95143   0.98528   -1.000
 4240.00    0.96533   0.99639   -1.000
 4241.00    0.97180   1.00561   -1.000
 4242.00    0.97620   1.01175   -1.000
 4243.00    0.97771   1.01421   -1.000
 4244.00    0.97640   1.01121   -1.000
 4245.00    0.97202   1.00023   -1.000
 4246.00    0.95284   0.98288   -1.000
 4247.00    0.93249   0.96637   -1.000
 4248.00    0.92247   0.95693   -1.000
 4249.00    0.91574   0.95516   -1.000
 4250.00    0.91801   0.95976   -1.000
 4251.00    0.93217   0.96884   -1.000
 4252.00    0.94868   0.97715   -1.000
 4253.00    0.95054   0.98050   -1.000
 4254.00    0.94094   0.98145   -1.000
 4255.00    0.94526   0.98503   -1.000
 4256.00    0.96009   0.98969   -1.000
 4257.00    0.96641   0.98748   -1.000
 4258.00    0.95417   0.97529   -1.000
 4259.00    0.92785   0.96114   -1.000
 4260.00    0.91613   0.95699   -1.000
 4261.00    0.92618   0.96856   -1.000
 4262.00    0.95118   0.99099   -1.000
 4263.00    0.97578   1.01296   -1.000
 4264.00    0.99141   1.02518   -1.000
 4265.00    0.99622   1.02631   -1.000
 4266.00    0.99202   1.01985   -1.000
 4267.00    0.97640   1.00785   -1.000
 4268.00    0.95966   0.99011   -1.000
 4269.00    0.94447   0.96674   -1.000
 4270.00    0.91665   0.94119   -1.000
 4271.00    0.88737   0.92115   -1.000
 4272.00    0.87596   0.91405   -1.000
 4273.00    0.88102   0.92081   -1.000
 4274.00    0.89558   0.93709   -1.000
 4275.00    0.91317   0.95916   -1.000
 4276.00    0.94338   0.98313   -1.000
 4277.00    0.96797   1.00136   -1.000
 4278.00    0.97179   1.00696   -1.000
 4279.00    0.95603   1.00043   -1.000
 4280.00    0.94014   0.98906   -1.000
 4281.00    0.93215   0.98048   -1.000
 4282.00    0.93236   0.97679   -1.000
 4283.00    0.93636   0.97550   -1.000
 4284.00    0.93593   0.97310   -1.000
 4285.00    0.92505   0.96618   -1.000
 4286.00    0.91250   0.95265   -1.000
 4287.00    0.89959   0.93304   -1.000
 4288.00    0.87996   0.91079   -1.000
 4289.00    0.85747   0.89417   -1.000
 4290.00    0.85281   0.89261   -1.000
 4291.00    0.86982   0.90621   -1.000
 4292.00    0.89520   0.92266   -1.000
 4293.00    0.90724   0.92935   -1.000
 4294.00    0.90806   0.92605   -1.000
 4295.00    0.90333   0.91891   -1.000
 4296.00    0.89398   0.90804   -1.000
 4297.00    0.87265   0.88911   -1.000
 4298.00    0.84030   0.86212   -1.000
 4299.00    0.80468   0.83454   -1.000
 4300.00    0.78871   0.81617   -1.000
 4301.00    0.79491   0.81155   -1.000
 4302.00    0.80215   0.81830   -1.000
 4303.00    0.81069   0.83130   -1.000
 4304.00    0.82289   0.84324   -1.000
 4305.00    0.83038   0.84587   -1.000
 4306.00    0.81702   0.83754   -1.000
 4307.00    0.79227   0.82584   -1.000
 4308.00    0.77925   0.82177   -1.000
 4309.00    0.78478   0.83056   -1.000
 4310.00    0.80639   0.84767   -1.000
 4311.00    0.82786   0.86356   -1.000
 4312.00    0.84243   0.87406   -1.000
 4313.00    0.85425   0.88557   -1.000
 4314.00    0.87628   0.90750   -1.000
 4315.00    0.91315   0.94181   -1.000
 4316.00    0.95602   0.97858   -1.000
 4317.00    0.98617   1.00394   -1.000
 4318.00    0.99464   1.01169   -1.000
 4319.00    0.98616   1.00535   -1.000
 4320.00    0.97197   0.99159   -1.000
 4321.00    0.95730   0.97378   -1.000
 4322.00    0.93709   0.95085   -1.000
 4323.00    0.90614   0.92223   -1.000
 4324.00    0.86686   0.89514   -1.000
 4325.00    0.84343   0.88458   -1.000
 4326.00    0.85676   0.89894   -1.000
 4327.00    0.89595   0.92830   -1.000
 4328.00    0.93314   0.95317   -1.000
 4329.00    0.94610   0.96260   -1.000
 4330.00    0.94070   0.96072   -1.000
 4331.00    0.93752   0.95674   -1.000
 4332.00    0.93809   0.95343   -1.000
 4333.00    0.93738   0.94654   -1.000
 4334.00    0.92844   0.92977  389.087
 4335.00    0.90939   0.89739   -1.000
 4336.00    0.87408   0.84596   -1.000
 4337.00    0.81367   0.77927   -1.000
 4338.00    0.74523   0.71176   -1.000
 4339.00    0.68292   0.66251   -1.000
 4340.00    0.64951   0.64794  521.486
 4341.00    0.67046   0.67481  471.871
 4342.00    0.73735   0.73200  438.954
 4343.00    0.80307   0.79546   -1.000
 4344.00    0.84538   0.84783  410.761
 4345.00    0.87647   0.88703   -1.000
 4346.00    0.89801   0.91771   -1.000
 4347.00    0.91637   0.94044   -1.000
 4348.00    0.92904   0.95072   -1.000
 4349.00    0.93399   0.94442   -1.000
 4350.00    0.91906   0.92599   -1.000
 4351.00    0.88920   0.90964   -1.000
 4352.00    0.87882   0.90933   -1.000
 4353.00    0.90214   0.92750   -1.000
 4354.00    0.93184   0.95426   -1.000
 4355.00    0.95265   0.97709   -1.000
 4356.00    0.96615   0.98967   -1.000
 4357.00    0.97077   0.99271   -1.000
 4358.00    0.96251   0.99149   -1.000
 4359.00    0.95342   0.99301   -1.000
 4360.00    0.96373   1.00090   -1.000
 4361.00    0.98170   1.01282   -1.000
 4362.00    0.99099   1.02413   -1.000
 4363.00    0.99577   1.03181   -1.000
 4364.00    1.00033   1.03390   -1.000
 4365.00    1.00045   1.02844   -1.000
 4366.00    0.98868   1.01580   -1.000
 4367.00    0.97098   1.00107   -1.000
 4368.00    0.96314   0.99061   -1.000
 4369.00    0.96762   0.98629   -1.000
 4370.00    0.97425   0.98479   -1.000
 4371.00    0.97592   0.98033  402.008
 4372.00    0.97057   0.96861  415.887
 4373.00    0.95275   0.95099  432.809
 4374.00    0.93360   0.93712  436.668
 4375.00    0.92715   0.93861   -1.000
 4376.00    0.94205   0.95715   -1.000
 4377.00    0.97020   0.98157   -1.000
 4378.00    0.98864   0.99807  392.021
 4379.00    0.99146   0.99980  398.196
 4380.00    0.98843   0.98557  414.611
 4381.00    0.96750   0.95568   -1.000
 4382.00    0.92282   0.91640   -1.000
 4383.00    0.87358   0.88405   -1.000
 4384.00    0.85414   0.87530   -1.000
 4385.00    0.88197   0.89259   -1.000
 4386.00    0.92658   0.92177  418.785
 4387.00    0.95311   0.94601   -1.000
 4388.00    0.95978   0.95860  420.387
 4389.00    0.95689   0.96247  422.468
 4390.00    0.95426   0.96371   -1.000
 4391.00    0.96594   0.96572  406.877
 4392.00    0.97399   0.96574   -1.000
 4393.00    0.96925   0.95995   -1.000
 4394.00    0.95613   0.95278  415.903
 4395.00    0.95070   0.95424  400.079
 4396.00    0.96590   0.96532  386.842
 4397.00    0.98729   0.97479   -1.000
 4398.00    0.98853   0.97318   -1.000
 4399.00    0.97103   0.96399   -1.000
 4400.00    0.95295   0.95828  413.092
 4401.00    0.95695   0.96016  405.869
 4402.00    0.96987   0.96271   -1.000
 4403.00    0.96057   0.95908  438.415
 4404.00    0.94057   0.95224   -1.000
 4405.00    0.93268   0.94996   -1.000
 4406.00    0.94260   0.95423   -1.000
 4407.00    0.94777   0.96103   -1.000
 4408.00    0.95079   0.96906   -1.000
 4409.00    0.96088   0.98141   -1.000
 4410.00    0.98448   0.99738   -1.000
 4411.00    1.00575   1.00923  371.400
 4412.00    1.01613   1.00866  378.632
 4413.00    1.00753   0.99352   -1.000
 4414.00    0.98174   0.96982   -1.000
 4415.00    0.95342   0.95007  415.789
 4416.00    0.94571   0.94534  403.326
 4417.00    0.95746   0.95794  386.877
 4418.00    0.97854   0.98092  374.902
 4419.00    0.99953   1.00255  374.602
 4420.00    1.00936   1.01300  383.196
 4421.00    1.00343   1.01180   -1.000
 4422.00    0.99506   1.00700   -1.000
 4423.00    0.99339   1.00507   -1.000
 4424.00    0.99533   1.00522   -1.000
 4425.00    0.99324   1.00451   -1.000
 4426.00    0.98695   1.00341   -1.000
 4427.00    0.98537   1.00405   -1.000
 4428.00    0.98993   1.00644   -1.000
 4429.00    0.99365   1.00881   -1.000
 4430.00    0.99286   1.00998   -1.000
 4431.00    0.99528   1.00926   -1.000
 4432.00    0.99902   1.00471  394.793
 4433.00    0.98515   0.99514   -1.000
 4434.00    0.95946   0.98516   -1.000
 4435.00    0.94779   0.98451   -1.000
 4436.00    0.96274   0.99863   -1.000
 4437.00    0.99445   1.02112   -1.000
 4438.00    1.02055   1.03826   -1.000
 4439.00    1.02761   1.03929   -1.000
 4440.00    1.01641   1.02294  388.965
 4441.00    0.99176   0.99739  406.017
 4442.00    0.96155   0.97622   -1.000
 4443.00    0.94497   0.97126   -1.000
 4444.00    0.95518   0.98501   -1.000
 4445.00    0.97982   1.00795   -1.000
 4446.00    0.99868   1.02649   -1.000
 4447.00    1.00604   1.03446   -1.000
 4448.00    1.00680   1.03444   -1.000
 4449.00    1.00293   1.03121   -1.000
 4450.00    0.99903   1.02797   -1.000
 4451.00    0.99965   1.02508   -1.000
 4452.00    0.99816   1.01901   -1.000
 4453.00    0.98560   1.00626   -1.000
 4454.00    0.96130   0.99052   -1.000
 4455.00    0.94667   0.98111   -1.000
 4456.00    0.95262   0.98227   -1.000
 4457.00    0.96782   0.98866   -1.000
 4458.00    0.97111   0.99289   -1.000
 4459.00    0.96876   0.99285   -1.000
 4460.00    0.96308   0.99148   -1.000
 4461.00    0.96086   0.99296   -1.000
 4462.00    0.96822   0.99902   -1.000
 4463.00    0.98217   1.00718   -1.000
 4464.00    0.99199   1.01311   -1.000
 4465.00    0.99463   1.01364   -1.000
 4466.00    0.99202   1.00767   -1.000
 4467.00    0.98480   0.99719   -1.000
 4468.00    0.97293   0.98852   -1.000
 4469.00    0.96751   0.98895   -1.000
 4470.00    0.97612   1.00079   -1.000
 4471.00    0.99376   1.01946   -1.000
 4472.00    1.01242   1.03784   -1.000
 4473.00    1.03111   1.05105   -1.000
 4474.00    1.03989   1.05816   -1.000
 4475.00    1.03903   1.06118   -1.000
 4476.00    1.04084   1.06213   -1.000
 4477.00    1.04374   1.05945   -1.000
 4478.00    1.04292   1.04851  361.838
 4479.00    1.02787   1.02820  377.920
 4480.00    1.00385   1.00640  389.937
 4481.00    0.98128   0.99578   -1.000
 4482.00    0.98025   1.00343   -1.000
 4483.00    0.99761   1.02489   -1.000
 4484.00    1.02059   1.04821   -1.000
 4485.00    1.03688   1.06250   -1.000
 4486.00    1.04515   1.06275   -1.000
 4487.00    1.03806   1.05070   -1.000
 4488.00    1.01955   1.03449   -1.000
 4489.00    1.00109   1.02441   -1.000
 4490.00    0.99752   1.02551   -1.000
 4491.00    1.01092   1.03382   -1.000
 4492.00    1.02274   1.04016   -1.000
 4493.00    1.02498   1.03918   -1.000
 4494.00    1.01215   1.03438   -1.000
 4495.00    1.00144   1.03272   -1.000
 4496.00    1.00379   1.03676   -1.000
 4497.00    1.01521   1.04330   -1.000
 4498.00    1.03148   1.04691   -1.000
 4499.00    1.03762   1.04413  357.007
 4500.00    1.02748   1.03827   -1.000
 4501.00    1.02203   1.03806   -1.000
 4502.00    1.03079   1.04844   -1.000
 4503.00    1.05019   1.06492   -1.000
 4504.00    1.06397   1.07813   -1.000
 4505.00    1.06590   1.08207   -1.000
 4506.00    1.05966   1.07748   -1.000
 4507.00    1.05141   1.07007   -1.000
 4508.00    1.04808   1.06625   -1.000
 4509.00    1.05161   1.06800   -1.000
 4510.00    1.05249   1.07142   -1.000
 4511.00    1.05238   1.07134   -1.000
 4512.00    1.04869   1.06636   -1.000
 4513.00    1.04027   1.05848   -1.000
 4514.00    1.03415   1.05076   -1.000
 4515.00    1.03084   1.04580   -1.000
 4516.00    1.02682   1.04377   -1.000
 4517.00    1.02174   1.04223   -1.000
 4518.00    1.01904   1.03983   -1.000
 4519.00    1.02174   1.03806   -1.000
 4520.00    1.02808   1.03762   -1.000
 4521.00    1.02859   1.03597  357.427
 4522.00    1.01823   1.03123   -1.000
 4523.00    1.00941   1.02548   -1.000
 4524.00    1.00658   1.02095   -1.000
 4525.00    1.00291   1.01588   -1.000
 4526.00    0.99562   1.00719   -1.000
 4527.00    0.98187   0.99534   -1.000
 4528.00    0.97093   0.98552   -1.000
 4529.00    0.97119   0.98303   -1.000
 4530.00    0.97742   0.98748   -1.000
 4531.00    0.98441   0.99168  384.103
 4532.00    0.98310   0.98827  392.611
 4533.00    0.97003   0.97868   -1.000
 4534.00    0.95410   0.97349   -1.000
 4535.00    0.95506   0.98224   -1.000
 4536.00    0.97887   1.00414   -1.000
 4537.00    1.01579   1.02912   -1.000
 4538.00    1.03986   1.04606  350.345
 4539.00    1.04109   1.05051   -1.000
 4540.00    1.03245   1.04650   -1.000
 4541.00    1.02407   1.04158   -1.000
 4542.00    1.05487   1.03982   -1.000
 4543.00    0.89415   1.03946   -1.000
 4544.00    0.21497   1.03742   -1.000
 4545.00   -0.01567   1.03376    0.000
 4546.00    0.18296   1.02869   -1.000
 4547.00    0.66955   1.01915   -1.000
 4548.00    0.33022   1.00433   -1.000
 4549.00    0.74090   0.99180   -1.000
 4550.00    0.97742   0.99102   -1.000
 4551.00    0.99573   1.00006  372.070
 4552.00    1.00221   1.00647  377.261
 4553.00    0.99411   1.00308   -1.000
 4554.00    0.98402   0.99617   -1.000
 4555.00    0.98520   0.99682   -1.000
 4556.00    0.99891   1.00919   -1.000
 4557.00    1.02289   1.02745  342.475
 4558.00    1.03604   1.04339  343.036
 4559.00    1.04477   1.05411  343.307
 4560.00    1.04664   1.05979   -1.000
 4561.00    1.04177   1.05848   -1.000
 4562.00    1.03337   1.04865   -1.000
 4563.00    1.01658   1.03510   -1.000
 4564.00    1.01002   1.02709   -1.000
 4565.00    1.01553   1.02991   -1.000
 4566.00    1.02697   1.04072   -1.000
 4567.00    1.03908   1.05191   -1.000
 4568.00    1.05013   1.05670  343.335
 4569.00    1.04755   1.05226  351.268
 4570.00    1.02961   1.04054   -1.000
 4571.00    1.01077   1.02869   -1.000
 4572.00    1.00920   1.02600   -1.000
 4573.00    1.02425   1.03455  344.394
 4574.00    1.03649   1.04584  343.742
 4575.00    1.04076   1.05126   -1.000
 4576.00    1.04131   1.05021  347.089
 4577.00    1.04041   1.04552  352.337
 4578.00    1.03215   1.03764  362.164
 4579.00    1.01842   1.02660  370.332
 4580.00    1.00740   1.01494  370.816
 4581.00    1.00595   1.00552  366.208
 4582.00    1.00448   0.99912  363.014
 4583.00    1.00180   0.99683  363.455
 4584.00    1.00334   1.00046  365.583
 4585.00    1.00822   1.00887  361.836
 4586.00    1.01836   1.01841  353.008
 4587.00    1.02848   1.02627  345.140
 4588.00    1.03284   1.03104  343.430
 4589.00    1.03433   1.03234  347.558
 4590.00    1.03133   1.03095  353.877
 4591.00    1.02194   1.02823  360.185
 4592.00    1.01501   1.02616   -1.000
 4593.00    1.01477   1.02674   -1.000
 4594.00    1.02045   1.03013   -1.000
 4595.00    1.03036   1.03489  354.854
 4596.00    1.03458   1.03943  354.094
 4597.00    1.03454   1.04215  353.307
 4598.00    1.03837   1.04179  355.732
 4599.00    1.03546   1.03841  358.973
 4600.00    1.02545   1.03364  360.373
 4601.00    1.01959   1.02991   -1.000
 4602.00    1.02055   1.02890  353.324
 4603.00    1.02561   1.03049  353.108
 4604.00    1.03475   1.03354  352.778
 4605.00    1.03833   1.03751  349.484
 4606.00    1.04087   1.04289  343.059
 4607.00    1.04649   1.04969  335.758
 4608.00    1.05742   1.05640  331.233
 4609.00    1.06219   1.06060  331.807
 4610.00    1.06008   1.06061  335.914
 4611.00    1.05421   1.05712  339.845
 4612.00    1.04778   1.05300  342.312
 4613.00    1.04369   1.05064  341.278
 4614.00    1.04594   1.04979  338.417
 4615.00    1.04360   1.04842  336.758
 4616.00    1.04290   1.04543  338.412
 4617.00    1.04238   1.04158  340.932
 4618.00    1.04128   1.03866  341.104
 4619.00    1.04130   1.03885  338.306
 4620.00    1.04923   1.04350  333.240
 4621.00    1.05615   1.05107  332.222
 4622.00    1.06162   1.05746  332.963
 4623.00    1.06015   1.05955  333.659
 4624.00    1.05419   1.05779  336.323
 4625.00    1.05160   1.05455  337.564
 4626.00    1.05044   1.05123  337.529
 4627.00    1.04952   1.04761  339.305
 4628.00    1.04399   1.04401  340.311
 4629.00    1.03316   1.04272  338.997
 4630.00    1.03976   1.04553  335.409
 4631.00    1.05081   1.05006  335.969
 4632.00    1.05327   1.05165  340.384
 4633.00    1.04889   1.04878  344.395
 4634.00    1.04560   1.04454  344.760
 4635.00    1.04329   1.04217  346.986
 4636.00    1.04105   1.04160  351.342
 4637.00    1.03616   1.04143  353.350
 4638.00    1.03427   1.04204  353.139
 4639.00    1.03959   1.04498  348.024
 4640.00    1.04644   1.05062  339.843
 4641.00    1.05560   1.05699  334.540
 4642.00    1.06465   1.06090  334.946
 4643.00    1.06299   1.05995  340.454
 4644.00    1.05536   1.05365  349.590
 4645.00    1.04253   1.04333  359.358
 4646.00    1.02924   1.03245  362.302
 4647.00    1.02186   1.02621  357.081
 4648.00    1.02545   1.02805  348.953
 4649.00    1.03595   1.03620  343.588
 4650.00    1.04299   1.04555  342.349
 4651.00    1.04499   1.05152  341.702
 4652.00    1.04196   1.05198   -1.000
 4653.00    1.03616   1.04734   -1.000
 4654.00    1.02745   1.04030   -1.000
 4655.00    1.02004   1.03479   -1.000
 4656.00    1.02090   1.03470   -1.000
 4657.00    1.03314   1.04244  332.190
 4658.00    1.05297   1.05643  323.853
 4659.00    1.06971   1.07006  322.443
 4660.00    1.07537   1.07628  325.827
 4661.00    1.07387   1.07335  333.257
 4662.00    1.06529   1.06485  340.154
 4663.00    1.05701   1.05475  341.889
 4664.00    1.05624   1.04363   -1.000
 4665.00    1.04953   1.02966   -1.000
 4666.00    1.03049   1.01337   -1.000
 4667.00    1.00622   1.00042  378.241
 4668.00    0.99686   0.99734  368.336
 4669.00    1.00734   1.00504  353.388
 4670.00    1.02354   1.01865  342.947
 4671.00    1.03954   1.03203  339.808
 4672.00    1.05091   1.04155   -1.000
 4673.00    1.05297   1.04737  339.553
 4674.00    1.05207   1.05191  335.761
 4675.00    1.05550   1.05615  330.753
 4676.00    1.06426   1.05768  331.344
 4677.00    1.06312   1.05365   -1.000
 4678.00    1.05357   1.04474   -1.000
 4679.00    1.04115   1.03485  350.490
 4680.00    1.03258   1.02764  354.255
 4681.00    1.02989   1.02515  351.047
 4682.00    1.03456   1.02761  342.764
 4683.00    1.04436   1.03313   -1.000
 4684.00    1.05171   1.03857   -1.000
 4685.00    1.05532   1.04175   -1.000
 4686.00    1.05473   1.04261   -1.000
 4687.00    1.05505   1.04235   -1.000
 4688.00    1.05331   1.04178   -1.000
 4689.00    1.05231   1.04071   -1.000
 4690.00    1.04930   1.03889   -1.000
 4691.00    1.04974   1.03751   -1.000
 4692.00    1.05085   1.03846   -1.000
 4693.00    1.05977   1.04182   -1.000
 4694.00    1.06944   1.04566   -1.000
 4695.00    1.07665   1.04775   -1.000
 4696.00    1.07793   1.04591   -1.000
 4697.00    1.07007   1.03907   -1.000
 4698.00    1.05839   1.02941   -1.000
 4699.00    1.04886   1.02067   -1.000
 4700.00    1.04553   1.01403   -1.000
 4701.00    1.04327   1.00828   -1.000
 4702.00    1.03258   1.00369   -1.000
 4703.00    1.02413   1.00293   -1.000
 4704.00    1.03068   1.00700   -1.000
 4705.00    1.03903   1.01205   -1.000
 4706.00    1.03732   1.01268   -1.000
 4707.00    1.02630   1.00829   -1.000
 4708.00    1.01515   1.00404   -1.000
 4709.00    1.01559   1.00542   -1.000
 4710.00    1.02861   1.01283   -1.000
 4711.00    1.04630   1.02154   -1.000
 4712.00    1.05835   1.02608   -1.000
 4713.00    1.05537   1.02514   -1.000
 4714.00    1.04298   1.02281   -1.000
 4715.00    1.04192   1.02448   -1.000
 4716.00    1.05139   1.03128   -1.000
 4717.00    1.05979   1.03967   -1.000
 4718.00    1.06718   1.04596   -1.000
 4719.00    1.06812   1.04915   -1.000
 4720.00    1.06569   1.04984   -1.000
 4721.00    1.06203   1.04902   -1.000
 4722.00    1.06262   1.04852   -1.000
 4723.00    1.06528   1.04987   -1.000
 4724.00    1.06773   1.05188   -1.000
 4725.00    1.07113   1.05092   -1.000
 4726.00    1.06071   1.04452   -1.000
 4727.00    1.04643   1.03401   -1.000
 4728.00    1.03941   1.02350   -1.000
 4729.00    1.03886   1.01640   -1.000
 4730.00    1.04260   1.01347   -1.000
 4731.00    1.04258   1.01464   -1.000
 4732.00    1.04360   1.01957   -1.000
 4733.00    1.04593   1.02572   -1.000
 4734.00    1.04963   1.02937   -1.000
 4735.00    1.04872   1.02920   -1.000
 4736.00    1.04438   1.02739   -1.000
 4737.00    1.04269   1.02698   -1.000
 4738.00    1.04618   1.02882   -1.000
 4739.00    1.05269   1.03129   -1.000
 4740.00    1.05149   1.03301   -1.000
 4741.00    1.04734   1.03457   -1.000
 4742.00    1.05230   1.03708   -1.000
 4743.00    1.05633   1.04038   -1.000
 4744.00    1.05859   1.04357   -1.000
 4745.00    1.05883   1.04651   -1.000
 4746.00    1.06045   1.04981   -1.000
 4747.00    1.06152   1.05371  325.902
 4748.00    1.06534   1.05755  326.258
 4749.00    1.06733   1.06049  326.527
 4750.00    1.07014   1.06205  328.588
 4751.00    1.06718   1.06156  332.158
 4752.00    1.05874   1.05833  335.107
 4753.00    1.05326   1.05309  337.469
 4754.00    1.05075   1.04801  337.291
 4755.00    1.04868   1.04529  338.299
 4756.00    1.04768   1.04585  340.665
 4757.00    1.04673   1.04877  341.366
 4758.00    1.04634   1.05199  338.965
 4759.00    1.04938   1.05321  337.996
 4760.00    1.05158   1.05000  342.447
 4761.00    1.04467   1.04101  350.642
 4762.00    1.03132   1.02834  355.826
 4763.00    1.02220   1.01715  356.900
 4764.00    1.02133   1.01189   -1.000
 4765.00    1.02585   1.01358   -1.000
 4766.00    1.03374   1.02063   -1.000
 4767.00    1.04123   1.03103   -1.000
 4768.00    1.04921   1.04242  336.700
 4769.00    1.05753   1.05143  336.540
 4770.00    1.05802   1.05503  339.125
 4771.00    1.05155   1.05374  342.140
 4772.00    1.04634   1.05191  339.173
 4773.00    1.04949   1.05361  332.294
 4774.00    1.05987   1.05870  329.296
 4775.00    1.06769   1.06381  329.246
 4776.00    1.06622   1.06615  330.140
 4777.00    1.06579   1.06503  332.137
 4778.00    1.06078   1.06068  335.674
 4779.00    1.05476   1.05482  337.932
 4780.00    1.04913   1.05078  338.924
 4781.00    1.04867   1.04991  340.458
 4782.00    1.04678   1.04986  343.069
 4783.00    1.04224   1.04824  343.351
 4784.00    1.04187   1.04511  344.295
 4785.00    1.04073   1.04123  347.427
 4786.00    1.03537   1.03732  349.665
 4787.00    1.03122   1.03487  349.634
 4788.00    1.03153   1.03497  348.080
 4789.00    1.03244   1.03731  345.979
 4790.00    1.03593   1.04160  342.567
 4791.00    1.04355   1.04818  337.209
 4792.00    1.05091   1.05687  329.927
 4793.00    1.05990   1.06628  324.009
 4794.00    1.06810   1.07384  322.222
 4795.00    1.07089   1.07653  324.888
 4796.00    1.06849   1.07299  331.042
 4797.00    1.05934   1.06486  337.353
 4798.00    1.05000   1.05619  341.692
 4799.00    1.04307   1.05155  339.660
 4800.00    1.04350   1.05326  333.235
 4801.00    1.05154   1.05938  328.139
 4802.00    1.05963   1.06448  327.916
 4803.00    1.05927   1.06352  331.815
 4804.00    1.05250   1.05657  336.136
 4805.00    1.04474   1.04893  339.370
 4806.00    1.04278   1.04557  339.713
 4807.00    1.04653   1.04696  338.934
 4808.00    1.05200   1.05067  337.496
 4809.00    1.05344   1.05418  334.633
 4810.00    1.05588   1.05628  332.134
 4811.00    1.05783   1.05748  330.345
 4812.00    1.05856   1.05935  329.837
 4813.00    1.06316   1.06275  329.110
 4814.00    1.06611   1.06687  327.973
 4815.00    1.06486   1.07053  326.019
 4816.00    1.06563   1.07336  323.985
 4817.00    1.07007   1.07529  322.573
 4818.00    1.07239   1.07590  322.299
 4819.00    1.06787   1.07484  322.306
 4820.00    1.06527   1.07147  324.759
 4821.00    1.06472   1.06416  332.597
 4822.00    1.05417   1.05242  339.350
 4823.00    1.04148   1.03994  339.666
 4824.00    1.03510   1.03313  334.308
 4825.00    1.04068   1.03492  328.987
 4826.00    1.05197   1.04154   -1.000
 4827.00    1.05622   1.04659   -1.000
 4828.00    1.05281   1.04721  335.452
 4829.00    1.04808   1.04479  335.644
 4830.00    1.04558   1.04155  338.304
 4831.00    1.04360   1.03854  339.262
 4832.00    1.04330   1.03658  334.601
 4833.00    1.04763   1.03660   -1.000
 4834.00    1.05243   1.03813   -1.000
 4835.00    1.05345   1.03939   -1.000
 4836.00    1.05397   1.03930   -1.000
 4837.00    1.05025   1.03771   -1.000
 4838.00    1.04501   1.03449   -1.000
 4839.00    1.03547   1.02993  341.108
 4840.00    1.02668   1.02582  340.456
 4841.00    1.02746   1.02375  338.871
 4842.00    1.03148   1.02339  336.441
 4843.00    1.03485   1.02374   -1.000
 4844.00    1.03689   1.02464   -1.000
 4845.00    1.04448   1.02553   -1.000
 4846.00    1.04282   1.02400   -1.000
 4847.00    1.03444   1.01833   -1.000
 4848.00    1.02281   1.01106   -1.000
 4849.00    1.01905   1.00673   -1.000
 4850.00    1.02266   1.00603   -1.000
 4851.00    1.02482   1.00509   -1.000
 4852.00    1.02077   0.99921   -1.000
 4853.00    1.00930   0.98564   -1.000
 4854.00    0.98833   0.96538   -1.000
 4855.00    0.96657   0.94361   -1.000
 4856.00    0.95577   0.92449   -1.000
 4857.00    0.94653   0.90376   -1.000
 4858.00    0.92187   0.86894   -1.000
 4859.00    0.85789   0.81212   -1.000
 4860.00    0.76830   0.74561   -1.000
 4861.00    0.71432   0.70124   -1.000
 4862.00    0.73715   0.70540   -1.000
 4863.00    0.81021   0.75397   -1.000
 4864.00    0.87674   0.81804   -1.000
 4865.00    0.91925   0.87250   -1.000
 4866.00    0.94722   0.91116   -1.000
 4867.00    0.96502   0.93741   -1.000
 4868.00    0.97867   0.95328   -1.000
 4869.00    0.98327   0.95808   -1.000
 4870.00    0.97198   0.95306   -1.000
 4871.00    0.95780   0.94536   -1.000
 4872.00    0.96079   0.94479   -1.000
 4873.00    0.98103   0.95500   -1.000
 4874.00    0.99937   0.97024   -1.000
 4875.00    1.00771   0.98256   -1.000
 4876.00    1.01016   0.98969   -1.000
 4877.00    1.00931   0.99519   -1.000
 4878.00    1.01166   1.00303   -1.000
 4879.00    1.02427   1.01315   -1.000
 4880.00    1.03188   1.02124   -1.000
 4881.00    1.02677   1.02297  343.678
 4882.00    1.02299   1.01857  342.920
 4883.00    1.02140   1.01230   -1.000
 4884.00    1.01900   1.00779   -1.000
 4885.00    1.01554   1.00578   -1.000
 4886.00    1.01631   1.00549   -1.000
 4887.00    1.01689   1.00521   -1.000
 4888.00    1.01266   1.00221   -1.000
 4889.00    1.00338   0.99474   -1.000
 4890.00    0.98955   0.98589  360.566
 4891.00    0.98804   0.98415  347.607
 4892.00    1.00538   0.99625   -1.000
 4893.00    1.03431   1.01930   -1.000
 4894.00    1.06079   1.04322   -1.000
 4895.00    1.06996   1.06009   -1.000
 4896.00    1.07532   1.06808  312.864
 4897.00    1.07470   1.06848  318.834
 4898.00    1.06615   1.06315  326.372
 4899.00    1.05320   1.05487  330.567
 4900.00    1.04800   1.04756  329.642
 4901.00    1.04811   1.04342  329.784
 4902.00    1.04373   1.04132  333.399
 4903.00    1.03936   1.04051  330.854
 4904.00    1.04194   1.04327  324.148
 4905.00    1.05111   1.05045  320.993
 4906.00    1.06105   1.05727  323.238
 4907.00    1.05926   1.05758  330.436
 4908.00    1.04810   1.04992  339.863
 4909.00    1.03327   1.03781  344.980
 4910.00    1.02480   1.02698  341.613
 4911.00    1.02712   1.02285  335.579
 4912.00    1.03797   1.02720   -1.000
 4913.00    1.04770   1.03689   -1.000
 4914.00    1.05174   1.04676  323.354
 4915.00    1.05854   1.05187  324.293
 4916.00    1.06007   1.04758   -1.000
 4917.00    1.04391   1.03120   -1.000
 4918.00    1.01201   1.00560  369.114
 4919.00    0.98172   0.97984  375.243
 4920.00    0.96799   0.96419  365.161
 4921.00    0.97823   0.96264   -1.000
 4922.00    0.99606   0.97004   -1.000
 4923.00    1.00416   0.97878   -1.000
 4924.00    1.00689   0.98787   -1.000
 4925.00    1.01709   1.00112   -1.000
 4926.00    1.03611   1.01854   -1.000
 4927.00    1.04891   1.03533   -1.000
 4928.00    1.05672   1.04785   -1.000
 4929.00    1.06119   1.05528  318.504
 4930.00    1.06409   1.05672  320.952
 4931.00    1.06099   1.05031   -1.000
 4932.00    1.04503   1.03623   -1.000
 4933.00    1.02338   1.01988  343.112
 4934.00    1.01650   1.00986  337.795
 4935.00    1.02105   1.00933   -1.000
 4936.00    1.02822   1.01162   -1.000
 4937.00    1.02230   1.00878   -1.000
 4938.00    1.00524   1.00232  353.715
 4939.00    1.00042   1.00118  342.733
 4940.00    1.01444   1.01097  331.577
 4941.00    1.03731   1.02844   -1.000
 4942.00    1.05157   1.04545  321.484
 4943.00    1.05833   1.05588  321.302
 4944.00    1.05938   1.05873  323.345
 4945.00    1.05124   1.05690  324.278
 4946.00    1.04863   1.05472  321.824
 4947.00    1.05364   1.05549  318.097
 4948.00    1.05965   1.05925  316.754
 4949.00    1.06486   1.06328  315.480
 4950.00    1.06521   1.06498  316.728
 4951.00    1.06480   1.06396  318.855
 4952.00    1.06144   1.06134  322.357
 4953.00    1.05810   1.05741  326.352
 4954.00    1.05583   1.04961  334.462
 4955.00    1.04446   1.03356   -1.000
 4956.00    1.01520   1.00984  365.496
 4957.00    0.98839   0.98966  361.057
 4958.00    0.98857   0.98725  341.898
 4959.00    1.01483   1.00466   -1.000
 4960.00    1.04441   1.02965   -1.000
 4961.00    1.05870   1.04890   -1.000
 4962.00    1.06156   1.05764  328.840
 4963.00    1.05753   1.05761  332.577
 4964.00    1.04793   1.05165  339.252
 4965.00    1.03879   1.04264  344.065
 4966.00    1.03270   1.03438  344.722
 4967.00    1.03072   1.02972  343.837
 4968.00    1.03041   1.02885  341.489
 4969.00    1.03471   1.03095  337.970
 4970.00    1.03929   1.03556  334.338
 4971.00    1.04265   1.04174  330.386
 4972.00    1.04958   1.04797  327.155
 4973.00    1.05556   1.05285  325.592
 4974.00    1.05804   1.05525  327.395
 4975.00    1.05705   1.05455  330.715
 4976.00    1.05619   1.05072  335.090
 4977.00    1.05050   1.04452  340.455
 4978.00    1.04162   1.03740  344.842
 4979.00    1.03346   1.02943  349.638
 4980.00    1.02237   1.01812  360.312
 4981.00    1.00342   1.00199  372.106
 4982.00    0.98352   0.98460  373.721
 4983.00    0.97572   0.97342  367.538
 4984.00    0.98058   0.97407  357.605
 4985.00    0.99517   0.98596   -1.000
 4986.00    1.01318   1.00365   -1.000
 4987.00    1.02852   1.02028   -1.000
 4988.00    1.03300   1.02983  341.030
 4989.00    1.02676   1.02995  344.776
 4990.00    1.01867   1.02394  345.368
 4991.00    1.01727   1.01809  342.679
 4992.00    1.02160   1.01650  341.005
 4993.00    1.02491   1.01908  340.689
 4994.00    1.02742   1.02400  339.138
 4995.00    1.03246   1.02963  337.433
 4996.00    1.03668   1.03347  338.999
 4997.00    1.03351   1.03188  343.245
 4998.00    1.02362   1.02249  349.913
 4999.00    1.01280   1.00769  354.673
 5000.00    1.00559   0.99512   -1.000
 5001.00    1.00547   0.99101   -1.000
 5002.00    1.01021   0.99358   -1.000
 5003.00    1.01602   0.99575   -1.000
 5004.00    1.01130   0.99217   -1.000
 5005.00    0.99540   0.98375   -1.000
 5006.00    0.98399   0.97770  358.100
 5007.00    0.98846   0.98110   -1.000
 5008.00    1.00958   0.99273   -1.000
 5009.00    1.02497   1.00366   -1.000
 5010.00    1.02332   1.00560   -1.000
 5011.00    1.00942   0.99703   -1.000
 5012.00    0.98700   0.98304  378.367
 5013.00    0.96986   0.97130  377.872
 5014.00    0.96553   0.96701  370.250
 5015.00    0.97494   0.96917  362.404
 5016.00    0.98652   0.97164   -1.000
 5017.00    0.98973   0.97001   -1.000
 5018.00    0.99145   0.96744   -1.000
 5019.00    0.99489   0.97076   -1.000
 5020.00    1.00258   0.98070   -1.000
 5021.00    1.00912   0.99137   -1.000
 5022.00    1.00715   0.99904   -1.000
 5023.00    1.00902   1.00534  350.037
 5024.00    1.01638   1.01197  347.509
 5025.00    1.02013   1.01709  348.681
 5026.00    1.01557   1.01837  350.377
 5027.00    1.01132   1.01697  347.769
 5028.00    1.01419   1.01620  341.585
 5029.00    1.02402   1.01785  336.503
 5030.00    1.02830   1.02184  331.114
 5031.00    1.03437   1.02781  327.100
 5032.00    1.04295   1.03407   -1.000
 5033.00    1.04474   1.03643   -1.000
 5034.00    1.03516   1.03150  349.563
 5035.00    1.01666   1.02104  356.392
 5036.00    1.00422   1.01067  358.176
 5037.00    0.99972   1.00295  362.205
 5038.00    0.99538   0.99399  375.296
 5039.00    0.97998   0.97943  390.625
 5040.00    0.95421   0.96285  392.719
 5041.00    0.94204   0.95521   -1.000
 5042.00    0.95722   0.96438  353.022
 5043.00    0.99178   0.98718  337.734
 5044.00    1.02350   1.01293   -1.000
 5045.00    1.01167   1.03227   -1.000
 5046.00    1.04759   1.04093  325.033
 5047.00    0.49414   1.03834   -1.000
 5048.00    0.45799   1.02686   -1.000
 5049.00    0.98767   1.01158   -1.000
 5050.00    1.00337   0.99829  351.648
 5051.00    0.99979   0.99177   -1.000
 5052.00    1.01061   0.99547   -1.000
 5053.00    1.02720   1.00888   -1.000
 5054.00    1.04124   1.02541   -1.000
 5055.00    1.05084   1.03773   -1.000
 5056.00    1.05802   1.04410   -1.000
 5057.00    1.05601   1.04714   -1.000
 5058.00    1.05135   1.04937  326.819
 5059.00    1.04774   1.05162  324.818
 5060.00    1.04508   1.05343  324.718
 5061.00    1.04797   1.05325  328.640
 5062.00    1.04869   1.04864  337.676
 5063.00    1.03698   1.03836  349.534
 5064.00    1.01888   1.02513  354.547
 5065.00    1.00545   1.01473  351.123
 5066.00    1.00659   1.01067  345.863
 5067.00    1.01725   1.01135  344.300
 5068.00    1.02172   1.01343   -1.000
 5069.00    1.02607   1.01548   -1.000
 5070.00    1.02896   1.01697   -1.000
 5071.00    1.02895   1.01673   -1.000
 5072.00    1.02233   1.01456   -1.000
 5073.00    1.02488   1.01240   -1.000
 5074.00    1.02835   1.01207   -1.000
 5075.00    1.02951   1.01296   -1.000
 5076.00    1.02865   1.01219   -1.000
 5077.00    1.02257   1.00619   -1.000
 5078.00    1.00549   0.99410   -1.000
 5079.00    0.98141   0.98083  374.218
 5080.00    0.97025   0.97406  367.535
 5081.00    0.98026   0.97642  359.624
 5082.00    0.99490   0.98402   -1.000
 5083.00    1.00173   0.99287   -1.000
 5084.00    1.00924   1.00215   -1.000
 5085.00    1.02296   1.01131   -1.000
 5086.00    1.03401   1.01853   -1.000
 5087.00    1.03637   1.02290   -1.000
 5088.00    1.03778   1.02572   -1.000
 5089.00    1.03927   1.02869   -1.000
 5090.00    1.03920   1.03230   -1.000
 5091.00    1.04051   1.03626  327.306
 5092.00    1.04951   1.04021   -1.000
 5093.00    1.05496   1.04301   -1.000
 5094.00    1.05189   1.04230   -1.000
 5095.00    1.04585   1.03591   -1.000
 5096.00    1.03235   1.02393   -1.000
 5097.00    1.01796   1.00949   -1.000
 5098.00    1.00637   0.99782   -1.000
 5099.00    1.00322   0.99409   -1.000
 5100.00    1.01261   0.99988   -1.000
 5101.00    1.02862   1.01117   -1.000
 5102.00    1.03596   1.02127   -1.000
 5103.00    1.03476   1.02586   -1.000
 5104.00    1.03392   1.02445   -1.000
 5105.00    1.02631   1.01816   -1.000
 5106.00    1.01437   1.00861  354.890
 5107.00    1.00077   0.99889  354.841
 5108.00    0.99391   0.99282  352.705
 5109.00    0.99690   0.99241  350.188
 5110.00    1.00426   0.99749   -1.000
 5111.00    1.01286   1.00684  341.066
 5112.00    1.02522   1.01789   -1.000
 5113.00    1.03579   1.02739   -1.000
 5114.00    1.03834   1.03382  331.866
 5115.00    1.04040   1.03812  328.524
 5116.00    1.04683   1.04176  325.695
 5117.00    1.05171   1.04460   -1.000
 5118.00    1.05172   1.04491   -1.000
 5119.00    1.04743   1.04130  335.238
 5120.00    1.03955   1.03379  340.739
 5121.00    1.02969   1.02341  349.231
 5122.00    1.01349   1.01164  359.671
 5123.00    0.99740   1.00077  362.974
 5124.00    0.99165   0.99364  360.227
 5125.00    0.99412   0.99121  358.305
 5126.00    0.99722   0.99126  356.206
 5127.00    0.99909   0.99101   -1.000
 5128.00    0.99772   0.99031   -1.000
 5129.00    0.99634   0.99125  351.976
 5130.00    1.00186   0.99530   -1.000
 5131.00    1.00955   1.00144   -1.000
 5132.00    1.01368   1.00756  339.752
 5133.00    1.01836   1.01261  336.731
 5134.00    1.02561   1.01615   -1.000
 5135.00    1.02854   1.01675   -1.000
 5136.00    1.02234   1.01248   -1.000
 5137.00    1.00835   1.00363  355.154
 5138.00    0.99080   0.99379  356.087
 5139.00    0.98435   0.98748  353.174
 5140.00    0.98844   0.98626  355.273
 5141.00    0.99036   0.98789  360.842
 5142.00    0.98788   0.99003  359.451
 5143.00    0.98527   0.99308  353.674
 5144.00    0.99415   0.99744  352.017
 5145.00    1.00097   1.00085  354.956
 5146.00    1.00326   1.00137  356.071
 5147.00    1.00688   1.00035  352.116
 5148.00    1.01066   0.99981   -1.000
 5149.00    1.01039   0.99896   -1.000
 5150.00    1.00445   0.99569   -1.000
 5151.00    0.99124   0.99034  362.812
 5152.00    0.98796   0.98598  361.302
 5153.00    0.99281   0.98552   -1.000
 5154.00    1.00285   0.99015   -1.000
 5155.00    1.01621   0.99948   -1.000
 5156.00    1.02715   1.01124   -1.000
 5157.00    1.03789   1.02178   -1.000
 5158.00    1.04644   1.02847   -1.000
 5159.00    1.04690   1.03083   -1.000
 5160.00    1.04543   1.02950   -1.000
 5161.00    1.04028   1.02527   -1.000
 5162.00    1.03321   1.01853   -1.000
 5163.00    1.02713   1.00771   -1.000
 5164.00    1.01478   0.98805   -1.000
 5165.00    0.98094   0.95506   -1.000
 5166.00    0.92890   0.91274   -1.000
 5167.00    0.88345   0.87663   -1.000
 5168.00    0.87738   0.86247   -1.000
 5169.00    0.90468   0.86993   -1.000
 5170.00    0.92535   0.88164   -1.000
 5171.00    0.91302   0.88270   -1.000
 5172.00    0.88694   0.87875   -1.000
 5173.00    0.88660   0.88822  402.042
 5174.00    0.92926   0.91888   -1.000
 5175.00    0.98438   0.95891   -1.000
 5176.00    1.01619   0.99130   -1.000
 5177.00    1.02886   1.00936   -1.000
 5178.00    1.03245   1.01558   -1.000
 5179.00    1.03098   1.01216   -1.000
 5180.00    1.02170   0.99666   -1.000
 5181.00    0.98944   0.96614   -1.000
 5182.00    0.93780   0.92601   -1.000
 5183.00    0.89218   0.89331  449.071
 5184.00    0.88647   0.88654  400.314
 5185.00    0.93073   0.90851   -1.000
 5186.00    0.98303   0.94260   -1.000
 5187.00    1.00554   0.96939   -1.000
 5188.00    1.00545   0.98228   -1.000
 5189.00    1.00467   0.98501   -1.000
 5190.00    1.00182   0.98130   -1.000
 5191.00    0.98827   0.97316   -1.000
 5192.00    0.97045   0.96517  369.231
 5193.00    0.96967   0.96262   -1.000
 5194.00    0.97823   0.96589   -1.000
 5195.00    0.99014   0.97147   -1.000
 5196.00    0.99911   0.97750   -1.000
 5197.00    1.00806   0.98483   -1.000
 5198.00    1.01626   0.99393   -1.000
 5199.00    1.02315   1.00289   -1.000
 5200.00    1.02840   1.00839   -1.000
 5201.00    1.02288   1.00755   -1.000
 5202.00    1.01474   0.99912   -1.000
 5203.00    1.00317   0.98405   -1.000
 5204.00    0.98295   0.96608   -1.000
 5205.00    0.96449   0.95093   -1.000
 5206.00    0.96407   0.94265   -1.000
 5207.00    0.96225   0.94092   -1.000
 5208.00    0.96105   0.94364   -1.000
 5209.00    0.96578   0.95130   -1.000
 5210.00    0.98220   0.96555   -1.000
 5211.00    1.00447   0.98428   -1.000
 5212.00    1.02817   1.00115   -1.000
 5213.00    1.03939   1.00982   -1.000
 5214.00    1.03672   1.00796   -1.000
 5215.00    1.02057   0.99945   -1.000
 5216.00    1.00646   0.99250   -1.000
 5217.00    1.01108   0.99376   -1.000
 5218.00    1.02463   1.00349   -1.000
 5219.00    1.03819   1.01640   -1.000
 5220.00    1.04702   1.02669   -1.000
 5221.00    1.05101   1.03104   -1.000
 5222.00    1.04732   1.02794   -1.000
 5223.00    1.03207   1.01598   -1.000
 5224.00    1.00877   0.99445   -1.000
 5225.00    0.97636   0.96700   -1.000
 5226.00    0.94850   0.94418  371.848
 5227.00    0.94735   0.93823   -1.000
 5228.00    0.97388   0.95202   -1.000
 5229.00    1.00787   0.97516   -1.000
 5230.00    1.02643   0.99280   -1.000
 5231.00    1.02922   0.99712   -1.000
 5232.00    1.02179   0.99059   -1.000
 5233.00    1.00658   0.98208   -1.000
 5234.00    1.00263   0.98043   -1.000
 5235.00    1.01501   0.98853   -1.000
 5236.00    1.02960   1.00231   -1.000
 5237.00    1.04226   1.01528   -1.000
 5238.00    1.04901   1.02359   -1.000
 5239.00    1.04744   1.02727   -1.000
 5240.00    1.04826   1.02825   -1.000
 5241.00    1.05057   1.02818   -1.000
 5242.00    1.05278   1.02815   -1.000
 5243.00    1.05183   1.02871   -1.000
 5244.00    1.05069   1.02886   -1.000
 5245.00    1.04363   1.02592   -1.000
 5246.00    1.02935   1.01861   -1.000
 5247.00    1.01445   1.00929  345.192
 5248.00    1.00924   1.00151   -1.000
 5249.00    1.00784   0.99670   -1.000
 5250.00    1.00233   0.99480   -1.000
 5251.00    0.99985   0.99582  341.832
 5252.00    1.00766   0.99868   -1.000
 5253.00    1.01513   1.00107   -1.000
 5254.00    1.01374   1.00254   -1.000
 5255.00    1.01745   1.00600   -1.000
 5256.00    1.02865   1.01397   -1.000
 5257.00    1.04574   1.02442   -1.000
 5258.00    1.05320   1.03150   -1.000
 5259.00    1.04785   1.03004   -1.000
 5260.00    1.03584   1.01826   -1.000
 5261.00    1.01270   0.99808   -1.000
 5262.00    0.98527   0.97415   -1.000
 5263.00    0.96477   0.95194   -1.000
 5264.00    0.95272   0.93601   -1.000
 5265.00    0.94665   0.92892   -1.000
 5266.00    0.95341   0.92897   -1.000
 5267.00    0.96478   0.92945   -1.000
 5268.00    0.95627   0.92406   -1.000
 5269.00    0.93265   0.91560   -1.000
 5270.00    0.92914   0.91523   -1.000
 5271.00    0.95670   0.92937   -1.000
 5272.00    0.98492   0.95087   -1.000
 5273.00    0.99951   0.96724   -1.000
 5274.00    1.00272   0.97446   -1.000
 5275.00    1.00406   0.97872   -1.000
 5276.00    1.01112   0.98742   -1.000
 5277.00    1.02860   1.00129   -1.000
 5278.00    1.04599   1.01400   -1.000
 5279.00    1.04757   1.01849   -1.000
 5280.00    1.03629   1.01311   -1.000
 5281.00    1.02139   1.00179   -1.000
 5282.00    1.00605   0.99068   -1.000
 5283.00    0.99705   0.98575   -1.000
 5284.00    1.00658   0.99100   -1.000
 5285.00    1.02904   1.00543   -1.000
 5286.00    1.04767   1.02254   -1.000
 5287.00    1.05406   1.03531   -1.000
 5288.00    1.05390   1.04178   -1.000
 5289.00    1.05528   1.04432   -1.000
 5290.00    1.05803   1.04500   -1.000
 5291.00    1.05351   1.04412   -1.000
 5292.00    1.05073   1.04175   -1.000
 5293.00    1.05122   1.03808   -1.000
 5294.00    1.04475   1.03201   -1.000
 5295.00    1.03451   1.02178   -1.000
 5296.00    1.01439   1.00793  350.776
 5297.00    0.99613   0.99514  349.017
 5298.00    0.99191   0.98925  340.343
 5299.00    1.00112   0.99186   -1.000
 5300.00    1.01405   0.99905   -1.000
 5301.00    1.01700   1.00647   -1.000
 5302.00    1.02189   1.01351   -1.000
 5303.00    1.03295   1.02137   -1.000
 5304.00    1.04511   1.02897   -1.000
 5305.00    1.05022   1.03333   -1.000
 5306.00    1.04286   1.03358   -1.000
 5307.00    1.03987   1.03239   -1.000
 5308.00    1.04611   1.03312   -1.000
 5309.00    1.05098   1.03640   -1.000
 5310.00    1.05525   1.03996   -1.000
 5311.00    1.05786   1.04122   -1.000
 5312.00    1.05560   1.03923   -1.000
 5313.00    1.05427   1.03407   -1.000
 5314.00    1.04894   1.02595   -1.000
 5315.00    1.03725   1.01624   -1.000
 5316.00    1.02839   1.00863   -1.000
 5317.00    1.02600   1.00730   -1.000
 5318.00    1.03090   1.01269   -1.000
 5319.00    1.04045   1.02036   -1.000
 5320.00    1.04246   1.02469   -1.000
 5321.00    1.03690   1.02271   -1.000
 5322.00    1.02895   1.01475   -1.000
 5323.00    1.01750   1.00373   -1.000
 5324.00    1.00938   0.99280   -1.000
 5325.00    1.00810   0.98160   -1.000
 5326.00    0.99715   0.96658   -1.000
 5327.00    0.96393   0.94844   -1.000
 5328.00    0.93802   0.93696  363.295
 5329.00    0.94816   0.94265  341.639
 5330.00    0.98568   0.96395   -1.000
 5331.00    1.01596   0.98801   -1.000
 5332.00    1.02382   1.00421   -1.000
 5333.00    1.02948   1.01168   -1.000
 5334.00    1.03277   1.01443   -1.000
 5335.00    1.03413   1.01480   -1.000
 5336.00    1.03136   1.01303   -1.000
 5337.00    1.03132   1.00898   -1.000
 5338.00    1.02760   1.00248   -1.000
 5339.00    1.01265   0.99434   -1.000
 5340.00    1.00153   0.98823   -1.000
 5341.00    1.00271   0.98884   -1.000
 5342.00    1.01621   0.99659   -1.000
 5343.00    1.03411   1.00605   -1.000
 5344.00    1.03535   1.01123   -1.000
 5345.00    1.02935   1.01070   -1.000
 5346.00    1.02397   1.00689   -1.000
 5347.00    1.02202   1.00279   -1.000
 5348.00    1.02054   1.00039   -1.000
 5349.00    1.01896   1.00131   -1.000
 5350.00    1.02257   1.00636   -1.000
 5351.00    1.03428   1.01406   -1.000
 5352.00    1.04184   1.02161   -1.000
 5353.00    1.04131   1.02767   -1.000
 5354.00    1.04821   1.03299   -1.000
 5355.00    1.05602   1.03822   -1.000
 5356.00    1.05802   1.04246   -1.000
 5357.00    1.06127   1.04451   -1.000
 5358.00    1.06350   1.04408   -1.000
 5359.00    1.06112   1.04120   -1.000
 5360.00    1.05196   1.03566   -1.000
 5361.00    1.04079   1.02772   -1.000
 5362.00    1.03249   1.01883   -1.000
 5363.00    1.02731   1.01096   -1.000
 5364.00    1.02289   1.00554   -1.000
 5365.00    1.02072   1.00292   -1.000
 5366.00    1.01778   1.00200   -1.000
 5367.00    1.01994   1.00008   -1.000
 5368.00    1.01817   0.99405   -1.000
 5369.00    1.00717   0.98315   -1.000
 5370.00    0.98810   0.97146   -1.000
 5371.00    0.97870   0.96679   -1.000
 5372.00    0.99061   0.97462   -1.000
 5373.00    1.02059   0.99237   -1.000
 5374.00    1.04299   1.01139   -1.000
 5375.00    1.05025   1.02439   -1.000
 5376.00    1.05266   1.02987   -1.000
 5377.00    1.05176   1.03027   -1.000
 5378.00    1.04996   1.02789   -1.000
 5379.00    1.04268   1.02351   -1.000
 5380.00    1.03763   1.01777   -1.000
 5381.00    1.02942   1.01224   -1.000
 5382.00    1.02798   1.00890   -1.000
 5383.00    1.02623   1.00910   -1.000
 5384.00    1.02889   1.01285   -1.000
 5385.00    1.03779   1.01856   -1.000
 5386.00    1.04302   1.02339   -1.000
 5387.00    1.04460   1.02477   -1.000
 5388.00    1.03993   1.02191   -1.000
 5389.00    1.03077   1.01596   -1.000
 5390.00    1.02674   1.00902   -1.000
 5391.00    1.02371   1.00283   -1.000
 5392.00    1.01772   0.99814   -1.000
 5393.00    1.01231   0.99468   -1.000
 5394.00    1.00813   0.99074   -1.000
 5395.00    1.00127   0.98416   -1.000
 5396.00    0.98991   0.97598   -1.000
 5397.00    0.98477   0.97156   -1.000
 5398.00    0.99389   0.97536   -1.000
 5399.00    1.01313   0.98554   -1.000
 5400.00    1.02665   0.99567   -1.000
 5401.00    1.02839   1.00007   -1.000
 5402.00    1.02455   0.99610   -1.000
 5403.00    1.01108   0.98412   -1.000
 5404.00    0.98535   0.96863   -1.000
 5405.00    0.97126   0.95751   -1.000
 5406.00    0.97934   0.95641   -1.000
 5407.00    0.99408   0.96328   -1.000
 5408.00    1.00171   0.97084   -1.000
 5409.00    0.99879   0.97493   -1.000
 5410.00    0.99564   0.97823   -1.000
 5411.00    1.00646   0.98470   -1.000
 5412.00    1.02288   0.99322   -1.000
 5413.00    1.03028   0.99952   -1.000
 5414.00    1.02909   1.00237   -1.000
 5415.00    1.02323   1.00447   -1.000
 5416.00    1.02870   1.00803   -1.000
 5417.00    1.03339   1.01189   -1.000
 5418.00    1.03472   1.01380   -1.000
 5419.00    1.03367   1.01338   -1.000
 5420.00    1.02942   1.01172   -1.000
 5421.00    1.02784   1.00921   -1.000
 5422.00    1.02807   1.00532   -1.000
 5423.00    1.02018   1.00066   -1.000
 5424.00    1.01256   0.99821   -1.000
 5425.00    1.01445   1.00061   -1.000
 5426.00    1.02393   1.00552   -1.000
 5427.00    1.02665   1.00629   -1.000
 5428.00    1.01326   0.99930   -1.000
 5429.00    0.99480   0.98916  339.233
 5430.00    0.98894   0.98349  333.064
 5431.00    0.99689   0.98373   -1.000
 5432.00    1.00501   0.98452   -1.000
 5433.00    0.99991   0.98173   -1.000
 5434.00    0.98905   0.97816   -1.000
 5435.00    0.98641   0.97999  333.540
 5436.00    1.00005   0.98966   -1.000
 5437.00    1.01941   1.00395   -1.000
 5438.00    1.03161   1.01746   -1.000
 5439.00    1.04136   1.02678   -1.000
 5440.00    1.04530   1.03157   -1.000
 5441.00    1.04573   1.03287   -1.000
 5442.00    1.04423   1.03066   -1.000
 5443.00    1.03725   1.02330   -1.000
 5444.00    1.02352   1.00953   -1.000
 5445.00    1.00047   0.99184   -1.000
 5446.00    0.98087   0.97747  343.560
 5447.00    0.97970   0.97410  332.338
 5448.00    0.99919   0.98318   -1.000
 5449.00    1.02595   0.99852   -1.000
 5450.00    1.03866   1.01156   -1.000
 5451.00    1.04209   1.01710   -1.000
 5452.00    1.03852   1.01395   -1.000
 5453.00    1.02623   1.00333   -1.000
 5454.00    1.00476   0.98930   -1.000
 5455.00    0.98551   0.97937  342.285
 5456.00    0.98958   0.98052   -1.000
 5457.00    1.01275   0.99271   -1.000
 5458.00    1.03238   1.00806   -1.000
 5459.00    1.04552   1.01782   -1.000
 5460.00    1.03938   1.01862   -1.000
 5461.00    1.02403   1.01257   -1.000
 5462.00    1.01359   1.00445   -1.000
 5463.00    1.00860   0.99931   -1.000
 5464.00    1.01278   0.99976   -1.000
 5465.00    1.02296   1.00440   -1.000
 5466.00    1.02728   1.00981   -1.000
 5467.00    1.03000   1.01391   -1.000
 5468.00    1.03194   1.01645   -1.000
 5469.00    1.03081   1.01746   -1.000
 5470.00    1.02835   1.01654   -1.000
 5471.00    1.02678   1.01355   -1.000
 5472.00    1.02197   1.00881   -1.000
 5473.00    1.01510   1.00221   -1.000
 5474.00    1.00550   0.99302   -1.000
 5475.00    0.99163   0.98191   -1.000
 5476.00    0.97771   0.97297  348.025
 5477.00    0.97741   0.97170  337.174
 5478.00    0.99491   0.97906   -1.000
 5479.00    1.01315   0.98922   -1.000
 5480.00    1.01697   0.99568   -1.000
 5481.00    1.00983   0.99779   -1.000
 5482.00    1.00643   0.99965  330.990
 5483.00    1.01222   1.00429   -1.000
 5484.00    1.02067   1.01048   -1.000
 5485.00    1.02627   1.01453   -1.000
 5486.00    1.02448   1.01417   -1.000
 5487.00    1.01691   1.01064  331.302
 5488.00    1.01421   1.00725  331.319
 5489.00    1.01513   1.00636   -1.000
 5490.00    1.01652   1.00792   -1.000
 5491.00    1.01989   1.01035   -1.000
 5492.00    1.01952   1.01207  326.120
 5493.00    1.02121   1.01235   -1.000
 5494.00    1.02314   1.01111   -1.000
 5495.00    1.02308   1.00823   -1.000
 5496.00    1.01353   1.00423   -1.000
 5497.00    1.00815   1.00115  329.041
 5498.00    1.00827   1.00072   -1.000
 5499.00    1.01450   1.00144   -1.000
 5500.00    1.01566   1.00005   -1.000
 5501.00    1.00718   0.99627   -1.000
 5502.00    1.00367   0.99342   -1.000
 5503.00    1.01066   0.99347   -1.000
 5504.00    1.01744   0.99393   -1.000
 5505.00    1.01024   0.99174   -1.000
 5506.00    1.00119   0.98810   -1.000
 5507.00    0.99952   0.98715   -1.000
 5508.00    1.00658   0.99054   -1.000
 5509.00    1.01480   0.99509   -1.000
 5510.00    1.01517   0.99647   -1.000
 5511.00    1.00754   0.99368   -1.000
 5512.00    0.99850   0.98933   -1.000
 5513.00    0.99080   0.98697  341.355
 5514.00    0.99541   0.98857   -1.000
 5515.00    1.00263   0.99376   -1.000
 5516.00    1.01618   1.00081   -1.000
 5517.00    1.02546   1.00798   -1.000
 5518.00    1.02948   1.01385   -1.000
 5519.00    1.03448   1.01736   -1.000
 5520.00    1.03403   1.01831   -1.000
 5521.00    1.03111   1.01769   -1.000
 5522.00    1.03013   1.01654   -1.000
 5523.00    1.02893   1.01438   -1.000
 5524.00    1.02530   1.00920   -1.000
 5525.00    1.01675   0.99937   -1.000
 5526.00    1.00247   0.98620   -1.000
 5527.00    0.98586   0.97468   -1.000
 5528.00    0.97902   0.97074   -1.000
 5529.00    0.98768   0.97651   -1.000
 5530.00    1.00365   0.98801   -1.000
 5531.00    1.01737   0.99806   -1.000
 5532.00    1.01898   1.00180   -1.000
 5533.00    1.01603   0.99967   -1.000
 5534.00    1.00831   0.99590   -1.000
 5535.00    1.00713   0.99481   -1.000
 5536.00    1.01300   0.99776   -1.000
 5537.00    1.01803   1.00296   -1.000
 5538.00    1.02063   1.00805   -1.000
 5539.00    1.02624   1.01197   -1.000
 5540.00    1.02923   1.01438   -1.000
 5541.00    1.02909   1.01461   -1.000
 5542.00    1.02573   1.01242   -1.000
 5543.00    1.01907   1.00908   -1.000
 5544.00    1.01508   1.00675   -1.000
 5545.00    1.01621   1.00670   -1.000
 5546.00    1.01782   1.00883   -1.000
 5547.00    1.02195   1.01254   -1.000
 5548.00    1.02598   1.01703   -1.000
 5549.00    1.03107   1.02080   -1.000
 5550.00    1.03010   1.02235   -1.000
 5551.00    1.02974   1.02134   -1.000
 5552.00    1.02406   1.01861  323.767
 5553.00    1.01988   1.01549  325.227
 5554.00    1.01649   1.01327  324.659
 5555.00    1.01482   1.01273  323.608
 5556.00    1.01894   1.01349  323.081
 5557.00    1.02272   1.01453   -1.000
 5558.00    1.02296   1.01521   -1.000
 5559.00    1.02300   1.01534  323.077
 5560.00    1.02340   1.01441   -1.000
 5561.00    1.02105   1.01192   -1.000
 5562.00    1.01578   1.00841  330.425
 5563.00    1.00921   1.00527  331.303
 5564.00    1.00610   1.00322  331.972
 5565.00    1.00536   1.00181  332.297
 5566.00    1.00228   1.00026  331.549
 5567.00    1.00124   0.99844  330.851
 5568.00    1.00132   0.99666  331.902
 5569.00    0.99783   0.99526  331.590
 5570.00    0.99761   0.99401  331.646
 5571.00    0.99818   0.99228  332.672
 5572.00    0.99254   0.99059  331.119
 5573.00    0.98526   0.99069  327.465
 5574.00    0.97703   0.99333   -1.000
 5575.00    0.98468   0.99723   -1.000
 5576.00    1.00757   1.00086  314.537
 5577.00    1.02335   1.00386   -1.000
 5578.00    1.03311   1.00636   -1.000
 5579.00    1.00822   1.00792  335.140
 5580.00    1.01357   1.00800  330.898
 5581.00    1.00934   1.00696  327.274
 5582.00    1.00817   1.00564  326.712
 5583.00    1.00967   1.00356  328.734
 5584.00    1.00768   0.99842   -1.000
 5585.00    0.99880   0.98844   -1.000
 5586.00    0.97903   0.97519  352.665
 5587.00    0.96224   0.96343  355.073
 5588.00    0.95748   0.95784  350.527
 5589.00    0.96177   0.95996  344.074
 5590.00    0.97510   0.96756   -1.000
 5591.00    0.98526   0.97608   -1.000
 5592.00    0.99192   0.98172   -1.000
 5593.00    0.98808   0.98417  337.751
 5594.00    0.98504   0.98611  332.709
 5595.00    0.99184   0.98926  330.073
 5596.00    0.99990   0.99176   -1.000
 5597.00    0.99739   0.99082  339.543
 5598.00    0.98883   0.98663  343.009
 5599.00    0.98574   0.98136  342.573
 5600.00    0.98472   0.97632   -1.000
 5601.00    0.97893   0.97271  346.310
 5602.00    0.97445   0.97332  340.198
 5603.00    0.97743   0.98043  330.646
 5604.00    0.99478   0.99274  323.180
 5605.00    1.01316   1.00579   -1.000
 5606.00    1.02289   1.01547   -1.000
 5607.00    1.02759   1.02064  319.559
 5608.00    1.02589   1.02270  320.224
 5609.00    1.02354   1.02358  319.840
 5610.00    1.02307   1.02408  318.792
 5611.00    1.02427   1.02301  320.473
 5612.00    1.02409   1.01763  327.437
 5613.00    1.01558   1.00622   -1.000
 5614.00    0.99556   0.99147  346.799
 5615.00    0.97642   0.98048  343.312
 5616.00    0.97533   0.97914  334.730
 5617.00    0.99133   0.98646  330.360
 5618.00    1.00671   0.99624   -1.000
 5619.00    1.00884   1.00351  328.249
 5620.00    1.01032   1.00738  326.600
 5621.00    1.01484   1.00834  328.212
 5622.00    1.01566   1.00607   -1.000
 5623.00    1.00509   1.00094  341.251
 5624.00    0.99294   0.99580  339.277
 5625.00    0.99270   0.99432  333.261
 5626.00    1.00002   0.99763  328.522
 5627.00    1.00784   1.00367  324.770
 5628.00    1.01444   1.00973  322.463
 5629.00    1.02083   1.01436  321.654
 5630.00    1.02273   1.01714  320.316
 5631.00    1.02410   1.01792  320.774
 5632.00    1.02321   1.01678  323.453
 5633.00    1.02080   1.01422  325.750
 5634.00    1.01854   1.01094  327.781
 5635.00    1.01640   1.00737   -1.000
 5636.00    1.01241   1.00398   -1.000
 5637.00    1.00641   1.00138  332.329
 5638.00    1.00597   0.99978  331.954
 5639.00    1.00460   0.99863  333.205
 5640.00    1.00352   0.99742  333.303
 5641.00    1.00252   0.99665  331.857
 5642.00    1.00579   0.99734   -1.000
 5643.00    1.00890   0.99954   -1.000
 5644.00    1.00732   1.00230  327.398
 5645.00    1.01058   1.00469  326.601
 5646.00    1.01387   1.00627  325.744
 5647.00    1.01301   1.00683  325.291
 5648.00    1.01404   1.00642  326.190
 5649.00    1.01671   1.00563   -1.000
 5650.00    1.01504   1.00532   -1.000
 5651.00    1.01395   1.00572   -1.000
 5652.00    1.01845   1.00589   -1.000
 5653.00    1.01697   1.00459   -1.000
 5654.00    1.01253   1.00101   -1.000
 5655.00    1.00589   0.99441   -1.000
 5656.00    0.99366   0.98465   -1.000
 5657.00    0.97778   0.97411  352.451
 5658.00    0.96631   0.96764  346.558
 5659.00    0.96638   0.96836  338.799
 5660.00    0.97794   0.97415  338.004
 5661.00    0.98943   0.98034   -1.000
 5662.00    0.99221   0.98524  334.517
 5663.00    0.99299   0.99022  329.699
 5664.00    1.00017   0.99535  328.670
 5665.00    1.00730   0.99821   -1.000
 5666.00    1.00672   0.99732   -1.000
 5667.00    1.00301   0.99439   -1.000
 5668.00    0.99915   0.99261  331.969
 5669.00    0.99996   0.99375  329.709
 5670.00    1.00187   0.99741  326.783
 5671.00    1.00894   1.00212  323.460
 5672.00    1.01294   1.00641  320.358
 5673.00    1.01581   1.00932  320.718
 5674.00    1.01703   1.01067  321.854
 5675.00    1.01635   1.01111  320.644
 5676.00    1.01611   1.01128  320.201
 5677.00    1.01541   1.01103  322.030
 5678.00    1.01430   1.00963  323.291
 5679.00    1.01451   1.00663   -1.000
 5680.00    1.01291   1.00197   -1.000
 5681.00    1.00605   0.99596   -1.000
 5682.00    0.99932   0.98987   -1.000
 5683.00    0.99902   0.98576   -1.000
 5684.00    0.99880   0.98483   -1.000
 5685.00    0.99672   0.98602   -1.000
 5686.00    0.99786   0.98719   -1.000
 5687.00    0.99306   0.98746  336.839
 5688.00    0.99117   0.98789  332.640
 5689.00    0.99737   0.98998   -1.000
 5690.00    1.00550   0.99401   -1.000
 5691.00    1.00974   0.99882   -1.000
 5692.00    1.01209   1.00287   -1.000
 5693.00    1.01409   1.00538   -1.000
 5694.00    1.01535   1.00645   -1.000
 5695.00    1.01269   1.00650  322.744
 5696.00    1.01045   1.00560  326.165
 5697.00    1.00774   1.00340  329.996
 5698.00    1.00077   0.99971  332.806
 5699.00    0.99352   0.99509  336.474
 5700.00    0.99185   0.99083  337.794
 5701.00    0.98933   0.98836  334.897
 5702.00    0.98724   0.98846  331.317
 5703.00    0.99344   0.99020  330.788
 5704.00    0.99852   0.99115  333.297
 5705.00    0.99382   0.98920  338.264
 5706.00    0.98734   0.98403  344.734
 5707.00    0.97828   0.97680  349.984
 5708.00    0.96665   0.96938  351.678
 5709.00    0.96023   0.96410  350.590
 5710.00    0.95886   0.96308  346.726
 5711.00    0.96321   0.96716  339.222
 5712.00    0.97506   0.97518  330.695
 5713.00    0.98893   0.98448  325.973
 5714.00    1.00109   0.99236   -1.000
 5715.00    1.00718   0.99767   -1.000
 5716.00    1.00575   1.00095  323.408
 5717.00    1.00740   1.00327  321.759
 5718.00    1.01271   1.00544  319.623
 5719.00    1.01162   1.00779  318.199
 5720.00    1.01277   1.01018  317.506
 5721.00    1.01514   1.01219  317.037
 5722.00    1.01711   1.01352  316.664
 5723.00    1.01949   1.01392  317.547
 5724.00    1.01667   1.01291  320.435
 5725.00    1.01079   1.01024  323.889
 5726.00    1.00845   1.00671  326.365
 5727.00    1.00405   1.00392  324.144
 5728.00    1.00494   1.00281  322.228
 5729.00    1.00816   1.00295  323.423
 5730.00    1.01228   1.00331   -1.000
 5731.00    1.00706   1.00368  323.582
 5732.00    1.00246   1.00483  320.235
 5733.00    1.01075   1.00719  318.358
 5734.00    1.01403   1.00976  318.883
 5735.00    1.01220   1.01111  319.240
 5736.00    1.01058   1.01099  320.286
 5737.00    1.01195   1.01025  320.424
 5738.00    1.01390   1.00967  321.196
 5739.00    1.00814   1.00940  321.635
 5740.00    1.00947   1.00912  322.402
 5741.00    1.00854   1.00861  321.456
 5742.00    1.00571   1.00825  321.232
 5743.00    1.00667   1.00857  318.601
 5744.00    1.00781   1.00933  316.994
 5745.00    1.01026   1.00940  319.115
 5746.00    1.01247   1.00815  322.435
 5747.00    1.00976   1.00647  323.412
 5748.00    1.00421   1.00584  321.173
 5749.00    1.00570   1.00627  320.337
 5750.00    1.00703   1.00577  323.259
 5751.00    1.00412   1.00241  327.328
 5752.00    0.99449   0.99691  330.507
 5753.00    0.98905   0.99260  330.061
 5754.00    0.98914   0.99264  325.406
 5755.00    0.99338   0.99732  319.179
 5756.00    1.00513   1.00404  315.682
 5757.00    1.01264   1.00950  317.165
 5758.00    1.01494   1.01150  320.979
 5759.00    1.01437   1.00954  325.239
 5760.00    1.00859   1.00474  329.716
 5761.00    1.00146   0.99949  331.017
 5762.00    0.99540   0.99672  326.888
 5763.00    0.99665   0.99845  320.828
 5764.00    1.00585   1.00395  317.147
 5765.00    1.01306   1.01008  316.463
 5766.00    1.01639   1.01404  316.178
 5767.00    1.01533   1.01522  315.607
 5768.00    1.01420   1.01455  316.401
 5769.00    1.01360   1.01303  317.479
 5770.00    1.01135   1.01119  319.336
 5771.00    1.01035   1.00921  321.335
 5772.00    1.01085   1.00712  321.992
 5773.00    1.00953   1.00508  322.359
 5774.00    1.00338   1.00348  321.562
 5775.00    1.00534   1.00282  319.843
 5776.00    1.00773   1.00278  319.710
 5777.00    1.00863   1.00185  320.852
 5778.00    1.00738   0.99856   -1.000
 5779.00    1.00179   0.99292   -1.000
 5780.00    0.99626   0.98650   -1.000
 5781.00    0.99197   0.98142   -1.000
 5782.00    0.99189   0.97897   -1.000
 5783.00    0.99138   0.97891   -1.000
 5784.00    0.99119   0.98030   -1.000
 5785.00    0.99455   0.98274   -1.000
 5786.00    0.99663   0.98630   -1.000
 5787.00    1.00105   0.99042   -1.000
 5788.00    1.00531   0.99378   -1.000
 5789.00    1.00945   0.99538   -1.000
 5790.00    1.00603   0.99558   -1.000
 5791.00    1.00048   0.99599  320.582
 5792.00    1.00405   0.99804  318.473
 5793.00    1.00977   1.00161   -1.000
 5794.00    1.01499   1.00513   -1.000
 5795.00    1.01431   1.00683  318.661
 5796.00    1.00874   1.00625  320.693
 5797.00    1.00807   1.00486  318.759
 5798.00    1.01009   1.00485  314.445
 5799.00    1.01198   1.00697  310.108
 5800.00    1.01806   1.00998   -1.000
 5801.00    1.01979   1.01200  312.730
 5802.00    1.01882   1.01186  315.100
 5803.00    1.01424   1.00971  317.707
 5804.00    1.00945   1.00698  318.981
 5805.00    1.00889   1.00535  318.022
 5806.00    1.00975   1.00555  316.795
 5807.00    1.01254   1.00707  315.884
 5808.00    1.01422   1.00895  315.971
 5809.00    1.01553   1.01062  315.618
 5810.00    1.01778   1.01196  314.324
 5811.00    1.02007   1.01275  313.446
 5812.00    1.02277   1.01246   -1.000
 5813.00    1.02269   1.01072   -1.000
 5814.00    1.02028   1.00800   -1.000
 5815.00    1.01627   1.00573   -1.000
 5816.00    1.01626   1.00552   -1.000
 5817.00    1.01873   1.00780   -1.000
 5818.00    1.02028   1.01132   -1.000
 5819.00    1.02418   1.01429   -1.000
 5820.00    1.02456   1.01582   -1.000
 5821.00    1.02636   1.01618   -1.000
 5822.00    1.02653   1.01599   -1.000
 5823.00    1.02652   1.01573   -1.000
 5824.00    1.02217   1.01559  310.080
 5825.00    1.02282   1.01571  309.825
 5826.00    1.02630   1.01614   -1.000
 5827.00    1.02549   1.01683   -1.000
 5828.00    1.02817   1.01759   -1.000
 5829.00    1.02535   1.01806  310.056
 5830.00    1.02614   1.01795   -1.000
 5831.00    1.02653   1.01718   -1.000
 5832.00    1.02377   1.01581   -1.000
 5833.00    1.02505   1.01410   -1.000
 5834.00    1.02470   1.01270   -1.000
 5835.00    1.02618   1.01224   -1.000
 5836.00    1.02240   1.01284   -1.000
 5837.00    1.02471   1.01407   -1.000
 5838.00    1.02231   1.01554  311.759
 5839.00    1.02461   1.01700  309.310
 5840.00    1.02590   1.01808   -1.000
 5841.00    1.02299   1.01833  308.070
 5842.00    1.02756   1.01745   -1.000
 5843.00    1.02761   1.01556   -1.000
 5844.00    1.02288   1.01298   -1.000
 5845.00    1.02236   1.01016   -1.000
 5846.00    1.02015   1.00771   -1.000
 5847.00    1.01894   1.00619   -1.000
 5848.00    1.02042   1.00553   -1.000
 5849.00    1.02109   1.00475   -1.000
 5850.00    1.02089   1.00250   -1.000
 5851.00    1.01624   0.99820   -1.000
 5852.00    1.00697   0.99293   -1.000
 5853.00    1.00266   0.98852   -1.000
 5854.00    1.00055   0.98547   -1.000
 5855.00    1.00124   0.98231   -1.000
 5856.00    0.99732   0.97802   -1.000
 5857.00    0.99171   0.97431   -1.000
 5858.00    0.99233   0.97407   -1.000
 5859.00    0.99970   0.97796   -1.000
 5860.00    1.00727   0.98381   -1.000
 5861.00    1.00823   0.98909   -1.000
 5862.00    1.00877   0.99284   -1.000
 5863.00    1.01183   0.99510   -1.000
 5864.00    1.01404   0.99579   -1.000
 5865.00    1.01206   0.99492   -1.000
 5866.00    1.00964   0.99365   -1.000
 5867.00    1.01047   0.99372   -1.000
 5868.00    1.01526   0.99581   -1.000
 5869.00    1.02050   0.99895   -1.000
 5870.00    1.02099   1.00153   -1.000
 5871.00    1.02255   1.00254   -1.000
 5872.00    1.02169   1.00194   -1.000
 5873.00    1.02097   1.00040   -1.000
 5874.00    1.01907   0.99858   -1.000
 5875.00    1.01797   0.99683   -1.000
 5876.00    1.01751   0.99514   -1.000
 5877.00    1.01720   0.99309   -1.000
 5878.00    1.01299   0.99043   -1.000
 5879.00    1.01009   0.98748   -1.000
 5880.00    1.00721   0.98478   -1.000
 5881.00    1.00554   0.98232   -1.000
 5882.00    1.00792   0.97960   -1.000
 5883.00    1.00702   0.97647   -1.000
 5884.00    1.00609   0.97301   -1.000
 5885.00    1.00233   0.96756   -1.000
 5886.00    0.99491   0.95556   -1.000
 5887.00    0.97134   0.93284   -1.000
 5888.00    0.94025   0.90249   -1.000
 5889.00    0.91326   0.87668   -1.000
 5890.00    0.90912   0.86777   -1.000
 5891.00    0.93256   0.87654   -1.000
 5892.00    0.95194   0.89116   -1.000
 5893.00    0.95669   0.89801   -1.000
 5894.00    0.94899   0.89338   -1.000
 5895.00    0.93236   0.88561   -1.000
 5896.00    0.93266   0.88628   -1.000
 5897.00    0.95201   0.89921   -1.000
 5898.00    0.97392   0.91879   -1.000
 5899.00    0.98807   0.93760   -1.000
 5900.00    0.99651   0.95223   -1.000
 5901.00    1.00391   0.96268   -1.000
 5902.00    1.00617   0.96971   -1.000
 5903.00    1.00683   0.97404   -1.000
 5904.00    1.00832   0.97650   -1.000
 5905.00    1.00900   0.97805   -1.000
 5906.00    1.00790   0.97941   -1.000
 5907.00    1.00717   0.98085   -1.000
 5908.00    1.00752   0.98226   -1.000
 5909.00    1.00813   0.98329   -1.000
 5910.00    1.00962   0.98332   -1.000
 5911.00    1.00901   0.98165   -1.000
 5912.00    1.00226   0.97794   -1.000
 5913.00    0.99445   0.97291   -1.000
 5914.00    0.99003   0.96842   -1.000
 5915.00    0.99001   0.96623   -1.000
 5916.00    0.99155   0.96683   -1.000
 5917.00    0.99126   0.96953   -1.000
 5918.00    0.99515   0.97308   -1.000
 5919.00    1.00164   0.97619   -1.000
 5920.00    0.99986   0.97806   -1.000
 5921.00    0.99876   0.97878   -1.000
 5922.00    1.00155   0.97911   -1.000
 5923.00    1.00351   0.97989   -1.000
 5924.00    1.00637   0.98140   -1.000
 5925.00    1.00758   0.98310   -1.000
 5926.00    1.00809   0.98389   -1.000
 5927.00    1.00744   0.98286   -1.000
 5928.00    1.00367   0.98018   -1.000
 5929.00    0.99537   0.97748   -1.000
 5930.00    0.99443   0.97661   -1.000
 5931.00    1.00158   0.97769   -1.000
 5932.00    1.00696   0.97909   -1.000
 5933.00    1.00165   0.97942   -1.000
 5934.00    0.99673   0.97901   -1.000
 5935.00    1.00087   0.97926   -1.000
 5936.00    1.00333   0.98065   -1.000
 5937.00    1.00448   0.98204   -1.000
 5938.00    1.00212   0.98191   -1.000
 5939.00    0.99578   0.97989   -1.000
 5940.00    0.99407   0.97694   -1.000
 5941.00    0.98891   0.97452   -1.000
 5942.00    0.99134   0.97366   -1.000
 5943.00    0.99432   0.97455   -1.000
 5944.00    0.99919   0.97634   -1.000
 5945.00    1.00101   0.97746   -1.000
 5946.00    0.99861   0.97682   -1.000
 5947.00    0.99610   0.97491   -1.000
 5948.00    0.99225   0.97347   -1.000
 5949.00    0.98839   0.97366   -1.000
 5950.00    0.99149   0.97488   -1.000
 5951.00    0.99426   0.97583   -1.000
 5952.00    0.99317   0.97608   -1.000
 5953.00    0.99333   0.97599   -1.000
 5954.00    0.98854   0.97562   -1.000
 5955.00    0.98922   0.97474   -1.000
 5956.00    0.98623   0.97379   -1.000
 5957.00    0.98960   0.97394   -1.000
 5958.00    0.98946   0.97587   -1.000
 5959.00    0.99953   0.97908   -1.000
 5960.00    1.00327   0.98242   -1.000
 5961.00    1.00542   0.98486   -1.000
 5962.00    1.00734   0.98579   -1.000
 5963.00    1.00483   0.98507   -1.000
 5964.00    1.00044   0.98318   -1.000
 5965.00    0.99663   0.98118   -1.000
 5966.00    0.99420   0.98012   -1.000
 5967.00    0.99647   0.98041   -1.000
 5968.00    0.99976   0.98167   -1.000
 5969.00    1.00083   0.98338   -1.000
 5970.00    1.00378   0.98504   -1.000
 5971.00    1.00766   0.98615   -1.000
 5972.00    1.00784   0.98618   -1.000
 5973.00    1.00159   0.98471   -1.000
 5974.00    0.99721   0.98167   -1.000
 5975.00    0.99346   0.97774   -1.000
 5976.00    0.98853   0.97440   -1.000
 5977.00    0.98576   0.97313   -1.000
 5978.00    0.98814   0.97434   -1.000
 5979.00    0.99103   0.97698   -1.000
 5980.00    0.99258   0.97904   -1.000
 5981.00    0.99444   0.97875   -1.000
 5982.00    0.99210   0.97585   -1.000
 5983.00    0.98522   0.97196   -1.000
 5984.00    0.98019   0.96941   -1.000
 5985.00    0.98138   0.96946   -1.000
 5986.00    0.98457   0.97161   -1.000
 5987.00    0.98926   0.97438   -1.000
 5988.00    0.99224   0.97645   -1.000
 5989.00    0.99028   0.97729   -1.000
 5990.00    0.99116   0.97736   -1.000
 5991.00    0.99000   0.97794   -1.000
 5992.00    0.98942   0.97988   -1.000
 5993.00    0.99443   0.98249   -1.000
 5994.00    0.99460   0.98405   -1.000
 5995.00    0.99329   0.98349   -1.000
 5996.00    0.99229   0.98138   -1.000
 5997.00    0.99002   0.97931   -1.000
 5998.00    0.98951   0.97844   -1.000
 5999.00    0.98930   0.97854   -1.000
 6000.00    0.99135   0.97847   -1.000
 6001.00    0.98958   0.97754   -1.000
 6002.00    0.98678   0.97611   -1.000
 6003.00    0.98312   0.97494   -1.000
 6004.00    0.98191   0.97394   -1.000
 6005.00    0.98288   0.97216   -1.000
 6006.00    0.97920   0.96926   -1.000
 6007.00    0.97495   0.96665   -1.000
 6008.00    0.97300   0.96645  330.921
 6009.00    0.97660   0.96903   -1.000
 6010.00    0.98409   0.97232   -1.000
 6011.00    0.98519   0.97397   -1.000
 6012.00    0.98268   0.97369   -1.000
 6013.00    0.98225   0.97287   -1.000
 6014.00    0.97895   0.97251  330.979
 6015.00    0.98101   0.97242   -1.000
 6016.00    0.98120   0.97196   -1.000
 6017.00    0.97900   0.97083   -1.000
 6018.00    0.97914   0.96904   -1.000
 6019.00    0.97854   0.96701   -1.000
 6020.00    0.97438   0.96549   -1.000
 6021.00    0.97112   0.96505  331.390
 6022.00    0.97146   0.96578  330.955
 6023.00    0.97243   0.96751  330.499
 6024.00    0.97380   0.97009  328.264
 6025.00    0.97684   0.97313  327.487
 6026.00    0.97897   0.97606  325.191
 6027.00    0.98433   0.97855  323.950
 6028.00    0.98535   0.98060  323.648
 6029.00    0.98749   0.98221  323.816
 6030.00    0.98726   0.98342  324.652
 6031.00    0.98612   0.98434  323.796
 6032.00    0.98829   0.98515  322.258
 6033.00    0.98952   0.98600  321.581
 6034.00    0.99004   0.98689  321.522
 6035.00    0.98787   0.98742  320.844
 6036.00    0.99237   0.98707  321.410
 6037.00    0.99239   0.98567  323.453
 6038.00    0.98931   0.98351  323.871
 6039.00    0.98860   0.98102   -1.000
 6040.00    0.98442   0.97826  323.967
 6041.00    0.98270   0.97511   -1.000
 6042.00    0.98321   0.97269   -1.000
 6043.00    0.98557   0.97308   -1.000
 6044.00    0.98772   0.97672   -1.000
 6045.00    0.98906   0.98146   -1.000
 6046.00    0.98921   0.98495  319.101
 6047.00    0.98961   0.98650  319.592
 6048.00    0.98856   0.98658  320.819
 6049.00    0.98765   0.98589  321.437
 6050.00    0.98717   0.98497  321.679
 6051.00    0.98654   0.98395  322.378
 6052.00    0.98876   0.98261  323.802
 6053.00    0.98742   0.98072  324.735
 6054.00    0.98314   0.97851  326.679
 6055.00    0.97921   0.97660  327.460
 6056.00    0.97825   0.97573  326.648
 6057.00    0.98070   0.97615  324.754
 6058.00    0.98212   0.97746  323.179
 6059.00    0.98686   0.97879   -1.000
 6060.00    0.97035   0.97908  324.743
 6061.00    0.96063   0.97738   -1.000
 6062.00    0.98667   0.97340   -1.000
 6063.00    1.00859   0.96811   -1.000
 6064.00    0.68365   0.96381   -1.000
 6065.00    0.59858   0.96303   -1.000
 6066.00    1.09867   0.96650   -1.000
 6067.00    0.97216   0.97241  323.951
 6068.00    0.99282   0.97804   -1.000
 6069.00    0.98958   0.98183   -1.000
 6070.00    0.99876   0.98390   -1.000
 6071.00    0.98573   0.98490  319.633
 6072.00    0.98578   0.98533  320.808
 6073.00    0.98478   0.98531  321.011
 6074.00    0.98346   0.98456  322.256
 6075.00    0.98200   0.98271  324.011
 6076.00    0.98045   0.97983  325.902
 6077.00    0.97759   0.97671  328.533
 6078.00    0.97185   0.97428  330.380
 6079.00    0.96879   0.97281  330.298
 6080.00    0.96899   0.97176  330.680
 6081.00    0.96791   0.97055  331.697
 6082.00    0.96599   0.96930  331.500
 6083.00    0.96240   0.96854  331.246
 6084.00    0.96414   0.96863  330.859
 6085.00    0.96462   0.96952  329.793
 6086.00    0.96699   0.97088  328.479
 6087.00    0.96750   0.97205  329.479
 6088.00    0.96713   0.97231  331.628
 6089.00    0.96701   0.97137  332.864
 6090.00    0.96558   0.96988  332.410
 6091.00    0.96317   0.96897  330.022
 6092.00    0.96389   0.96943  328.483
 6093.00    0.96674   0.97120  326.581
 6094.00    0.96814   0.97355  325.292
 6095.00    0.97208   0.97580  325.651
 6096.00    0.97493   0.97762  326.521
 6097.00    0.97186   0.97868  326.620
 6098.00    0.97069   0.97807  326.764
 6099.00    0.97144   0.97434  331.407
 6100.00    0.96375   0.96676  340.027
 6101.00    0.95095   0.95728  344.698
 6102.00    0.93972   0.95032   -1.000
 6103.00    0.93899   0.94951  334.072
 6104.00    0.94907   0.95455  329.430
 6105.00    0.95902   0.96190  328.893
 6106.00    0.96366   0.96827  330.413
 6107.00    0.96437   0.97266  331.084
 6108.00    0.95987   0.97551   -1.000
 6109.00    0.96195   0.97710   -1.000
 6110.00    0.96573   0.97742   -1.000
 6111.00    0.96721   0.97693  328.578
 6112.00    0.96628   0.97645  326.581
 6113.00    0.96829   0.97645  326.050
 6114.00    0.96913   0.97664  327.622
 6115.00    0.96749   0.97661  329.830
 6116.00    0.96566   0.97607  330.064
 6117.00    0.96321   0.97414   -1.000
 6118.00    0.96140   0.96963  337.254
 6119.00    0.95690   0.96203  341.446
 6120.00    0.94661   0.95275  344.439
 6121.00    0.93412   0.94540   -1.000
 6122.00    0.93104   0.94369   -1.000
 6123.00    0.93846   0.94809  333.852
 6124.00    0.94947   0.95535  334.388
 6125.00    0.95309   0.96143  336.471
 6126.00    0.95295   0.96421   -1.000
 6127.00    0.94990   0.96430   -1.000
 6128.00    0.95194   0.96425   -1.000
 6129.00    0.95808   0.96632  328.743
 6130.00    0.96015   0.97034  328.465
 6131.00    0.96362   0.97407   -1.000
 6132.00    0.96265   0.97473   -1.000
 6133.00    0.95632   0.97003   -1.000
 6134.00    0.94558   0.95918   -1.000
 6135.00    0.92860   0.94490   -1.000
 6136.00    0.90856   0.93326   -1.000
 6137.00    0.90150   0.92943   -1.000
 6138.00    0.91611   0.93282   -1.000
 6139.00    0.93375   0.93825  336.683
 6140.00    0.94188   0.94206  337.774
 6141.00    0.93748   0.94522  338.078
 6142.00    0.93479   0.95018   -1.000
 6143.00    0.94243   0.95675   -1.000
 6144.00    0.95216   0.96231  330.290
 6145.00    0.95822   0.96468  332.063
 6146.00    0.95648   0.96377  334.245
 6147.00    0.95592   0.96107  336.685
 6148.00    0.95228   0.95847  338.491
 6149.00    0.94899   0.95731  338.191
 6150.00    0.94710   0.95794   -1.000
 6151.00    0.94749   0.95965   -1.000
 6152.00    0.95035   0.96101   -1.000
 6153.00    0.95325   0.96085  337.610
 6154.00    0.95215   0.95918  339.044
 6155.00    0.95050   0.95693  339.155
 6156.00    0.95071   0.95481  340.871
 6157.00    0.94841   0.95236  344.928
 6158.00    0.94662   0.94771  352.097
 6159.00    0.94055   0.93877  363.333
 6160.00    0.92799   0.92605  373.406
 6161.00    0.91337   0.91403  375.551
 6162.00    0.89961   0.90824  368.589
 6163.00    0.90264   0.91064  358.076
 6164.00    0.91598   0.91829  353.503
 6165.00    0.92739   0.92626  352.558
 6166.00    0.93156   0.93091  353.947
 6167.00    0.92891   0.93116  359.046
 6168.00    0.92274   0.92865  362.137
 6169.00    0.91589   0.92693   -1.000
 6170.00    0.91538   0.92878   -1.000
 6171.00    0.92763   0.93402  346.704
 6172.00    0.93320   0.94029  347.753
 6173.00    0.93910   0.94558  347.849
 6174.00    0.94184   0.94920  346.849
 6175.00    0.94182   0.95135  346.230
 6176.00    0.94485   0.95258  345.199
 6177.00    0.94778   0.95343  343.400
 6178.00    0.94832   0.95415  342.254
 6179.00    0.94643   0.95494  341.144
 6180.00    0.94728   0.95606  339.509
 6181.00    0.94941   0.95743  338.854
 6182.00    0.95273   0.95851  339.781
 6183.00    0.95345   0.95871  341.102
 6184.00    0.95200   0.95773  344.119
 6185.00    0.95005   0.95556  348.012
 6186.00    0.94751   0.95242  351.537
 6187.00    0.94332   0.94834  354.805
 6188.00    0.93998   0.94293  357.354
 6189.00    0.93334   0.93635  362.299
 6190.00    0.92043   0.93063   -1.000
 6191.00    0.91410   0.92898   -1.000
 6192.00    0.91777   0.93280   -1.000
 6193.00    0.93033   0.94020  344.259
 6194.00    0.94138   0.94778  342.673
 6195.00    0.94710   0.95310  342.492
 6196.00    0.94759   0.95527  345.237
 6197.00    0.94246   0.95445   -1.000
 6198.00    0.93957   0.95184   -1.000
 6199.00    0.93406   0.94969   -1.000
 6200.00    0.92990   0.94994   -1.000
 6201.00    0.93389   0.95271   -1.000
 6202.00    0.93930   0.95657   -1.000
 6203.00    0.94733   0.95988   -1.000
 6204.00    0.94841   0.96195   -1.000
 6205.00    0.94629   0.96296   -1.000
 6206.00    0.94704   0.96334   -1.000
 6207.00    0.94784   0.96323   -1.000
 6208.00    0.94584   0.96237   -1.000
 6209.00    0.94601   0.96035   -1.000
 6210.00    0.94343   0.95674   -1.000
 6211.00    0.93689   0.95143   -1.000
 6212.00    0.92844   0.94513   -1.000
 6213.00    0.91954   0.93947   -1.000
 6214.00    0.91802   0.93599   -1.000
 6215.00    0.92027   0.93494   -1.000
 6216.00    0.92263   0.93511   -1.000
 6217.00    0.92142   0.93497   -1.000
 6218.00    0.92184   0.93414   -1.000
 6219.00    0.92127   0.93362   -1.000
 6220.00    0.91965   0.93467   -1.000
 6221.00    0.92765   0.93728   -1.000
 6222.00    0.93303   0.94022  368.856
 6223.00    0.93510   0.94246  352.887
 6224.00    0.93295   0.94373   -1.000
 6225.00    0.93248   0.94399   -1.000
 6226.00    0.93489   0.94261  357.077
 6227.00    0.93101   0.93857  362.428
 6228.00    0.92275   0.93169   -1.000
 6229.00    0.91547   0.92386  372.566
 6230.00    0.90627   0.91850   -1.000
 6231.00    0.90227   0.91828   -1.000
 6232.00    0.90698   0.92319   -1.000
 6233.00    0.91601   0.93064   -1.000
 6234.00    0.92688   0.93709   -1.000
 6235.00    0.93275   0.94005  353.727
 6236.00    0.93246   0.93910  357.422
 6237.00    0.92837   0.93564  361.048
 6238.00    0.92253   0.93180   -1.000
 6239.00    0.91828   0.92910   -1.000
 6240.00    0.91422   0.92760   -1.000
 6241.00    0.91036   0.92611   -1.000
 6242.00    0.90933   0.92348   -1.000
 6243.00    0.90865   0.91973   -1.000
 6244.00    0.90782   0.91616  367.504
 6245.00    0.90475   0.91479   -1.000
 6246.00    0.90469   0.91700   -1.000
 6247.00    0.91059   0.92227   -1.000
 6248.00    0.91961   0.92806  355.878
 6249.00    0.92422   0.93116  359.869
 6250.00    0.91647   0.92971   -1.000
 6251.00    0.90700   0.92459   -1.000
 6252.00    0.89741   0.91862   -1.000
 6253.00    0.89002   0.91441   -1.000
 6254.00    0.88955   0.91264   -1.000
 6255.00    0.89046   0.91241   -1.000
 6256.00    0.88955   0.91274   -1.000
 6257.00    0.88707   0.91372   -1.000
 6258.00    0.88481   0.91613   -1.000
 6259.00    0.89213   0.92027   -1.000
 6260.00    0.90278   0.92553   -1.000
 6261.00    0.91051   0.93075   -1.000
 6262.00    0.91383   0.93467   -1.000
 6263.00    0.91828   0.93660   -1.000
 6264.00    0.91542   0.93704   -1.000
 6265.00    0.91406   0.93728   -1.000
 6266.00    0.91402   0.93794   -1.000
 6267.00    0.91625   0.93831   -1.000
 6268.00    0.91869   0.93755   -1.000
 6269.00    0.91721   0.93591   -1.000
 6270.00    0.91672   0.93438   -1.000
 6271.00    0.91679   0.93335   -1.000
 6272.00    0.91482   0.93195   -1.000
 6273.00    0.91257   0.92878   -1.000
 6274.00    0.90068   0.92322   -1.000
 6275.00    0.88662   0.91600   -1.000
 6276.00    0.87179   0.90865   -1.000
 6277.00    0.86780   0.90273   -1.000
 6278.00    0.86783   0.89920   -1.000
 6279.00    0.87093   0.89873   -1.000
 6280.00    0.87544   0.90161   -1.000
 6281.00    0.88387   0.90741   -1.000
 6282.00    0.89123   0.91487   -1.000
 6283.00    0.90157   0.92230   -1.000
 6284.00    0.91014   0.92841   -1.000
 6285.00    0.91329   0.93277   -1.000
 6286.00    0.91514   0.93544   -1.000
 6287.00    0.91470   0.93634   -1.000
 6288.00    0.91369   0.93530   -1.000
 6289.00    0.91311   0.93273   -1.000
 6290.00    0.91041   0.92978   -1.000
 6291.00    0.90655   0.92754   -1.000
 6292.00    0.90362   0.92628   -1.000
 6293.00    0.90059   0.92528   -1.000
 6294.00    0.90469   0.92352   -1.000
 6295.00    0.90652   0.92069   -1.000
 6296.00    0.90840   0.91752   -1.000
 6297.00    0.91597   0.91504  368.040
 6298.00    0.93247   0.91350   -1.000
 6299.00    0.94581   0.91232   -1.000
 6300.00    0.94263   0.91141   -1.000
 6301.00    0.92000   0.91186   -1.000
 6302.00    0.90189   0.91470   -1.000
 6303.00    0.89973   0.91954   -1.000
 6304.00    0.90363   0.92477   -1.000
 6305.00    0.90820   0.92908   -1.000
 6306.00    0.91212   0.93211   -1.000
 6307.00    0.91601   0.93394   -1.000
 6308.00    0.91592   0.93472   -1.000
 6309.00    0.91503   0.93454   -1.000
 6310.00    0.91327   0.93351   -1.000
 6311.00    0.91045   0.93180   -1.000
 6312.00    0.90741   0.92945   -1.000
 6313.00    0.90541   0.92656   -1.000
 6314.00    0.90323   0.92347   -1.000
 6315.00    0.90117   0.92059   -1.000
 6316.00    0.89957   0.91829   -1.000
 6317.00    0.90016   0.91733   -1.000
 6318.00    0.89906   0.91868   -1.000
 6319.00    0.90325   0.92225   -1.000
 6320.00    0.90784   0.92678   -1.000
 6321.00    0.91021   0.93110   -1.000
 6322.00    0.90981   0.93496   -1.000
 6323.00    0.91404   0.93833   -1.000
 6324.00    0.91952   0.94081   -1.000
 6325.00    0.92332   0.94196   -1.000
 6326.00    0.92448   0.94196   -1.000
 6327.00    0.92247   0.94140   -1.000
 6328.00    0.92335   0.94081   -1.000
 6329.00    0.92530   0.94055   -1.000
 6330.00    0.92813   0.94063   -1.000
 6331.00    0.92628   0.94040   -1.000
 6332.00    0.92395   0.93856   -1.000
 6333.00    0.90392   0.93427   -1.000
 6334.00    0.91506   0.92847   -1.000
 6335.00    0.91125   0.92388   -1.000
 6336.00    0.90772   0.92275   -1.000
 6337.00    0.91220   0.92519   -1.000
 6338.00    0.91997   0.92949  345.782
 6339.00    0.92537   0.93367  344.349
 6340.00    0.93025   0.93643  342.780
 6341.00    0.93198   0.93723  343.504
 6342.00    0.93136   0.93629  346.729
 6343.00    0.93079   0.93443  346.762
 6344.00    0.92764   0.93272  345.603
 6345.00    0.92852   0.93208  343.591
 6346.00    0.93292   0.93315  341.210
 6347.00    0.93619   0.93602  340.158
 6348.00    0.93851   0.93993  340.308
 6349.00    0.93977   0.94353  339.535
 6350.00    0.94123   0.94562  340.079
 6351.00    0.93912   0.94559  341.673
 6352.00    0.93674   0.94366  343.432
 6353.00    0.93624   0.94075  347.599
 6354.00    0.93108   0.93795  350.224
 6355.00    0.92781   0.93570  350.148
 6356.00    0.92619   0.93365  351.544
 6357.00    0.92490   0.93131  355.696
 6358.00    0.92034   0.92883  356.647
 6359.00    0.92514   0.92656  354.948
 6360.00    0.92900   0.92469  353.938
 6361.00    0.93583   0.92343   -1.000
 6362.00    0.94329   0.92331   -1.000
 6363.00    0.94539   0.92476   -1.000
 6364.00    0.94124   0.92746   -1.000
 6365.00    0.93799   0.93062  345.716
 6366.00    0.93333   0.93336  343.459
 6367.00    0.93278   0.93496  341.277
 6368.00    0.93167   0.93515  340.643
 6369.00    0.93306   0.93450  340.877
 6370.00    0.93237   0.93412  339.544
 6371.00    0.93287   0.93492  338.382
 6372.00    0.93229   0.93686  339.468
 6373.00    0.93428   0.93892  339.681
 6374.00    0.93256   0.94002  340.520
 6375.00    0.93194   0.93978  341.878
 6376.00    0.92906   0.93848  343.717
 6377.00    0.92641   0.93669   -1.000
 6378.00    0.92388   0.93489   -1.000
 6379.00    0.92089   0.93341   -1.000
 6380.00    0.91725   0.93241   -1.000
 6381.00    0.91561   0.93199   -1.000
 6382.00    0.91431   0.93210   -1.000
 6383.00    0.91140   0.93270   -1.000
 6384.00    0.90969   0.93381   -1.000
 6385.00    0.90939   0.93531   -1.000
 6386.00    0.90564   0.93682   -1.000
 6387.00    0.90404   0.93772   -1.000
 6388.00    0.90135   0.93747   -1.000
 6389.00    0.89796   0.93556   -1.000
 6390.00    0.89170   0.93163   -1.000
 6391.00    0.88424   0.92627   -1.000
 6392.00    0.87274   0.92159   -1.000
 6393.00    0.86596   0.92009   -1.000
 6394.00    0.86495   0.92239   -1.000
 6395.00    0.86575   0.92633   -1.000
 6396.00    0.86891   0.92857   -1.000
 6397.00    0.86525   0.92709   -1.000
 6398.00    0.85521   0.92297   -1.000
 6399.00    0.83974   0.91970   -1.000
 6400.00    0.83216   0.92024   -1.000
 6401.00    0.83474   0.92470   -1.000
 6402.00    0.84354   0.93055   -1.000
 6403.00    0.84866   0.93477   -1.000
 6404.00    0.84599   0.93554   -1.000
 6405.00    0.84115   0.93284   -1.000
 6406.00    0.83384   0.92810   -1.000
 6407.00    0.82348   0.92352   -1.000
 6408.00    0.81752   0.92122   -1.000
 6409.00    0.81438   0.92142   -1.000
 6410.00    0.80915   0.92267   -1.000
 6411.00    0.80288   0.92409   -1.000
 6412.00    0.79860   0.92542   -1.000
 6413.00    0.79384   0.92660   -1.000
 6414.00    0.79146   0.92756   -1.000
 6415.00    0.78841   0.92840   -1.000
 6416.00    0.78240   0.92882   -1.000
 6417.00    0.77659   0.92799   -1.000
 6418.00    0.76980   0.92554   -1.000
 6419.00    0.75925   0.92251   -1.000
 6420.00    0.74687   0.92111   -1.000
 6421.00    0.73739   0.92298   -1.000
 6422.00    0.73359   0.92765   -1.000
 6423.00    0.73557   0.93317   -1.000
 6424.00    0.73333   0.93782   -1.000
 6425.00    0.73017   0.94075   -1.000
 6426.00    0.72258   0.94144   -1.000
 6427.00    0.71284   0.93921   -1.000
 6428.00    0.70708   0.93403   -1.000
