###################################################################
## OUTPUT of StarlightChains_v04.for    [Cid@UFSC - 01/Apr/2007] ##
###################################################################

## Some input info
NGC5286_b_1.cxt                          [arq_obs]
Base.BC03.S                              [arq_base]
NGC5286_b_1.msk                          [arq_masks]
StCv04.C11.config                        [arq_config]
  150                                    [N_base]
    0                                    [N_YAV_components = # of components with extra extinction!]
    0                                    [i_FitPowerLaw (1/0 = Yes/No)]
-9.99                                    [alpha_PowerLaw]
CCM                                      [red_law_option]
 1.458241                                [q_norm = A(l_norm)/A(V)]

## (Re)Sampling Parameters
 3359.00                                 [l_ini (A)]
 6428.00                                 [l_fin (A)]
    1.00                                 [dl    (A)]     (OBS: dl_cushion =    50.00 A)

## Normalization info
 4020.00                                 [l_norm (A) - for base]
 4010.00                                 [llow_norm (A) - window for f_obs]
 4060.00                                 [lupp_norm (A) - window for f_obs]
1.497078E-14                             [fobs_norm (in input units)]

## S/N
 4730.00                                 [llow_SN (A) - window for S/N]
 4780.00                                 [lupp_SN (A) - window for S/N]
 111.377                                 [S/N in S/N window]
  94.497                                 [S/N in norm. window]
  66.783                                 [S/N_err in S/N window]
  56.662                                 [S/N_err in norm. window]
  1.0000                                 [fscale_chi2]

## etc...
  2147483637                             [idum_orig]
  3067                                   [NOl_eff]
  2310                                   [Nl_eff]
   757    NSIGMA                         [Ntot_cliped & clip_method]
  1480920                                [Nglobal_steps]
   7                                     [N_chains]
  21                                     [NEX0s_base = N_base in EX0s-fits]
 0   0   1      308   2.0   8.976E+02    [Clip-Bug, RC-Crash & Burn-In warning-flags, n_censored_weights, wei_nsig_threshold & wei_limit]
    54     54.656     54.644      0.012  [idt_all, wdt_TotTime, wdt_UsrTime & wdt_SysTime (sec)]

## Synthesis Results - Best model ##

 2.09098E+00                             [chi2/Nl_eff]
     1.63308                             [adev (%)]

   101.48882                             [sum-of-x (%)]
 4.65231E-14                             [Flux_tot (units of input spectrum!)]
 7.22449E-10                             [Mini_tot (???)]
 3.68409E-10                             [Mcor_tot (???)]

 -27.85                                  [v0_min  (km/s)]
  98.83                                  [vd_min  (km/s)]
 0.8332                                  [AV_min  (mag)]
 0.0000                                  [YAV_min (mag)]

# j     x_j(%)      Mini_j(%)     Mcor_j(%)     age_j(yr)     Z_j      (L/M)_j    YAV?  Mstars   component_j        a/Fe...       SSP_chi2r SSP_adev(%)   SSP_AV   SSP_x(%)
  1      0.0000     0.0000E+00    0.0000E+00    1.000000E+06  0.00010  8.160E-03    0   1.0000   age020_m22            0.0000     3.1362E+02    16.9428   4.0000    68.0043
  2     20.5857     2.7447E-02    5.3823E-02    3.160000E+06  0.00010  4.759E-02    0   1.0000   age045_m22            0.0000     2.1583E+01     3.4796   2.1390    94.2216
  3      0.0000     0.0000E+00    0.0000E+00    5.010000E+06  0.00010  1.932E-02    0   0.9582   age055_m22            0.0000     1.8024E+02    11.9822   2.6844    73.5026
  4      0.0000     0.0000E+00    0.0000E+00    6.610000E+06  0.00010  9.973E-03    0   0.9297   age061_m22            0.0000     2.8659E+02    15.6996   4.0000    70.6840
  5      0.0000     0.0000E+00    0.0000E+00    8.710000E+06  0.00010  7.690E-03    0   0.9030   age067_m22            0.0000     2.6900E+02    15.0816   4.0000    71.3360
  6      0.0000     0.0000E+00    0.0000E+00    1.000000E+07  0.00010  6.375E-03    0   0.8902   age070_m22            0.0000     2.6361E+02    15.0179   4.0000    71.7375
  7      0.0000     0.0000E+00    0.0000E+00    1.445000E+07  0.00010  4.874E-03    0   0.8589   age078_m22            0.0000     1.4516E+02     9.7631   4.0000    75.4930
  8      0.0000     0.0000E+00    0.0000E+00    2.512000E+07  0.00010  4.103E-03    0   0.8174   age090_m22            0.0000     4.9719E+01     5.9399   3.5912    85.1527
  9      0.0066     1.1391E-04    1.7490E-04    4.000000E+07  0.00010  3.654E-03    0   0.7830   age104_m22            0.0000     4.1883E+01     3.7738   3.1627    94.2899
 10      0.0000     0.0000E+00    0.0000E+00    5.500000E+07  0.00010  3.093E-03    0   0.7597   age110_m22            0.0000     4.9638E+01     3.4234   3.0051    98.0160
 11      4.7663     1.2441E-01    1.7414E-01    1.015200E+08  0.00010  2.431E-03    0   0.7138   age116_m22            0.0000     8.7384E+01     4.3122   2.5707   104.4217
 12      0.0000     0.0000E+00    0.0000E+00    1.609000E+08  0.00010  1.319E-03    0   0.6775   age120_m22            0.0000     6.5698E+01     4.9788   2.0614   108.6543
 13      0.0000     0.0000E+00    0.0000E+00    2.861200E+08  0.00010  1.075E-03    0   0.6412   age125_m22            0.0000     2.4536E+02    11.4138   1.8316   124.5064
 14      0.0000     0.0000E+00    0.0000E+00    5.088000E+08  0.00010  7.183E-04    0   0.6083   age130_m22            0.0000     3.0283E+02    13.6525   1.4917   131.2148
 15      0.0000     0.0000E+00    0.0000E+00    9.047900E+08  0.00010  4.524E-04    0   0.5785   age135_m22            0.0000     2.9995E+02    14.0476   1.2729   133.5738
 16      0.0000     0.0000E+00    0.0000E+00    1.278050E+09  0.00010  3.018E-04    0   0.5588   age138_m22            0.0000     1.0826E+02     8.9176   0.9824   121.2870
 17      0.0000     0.0000E+00    0.0000E+00    1.434000E+09  0.00010  2.691E-04    0   0.5532   age139_m22            0.0000     8.1597E+01     7.9123   0.8723   118.6987
 18      0.0000     0.0000E+00    0.0000E+00    2.500000E+09  0.00010  1.582E-04    0   0.5296   age150_m22            0.0000     6.4250E+01     6.7768   0.8034   117.5926
 19      0.0000     0.0000E+00    0.0000E+00    4.250000E+09  0.00010  1.007E-04    0   0.5110   age158_m22            0.0000     2.4980E+01     4.5160   0.7531   111.4886
 20      0.0000     0.0000E+00    0.0000E+00    6.250000E+09  0.00010  6.869E-05    0   0.4985   age166_m22            0.0000     7.3933E+00     2.5898   0.7898   104.6651
 21      0.0000     0.0000E+00    0.0000E+00    7.500000E+09  0.00010  5.873E-05    0   0.4931   age171_m22            0.0000     6.1461E+00     2.2660   0.7975   103.2898
 22      0.0000     0.0000E+00    0.0000E+00    1.000000E+10  0.00010  4.481E-05    0   0.4854   age181_m22            0.0000     5.7064E+00     2.2439   0.7605   102.8799
 23      0.0000     0.0000E+00    0.0000E+00    1.300000E+10  0.00010  3.489E-05    0   0.4791   age193_m22            0.0000     5.1323E+00     2.1564   0.7097   102.1033
 24      0.0000     0.0000E+00    0.0000E+00    1.500000E+10  0.00010  3.035E-05    0   0.4766   age201_m22            0.0000     4.8661E+00     2.0856   0.6758   101.7041
 25      3.8089     9.6288E+00    8.9406E+00    1.800000E+10  0.00010  2.510E-05    0   0.4735   age213_m22            0.0000     4.8675E+00     1.9293   0.6221   100.5103
 26      0.0000     0.0000E+00    0.0000E+00    1.000000E+06  0.00040  8.458E-03    0   1.0000   age020_m32            0.0000     3.1721E+02    17.1352   4.0000    68.6828
 27      0.0000     0.0000E+00    0.0000E+00    3.160000E+06  0.00040  3.973E-02    0   1.0000   age045_m32            0.0000     5.7637E+01     6.4571   3.5062    84.4760
 28      0.0000     0.0000E+00    0.0000E+00    5.010000E+06  0.00040  1.935E-02    0   0.9532   age055_m32            0.0000     1.4123E+02    10.5929   3.8529    74.9755
 29      0.0000     0.0000E+00    0.0000E+00    6.610000E+06  0.00040  1.204E-02    0   0.9243   age061_m32            0.0000     1.8999E+02    11.7086   4.0000    73.2097
 30      0.0000     0.0000E+00    0.0000E+00    8.710000E+06  0.00040  9.433E-03    0   0.9001   age067_m32            0.0000     1.6137E+02    10.5944   4.0000    74.4852
 31      0.0000     0.0000E+00    0.0000E+00    1.000000E+07  0.00040  8.053E-03    0   0.8877   age070_m32            0.0000     1.4787E+02     9.9838   4.0000    75.0363
 32      0.0000     0.0000E+00    0.0000E+00    1.445000E+07  0.00040  7.027E-03    0   0.8578   age078_m32            0.0000     7.2866E+01     7.6442   3.4989    82.0619
 33      0.0000     0.0000E+00    0.0000E+00    2.512000E+07  0.00040  4.707E-03    0   0.8166   age090_m32            0.0000     3.9395E+01     5.4434   3.1257    88.5631
 34      0.0000     0.0000E+00    0.0000E+00    4.000000E+07  0.00040  3.714E-03    0   0.7827   age104_m32            0.0000     3.3176E+01     3.7868   2.8247    95.3507
 35      0.0001     1.1198E-06    1.6673E-06    5.500000E+07  0.00040  2.982E-03    0   0.7593   age110_m32            0.0000     4.0987E+01     3.4545   2.7155    98.3652
 36      0.0000     0.0000E+00    0.0000E+00    1.015200E+08  0.00040  2.188E-03    0   0.7143   age116_m32            0.0000     1.3053E+02     6.4624   2.2432   111.0473
 37      0.0000     0.0000E+00    0.0000E+00    1.609000E+08  0.00040  1.690E-03    0   0.6856   age120_m32            0.0000     2.1503E+02     9.2427   1.9033   119.4358
 38      0.0000     0.0000E+00    0.0000E+00    2.861200E+08  0.00040  1.152E-03    0   0.6509   age125_m32            0.0000     2.5703E+02    12.0697   1.5476   127.3471
 39      0.0000     0.0000E+00    0.0000E+00    5.088000E+08  0.00040  7.331E-04    0   0.6182   age130_m32            0.0000     2.7643E+02    13.2592   1.3291   130.6448
 40      0.0000     0.0000E+00    0.0000E+00    9.047900E+08  0.00040  3.960E-04    0   0.5890   age135_m32            0.0000     1.1157E+02     9.5254   1.0574   121.1845
 41      0.0000     0.0000E+00    0.0000E+00    1.278050E+09  0.00040  2.854E-04    0   0.5687   age138_m32            0.0000     7.9584E+01     7.7194   0.8325   120.3101
 42      0.0000     0.0000E+00    0.0000E+00    1.434000E+09  0.00040  2.531E-04    0   0.5632   age139_m32            0.0000     7.7363E+01     7.5173   0.7769   119.9940
 43      9.5063     4.0537E+00    4.2815E+00    2.500000E+09  0.00040  1.488E-04    0   0.5386   age150_m32            0.0000     4.8552E+01     6.0140   0.5829   115.2044
 44     46.0754     3.2191E+01    3.2819E+01    4.250000E+09  0.00040  9.082E-05    0   0.5199   age158_m32            0.0000     7.8597E+00     2.8118   0.6335   105.5652
 45      2.4528     2.4463E+00    2.4351E+00    6.250000E+09  0.00040  6.362E-05    0   0.5076   age166_m32            0.0000     9.6818E+00     2.0254   0.7043    97.6704
 46      3.3061     3.9663E+00    3.9099E+00    7.500000E+09  0.00040  5.289E-05    0   0.5027   age171_m32            0.0000     1.3855E+01     2.2499   0.6837    95.8364
 47      0.6828     1.0907E+00    1.0583E+00    1.000000E+10  0.00040  3.972E-05    0   0.4948   age181_m32            0.0000     1.7761E+01     2.4084   0.6284    94.3054
 48      0.0201     3.8800E-02    3.7055E-02    1.300000E+10  0.00040  3.283E-05    0   0.4870   age193_m32            0.0000     8.2838E+00     2.0919   0.5282    99.2048
 49      0.0000     0.0000E+00    0.0000E+00    1.500000E+10  0.00040  2.925E-05    0   0.4854   age201_m32            0.0000     6.3579E+00     2.3289   0.4745   102.2123
 50      0.0000     0.0000E+00    0.0000E+00    1.800000E+10  0.00040  2.469E-05    0   0.4819   age213_m32            0.0000     6.7373E+00     2.5535   0.4189   103.3592
 51      0.0000     0.0000E+00    0.0000E+00    1.000000E+06  0.00400  1.114E-02    0   1.0000   age020_m42            0.0000     2.7748E+02    15.1107   4.0000    69.2850
 52      0.0000     0.0000E+00    0.0000E+00    3.160000E+06  0.00400  4.073E-02    0   0.9999   age045_m42            0.0000     3.5006E+01     4.7453   3.1508    88.9511
 53      0.0000     0.0000E+00    0.0000E+00    5.010000E+06  0.00400  2.534E-02    0   0.9488   age055_m42            0.0000     9.1496E+01     8.3127   3.6784    78.8365
 54      0.9942     2.4424E-03    4.4159E-03    6.610000E+06  0.00400  2.583E-02    0   0.9220   age061_m42            0.0000     3.1945E+01     4.0256   2.9343    90.9435
 55      0.0002     6.5561E-07    1.1549E-06    8.710000E+06  0.00400  1.706E-02    0   0.8983   age067_m42            0.0000     4.5185E+01     6.3415   2.8448    86.0828
 56      0.0000     0.0000E+00    0.0000E+00    1.000000E+07  0.00400  1.271E-02    0   0.8862   age070_m42            0.0000     6.8045E+01     8.2587   2.8809    82.9213
 57      0.0000     0.0000E+00    0.0000E+00    1.445000E+07  0.00400  7.666E-03    0   0.8571   age078_m42            0.0000     1.0526E+02     9.3849   3.3267    78.5438
 58      0.0000     0.0000E+00    0.0000E+00    2.512000E+07  0.00400  5.070E-03    0   0.8174   age090_m42            0.0000     6.3330E+01     7.6012   2.7302    85.2799
 59      0.0000     0.0000E+00    0.0000E+00    4.000000E+07  0.00400  3.505E-03    0   0.7851   age104_m42            0.0000     4.8475E+01     5.4927   2.3519    90.5657
 60      0.0000     0.0000E+00    0.0000E+00    5.500000E+07  0.00400  3.059E-03    0   0.7629   age110_m42            0.0000     3.4271E+01     2.9895   2.2231   102.2670
 61      0.0000     0.0000E+00    0.0000E+00    1.015200E+08  0.00400  2.268E-03    0   0.7207   age116_m42            0.0000     1.7075E+02     8.9147   1.8389   119.4813
 62      0.0000     0.0000E+00    0.0000E+00    1.609000E+08  0.00400  1.720E-03    0   0.6930   age120_m42            0.0000     1.8225E+02    10.0783   1.6416   123.7206
 63      0.0000     0.0000E+00    0.0000E+00    2.861200E+08  0.00400  1.079E-03    0   0.6613   age125_m42            0.0000     1.6438E+02    10.4012   1.2748   125.1315
 64      0.0000     0.0000E+00    0.0000E+00    5.088000E+08  0.00400  6.261E-04    0   0.6313   age130_m42            0.0000     2.0274E+02    11.5899   1.0168   131.1434
 65      0.0000     0.0000E+00    0.0000E+00    9.047900E+08  0.00400  3.535E-04    0   0.6024   age135_m42            0.0000     9.9531E+01     8.7176   0.7585   125.2205
 66      0.0000     0.0000E+00    0.0000E+00    1.278050E+09  0.00400  2.677E-04    0   0.5837   age138_m42            0.0000     5.5020E+01     6.4394   0.2377   115.3742
 67      0.0000     0.0000E+00    0.0000E+00    1.434000E+09  0.00400  1.910E-04    0   0.5716   age139_m42            0.0000     4.9803E+01     6.8639   0.3618   118.1668
 68      0.0000     0.0000E+00    0.0000E+00    2.500000E+09  0.00400  9.818E-05    0   0.5463   age150_m42            0.0000     4.1436E+01     4.8239   0.2534   106.3998
 69      0.0000     0.0000E+00    0.0000E+00    4.250000E+09  0.00400  5.491E-05    0   0.5269   age158_m42            0.0000     5.9605E+01     4.4512   0.1972   100.8681
 70      0.0000     0.0000E+00    0.0000E+00    6.250000E+09  0.00400  3.857E-05    0   0.5151   age166_m42            0.0000     7.4124E+01     4.9784   0.0918    98.7669
 71      0.0000     0.0000E+00    0.0000E+00    7.500000E+09  0.00400  3.243E-05    0   0.5110   age171_m42            0.0000     8.5145E+01     5.4955   0.0000    98.0733
 72      4.7657     1.2475E+01    1.2300E+01    1.000000E+10  0.00400  2.424E-05    0   0.5028   age181_m42            0.0000     1.0559E+02     5.8244  -0.0488    97.0147
 73      0.0000     0.0000E+00    0.0000E+00    1.300000E+10  0.00400  1.883E-05    0   0.4927   age193_m42            0.0000     1.2941E+02     6.1411  -0.0777    96.3355
 74      0.0000     0.0000E+00    0.0000E+00    1.500000E+10  0.00400  1.685E-05    0   0.4919   age201_m42            0.0000     1.2388E+02     6.0421  -0.0733    96.3497
 75      0.0000     0.0000E+00    0.0000E+00    1.800000E+10  0.00400  1.452E-05    0   0.4874   age213_m42            0.0000     1.1547E+02     5.8646  -0.0597    96.6547
 76      0.0000     0.0000E+00    0.0000E+00    1.000000E+06  0.00800  1.286E-02    0   1.0000   age020_m52            0.0000     2.4236E+02    13.4322   4.0000    71.5713
 77      0.0000     0.0000E+00    0.0000E+00    3.160000E+06  0.00800  3.147E-02    0   0.9966   age045_m52            0.0000     1.9687E+02    11.5815   4.0000    73.0526
 78      0.0000     0.0000E+00    0.0000E+00    5.010000E+06  0.00800  2.664E-02    0   0.9443   age055_m52            0.0000     1.2144E+02     8.9788   3.8196    77.3230
 79      0.0000     0.0000E+00    0.0000E+00    6.610000E+06  0.00800  2.151E-02    0   0.9177   age061_m52            0.0000     7.8086E+01     7.4237   2.4716    84.8246
 80      0.0000     0.0000E+00    0.0000E+00    8.710000E+06  0.00800  1.628E-02    0   0.8948   age067_m52            0.0000     6.5458E+01     6.9900   2.8174    86.1386
 81      0.0000     0.0000E+00    0.0000E+00    1.000000E+07  0.00800  1.215E-02    0   0.8827   age070_m52            0.0000     8.3053E+01     7.7796   3.1811    83.5920
 82      0.0000     0.0000E+00    0.0000E+00    1.445000E+07  0.00800  8.739E-03    0   0.8552   age078_m52            0.0000     6.5749E+01     6.6123   3.1829    86.1547
 83      0.0000     0.0000E+00    0.0000E+00    2.512000E+07  0.00800  5.676E-03    0   0.8162   age090_m52            0.0000     5.0406E+01     4.7190   2.6808    94.4381
 84      0.0000     0.0000E+00    0.0000E+00    4.000000E+07  0.00800  3.939E-03    0   0.7841   age104_m52            0.0000     5.1923E+01     3.3669   2.4309   100.4719
 85      0.0000     0.0000E+00    0.0000E+00    5.500000E+07  0.00800  3.155E-03    0   0.7627   age110_m52            0.0000     6.4382E+01     3.8006   2.3222   105.4268
 86      0.0000     0.0000E+00    0.0000E+00    1.015200E+08  0.00800  2.206E-03    0   0.7226   age116_m52            0.0000     1.1476E+02     7.1787   1.9778   116.0779
 87      0.0000     0.0000E+00    0.0000E+00    1.609000E+08  0.00800  1.596E-03    0   0.6963   age120_m52            0.0000     1.3613E+02     8.7488   1.6955   120.9180
 88      0.0000     0.0000E+00    0.0000E+00    2.861200E+08  0.00800  1.002E-03    0   0.6665   age125_m52            0.0000     2.1897E+02    12.5638   1.2305   131.5903
 89      0.0000     0.0000E+00    0.0000E+00    5.088000E+08  0.00800  5.759E-04    0   0.6377   age130_m52            0.0000     2.2180E+02    13.8216   0.8268   138.8936
 90      0.0000     0.0000E+00    0.0000E+00    9.047900E+08  0.00800  2.972E-04    0   0.6086   age135_m52            0.0000     1.0025E+02    10.4303   0.4855   128.8990
 91      0.0000     0.0000E+00    0.0000E+00    1.278050E+09  0.00800  2.242E-04    0   0.5907   age138_m52            0.0000     8.2022E+01     7.3740   0.0720   118.4724
 92      0.0000     0.0000E+00    0.0000E+00    1.434000E+09  0.00800  1.645E-04    0   0.5787   age139_m52            0.0000     7.0473E+01     6.6487   0.2373   117.0347
 93      0.0000     0.0000E+00    0.0000E+00    2.500000E+09  0.00800  7.723E-05    0   0.5519   age150_m52            0.0000     9.4001E+01     5.9914   0.0000   108.5007
 94      0.0000     0.0000E+00    0.0000E+00    4.250000E+09  0.00800  4.151E-05    0   0.5320   age158_m52            0.0000     9.1519E+01     5.7383  -0.0220   104.1384
 95      0.0000     0.0000E+00    0.0000E+00    6.250000E+09  0.00800  3.010E-05    0   0.5197   age166_m52            0.0000     1.2691E+02     6.4583  -0.1950   101.9577
 96      0.0000     0.0000E+00    0.0000E+00    7.500000E+09  0.00800  2.467E-05    0   0.5139   age171_m52            0.0000     1.3722E+02     6.6875  -0.2348   101.5078
 97      0.0000     0.0000E+00    0.0000E+00    1.000000E+10  0.00800  1.862E-05    0   0.5054   age181_m52            0.0000     1.7009E+02     7.4318  -0.3666   101.2841
 98      0.0000     0.0000E+00    0.0000E+00    1.300000E+10  0.00800  1.433E-05    0   0.4988   age193_m52            0.0000     2.2499E+02     8.1267  -0.4616   101.9445
 99      0.0000     0.0000E+00    0.0000E+00    1.500000E+10  0.00800  1.244E-05    0   0.4936   age201_m52            0.0000     2.5046E+02     8.3618  -0.4900   102.4081
100      0.0000     0.0000E+00    0.0000E+00    1.800000E+10  0.00800  1.070E-05    0   0.4888   age213_m52            0.0000     2.6262E+02     8.5748  -0.5259   102.3509
101      0.0000     0.0000E+00    0.0000E+00    1.000000E+06  0.02000  1.989E-02    0   1.0000   age020_m62            0.0000     2.6813E+02    14.1748   4.0000    70.0439
102      0.0000     0.0000E+00    0.0000E+00    3.160000E+06  0.02000  3.772E-02    0   0.9858   age045_m62            0.0000     1.9058E+02    11.3369   4.0000    72.2915
103      0.0000     0.0000E+00    0.0000E+00    5.010000E+06  0.02000  3.227E-02    0   0.9342   age055_m62            0.0000     5.5402E+01     6.4773   3.4738    83.6361
104      0.0000     0.0000E+00    0.0000E+00    6.610000E+06  0.02000  2.387E-02    0   0.9090   age061_m62            0.0000     8.7170E+01     8.9085   3.2881    80.8293
105      0.0000     0.0000E+00    0.0000E+00    8.710000E+06  0.02000  1.102E-02    0   0.8861   age067_m62            0.0000     2.4738E+02    15.7913   3.0576    71.7273
106      0.0000     0.0000E+00    0.0000E+00    1.000000E+07  0.02000  1.011E-02    0   0.8751   age070_m62            0.0000     1.8217E+02    13.1218   3.0252    75.7211
107      0.0000     0.0000E+00    0.0000E+00    1.445000E+07  0.02000  7.331E-03    0   0.8472   age078_m62            0.0000     1.3753E+02    10.8177   2.9955    78.7430
108      0.0000     0.0000E+00    0.0000E+00    2.512000E+07  0.02000  4.206E-03    0   0.8099   age090_m62            0.0000     1.6102E+02    10.9010   2.9120    78.3222
109      0.0000     0.0000E+00    0.0000E+00    4.000000E+07  0.02000  3.373E-03    0   0.7799   age104_m62            0.0000     5.0084E+01     4.5914   2.5040    94.3959
110      0.0000     0.0000E+00    0.0000E+00    5.500000E+07  0.02000  2.747E-03    0   0.7595   age110_m62            0.0000     4.7838E+01     3.5384   2.3076   102.9761
111      0.0000     0.0000E+00    0.0000E+00    1.015200E+08  0.02000  1.878E-03    0   0.7221   age116_m62            0.0000     1.2639E+02     7.3898   1.9417   117.3332
112      0.0000     0.0000E+00    0.0000E+00    1.609000E+08  0.02000  1.378E-03    0   0.6978   age120_m62            0.0000     2.0059E+02    10.4929   1.6453   126.3732
113      0.0000     0.0000E+00    0.0000E+00    2.861200E+08  0.02000  8.869E-04    0   0.6700   age125_m62            0.0000     3.3657E+02    14.9518   1.0541   141.2631
114      0.0000     0.0000E+00    0.0000E+00    5.088000E+08  0.02000  4.834E-04    0   0.6430   age130_m62            0.0000     2.4987E+02    14.7744   0.6455   143.0190
115      0.0000     0.0000E+00    0.0000E+00    9.047900E+08  0.02000  2.312E-04    0   0.6152   age135_m62            0.0000     9.2880E+01     9.9101   0.3105   129.9140
116      0.0000     0.0000E+00    0.0000E+00    1.278050E+09  0.02000  1.387E-04    0   0.5927   age138_m62            0.0000     5.6926E+01     6.6845   0.1202   116.6857
117      0.0000     0.0000E+00    0.0000E+00    1.434000E+09  0.02000  1.168E-04    0   0.5865   age139_m62            0.0000     5.9968E+01     6.2710   0.1311   113.4237
118      0.0000     0.0000E+00    0.0000E+00    2.500000E+09  0.02000  5.505E-05    0   0.5610   age150_m62            0.0000     1.0627E+02     6.6672  -0.1627   107.0725
119      0.0000     0.0000E+00    0.0000E+00    4.250000E+09  0.02000  3.070E-05    0   0.5407   age158_m62            0.0000     1.8403E+02     8.2687  -0.4559   107.0117
120      0.0000     0.0000E+00    0.0000E+00    6.250000E+09  0.02000  2.104E-05    0   0.5277   age166_m62            0.0000     2.4097E+02     9.0306  -0.5883   107.4955
121      0.0000     0.0000E+00    0.0000E+00    7.500000E+09  0.02000  1.770E-05    0   0.5223   age171_m62            0.0000     2.6727E+02     9.4859  -0.6823   108.1500
122      0.0000     0.0000E+00    0.0000E+00    1.000000E+10  0.02000  1.297E-05    0   0.5121   age181_m62            0.0000     3.2958E+02    10.3754  -0.8510   109.1266
123      0.0000     0.0000E+00    0.0000E+00    1.300000E+10  0.02000  9.691E-06    0   0.5047   age193_m62            0.0000     3.7851E+02    10.9277  -0.9404   109.7861
124      0.0000     0.0000E+00    0.0000E+00    1.500000E+10  0.02000  8.360E-06    0   0.4999   age201_m62            0.0000     4.1546E+02    11.3034  -1.0000   110.3712
125      0.0000     0.0000E+00    0.0000E+00    1.800000E+10  0.02000  6.911E-06    0   0.4946   age213_m62            0.0000     4.6383E+02    11.7214  -1.0000   110.8376
126      0.0000     0.0000E+00    0.0000E+00    1.000000E+06  0.05000  2.651E-02    0   0.9998   age020_m72            0.0000     2.5847E+02    13.6288   4.0000    71.2051
127      0.0000     0.0000E+00    0.0000E+00    3.160000E+06  0.05000  4.817E-02    0   0.9577   age045_m72            0.0000     1.2042E+02     9.0868   3.9379    76.6681
128      0.0000     0.0000E+00    0.0000E+00    5.010000E+06  0.05000  3.101E-02    0   0.9147   age055_m72            0.0000     1.0675E+02     8.8584   3.5720    79.4609
129      0.0000     0.0000E+00    0.0000E+00    6.610000E+06  0.05000  1.472E-02    0   0.8877   age061_m72            0.0000     2.1629E+02    13.4867   3.2319    74.3112
130      0.0000     0.0000E+00    0.0000E+00    8.710000E+06  0.05000  1.050E-02    0   0.8638   age067_m72            0.0000     1.7279E+02    10.9113   3.5743    76.6332
131      0.0000     0.0000E+00    0.0000E+00    1.000000E+07  0.05000  8.954E-03    0   0.8524   age070_m72            0.0000     1.4306E+02     8.9816   3.8109    78.2535
132      0.0000     0.0000E+00    0.0000E+00    1.445000E+07  0.05000  6.392E-03    0   0.8262   age078_m72            0.0000     1.2806E+02     8.1646   3.7332    80.1226
133      0.0000     0.0000E+00    0.0000E+00    2.512000E+07  0.05000  4.207E-03    0   0.7902   age090_m72            0.0000     7.6690E+01     5.7007   3.2604    87.6748
134      0.0000     0.0000E+00    0.0000E+00    4.000000E+07  0.05000  3.198E-03    0   0.7618   age104_m72            0.0000     6.4660E+01     4.8002   2.4583   106.8961
135      0.0000     0.0000E+00    0.0000E+00    5.500000E+07  0.05000  2.593E-03    0   0.7432   age110_m72            0.0000     9.1858E+01     6.1905   2.2852   112.0551
136      0.0000     0.0000E+00    0.0000E+00    1.015200E+08  0.05000  1.716E-03    0   0.7092   age116_m72            0.0000     1.6081E+02     8.7556   1.9600   120.3807
137      0.0000     0.0000E+00    0.0000E+00    1.609000E+08  0.05000  1.218E-03    0   0.6876   age120_m72            0.0000     2.5298E+02    12.0593   1.5380   130.1703
138      0.0000     0.0000E+00    0.0000E+00    2.861200E+08  0.05000  7.047E-04    0   0.6618   age125_m72            0.0000     3.2868E+02    15.4077   0.8339   142.1395
139      0.0000     0.0000E+00    0.0000E+00    5.088000E+08  0.05000  3.590E-04    0   0.6356   age130_m72            0.0000     2.1739E+02    14.0925   0.3398   141.5898
140      0.0000     0.0000E+00    0.0000E+00    9.047900E+08  0.05000  1.484E-04    0   0.6088   age135_m72            0.0000     7.9307E+01     8.4478  -0.0382   118.4428
141      0.0000     0.0000E+00    0.0000E+00    1.278050E+09  0.05000  9.435E-05    0   0.5924   age138_m72            0.0000     1.2239E+02     8.6831  -0.3575   111.7478
142      0.0000     0.0000E+00    0.0000E+00    1.434000E+09  0.05000  7.827E-05    0   0.5847   age139_m72            0.0000     1.2961E+02     8.3240  -0.3166   109.9563
143      0.0000     0.0000E+00    0.0000E+00    2.500000E+09  0.05000  3.759E-05    0   0.5583   age150_m72            0.0000     2.2147E+02     9.1380  -0.5944   107.3058
144      1.2304     4.2384E+00    4.4665E+00    4.250000E+09  0.05000  1.842E-05    0   0.5374   age158_m72            0.0000     2.9636E+02    10.2462  -0.9187   107.1348
145      0.7240     3.8059E+00    3.9123E+00    6.250000E+09  0.05000  1.207E-05    0   0.5242   age166_m72            0.0000     3.8419E+02    12.2008  -1.0000   107.0057
146      0.9157     5.8145E+00    5.9098E+00    7.500000E+09  0.05000  9.993E-06    0   0.5183   age171_m72            0.0000     4.0463E+02    13.1124  -1.0000   106.8497
147      0.5755     5.0083E+00    4.9902E+00    1.000000E+10  0.05000  7.291E-06    0   0.5081   age181_m72            0.0000     5.1152E+02    16.6731  -1.0000   106.7815
148      0.4759     5.6800E+00    5.5893E+00    1.300000E+10  0.05000  5.316E-06    0   0.5018   age193_m72            0.0000     7.4938E+02    22.3509  -1.0000   105.9839
149      0.2489     3.5115E+00    3.4238E+00    1.500000E+10  0.05000  4.497E-06    0   0.4972   age201_m72            0.0000     8.8695E+02    24.7295  -1.0000   105.9138
150      0.3475     5.8968E+00    5.6939E+00    1.800000E+10  0.05000  3.739E-06    0   0.4924   age213_m72            0.0000     1.1018E+03    27.7755  -1.0000   105.0876


## Synthesis Results - Average & Chains ##

# j      x_j: min, <> & last-chain-values for 1 ...  7 chains
  1      0.0000      0.0050      0.0000      0.0000      0.0000      0.0000      0.0635      0.0000      0.0000
  2     20.5857     16.8023     17.7777     17.6909     17.5010     17.2849     17.3791     17.1661     17.3191
  3      0.0000      0.0838      0.0000      0.1333      0.1150      0.0000      0.0154      0.0000      0.0000
  4      0.0000      0.0008      0.0000      0.0000      0.0000      0.0000      0.0000      0.0000      0.0000
  5      0.0000      0.0021      0.0000      0.0000      0.0000      0.0613      0.0000      0.0000      0.0000
  6      0.0000      0.0031      0.0000      0.0000      0.0000      0.0000      0.0000      0.0000      0.0000
  7      0.0000      0.0029      0.0000      0.0000      0.0000      0.0000      0.0000      0.0000      0.0000
  8      0.0000      0.0048      0.0000      0.0000      0.0000      0.0000      0.0000      0.0000      0.0000
  9      0.0066      0.1271      0.0000      0.2157      0.1575      0.2049      0.0000      0.0000      0.1951
 10      0.0000      0.0838      0.0000      0.0000      0.0000      0.3423      0.0159      0.1793      0.0000
 11      4.7663      4.5193      4.9355      4.3438      4.6771      4.5616      4.6445      4.6762      4.4843
 12      0.0000      0.0131      0.0000      0.0633      0.0000      0.0000      0.0000      0.0000      0.0039
 13      0.0000      0.0081      0.0000      0.0000      0.0000      0.0000      0.0000      0.0000      0.0000
 14      0.0000      0.0044      0.0000      0.0000      0.0459      0.0453      0.0000      0.0000      0.0175
 15      0.0000      0.0038      0.0000      0.0000      0.0069      0.0000      0.0000      0.0000      0.0052
 16      0.0000      0.0104      0.0000      0.0000      0.0000      0.0000      0.0000      0.0000      0.0000
 17      0.0000      0.0120      0.0000      0.0000      0.0000      0.0000      0.0000      0.0084      0.0000
 18      0.0000      0.0182      0.0000      0.0000      0.0000      0.0000      0.0734      0.0000      0.0000
 19      0.0000      0.0420      0.0000      0.1242      0.0000      0.0000      0.0000      0.0000      0.0000
 20      0.0000      0.1469      0.2713      0.1077      0.0000      0.0000      0.1453      0.0000      0.0000
 21      0.0000      0.2886      0.0456      0.0047      0.0000      0.2718      0.1280      0.0167      0.0000
 22      0.0000      0.2890      0.2415      0.1112      0.0527      0.5863      0.0153      0.0697      0.0000
 23      0.0000      0.1801      0.2532      0.0695      0.4201      0.4009      0.1596      0.0000      0.0000
 24      0.0000      0.1565      0.1129      0.0097      0.2705      0.0000      0.0000      0.0000      0.0000
 25      3.8089      7.6231      6.3731      7.5742      6.7120      5.7121      7.7737      7.7190      7.7255
 26      0.0000      0.0026      0.0000      0.0000      0.0000      0.0119      0.0043      0.0000      0.0000
 27      0.0000      0.0242      0.0000      0.0000      0.0000      0.0000      0.0071      0.0000      0.0245
 28      0.0000      0.0062      0.0000      0.0000      0.0000      0.0000      0.0000      0.0000      0.0000
 29      0.0000      0.0017      0.0000      0.0000      0.0000      0.0000      0.0000      0.0000      0.0000
 30      0.0000      0.0030      0.0000      0.0000      0.0000      0.0000      0.0000      0.0000      0.0000
 31      0.0000      0.0049      0.0000      0.0044      0.0046      0.0000      0.0000      0.0000      0.0000
 32      0.0000      0.0108      0.0000      0.0747      0.0000      0.0000      0.0000      0.0000      0.0000
 33      0.0000      0.0147      0.0000      0.0000      0.0065      0.0000      0.0000      0.0000      0.0000
 34      0.0000      0.0505      0.0457      0.0000      0.0000      0.0000      0.0000      0.0248      0.0579
 35      0.0001      0.0741      0.0555      0.3805      0.0000      0.0295      0.0000      0.0000      0.2016
 36      0.0000      0.0392      0.0000      0.0000      0.0889      0.0000      0.0000      0.0635      0.0000
 37      0.0000      0.0164      0.0839      0.0000      0.0000      0.0000      0.0403      0.0000      0.0000
 38      0.0000      0.0051      0.0000      0.0000      0.0000      0.0000      0.0000      0.0000      0.0000
 39      0.0000      0.0095      0.0000      0.0000      0.0000      0.0000      0.0000      0.0000      0.0000
 40      0.0000      0.0073      0.0000      0.0000      0.0000      0.0000      0.0000      0.0000      0.0000
 41      0.0000      0.0184      0.0000      0.0354      0.0140      0.0000      0.0338      0.0000      0.0000
 42      0.0000      0.0185      0.0000      0.0000      0.0000      0.0000      0.0000      0.0000      0.0405
 43      9.5063     10.4712     10.3658     10.1378     10.8230     10.4437     10.1592      9.9354     10.4518
 44     46.0754     43.9357     44.5599     44.2929     44.6209     44.7000     44.5045     44.5264     42.7091
 45      2.4528      0.5908      0.6443      0.8281      0.7351      1.6336      0.5941      0.3547      2.5279
 46      3.3061      1.2559      1.7927      2.0295      1.6075      1.7914      2.4574      2.1952      1.4895
 47      0.6828      0.2530      0.2614      0.2656      0.1142      0.0000      0.1755      0.2533      0.0000
 48      0.0201      0.2561      0.1749      0.2436      0.1617      0.0830      0.0000      0.4857      0.7726
 49      0.0000      0.1225      0.0000      0.0000      0.0000      0.0000      0.0000      0.1235      0.2844
 50      0.0000      0.0772      0.1789      0.0597      0.1486      0.0000      0.0000      0.0000      0.0190
 51      0.0000      0.0034      0.0000      0.0000      0.0000      0.0000      0.0143      0.0000      0.0000
 52      0.0000      0.0532      0.0483      0.0026      0.0000      0.0000      0.0000      0.0000      0.0000
 53      0.0000      0.0162      0.0000      0.0000      0.0000      0.0000      0.0063      0.0000      0.0000
 54      0.9942      1.7798      1.6978      1.7306      1.7786      2.0546      1.7145      2.2144      1.7918
 55      0.0002      0.2414      0.2182      0.2534      0.3314      0.0840      0.3309      0.2413      0.1669
 56      0.0000      0.1006      0.0000      0.0531      0.1062      0.0217      0.0829      0.0000      0.2407
 57      0.0000      0.0065      0.0000      0.0000      0.0000      0.0757      0.0000      0.0000      0.0000
 58      0.0000      0.0056      0.0000      0.0000      0.0326      0.0000      0.0000      0.0000      0.0000
 59      0.0000      0.0070      0.0000      0.0000      0.0000      0.0000      0.0000      0.0000      0.0000
 60      0.0000      0.0118      0.0000      0.0000      0.0000      0.0000      0.0249      0.0000      0.0182
 61      0.0000      0.0126      0.0000      0.0000      0.0000      0.0000      0.0558      0.0000      0.0000
 62      0.0000      0.0170      0.0000      0.0000      0.0000      0.0000      0.0000      0.0000      0.0000
 63      0.0000      0.0070      0.0000      0.0000      0.0000      0.0018      0.0000      0.0011      0.0000
 64      0.0000      0.0078      0.0024      0.0000      0.0000      0.0038      0.0000      0.0000      0.0000
 65      0.0000      0.0109      0.0102      0.0000      0.0000      0.0000      0.0000      0.0000      0.0424
 66      0.0000      0.0084      0.1058      0.0000      0.0000      0.0000      0.0000      0.0314      0.0000
 67      0.0000      0.0129      0.0000      0.0000      0.0000      0.0000      0.0000      0.0000      0.0000
 68      0.0000      0.0246      0.0000      0.0000      0.0000      0.0000      0.0000      0.0407      0.0000
 69      0.0000      0.0368      0.0000      0.1448      0.0000      0.0000      0.0000      0.0000      0.0000
 70      0.0000      0.0448      0.0000      0.0485      0.0911      0.0250      0.0363      0.0000      0.0665
 71      0.0000      0.1946      0.2085      0.1098      0.2319      0.1244      0.0000      0.2111      0.0000
 72      4.7657      7.3098      7.2020      6.5954      7.1900      6.8818      7.6944      7.2714      7.0533
 73      0.0000      0.0821      0.1265      0.0273      0.0512      0.0376      0.0000      0.0331      0.0000
 74      0.0000      0.0119      0.0000      0.0000      0.0000      0.0000      0.0129      0.0902      0.0000
 75      0.0000      0.0328      0.0000      0.0000      0.0000      0.0000      0.0000      0.0123      0.0000
 76      0.0000      0.0026      0.0000      0.0000      0.0000      0.0000      0.0000      0.0000      0.0000
 77      0.0000      0.0015      0.0000      0.0000      0.0000      0.0000      0.0000      0.0000      0.0000
 78      0.0000      0.0052      0.0000      0.0000      0.0000      0.0000      0.0000      0.0257      0.0000
 79      0.0000      0.0063      0.0103      0.0000      0.0000      0.0000      0.0000      0.0526      0.0000
 80      0.0000      0.0219      0.0000      0.0000      0.0000      0.0000      0.0000      0.0345      0.0000
 81      0.0000      0.0070      0.0000      0.0000      0.0018      0.0000      0.0000      0.0000      0.0000
 82      0.0000      0.0071      0.0000      0.0000      0.0000      0.0036      0.0000      0.0000      0.0000
 83      0.0000      0.0224      0.0000      0.0000      0.0000      0.0000      0.0000      0.0000      0.0000
 84      0.0000      0.0228      0.0000      0.0000      0.0747      0.0031      0.0000      0.0000      0.0000
 85      0.0000      0.0099      0.0000      0.0000      0.0000      0.0000      0.0000      0.0000      0.0000
 86      0.0000      0.0096      0.0000      0.0000      0.0000      0.0361      0.0000      0.0000      0.0000
 87      0.0000      0.0071      0.0000      0.0000      0.0000      0.0000      0.0000      0.0000      0.0000
 88      0.0000      0.0049      0.0219      0.0000      0.0000      0.0000      0.0000      0.0000      0.0000
 89      0.0000      0.0046      0.0000      0.0000      0.0000      0.0000      0.0000      0.0000      0.0000
 90      0.0000      0.0041      0.0000      0.0000      0.0000      0.0000      0.0140      0.0000      0.0000
 91      0.0000      0.0059      0.0000      0.0000      0.0000      0.0000      0.0000      0.0240      0.0529
 92      0.0000      0.0051      0.0000      0.0000      0.0000      0.0000      0.0000      0.0000      0.0000
 93      0.0000      0.0250      0.2441      0.1057      0.0000      0.0000      0.0000      0.0000      0.0000
 94      0.0000      0.0261      0.0236      0.0000      0.0000      0.0625      0.0000      0.0000      0.0000
 95      0.0000      0.0263      0.0202      0.0561      0.0000      0.0985      0.0000      0.1310      0.0000
 96      0.0000      0.0404      0.0390      0.0000      0.0664      0.0000      0.0628      0.0000      0.0000
 97      0.0000      0.0288      0.0000      0.1483      0.0000      0.0048      0.0000      0.0000      0.0962
 98      0.0000      0.0216      0.0000      0.0322      0.0000      0.0000      0.0000      0.0000      0.0000
 99      0.0000      0.0356      0.0942      0.1934      0.0397      0.3411      0.0000      0.0000      0.0117
100      0.0000      0.0229      0.0000      0.0000      0.0487      0.0000      0.0000      0.0000      0.0042
101      0.0000      0.0013      0.0000      0.0000      0.0000      0.0074      0.0000      0.0000      0.0000
102      0.0000      0.0012      0.0000      0.0000      0.0000      0.0000      0.0000      0.0000      0.0000
103      0.0000      0.0595      0.0347      0.0000      0.0000      0.0000      0.0024      0.0000      0.0000
104      0.0000      0.0053      0.0000      0.0000      0.0000      0.0000      0.0000      0.0000      0.0000
105      0.0000      0.0120      0.0000      0.0000      0.0000      0.0158      0.0000      0.0000      0.0000
106      0.0000      0.0058      0.0000      0.0000      0.0000      0.0000      0.0000      0.0000      0.0000
107      0.0000      0.0066      0.0000      0.0000      0.0000      0.0000      0.0000      0.0000      0.0115
108      0.0000      0.0023      0.0000      0.0000      0.0000      0.0000      0.0000      0.0000      0.0000
109      0.0000      0.0055      0.0000      0.0000      0.0000      0.0000      0.0000      0.0000      0.0307
110      0.0000      0.0053      0.0000      0.0000      0.0043      0.0000      0.0000      0.0000      0.0000
111      0.0000      0.0051      0.0000      0.0000      0.0000      0.0000      0.0000      0.0000      0.0039
112      0.0000      0.0050      0.0000      0.0080      0.0000      0.0000      0.0000      0.0000      0.0000
113      0.0000      0.0034      0.0000      0.0029      0.0000      0.0000      0.0000      0.0000      0.0000
114      0.0000      0.0028      0.0000      0.0000      0.0000      0.0000      0.0000      0.0000      0.0019
115      0.0000      0.0042      0.0108      0.0000      0.0000      0.0000      0.0000      0.0000      0.0795
116      0.0000      0.0154      0.0000      0.0000      0.0000      0.0055      0.0000      0.0320      0.0000
117      0.0000      0.0107      0.0000      0.0000      0.0000      0.0000      0.0097      0.0000      0.0000
118      0.0000      0.0217      0.0049      0.0000      0.0000      0.0000      0.0293      0.0000      0.0000
119      0.0000      0.0229      0.0000      0.0000      0.0075      0.0146      0.0000      0.1354      0.0000
120      0.0000      0.0115      0.0000      0.0000      0.0000      0.0000      0.0000      0.0000      0.0000
121      0.0000      0.0181      0.0000      0.0000      0.0000      0.0000      0.0000      0.0000      0.0000
122      0.0000      0.0294      0.0969      0.0000      0.0308      0.0000      0.0000      0.1691      0.0043
123      0.0000      0.0179      0.0000      0.0704      0.0000      0.0000      0.0000      0.1369      0.0522
124      0.0000      0.0872      0.0000      0.0505      0.0000      0.0000      0.0000      0.0000      0.0000
125      0.0000      0.0322      0.0274      0.0000      0.0000      0.0000      0.0000      0.0684      0.0000
126      0.0000      0.0017      0.0000      0.0014      0.0000      0.0000      0.0000      0.0000      0.0000
127      0.0000      0.0062      0.0131      0.0000      0.0515      0.0000      0.0000      0.0000      0.0000
128      0.0000      0.0115      0.0993      0.0000      0.0096      0.1045      0.0000      0.0000      0.0000
129      0.0000      0.0019      0.0000      0.0000      0.0000      0.0000      0.0000      0.0000      0.0000
130      0.0000      0.0059      0.0000      0.0000      0.0000      0.0000      0.0000      0.0000      0.0000
131      0.0000      0.0034      0.0000      0.0000      0.0000      0.0000      0.0000      0.0000      0.0000
132      0.0000      0.0017      0.0000      0.0000      0.0000      0.0000      0.0000      0.0000      0.0000
133      0.0000      0.0021      0.0000      0.0000      0.0000      0.0000      0.0000      0.0000      0.0000
134      0.0000      0.0039      0.0000      0.0000      0.0000      0.0000      0.0000      0.0000      0.0000
135      0.0000      0.0043      0.0000      0.0000      0.0000      0.0000      0.0000      0.0000      0.0000
136      0.0000      0.0060      0.0000      0.0000      0.0000      0.0000      0.0007      0.0000      0.0000
137      0.0000      0.0058      0.0372      0.0000      0.0000      0.0000      0.0000      0.0000      0.0000
138      0.0000      0.0040      0.0000      0.0000      0.0000      0.0239      0.0000      0.0000      0.0000
139      0.0000      0.0060      0.0000      0.0000      0.0000      0.0000      0.0000      0.0544      0.0000
140      0.0000      0.0147      0.0000      0.0000      0.0000      0.1299      0.0000      0.0000      0.0000
141      0.0000      0.0314      0.0000      0.0408      0.0000      0.0000      0.0000      0.0000      0.0000
142      0.0000      0.0764      0.0000      0.0000      0.0000      0.0000      0.0000      0.0148      0.1026
143      0.0000      0.0450      0.0000      0.0000      0.0000      0.0000      0.0000      0.0000      0.1656
144      1.2304      0.3951      0.4392      0.3984      0.3169      0.4445      0.3745      0.3270      0.5035
145      0.7240      0.4467      0.4857      0.5856      0.4774      0.4574      0.5575      0.4840      0.4473
146      0.9157      0.4805      0.6057      0.5187      0.5635      0.4469      0.4027      0.4903      0.7191
147      0.5755      0.4554      0.4647      0.4356      0.5270      0.6925      0.5186      0.3601      0.4515
148      0.4759      0.3869      0.3399      0.2734      0.4029      0.4544      0.5305      0.3158      0.3505
149      0.2489      0.3367      0.3346      0.3180      0.4085      0.4483      0.3121      0.3348      0.3279
150      0.3475      0.3625      0.4136      0.4936      0.4681      0.2855      0.3438      0.4118      0.3808

# j      m_j: min, <> & last-chain-values for 1 ...  7 chains
  1  0.0000E+00  7.1822E-05  0.0000E+00  0.0000E+00  0.0000E+00  0.0000E+00  9.0596E-04  0.0000E+00  0.0000E+00
  2  5.3823E-02  4.0988E-02  4.4111E-02  4.3430E-02  4.2547E-02  4.2921E-02  4.2497E-02  4.1960E-02  4.2301E-02
  3  0.0000E+00  4.8224E-04  0.0000E+00  7.7214E-04  6.6016E-04  0.0000E+00  8.8766E-05  0.0000E+00  0.0000E+00
  4  0.0000E+00  9.0165E-06  0.0000E+00  0.0000E+00  0.0000E+00  0.0000E+00  0.0000E+00  0.0000E+00  0.0000E+00
  5  0.0000E+00  2.9169E-05  0.0000E+00  0.0000E+00  0.0000E+00  8.5101E-04  0.0000E+00  0.0000E+00  0.0000E+00
  6  0.0000E+00  5.0484E-05  0.0000E+00  0.0000E+00  0.0000E+00  0.0000E+00  0.0000E+00  0.0000E+00  0.0000E+00
  7  0.0000E+00  5.8619E-05  0.0000E+00  0.0000E+00  0.0000E+00  0.0000E+00  0.0000E+00  0.0000E+00  0.0000E+00
  8  0.0000E+00  1.1195E-04  0.0000E+00  0.0000E+00  0.0000E+00  0.0000E+00  0.0000E+00  0.0000E+00  0.0000E+00
  9  1.7490E-04  3.1612E-03  0.0000E+00  5.3995E-03  3.9050E-03  5.1893E-03  0.0000E+00  0.0000E+00  4.8602E-03
 10  0.0000E+00  2.3887E-03  0.0000E+00  0.0000E+00  0.0000E+00  9.9345E-03  4.5548E-04  5.1235E-03  0.0000E+00
 11  1.7414E-01  1.5405E-01  1.7112E-01  1.4901E-01  1.5889E-01  1.5828E-01  1.5870E-01  1.5972E-01  1.5305E-01
 12  0.0000E+00  7.8161E-04  0.0000E+00  3.7959E-03  0.0000E+00  0.0000E+00  0.0000E+00  0.0000E+00  2.3055E-04
 13  0.0000E+00  5.5923E-04  0.0000E+00  0.0000E+00  0.0000E+00  0.0000E+00  0.0000E+00  0.0000E+00  0.0000E+00
 14  0.0000E+00  4.3565E-04  0.0000E+00  0.0000E+00  4.4988E-03  4.5350E-03  0.0000E+00  0.0000E+00  1.7244E-03
 15  0.0000E+00  5.6048E-04  0.0000E+00  0.0000E+00  1.0267E-03  0.0000E+00  0.0000E+00  0.0000E+00  7.8002E-04
 16  0.0000E+00  2.2287E-03  0.0000E+00  0.0000E+00  0.0000E+00  0.0000E+00  0.0000E+00  0.0000E+00  0.0000E+00
 17  0.0000E+00  2.8669E-03  0.0000E+00  0.0000E+00  0.0000E+00  0.0000E+00  0.0000E+00  2.0027E-03  0.0000E+00
 18  0.0000E+00  7.0600E-03  0.0000E+00  0.0000E+00  0.0000E+00  0.0000E+00  2.8583E-02  0.0000E+00  0.0000E+00
 19  0.0000E+00  2.4758E-02  0.0000E+00  7.3630E-02  0.0000E+00  0.0000E+00  0.0000E+00  0.0000E+00  0.0000E+00
 20  0.0000E+00  1.2380E-01  2.3250E-01  9.1321E-02  0.0000E+00  0.0000E+00  1.2273E-01  0.0000E+00  0.0000E+00
 21  0.0000E+00  2.8131E-01  4.5194E-02  4.6419E-03  0.0000E+00  2.6967E-01  1.2508E-01  1.6331E-02  0.0000E+00
 22  0.0000E+00  3.6339E-01  3.0890E-01  1.4073E-01  6.6019E-02  7.5052E-01  1.9286E-02  8.7887E-02  0.0000E+00
 23  0.0000E+00  2.8706E-01  4.1060E-01  1.1144E-01  6.6750E-01  6.5049E-01  2.5505E-01  0.0000E+00  0.0000E+00
 24  0.0000E+00  2.8537E-01  2.0926E-01  1.7778E-02  4.9140E-01  0.0000E+00  0.0000E+00  0.0000E+00  0.0000E+00
 25  8.9406E+00  1.6695E+01  1.4197E+01  1.6693E+01  1.4649E+01  1.2734E+01  1.7066E+01  1.6939E+01  1.6940E+01
 26  0.0000E+00  3.6119E-05  0.0000E+00  0.0000E+00  0.0000E+00  1.6582E-04  5.9316E-05  0.0000E+00  0.0000E+00
 27  0.0000E+00  7.0598E-05  0.0000E+00  0.0000E+00  0.0000E+00  0.0000E+00  2.0908E-05  0.0000E+00  7.1816E-05
 28  0.0000E+00  3.5693E-05  0.0000E+00  0.0000E+00  0.0000E+00  0.0000E+00  0.0000E+00  0.0000E+00  0.0000E+00
 29  0.0000E+00  1.4967E-05  0.0000E+00  0.0000E+00  0.0000E+00  0.0000E+00  0.0000E+00  0.0000E+00  0.0000E+00
 30  0.0000E+00  3.3216E-05  0.0000E+00  0.0000E+00  0.0000E+00  0.0000E+00  0.0000E+00  0.0000E+00  0.0000E+00
 31  0.0000E+00  6.2094E-05  0.0000E+00  5.6132E-05  5.9105E-05  0.0000E+00  0.0000E+00  0.0000E+00  0.0000E+00
 32  0.0000E+00  1.5337E-04  0.0000E+00  1.0648E-03  0.0000E+00  0.0000E+00  0.0000E+00  0.0000E+00  0.0000E+00
 33  0.0000E+00  2.9571E-04  0.0000E+00  0.0000E+00  1.3070E-04  0.0000E+00  0.0000E+00  0.0000E+00  0.0000E+00
 34  0.0000E+00  1.2353E-03  1.1369E-03  0.0000E+00  0.0000E+00  0.0000E+00  0.0000E+00  6.0798E-04  1.4183E-03
 35  1.6673E-06  2.1908E-03  1.6685E-03  1.1318E-02  0.0000E+00  8.8897E-04  0.0000E+00  0.0000E+00  5.9681E-03
 36  0.0000E+00  1.4864E-03  0.0000E+00  0.0000E+00  3.3560E-03  0.0000E+00  0.0000E+00  2.4099E-03  0.0000E+00
 37  0.0000E+00  7.7406E-04  4.0192E-03  0.0000E+00  0.0000E+00  0.0000E+00  1.9033E-03  0.0000E+00  0.0000E+00
 38  0.0000E+00  3.3671E-04  0.0000E+00  0.0000E+00  0.0000E+00  0.0000E+00  0.0000E+00  0.0000E+00  0.0000E+00
 39  0.0000E+00  9.2761E-04  0.0000E+00  0.0000E+00  0.0000E+00  0.0000E+00  0.0000E+00  0.0000E+00  0.0000E+00
 40  0.0000E+00  1.2598E-03  0.0000E+00  0.0000E+00  0.0000E+00  0.0000E+00  0.0000E+00  0.0000E+00  0.0000E+00
 41  0.0000E+00  4.2499E-03  0.0000E+00  8.2311E-03  3.2172E-03  0.0000E+00  7.8318E-03  0.0000E+00  0.0000E+00
 42  0.0000E+00  4.7838E-03  0.0000E+00  0.0000E+00  0.0000E+00  0.0000E+00  0.0000E+00  0.0000E+00  1.0482E-02
 43  4.2815E+00  4.4001E+00  4.4305E+00  4.2872E+00  4.5324E+00  4.4672E+00  4.2793E+00  4.1834E+00  4.3974E+00
 44  3.2819E+01  2.9199E+01  3.0121E+01  2.9623E+01  2.9553E+01  3.0239E+01  2.9648E+01  2.9651E+01  2.8419E+01
 45  2.4351E+00  5.4728E-01  6.0702E-01  7.7190E-01  6.7862E-01  1.5402E+00  5.5164E-01  3.2917E-01  2.3444E+00
 46  3.9099E+00  1.3858E+00  2.0120E+00  2.2537E+00  1.7677E+00  2.0121E+00  2.7180E+00  2.4271E+00  1.6455E+00
 47  1.0583E+00  3.6584E-01  3.8451E-01  3.8661E-01  1.6460E-01  0.0000E+00  2.5445E-01  3.6707E-01  0.0000E+00
 48  3.7055E-02  4.4100E-01  3.0639E-01  4.2214E-01  2.7754E-01  1.4542E-01  0.0000E+00  8.3803E-01  1.3321E+00
 49  0.0000E+00  2.3605E-01  0.0000E+00  0.0000E+00  0.0000E+00  0.0000E+00  0.0000E+00  2.3848E-01  5.4858E-01
 50  0.0000E+00  1.7496E-01  4.1242E-01  1.3615E-01  3.3562E-01  0.0000E+00  0.0000E+00  0.0000E+00  4.3101E-02
 51  0.0000E+00  3.5634E-05  0.0000E+00  0.0000E+00  0.0000E+00  0.0000E+00  1.4985E-04  0.0000E+00  0.0000E+00
 52  0.0000E+00  1.5174E-04  1.4002E-04  7.5746E-06  0.0000E+00  0.0000E+00  0.0000E+00  0.0000E+00  0.0000E+00
 53  0.0000E+00  7.0394E-05  0.0000E+00  0.0000E+00  0.0000E+00  0.0000E+00  2.7321E-05  0.0000E+00  0.0000E+00
 54  4.4159E-03  7.3752E-03  7.1563E-03  7.2173E-03  7.3454E-03  8.6667E-03  7.1220E-03  9.1949E-03  7.4344E-03
 55  1.1549E-06  1.4757E-03  1.3568E-03  1.5587E-03  2.0187E-03  5.2277E-04  2.0275E-03  1.4782E-03  1.0216E-03
 56  0.0000E+00  8.1411E-04  0.0000E+00  4.3284E-04  8.5688E-04  1.7873E-04  6.7280E-04  0.0000E+00  1.9507E-03
 57  0.0000E+00  8.4628E-05  0.0000E+00  0.0000E+00  0.0000E+00  9.9957E-04  0.0000E+00  0.0000E+00  0.0000E+00
 58  0.0000E+00  1.0486E-04  0.0000E+00  0.0000E+00  6.0806E-04  0.0000E+00  0.0000E+00  0.0000E+00  0.0000E+00
 59  0.0000E+00  1.8180E-04  0.0000E+00  0.0000E+00  0.0000E+00  0.0000E+00  0.0000E+00  0.0000E+00  0.0000E+00
 60  0.0000E+00  3.4069E-04  0.0000E+00  0.0000E+00  0.0000E+00  0.0000E+00  7.2176E-04  0.0000E+00  5.2745E-04
 61  0.0000E+00  4.6322E-04  0.0000E+00  0.0000E+00  0.0000E+00  0.0000E+00  2.0626E-03  0.0000E+00  0.0000E+00
 62  0.0000E+00  7.9599E-04  0.0000E+00  0.0000E+00  0.0000E+00  0.0000E+00  0.0000E+00  0.0000E+00  0.0000E+00
 63  0.0000E+00  4.9504E-04  0.0000E+00  0.0000E+00  0.0000E+00  1.2758E-04  0.0000E+00  8.0703E-05  0.0000E+00
 64  0.0000E+00  9.1234E-04  2.8935E-04  0.0000E+00  0.0000E+00  4.5660E-04  0.0000E+00  0.0000E+00  0.0000E+00
 65  0.0000E+00  2.1611E-03  2.0571E-03  0.0000E+00  0.0000E+00  0.0000E+00  0.0000E+00  0.0000E+00  8.3937E-03
 66  0.0000E+00  2.1137E-03  2.7233E-02  0.0000E+00  0.0000E+00  0.0000E+00  0.0000E+00  7.9556E-03  0.0000E+00
 67  0.0000E+00  4.4983E-03  0.0000E+00  0.0000E+00  0.0000E+00  0.0000E+00  0.0000E+00  0.0000E+00  0.0000E+00
 68  0.0000E+00  1.5884E-02  0.0000E+00  0.0000E+00  0.0000E+00  0.0000E+00  0.0000E+00  2.6345E-02  0.0000E+00
 69  0.0000E+00  4.1013E-02  0.0000E+00  1.6229E-01  0.0000E+00  0.0000E+00  0.0000E+00  0.0000E+00  0.0000E+00
 70  0.0000E+00  6.9504E-02  0.0000E+00  7.5692E-02  1.4074E-01  3.9517E-02  5.6441E-02  0.0000E+00  1.0316E-01
 71  0.0000E+00  3.5607E-01  3.8794E-01  2.0211E-01  4.2281E-01  2.3173E-01  0.0000E+00  3.8694E-01  0.0000E+00
 72  1.2300E+01  1.7603E+01  1.7640E+01  1.5983E+01  1.7255E+01  1.6869E+01  1.8573E+01  1.7545E+01  1.7006E+01
 73  0.0000E+00  2.4948E-01  3.9098E-01  8.3591E-02  1.5494E-01  1.1621E-01  0.0000E+00  1.0086E-01  0.0000E+00
 74  0.0000E+00  4.0224E-02  0.0000E+00  0.0000E+00  0.0000E+00  0.0000E+00  4.3979E-02  3.0645E-01  0.0000E+00
 75  0.0000E+00  1.2778E-01  0.0000E+00  0.0000E+00  0.0000E+00  0.0000E+00  0.0000E+00  4.7867E-02  0.0000E+00
 76  0.0000E+00  2.3559E-05  0.0000E+00  0.0000E+00  0.0000E+00  0.0000E+00  0.0000E+00  0.0000E+00  0.0000E+00
 77  0.0000E+00  5.6691E-06  0.0000E+00  0.0000E+00  0.0000E+00  0.0000E+00  0.0000E+00  0.0000E+00  0.0000E+00
 78  0.0000E+00  2.1527E-05  0.0000E+00  0.0000E+00  0.0000E+00  0.0000E+00  0.0000E+00  1.0595E-04  0.0000E+00
 79  0.0000E+00  3.1352E-05  5.1658E-05  0.0000E+00  0.0000E+00  0.0000E+00  0.0000E+00  2.6119E-04  0.0000E+00
 80  0.0000E+00  1.3977E-04  0.0000E+00  0.0000E+00  0.0000E+00  0.0000E+00  0.0000E+00  2.2044E-04  0.0000E+00
 81  0.0000E+00  5.9331E-05  0.0000E+00  0.0000E+00  1.4797E-05  0.0000E+00  0.0000E+00  0.0000E+00  0.0000E+00
 82  0.0000E+00  8.1192E-05  0.0000E+00  0.0000E+00  0.0000E+00  4.1513E-05  0.0000E+00  0.0000E+00  0.0000E+00
 83  0.0000E+00  3.7356E-04  0.0000E+00  0.0000E+00  0.0000E+00  0.0000E+00  0.0000E+00  0.0000E+00  0.0000E+00
 84  0.0000E+00  5.2629E-04  0.0000E+00  0.0000E+00  1.7211E-03  7.1812E-05  0.0000E+00  0.0000E+00  0.0000E+00
 85  0.0000E+00  2.7860E-04  0.0000E+00  0.0000E+00  0.0000E+00  0.0000E+00  0.0000E+00  0.0000E+00  0.0000E+00
 86  0.0000E+00  3.6524E-04  0.0000E+00  0.0000E+00  0.0000E+00  1.3990E-03  0.0000E+00  0.0000E+00  0.0000E+00
 87  0.0000E+00  3.6194E-04  0.0000E+00  0.0000E+00  0.0000E+00  0.0000E+00  0.0000E+00  0.0000E+00  0.0000E+00
 88  0.0000E+00  3.8142E-04  1.7177E-03  0.0000E+00  0.0000E+00  0.0000E+00  0.0000E+00  0.0000E+00  0.0000E+00
 89  0.0000E+00  5.9754E-04  0.0000E+00  0.0000E+00  0.0000E+00  0.0000E+00  0.0000E+00  0.0000E+00  0.0000E+00
 90  0.0000E+00  9.7714E-04  0.0000E+00  0.0000E+00  0.0000E+00  0.0000E+00  3.3409E-03  0.0000E+00  0.0000E+00
 91  0.0000E+00  1.8045E-03  0.0000E+00  0.0000E+00  0.0000E+00  0.0000E+00  0.0000E+00  7.3544E-03  1.6187E-02
 92  0.0000E+00  2.0875E-03  0.0000E+00  0.0000E+00  0.0000E+00  0.0000E+00  0.0000E+00  0.0000E+00  0.0000E+00
 93  0.0000E+00  2.0749E-02  2.0601E-01  8.8220E-02  0.0000E+00  0.0000E+00  0.0000E+00  0.0000E+00  0.0000E+00
 94  0.0000E+00  3.8807E-02  3.5670E-02  0.0000E+00  0.0000E+00  9.4701E-02  0.0000E+00  0.0000E+00  0.0000E+00
 95  0.0000E+00  5.2772E-02  4.1270E-02  1.1308E-01  0.0000E+00  2.0093E-01  0.0000E+00  2.6320E-01  0.0000E+00
 96  0.0000E+00  9.7582E-02  9.6045E-02  0.0000E+00  1.6011E-01  0.0000E+00  1.5225E-01  0.0000E+00  0.0000E+00
 97  0.0000E+00  9.0614E-02  0.0000E+00  4.7029E-01  0.0000E+00  1.5404E-02  0.0000E+00  0.0000E+00  3.0365E-01
 98  0.0000E+00  8.7135E-02  0.0000E+00  1.3082E-01  0.0000E+00  0.0000E+00  0.0000E+00  0.0000E+00  0.0000E+00
 99  0.0000E+00  1.6412E-01  4.4136E-01  8.9637E-01  1.8210E-01  1.5992E+00  0.0000E+00  0.0000E+00  5.4001E-02
100  0.0000E+00  1.2119E-01  0.0000E+00  0.0000E+00  2.5750E-01  0.0000E+00  0.0000E+00  0.0000E+00  2.2072E-02
101  0.0000E+00  7.8298E-06  0.0000E+00  0.0000E+00  0.0000E+00  4.3858E-05  0.0000E+00  0.0000E+00  0.0000E+00
102  0.0000E+00  3.7487E-06  0.0000E+00  0.0000E+00  0.0000E+00  0.0000E+00  0.0000E+00  0.0000E+00  0.0000E+00
103  0.0000E+00  1.9997E-04  1.1858E-04  0.0000E+00  0.0000E+00  0.0000E+00  8.0298E-06  0.0000E+00  0.0000E+00
104  0.0000E+00  2.3522E-05  0.0000E+00  0.0000E+00  0.0000E+00  0.0000E+00  0.0000E+00  0.0000E+00  0.0000E+00
105  0.0000E+00  1.1169E-04  0.0000E+00  0.0000E+00  0.0000E+00  1.5036E-04  0.0000E+00  0.0000E+00  0.0000E+00
106  0.0000E+00  5.7872E-05  0.0000E+00  0.0000E+00  0.0000E+00  0.0000E+00  0.0000E+00  0.0000E+00  0.0000E+00
107  0.0000E+00  8.8429E-05  0.0000E+00  0.0000E+00  0.0000E+00  0.0000E+00  0.0000E+00  0.0000E+00  1.5408E-04
108  0.0000E+00  5.2316E-05  0.0000E+00  0.0000E+00  0.0000E+00  0.0000E+00  0.0000E+00  0.0000E+00  0.0000E+00
109  0.0000E+00  1.4742E-04  0.0000E+00  0.0000E+00  0.0000E+00  0.0000E+00  0.0000E+00  0.0000E+00  8.2549E-04
110  0.0000E+00  1.6881E-04  0.0000E+00  0.0000E+00  1.3601E-04  0.0000E+00  0.0000E+00  0.0000E+00  0.0000E+00
111  0.0000E+00  2.2783E-04  0.0000E+00  0.0000E+00  0.0000E+00  0.0000E+00  0.0000E+00  0.0000E+00  1.7564E-04
112  0.0000E+00  2.9520E-04  0.0000E+00  4.7320E-04  0.0000E+00  0.0000E+00  0.0000E+00  0.0000E+00  0.0000E+00
113  0.0000E+00  2.9928E-04  0.0000E+00  2.5760E-04  0.0000E+00  0.0000E+00  0.0000E+00  0.0000E+00  0.0000E+00
114  0.0000E+00  4.3719E-04  0.0000E+00  0.0000E+00  0.0000E+00  0.0000E+00  0.0000E+00  0.0000E+00  2.9963E-04
115  0.0000E+00  1.2964E-03  3.3791E-03  0.0000E+00  0.0000E+00  0.0000E+00  0.0000E+00  0.0000E+00  2.4584E-02
116  0.0000E+00  7.6387E-03  0.0000E+00  0.0000E+00  0.0000E+00  2.7719E-03  0.0000E+00  1.5913E-02  0.0000E+00
117  0.0000E+00  6.2384E-03  0.0000E+00  0.0000E+00  0.0000E+00  0.0000E+00  5.6644E-03  0.0000E+00  0.0000E+00
118  0.0000E+00  2.5649E-02  5.8928E-03  0.0000E+00  0.0000E+00  0.0000E+00  3.4727E-02  0.0000E+00  0.0000E+00
119  0.0000E+00  4.6880E-02  0.0000E+00  0.0000E+00  1.5280E-02  3.0482E-02  0.0000E+00  2.7732E-01  0.0000E+00
120  0.0000E+00  3.3447E-02  0.0000E+00  0.0000E+00  0.0000E+00  0.0000E+00  0.0000E+00  0.0000E+00  0.0000E+00
121  0.0000E+00  6.2043E-02  0.0000E+00  0.0000E+00  0.0000E+00  0.0000E+00  0.0000E+00  0.0000E+00  0.0000E+00
122  0.0000E+00  1.3498E-01  4.5159E-01  0.0000E+00  1.4080E-01  0.0000E+00  0.0000E+00  7.7661E-01  1.9634E-02
123  0.0000E+00  1.0831E-01  0.0000E+00  4.2846E-01  0.0000E+00  0.0000E+00  0.0000E+00  8.2907E-01  3.1573E-01
124  0.0000E+00  6.0531E-01  0.0000E+00  3.5308E-01  0.0000E+00  0.0000E+00  0.0000E+00  0.0000E+00  0.0000E+00
125  0.0000E+00  2.6763E-01  2.3179E-01  0.0000E+00  0.0000E+00  0.0000E+00  0.0000E+00  5.6947E-01  0.0000E+00
126  0.0000E+00  7.3321E-06  0.0000E+00  6.2133E-06  0.0000E+00  0.0000E+00  0.0000E+00  0.0000E+00  0.0000E+00
127  0.0000E+00  1.4333E-05  3.0660E-05  0.0000E+00  1.1854E-04  0.0000E+00  0.0000E+00  0.0000E+00  0.0000E+00
128  0.0000E+00  3.9457E-05  3.4599E-04  0.0000E+00  3.2840E-05  3.6419E-04  0.0000E+00  0.0000E+00  0.0000E+00
129  0.0000E+00  1.3393E-05  0.0000E+00  0.0000E+00  0.0000E+00  0.0000E+00  0.0000E+00  0.0000E+00  0.0000E+00
130  0.0000E+00  5.6003E-05  0.0000E+00  0.0000E+00  0.0000E+00  0.0000E+00  0.0000E+00  0.0000E+00  0.0000E+00
131  0.0000E+00  3.7943E-05  0.0000E+00  0.0000E+00  0.0000E+00  0.0000E+00  0.0000E+00  0.0000E+00  0.0000E+00
132  0.0000E+00  2.5325E-05  0.0000E+00  0.0000E+00  0.0000E+00  0.0000E+00  0.0000E+00  0.0000E+00  0.0000E+00
133  0.0000E+00  4.5637E-05  0.0000E+00  0.0000E+00  0.0000E+00  0.0000E+00  0.0000E+00  0.0000E+00  0.0000E+00
134  0.0000E+00  1.0908E-04  0.0000E+00  0.0000E+00  0.0000E+00  0.0000E+00  0.0000E+00  0.0000E+00  0.0000E+00
135  0.0000E+00  1.4217E-04  0.0000E+00  0.0000E+00  0.0000E+00  0.0000E+00  0.0000E+00  0.0000E+00  0.0000E+00
136  0.0000E+00  2.8635E-04  0.0000E+00  0.0000E+00  0.0000E+00  0.0000E+00  3.4200E-05  0.0000E+00  0.0000E+00
137  0.0000E+00  3.7976E-04  2.4769E-03  0.0000E+00  0.0000E+00  0.0000E+00  0.0000E+00  0.0000E+00  0.0000E+00
138  0.0000E+00  4.3146E-04  0.0000E+00  0.0000E+00  0.0000E+00  2.6524E-03  0.0000E+00  0.0000E+00  0.0000E+00
139  0.0000E+00  1.2304E-03  0.0000E+00  0.0000E+00  0.0000E+00  0.0000E+00  0.0000E+00  1.1202E-02  0.0000E+00
140  0.0000E+00  6.9860E-03  0.0000E+00  0.0000E+00  0.0000E+00  6.2986E-02  0.0000E+00  0.0000E+00  0.0000E+00
141  0.0000E+00  2.2893E-02  0.0000E+00  2.9940E-02  0.0000E+00  0.0000E+00  0.0000E+00  0.0000E+00  0.0000E+00
142  0.0000E+00  6.6219E-02  0.0000E+00  0.0000E+00  0.0000E+00  0.0000E+00  0.0000E+00  1.2898E-02  8.9076E-02
143  0.0000E+00  7.7675E-02  0.0000E+00  0.0000E+00  0.0000E+00  0.0000E+00  0.0000E+00  0.0000E+00  2.8594E-01
144  4.4665E+00  1.3382E+00  1.5129E+00  1.3578E+00  1.0695E+00  1.5324E+00  1.2715E+00  1.1099E+00  1.7075E+00
145  3.9123E+00  2.2524E+00  2.4906E+00  2.9714E+00  2.3987E+00  2.3472E+00  2.8175E+00  2.4451E+00  2.2578E+00
146  5.9098E+00  2.8934E+00  3.7094E+00  3.1434E+00  3.3812E+00  2.7392E+00  2.4304E+00  2.9583E+00  4.3356E+00
147  4.9902E+00  3.6842E+00  3.8239E+00  3.5468E+00  4.2490E+00  5.7026E+00  4.2055E+00  2.9196E+00  3.6577E+00
148  5.5893E+00  4.2398E+00  3.7892E+00  3.0151E+00  4.3998E+00  5.0686E+00  5.8279E+00  3.4672E+00  3.8461E+00
149  3.4238E+00  4.3222E+00  4.3678E+00  4.1071E+00  5.2251E+00  5.8571E+00  4.0154E+00  4.3059E+00  4.2146E+00
150  5.6939E+00  5.5420E+00  6.4319E+00  7.5943E+00  7.1328E+00  4.4438E+00  5.2691E+00  6.3089E+00  5.8294E+00

# AV, chi2 & Mass for <> & i_chain = 1 ...  7 solutions
AV       0.8332      0.8209      0.8230      0.8286      0.8238      0.8272      0.8198      0.8225      0.8199
chi2 2.0910E+00  2.1666E+00  2.1494E+00  2.1386E+00  2.1470E+00  2.1428E+00  2.1476E+00  2.1505E+00  2.1460E+00
Mass 3.6841E-10  3.8840E-10  3.8291E-10  3.8996E-10  3.9123E-10  3.8480E-10  3.8687E-10  3.8842E-10  3.8739E-10
 -27.85                                  [v0_min (km/s) before EX0s...]
  98.83                                  [vd_min (km/s) before EX0s...]


## Synthetic spectrum (Best Model) ##l_obs f_obs f_syn wei
 3070    [Nl_obs]
 3359.00    0.00000   0.43982   -2.000
 3360.00    0.00000   0.43387   -2.000
 3361.00    0.23162   0.44336   -1.000
 3362.00    0.28353   0.46272   -1.000
 3363.00    0.31250   0.48203   -1.000
 3364.00    0.31140   0.49258   -1.000
 3365.00    0.32200   0.49222   -1.000
 3366.00    0.31911   0.48528   -1.000
 3367.00    0.29619   0.47642   -1.000
 3368.00    0.31458   0.46709   -1.000
 3369.00    0.30489   0.45701   -1.000
 3370.00    0.29314   0.44766   -1.000
 3371.00    0.29272   0.44363   -1.000
 3372.00    0.29005   0.44912   -1.000
 3373.00    0.32252   0.46356   -1.000
 3374.00    0.33784   0.48184   -1.000
 3375.00    0.33199   0.49698   -1.000
 3376.00    0.34882   0.50345   -1.000
 3377.00    0.36521   0.50042   -1.000
 3378.00    0.35342   0.49272   -1.000
 3379.00    0.35277   0.48712   -1.000
 3380.00    0.36174   0.48723   -1.000
 3381.00    0.36950   0.49189   -1.000
 3382.00    0.35824   0.49808   -1.000
 3383.00    0.36124   0.50369   -1.000
 3384.00    0.36886   0.50764   -1.000
 3385.00    0.39931   0.50847   -1.000
 3386.00    0.40512   0.50547   -1.000
 3387.00    0.38426   0.50138   -1.000
 3388.00    0.41392   0.50059   -1.000
 3389.00    0.42758   0.50387   -1.000
 3390.00    0.41164   0.50760   -1.000
 3391.00    0.41422   0.50795   -1.000
 3392.00    0.40886   0.50558   -1.000
 3393.00    0.42260   0.50543   -1.000
 3394.00    0.42237   0.51111   -1.000
 3395.00    0.42772   0.52151   -1.000
 3396.00    0.44763   0.53288   -1.000
 3397.00    0.44618   0.54178   -1.000
 3398.00    0.48813   0.54587   -1.000
 3399.00    0.46897   0.54414   -1.000
 3400.00    0.46761   0.53700   -1.000
 3401.00    0.46533   0.52618   -1.000
 3402.00    0.46104   0.51527   -1.000
 3403.00    0.45255   0.50818   -1.000
 3404.00    0.45126   0.50589   -1.000
 3405.00    0.46573   0.50558   -1.000
 3406.00    0.46142   0.50387   -1.000
 3407.00    0.44575   0.50051   -1.000
 3408.00    0.43466   0.49872   -1.000
 3409.00    0.44239   0.50052   -1.000
 3410.00    0.45005   0.50331   -1.000
 3411.00    0.44995   0.50327   -1.000
 3412.00    0.44494   0.50053   -1.000
 3413.00    0.45794   0.49895   -1.000
 3414.00    0.44278   0.50204   -1.000
 3415.00    0.43410   0.50973   -1.000
 3416.00    0.44709   0.51915   -1.000
 3417.00    0.46048   0.52800   -1.000
 3418.00    0.47198   0.53553   -1.000
 3419.00    0.49525   0.54098   -1.000
 3420.00    0.48605   0.54259   -1.000
 3421.00    0.47436   0.53860   -1.000
 3422.00    0.46727   0.53033   -1.000
 3423.00    0.47485   0.52258   -1.000
 3424.00    0.49171   0.51968   -1.000
 3425.00    0.48616   0.52226   -1.000
 3426.00    0.48036   0.52893   -1.000
 3427.00    0.46477   0.53879   -1.000
 3428.00    0.48598   0.54991   -1.000
 3429.00    0.49005   0.55726   -1.000
 3430.00    0.50818   0.55572   -1.000
 3431.00    0.51524   0.54626   -1.000
 3432.00    0.49625   0.53667   -1.000
 3433.00    0.48820   0.53456   -1.000
 3434.00    0.49753   0.54027   -1.000
 3435.00    0.51472   0.54685   -1.000
 3436.00    0.51808   0.54707   -1.000
 3437.00    0.50852   0.53926   -1.000
 3438.00    0.49703   0.52617   -1.000
 3439.00    0.46958   0.51101   -1.000
 3440.00    0.44060   0.49654   -1.000
 3441.00    0.44331   0.48600   -1.000
 3442.00    0.46140   0.48217  187.632
 3443.00    0.46404   0.48553   -1.000
 3444.00    0.48230   0.49467  188.289
 3445.00    0.48744   0.50814   -1.000
 3446.00    0.48765   0.52443   -1.000
 3447.00    0.50806   0.54041   -1.000
 3448.00    0.52089   0.55103   -1.000
 3449.00    0.52840   0.55159   -1.000
 3450.00    0.51919   0.54200   -1.000
 3451.00    0.53408   0.52852   -1.000
 3452.00    0.51948   0.51919  897.644
 3453.00    0.51697   0.51761  897.644
 3454.00    0.51478   0.52167   -1.000
 3455.00    0.52612   0.52647  897.644
 3456.00    0.52286   0.52792  897.644
 3457.00    0.52487   0.52476  897.644
 3458.00    0.52925   0.51823   -1.000
 3459.00    0.52843   0.51083   -1.000
 3460.00    0.51371   0.50602  176.542
 3461.00    0.51920   0.50720  153.504
 3462.00    0.53177   0.51400   -1.000
 3463.00    0.54062   0.52123   -1.000
 3464.00    0.54602   0.52452   -1.000
 3465.00    0.54356   0.52528   -1.000
 3466.00    0.52774   0.52838  897.644
 3467.00    0.54323   0.53621   -1.000
 3468.00    0.55182   0.54641   -1.000
 3469.00    0.55776   0.55409   -1.000
 3470.00    0.56824   0.55538   -1.000
 3471.00    0.55466   0.54944   -1.000
 3472.00    0.53615   0.53781  897.644
 3473.00    0.53318   0.52365   -1.000
 3474.00    0.53148   0.51162   -1.000
 3475.00    0.51336   0.50618   -1.000
 3476.00    0.49971   0.50907  178.981
 3477.00    0.52254   0.51825  157.864
 3478.00    0.53719   0.52954  155.817
 3479.00    0.54032   0.53946  612.668
 3480.00    0.56536   0.54567   -1.000
 3481.00    0.55718   0.54686   -1.000
 3482.00    0.53761   0.54437   -1.000
 3483.00    0.54494   0.54229  897.644
 3484.00    0.54078   0.54448  897.644
 3485.00    0.55218   0.55073  897.644
 3486.00    0.57071   0.55618   -1.000
 3487.00    0.56790   0.55573   -1.000
 3488.00    0.56002   0.54845   -1.000
 3489.00    0.55013   0.53841   -1.000
 3490.00    0.53694   0.53189   -1.000
 3491.00    0.52789   0.53189  897.644
 3492.00    0.53596   0.53514  897.644
 3493.00    0.54337   0.53600   -1.000
 3494.00    0.55715   0.53207   -1.000
 3495.00    0.52909   0.52580   -1.000
 3496.00    0.52524   0.52230   -1.000
 3497.00    0.53150   0.52462   -1.000
 3498.00    0.53539   0.53100   -1.000
 3499.00    0.56257   0.53707   -1.000
 3500.00    0.57536   0.54039   -1.000
 3501.00    0.58683   0.54226   -1.000
 3502.00    0.57950   0.54424   -1.000
 3503.00    0.57445   0.54520   -1.000
 3504.00    0.56993   0.54335   -1.000
 3505.00    0.56897   0.53907   -1.000
 3506.00    0.55839   0.53467   -1.000
 3507.00    0.57504   0.53193   -1.000
 3508.00    0.58225   0.53077   -1.000
 3509.00    0.58492   0.52980   -1.000
 3510.00    0.56177   0.52769   -1.000
 3511.00    0.55696   0.52415   -1.000
 3512.00    0.56289   0.52033   -1.000
 3513.00    0.55530   0.51897   -1.000
 3514.00    0.56079   0.52334   -1.000
 3515.00    0.56572   0.53435   -1.000
 3516.00    0.56002   0.54812   -1.000
 3517.00    0.56993   0.55738   -1.000
 3518.00    0.56148   0.55711   -1.000
 3519.00    0.55753   0.54854   -1.000
 3520.00    0.56525   0.53731   -1.000
 3521.00    0.55603   0.52777   -1.000
 3522.00    0.54447   0.52027   -1.000
 3523.00    0.53889   0.51334   -1.000
 3524.00    0.51833   0.50770   -1.000
 3525.00    0.52255   0.50684   -1.000
 3526.00    0.52174   0.51317  156.192
 3527.00    0.53090   0.52531  156.299
 3528.00    0.53614   0.53937  584.070
 3529.00    0.55991   0.55123   -1.000
 3530.00    0.56370   0.55830   -1.000
 3531.00    0.56130   0.55974  897.644
 3532.00    0.56852   0.55624   -1.000
 3533.00    0.55802   0.55074   -1.000
 3534.00    0.57544   0.54776   -1.000
 3535.00    0.58434   0.55052   -1.000
 3536.00    0.57550   0.55857   -1.000
 3537.00    0.56912   0.56831  897.644
 3538.00    0.56977   0.57602   -1.000
 3539.00    0.57820   0.57987  897.644
 3540.00    0.58380   0.58029  897.644
 3541.00    0.57775   0.57964   -1.000
 3542.00    0.57556   0.58048   -1.000
 3543.00    0.57901   0.58305   -1.000
 3544.00    0.58255   0.58512   -1.000
 3545.00    0.58463   0.58481  897.644
 3546.00    0.58076   0.58261   -1.000
 3547.00    0.57911   0.58048  897.644
 3548.00    0.56540   0.58006   -1.000
 3549.00    0.54890   0.58167   -1.000
 3550.00    0.56074   0.58369   -1.000
 3551.00    0.56987   0.58324   -1.000
 3552.00    0.57015   0.57891   -1.000
 3553.00    0.55950   0.57295   -1.000
 3554.00    0.55507   0.56953   -1.000
 3555.00    0.56450   0.57082   -1.000
 3556.00    0.57164   0.57563   -1.000
 3557.00    0.55520   0.58075   -1.000
 3558.00    0.56681   0.58367   -1.000
 3559.00    0.56217   0.58452   -1.000
 3560.00    0.56207   0.58473   -1.000
 3561.00    0.56552   0.58403   -1.000
 3562.00    0.56086   0.57973   -1.000
 3563.00    0.54295   0.56962   -1.000
 3564.00    0.53566   0.55536   -1.000
 3565.00    0.52974   0.54202   -1.000
 3566.00    0.50191   0.53381   -1.000
 3567.00    0.51247   0.53048  158.300
 3568.00    0.51121   0.52817  157.990
 3569.00    0.49946   0.52363   -1.000
 3570.00    0.50514   0.51758  161.122
 3571.00    0.52149   0.51343  164.580
 3572.00    0.53059   0.51327  160.882
 3573.00    0.52498   0.51654  154.041
 3574.00    0.52363   0.52189  548.440
 3575.00    0.52716   0.52816  897.644
 3576.00    0.52591   0.53392   -1.000
 3577.00    0.53106   0.53718   -1.000
 3578.00    0.54070   0.53588   -1.000
 3579.00    0.53742   0.52964   -1.000
 3580.00    0.50877   0.52090  192.197
 3581.00    0.49583   0.51349  168.429
 3582.00    0.50584   0.50949  178.506
 3583.00    0.49151   0.50670  181.286
 3584.00    0.48776   0.50080  182.095
 3585.00    0.48534   0.49126  185.965
 3586.00    0.47475   0.48345  191.847
 3587.00    0.48191   0.48372  195.254
 3588.00    0.48517   0.49375  187.661
 3589.00    0.50000   0.50964  177.718
 3590.00    0.53281   0.52517  168.968
 3591.00    0.55315   0.53610  155.061
 3592.00    0.55349   0.54237   -1.000
 3593.00    0.55993   0.54708   -1.000
 3594.00    0.56925   0.55336   -1.000
 3595.00    0.56001   0.56158  897.644
 3596.00    0.56924   0.56963  897.644
 3597.00    0.58410   0.57559   -1.000
 3598.00    0.58806   0.57876   -1.000
 3599.00    0.59226   0.57840   -1.000
 3600.00    0.59572   0.57339   -1.000
 3601.00    0.57667   0.56440   -1.000
 3602.00    0.56429   0.55498   -1.000
 3603.00    0.55651   0.54906   -1.000
 3604.00    0.54986   0.54759  897.644
 3605.00    0.54820   0.54785  897.644
 3606.00    0.54317   0.54667  897.644
 3607.00    0.54841   0.54346   -1.000
 3608.00    0.54141   0.54000  897.644
 3609.00    0.53484   0.53839  897.644
 3610.00    0.55714   0.53961   -1.000
 3611.00    0.56037   0.54339   -1.000
 3612.00    0.55083   0.54899  897.644
 3613.00    0.53588   0.55614   -1.000
 3614.00    0.54795   0.56427   -1.000
 3615.00    0.57162   0.57009  897.644
 3616.00    0.57231   0.56902   -1.000
 3617.00    0.54191   0.56061   -1.000
 3618.00    0.51877   0.55067   -1.000
 3619.00    0.52565   0.54692   -1.000
 3620.00    0.54462   0.55228  186.108
 3621.00    0.56456   0.56321  512.154
 3622.00    0.57864   0.57446   -1.000
 3623.00    0.58103   0.58418  897.644
 3624.00    0.58680   0.59434   -1.000
 3625.00    0.59198   0.60646   -1.000
 3626.00    0.59948   0.61772   -1.000
 3627.00    0.60321   0.62151   -1.000
 3628.00    0.60387   0.61272   -1.000
 3629.00    0.58518   0.59318   -1.000
 3630.00    0.55724   0.57177   -1.000
 3631.00    0.53863   0.55856   -1.000
 3632.00    0.54867   0.55764   -1.000
 3633.00    0.55690   0.56508   -1.000
 3634.00    0.56489   0.57360   -1.000
 3635.00    0.57520   0.57961   -1.000
 3636.00    0.58199   0.58496  897.644
 3637.00    0.58587   0.59218   -1.000
 3638.00    0.59923   0.60006  897.644
 3639.00    0.60989   0.60487   -1.000
 3640.00    0.60399   0.60392  897.644
 3641.00    0.59835   0.59731  897.644
 3642.00    0.58205   0.58765   -1.000
 3643.00    0.57582   0.57822  897.644
 3644.00    0.57739   0.57102   -1.000
 3645.00    0.56806   0.56628  897.644
 3646.00    0.56053   0.56360   -1.000
 3647.00    0.56183   0.56284  897.644
 3648.00    0.56440   0.56397  897.644
 3649.00    0.57223   0.56717   -1.000
 3650.00    0.57388   0.57292  897.644
 3651.00    0.57252   0.58146   -1.000
 3652.00    0.58929   0.59189   -1.000
 3653.00    0.60380   0.60263  897.644
 3654.00    0.60919   0.61252   -1.000
 3655.00    0.61765   0.62083   -1.000
 3656.00    0.60848   0.62682   -1.000
 3657.00    0.60009   0.62992   -1.000
 3658.00    0.60643   0.63016   -1.000
 3659.00    0.61086   0.62787   -1.000
 3660.00    0.61544   0.62342   -1.000
 3661.00    0.61139   0.61778   -1.000
 3662.00    0.60512   0.61286   -1.000
 3663.00    0.60010   0.61047   -1.000
 3664.00    0.61190   0.61078  897.644
 3665.00    0.61204   0.61209  897.644
 3666.00    0.61922   0.61214   -1.000
 3667.00    0.62818   0.60993   -1.000
 3668.00    0.61592   0.60661   -1.000
 3669.00    0.60916   0.60472   -1.000
 3670.00    0.59845   0.60629   -1.000
 3671.00    0.61540   0.61108  897.644
 3672.00    0.61892   0.61638  897.644
 3673.00    0.61266   0.61876   -1.000
 3674.00    0.61080   0.61624   -1.000
 3675.00    0.61085   0.60895  897.644
 3676.00    0.60326   0.59876   -1.000
 3677.00    0.58938   0.58899  897.644
 3678.00    0.57877   0.58316   -1.000
 3679.00    0.58910   0.58278   -1.000
 3680.00    0.59842   0.58631   -1.000
 3681.00    0.60365   0.59064   -1.000
 3682.00    0.60553   0.59301   -1.000
 3683.00    0.59691   0.59190   -1.000
 3684.00    0.59396   0.58736   -1.000
 3685.00    0.58051   0.58186  897.644
 3686.00    0.56868   0.58026   -1.000
 3687.00    0.57047   0.58664   -1.000
 3688.00    0.58583   0.59995   -1.000
 3689.00    0.60252   0.61405   -1.000
 3690.00    0.60830   0.62324   -1.000
 3691.00    0.60975   0.62695   -1.000
 3692.00    0.61567   0.62837   -1.000
 3693.00    0.62800   0.62978  897.644
 3694.00    0.63042   0.63048  897.644
 3695.00    0.62160   0.62907   -1.000
 3696.00    0.61201   0.62741   -1.000
 3697.00    0.61713   0.63085   -1.000
 3698.00    0.64476   0.64240  897.644
 3699.00    0.66926   0.65706   -1.000
 3700.00    0.67153   0.66341   -1.000
 3701.00    0.64211   0.65234   -1.000
 3702.00    0.61539   0.62519   -1.000
 3703.00    0.59413   0.59348  897.644
 3704.00    0.57187   0.57094  897.644
 3705.00    0.56156   0.56493  897.644
 3706.00    0.57715   0.57309   -1.000
 3707.00    0.58850   0.58618   -1.000
 3708.00    0.59941   0.59440   -1.000
 3709.00    0.60042   0.59356   -1.000
 3710.00    0.59392   0.58772   -1.000
 3711.00    0.59663   0.58602   -1.000
 3712.00    0.60976   0.59616   -1.000
 3713.00    0.63708   0.61891   -1.000
 3714.00    0.65630   0.64733   -1.000
 3715.00    0.66236   0.67119   -1.000
 3716.00    0.68102   0.68208  897.644
 3717.00    0.67393   0.67464  897.644
 3718.00    0.64102   0.64692   -1.000
 3719.00    0.59529   0.60417   -1.000
 3720.00    0.53925   0.56116   -1.000
 3721.00    0.50523   0.53583   -1.000
 3722.00    0.52989   0.53891  197.271
 3723.00    0.58223   0.56822   -1.000
 3724.00    0.62906   0.60985   -1.000
 3725.00    0.65254   0.64669   -1.000
 3726.00    0.66159   0.67003   -1.000
 3727.00    0.65749   0.68195   -1.000
 3728.00    0.66333   0.68677   -1.000
 3729.00    0.67232   0.68340   -1.000
 3730.00    0.66270   0.66557  897.644
 3731.00    0.63058   0.62919  897.644
 3732.00    0.57958   0.57988  897.644
 3733.00    0.53619   0.53238   -1.000
 3734.00    0.50825   0.50304  193.877
 3735.00    0.50166   0.50220  164.594
 3736.00    0.52195   0.52963  174.212
 3737.00    0.57517   0.57570  169.003
 3738.00    0.62949   0.62707  154.714
 3739.00    0.66396   0.67103  451.031
 3740.00    0.68765   0.69823   -1.000
 3741.00    0.71193   0.70589   -1.000
 3742.00    0.69328   0.69794   -1.000
 3743.00    0.68204   0.68073  897.644
 3744.00    0.66441   0.65834   -1.000
 3745.00    0.63236   0.63154  897.644
 3746.00    0.59741   0.59977  897.644
 3747.00    0.56462   0.56451  897.644
 3748.00    0.53000   0.53217  198.271
 3749.00    0.50956   0.51409  160.679
 3750.00    0.51373   0.52091  164.584
 3751.00    0.55645   0.55411  490.016
 3752.00    0.61405   0.60365   -1.000
 3753.00    0.66091   0.65410   -1.000
 3754.00    0.70201   0.69237   -1.000
 3755.00    0.72825   0.71141   -1.000
 3756.00    0.72407   0.71081   -1.000
 3757.00    0.68908   0.69711   -1.000
 3758.00    0.67392   0.68150   -1.000
 3759.00    0.67422   0.67343  897.644
 3760.00    0.68490   0.67567   -1.000
 3761.00    0.69749   0.68463   -1.000
 3762.00    0.71277   0.69380   -1.000
 3763.00    0.71172   0.69759   -1.000
 3764.00    0.70243   0.69321   -1.000
 3765.00    0.70523   0.68009   -1.000
 3766.00    0.67997   0.65834   -1.000
 3767.00    0.65775   0.62882   -1.000
 3768.00    0.62695   0.59570   -1.000
 3769.00    0.58003   0.56795   -1.000
 3770.00    0.56575   0.55685   -1.000
 3771.00    0.58876   0.56894   -1.000
 3772.00    0.63126   0.60005   -1.000
 3773.00    0.66242   0.63778   -1.000
 3774.00    0.68775   0.67107   -1.000
 3775.00    0.70329   0.69711   -1.000
 3776.00    0.71680   0.71971   -1.000
 3777.00    0.74261   0.74293  897.644
 3778.00    0.76889   0.76687  897.644
 3779.00    0.78304   0.78857   -1.000
 3780.00    0.79097   0.80465   -1.000
 3781.00    0.80356   0.81309   -1.000
 3782.00    0.80606   0.81406   -1.000
 3783.00    0.80334   0.80906   -1.000
 3784.00    0.80266   0.79901  897.644
 3785.00    0.78561   0.78440  897.644
 3786.00    0.76596   0.76728   -1.000
 3787.00    0.74917   0.75190   -1.000
 3788.00    0.74686   0.74206  897.644
 3789.00    0.74844   0.73765   -1.000
 3790.00    0.74517   0.73438   -1.000
 3791.00    0.73829   0.72648   -1.000
 3792.00    0.71315   0.70939   -1.000
 3793.00    0.68882   0.68125   -1.000
 3794.00    0.65889   0.64343   -1.000
 3795.00    0.62538   0.60050   -1.000
 3796.00    0.57929   0.56018   -1.000
 3797.00    0.53532   0.53355  897.644
 3798.00    0.53827   0.53238   -1.000
 3799.00    0.57333   0.56124   -1.000
 3800.00    0.61650   0.61192  897.644
 3801.00    0.67022   0.66792  164.901
 3802.00    0.70779   0.71478  116.862
 3803.00    0.74095   0.74619  110.695
 3804.00    0.75764   0.76308  107.665
 3805.00    0.76442   0.77065  106.616
 3806.00    0.76104   0.77620  107.693
 3807.00    0.75396   0.78570   -1.000
 3808.00    0.77856   0.80008  113.919
 3809.00    0.80822   0.81427  112.226
 3810.00    0.81764   0.82025  108.170
 3811.00    0.80661   0.81264  106.186
 3812.00    0.79155   0.79352  107.442
 3813.00    0.78082   0.77202  112.311
 3814.00    0.75902   0.75840  119.099
 3815.00    0.75835   0.75723  126.330
 3816.00    0.77238   0.76458  132.570
 3817.00    0.78152   0.77109  132.378
 3818.00    0.77830   0.76929  127.954
 3819.00    0.75449   0.75982  128.261
 3820.00    0.74463   0.75021  135.517
 3821.00    0.75514   0.74605  143.315
 3822.00    0.75782   0.74413  142.725
 3823.00    0.74526   0.73663  136.987
 3824.00    0.72147   0.72127  136.349
 3825.00    0.69587   0.70348  145.424
 3826.00    0.68100   0.68899   21.125
 3827.00    0.68222   0.67849   16.093
 3828.00    0.67462   0.66887   16.080
 3829.00    0.66649   0.65589   15.848
 3830.00    0.64984   0.63525   15.588
 3831.00    0.61774   0.60400   15.663
 3832.00    0.58757   0.56362   16.242
 3833.00    0.54523   0.52230   17.398
 3834.00    0.50876   0.49212   18.170
 3835.00    0.50032   0.48210   18.044
 3836.00    0.51944   0.49370   17.402
 3837.00    0.54790   0.52160   16.934
 3838.00    0.57460   0.55791   17.101
 3839.00    0.59845   0.59685   17.509
 3840.00    0.63552   0.63638   17.390
 3841.00    0.68306   0.67582   16.563
 3842.00    0.72732   0.71327   44.802
 3843.00    0.75272   0.74558  137.199
 3844.00    0.76391   0.77041  127.337
 3845.00    0.77994   0.78799  123.482
 3846.00    0.78702   0.79983  122.899
 3847.00    0.79019   0.80650  122.860
 3848.00    0.79740   0.80846  123.012
 3849.00    0.79006   0.80872   -1.000
 3850.00    0.79004   0.81222   -1.000
 3851.00    0.79693   0.82101   -1.000
 3852.00    0.80916   0.83134   -1.000
 3853.00    0.82100   0.83693   -1.000
 3854.00    0.81887   0.83453   -1.000
 3855.00    0.80758   0.82586   -1.000
 3856.00    0.79010   0.81508   -1.000
 3857.00    0.78572   0.80568   -1.000
 3858.00    0.77278   0.80020   -1.000
 3859.00    0.75811   0.80109   20.268
 3860.00    0.76082   0.80918   15.680
 3861.00    0.78813   0.82150   15.695
 3862.00    0.82925   0.83263   42.076
 3863.00    0.84544   0.83884  129.148
 3864.00    0.84191   0.84047  121.350
 3865.00    0.83810   0.84072  120.474
 3866.00    0.83142   0.84245  122.491
 3867.00    0.82651   0.84536   -1.000
 3868.00    0.82438   0.84567   -1.000
 3869.00    0.80817   0.83916   -1.000
 3870.00    0.78806   0.82512   -1.000
 3871.00    0.76119   0.80784   -1.000
 3872.00    0.76220   0.79459   20.675
 3873.00    0.77431   0.79050   41.352
 3874.00    0.78734   0.79348  137.196
 3875.00    0.80381   0.79523  124.624
 3876.00    0.78708   0.78900  118.146
 3877.00    0.75463   0.77636  119.583
 3878.00    0.73768   0.76478   -1.000
 3879.00    0.74016   0.75902  137.233
 3880.00    0.72836   0.75642   -1.000
 3881.00    0.70778   0.75080   -1.000
 3882.00    0.70233   0.73832   -1.000
 3883.00    0.70891   0.71758  141.629
 3884.00    0.69907   0.68692  131.385
 3885.00    0.66740   0.64576  122.455
 3886.00    0.63356   0.59889   -1.000
 3887.00    0.59612   0.55780   -1.000
 3888.00    0.55571   0.53617  130.625
 3889.00    0.55839   0.54254  130.727
 3890.00    0.59681   0.57493  127.351
 3891.00    0.64600   0.62086  118.447
 3892.00    0.68999   0.66473  108.374
 3893.00    0.72082   0.69743  103.054
 3894.00    0.72904   0.71959  102.361
 3895.00    0.74204   0.73661  103.769
 3896.00    0.76170   0.75197  104.194
 3897.00    0.77765   0.76507  102.040
 3898.00    0.78906   0.77450   99.208
 3899.00    0.79370   0.78177   99.722
 3900.00    0.80642   0.78986  101.312
 3901.00    0.80914   0.79879  100.677
 3902.00    0.81549   0.80544   99.579
 3903.00    0.82290   0.80780  100.005
 3904.00    0.82114   0.80781  103.363
 3905.00    0.80761   0.81061  106.469
 3906.00    0.80258   0.82113  109.500
 3907.00    0.83184   0.84012  109.807
 3908.00    0.85931   0.86269  104.842
 3909.00    0.87556   0.88146   97.969
 3910.00    0.88352   0.89148   94.412
 3911.00    0.88247   0.89201   93.194
 3912.00    0.87588   0.88531   92.328
 3913.00    0.87299   0.87563   91.685
 3914.00    0.86531   0.86769   92.300
 3915.00    0.86686   0.86371   93.995
 3916.00    0.86316   0.86190   96.145
 3917.00    0.85632   0.85895   97.674
 3918.00    0.85156   0.85354   98.951
 3919.00    0.83886   0.84718  101.388
 3920.00    0.83354   0.84234  105.452
 3921.00    0.82505   0.84029  110.416
 3922.00    0.82448   0.84039  113.586
 3923.00    0.84114   0.84000  113.509
 3924.00    0.84869   0.83500  111.687
 3925.00    0.83171   0.82117  111.692
 3926.00    0.80041   0.79623  115.895
 3927.00    0.76224   0.76050  125.477
 3928.00    0.72166   0.71504  139.832
 3929.00    0.66583   0.65969   23.227
 3930.00    0.58641   0.59393   18.669
 3931.00    0.49417   0.52252   21.856
 3932.00    0.41338   0.46037   25.766
 3933.00    0.37559   0.42818   30.262
 3934.00    0.40640   0.43925   33.812
 3935.00    0.48636   0.48942   33.728
 3936.00    0.57859   0.56115   30.090
 3937.00    0.65573   0.63565   25.198
 3938.00    0.71562   0.70066   20.726
 3939.00    0.75722   0.75058   17.312
 3940.00    0.78168   0.78449   41.660
 3941.00    0.79484   0.80441  138.021
 3942.00    0.79671   0.81479  131.380
 3943.00    0.80039   0.82130   -1.000
 3944.00    0.81386   0.82831  128.685
 3945.00    0.83202   0.83695  124.083
 3946.00    0.84769   0.84503  114.107
 3947.00    0.85480   0.84955  106.337
 3948.00    0.85621   0.84976  103.689
 3949.00    0.86113   0.84754  102.858
 3950.00    0.86936   0.84537   99.972
 3951.00    0.86595   0.84506   96.555
 3952.00    0.86649   0.84718   95.899
 3953.00    0.87434   0.85007   97.046
 3954.00    0.86982   0.85012   96.286
 3955.00    0.85823   0.84510   94.056
 3956.00    0.84412   0.83666   94.034
 3957.00    0.83854   0.82800   96.763
 3958.00    0.84097   0.81893   98.978
 3959.00    0.82987   0.80495   98.224
 3960.00    0.79170   0.78215   99.230
 3961.00    0.75415   0.75091  107.171
 3962.00    0.72139   0.71384  120.388
 3963.00    0.68310   0.67061  134.185
 3964.00    0.63706   0.61663   -1.000
 3965.00    0.56360   0.54818   22.248
 3966.00    0.46140   0.46970   17.547
 3967.00    0.35874   0.39662   21.277
 3968.00    0.30505   0.34979   26.121
 3969.00    0.31181   0.34414   29.902
 3970.00    0.37087   0.38051   29.334
 3971.00    0.46081   0.44628   25.005
 3972.00    0.55314   0.52332   20.553
 3973.00    0.62072   0.59726   17.108
 3974.00    0.68710   0.66119   39.837
 3975.00    0.73794   0.71379   -1.000
 3976.00    0.76867   0.75624  114.961
 3977.00    0.80506   0.79027  105.243
 3978.00    0.84005   0.81677   98.439
 3979.00    0.86157   0.83541   93.097
 3980.00    0.86676   0.84627   88.120
 3981.00    0.86218   0.85213   85.913
 3982.00    0.87976   0.85798   86.031
 3983.00    0.89525   0.86744   87.382
 3984.00    0.90865   0.88008   87.489
 3985.00    0.92476   0.89268   86.009
 3986.00    0.92441   0.90307   84.271
 3987.00    0.92305   0.91143   82.816
 3988.00    0.92870   0.91859   81.305
 3989.00    0.93879   0.92524   80.277
 3990.00    0.94557   0.93237   80.245
 3991.00    0.95351   0.94047   79.999
 3992.00    0.96607   0.94796   78.548
 3993.00    0.97383   0.95134   76.649
 3994.00    0.96842   0.94779   76.686
 3995.00    0.94989   0.93837   78.276
 3996.00    0.93201   0.92845   80.121
 3997.00    0.93372   0.92423   81.756
 3998.00    0.94395   0.92813   82.721
 3999.00    0.95684   0.93747   81.645
 4000.00    0.97077   0.94705   78.442
 4001.00    0.97699   0.95247   75.468
 4002.00    0.98480   0.95170   73.846
 4003.00    0.97556   0.94542   72.763
 4004.00    0.95342   0.93736   73.404
 4005.00    0.93895   0.93358   77.274
 4006.00    0.94086   0.93837   81.749
 4007.00    0.96558   0.95042   82.649
 4008.00    0.98828   0.96393   79.073
 4009.00    0.98646   0.97365   75.448
 4010.00    0.98992   0.97802   73.837
 4011.00    0.97592   0.97863   73.003
 4012.00    1.00378   0.97833   72.586
 4013.00    1.00487   0.97963   72.869
 4014.00    0.99395   0.98340   73.316
 4015.00    1.00366   0.98882   73.068
 4016.00    1.01165   0.99466   72.172
 4017.00    1.00634   1.00029   72.256
 4018.00    1.00991   1.00531   73.086
 4019.00    1.00979   1.00841   73.142
 4020.00    1.00596   1.00778   72.240
 4021.00    1.00491   1.00269   71.985
 4022.00    0.99890   0.99457   72.772
 4023.00    0.99357   0.98674   73.420
 4024.00    0.99283   0.98331   73.877
 4025.00    0.98560   0.98649   74.427
 4026.00    1.00000   0.99366   73.356
 4027.00    1.00772   0.99830   70.957
 4028.00    1.00670   0.99505   69.157
 4029.00    0.99258   0.98388   69.130
 4030.00    0.96295   0.96981   71.270
 4031.00    0.95156   0.95919   75.549
 4032.00    0.95937   0.95615   79.442
 4033.00    0.95951   0.96161   81.165
 4034.00    0.96788   0.97448   80.760
 4035.00    0.98822   0.99239   78.611
 4036.00    1.01176   1.01137   75.114
 4037.00    1.02353   1.02621   71.386
 4038.00    1.02647   1.03313   68.547
 4039.00    1.02516   1.03226   67.590
 4040.00    1.01307   1.02653   68.490
 4041.00    1.00799   1.01772   70.093
 4042.00    1.00737   1.00458   71.164
 4043.00    0.99670   0.98619   71.640
 4044.00    0.96888   0.96684   74.042
 4045.00    0.93982   0.95564   80.072
 4046.00    0.94323   0.95939   86.925
 4047.00    0.98017   0.97605   86.677
 4048.00    1.01481   0.99641   79.639
 4049.00    1.02165   1.01181   73.819
 4050.00    1.01792   1.01871   70.957
 4051.00    1.01337   1.01789   69.760
 4052.00    1.00623   1.01223   69.823
 4053.00    0.99729   1.00541   71.277
 4054.00    0.99667   1.00046   73.186
 4055.00    0.99518   0.99854   74.580
 4056.00    0.99397   0.99953   75.355
 4057.00    0.99890   1.00332   75.889
 4058.00    0.99899   1.00867   76.590
 4059.00    1.00251   1.01159   76.259
 4060.00    1.00940   1.00723   74.074
 4061.00    1.00120   0.99435   72.175
 4062.00    0.97929   0.97698   72.521
 4063.00    0.95935   0.96184   76.461
 4064.00    0.95750   0.95427   81.954
 4065.00    0.96748   0.95531   83.012
 4066.00    0.97364   0.96170   79.743
 4067.00    0.98371   0.96853   77.101
 4068.00    1.00310   0.97154   75.106
 4069.00    1.00758   0.96835   72.802
 4070.00    0.99469   0.96012   71.387
 4071.00    0.98200   0.95191   72.933
 4072.00    0.97625   0.94853   76.182
 4073.00    0.97784   0.94904   77.018
 4074.00    0.97238   0.94706   74.884
 4075.00    0.96308   0.93791   73.647
 4076.00    0.93797   0.92472   75.863
 4077.00    0.92078   0.91690   81.424
 4078.00    0.93262   0.92183   85.519
 4079.00    0.95633   0.93813   84.453
 4080.00    0.97227   0.95675   79.563
 4081.00    0.98249   0.96839   74.042
 4082.00    0.97843   0.96985   70.827
 4083.00    0.96049   0.96446   70.894
 4084.00    0.95139   0.95856   72.946
 4085.00    0.96221   0.95720   74.569
 4086.00    0.97286   0.96162   74.209
 4087.00    0.97854   0.96906   72.140
 4088.00    0.98260   0.97499   69.455
 4089.00    0.97810   0.97610   67.064
 4090.00    0.97354   0.97186   66.518
 4091.00    0.96706   0.96317   67.555
 4092.00    0.95566   0.95075   68.884
 4093.00    0.94616   0.93460   69.839
 4094.00    0.93408   0.91449   70.146
 4095.00    0.90998   0.89002   71.000
 4096.00    0.87919   0.86038   73.597
 4097.00    0.85548   0.82401   76.425
 4098.00    0.83406   0.77920   -1.000
 4099.00    0.78635   0.72813   -1.000
 4100.00    0.71511   0.68112   81.940
 4101.00    0.65565   0.65494   88.492
 4102.00    0.65510   0.66223   95.472
 4103.00    0.71393   0.70142   96.459
 4104.00    0.78600   0.75692   90.239
 4105.00    0.84299   0.81017   82.938
 4106.00    0.87812   0.85017   77.800
 4107.00    0.89104   0.87571   74.818
 4108.00    0.89607   0.89125   73.798
 4109.00    0.90505   0.90241   74.150
 4110.00    0.91998   0.91358   75.357
 4111.00    0.93408   0.92694   76.615
 4112.00    0.95107   0.94245   76.387
 4113.00    0.96381   0.95840   74.897
 4114.00    0.97196   0.97202   73.456
 4115.00    0.98052   0.98031   72.285
 4116.00    0.98573   0.98171   71.438
 4117.00    0.97907   0.97752   71.424
 4118.00    0.96605   0.97160   72.546
 4119.00    0.96060   0.96792   74.702
 4120.00    0.96122   0.96805   76.187
 4121.00    0.96755   0.97113   75.859
 4122.00    0.97913   0.97611   74.990
 4123.00    0.98899   0.98255   74.766
 4124.00    0.99726   0.98897   74.285
 4125.00    1.00376   0.99250   73.132
 4126.00    0.99974   0.99128   72.502
 4127.00    0.99394   0.98646   73.057
 4128.00    0.98886   0.98086   74.446
 4129.00    0.98326   0.97581   75.430
 4130.00    0.97971   0.97090   75.883
 4131.00    0.97025   0.96686   76.631
 4132.00    0.95863   0.96690   78.536
 4133.00    0.96059   0.97390   81.048
 4134.00    0.97260   0.98732   82.111
 4135.00    0.99189   1.00369   80.402
 4136.00    1.01571   1.01941   76.780
 4137.00    1.02768   1.03227   73.769
 4138.00    1.03231   1.04061   72.164
 4139.00    1.03288   1.04203   71.038
 4140.00    1.02714   1.03451   70.458
 4141.00    1.01489   1.01919   71.286
 4142.00    0.98712   1.00198   74.225
 4143.00    0.96864   0.99119   79.670
 4144.00    0.97659   0.99183   84.891
 4145.00    0.99321   1.00154   84.443
 4146.00    1.00564   1.01288   79.947
 4147.00    1.01430   1.01991   76.281
 4148.00    1.01285   1.02200   74.767
 4149.00    1.00176   1.02192   75.410
 4150.00    0.99856   1.02157   77.316
 4151.00    1.00567   1.02041   78.737
 4152.00    1.00441   1.01734   78.709
 4153.00    0.99125   1.01304   78.190
 4154.00    0.97035   1.01006   -1.000
 4155.00    1.03963   1.01081   79.601
 4156.00    1.22709   1.01591   -1.000
 4157.00    1.14532   1.02385   -1.000
 4158.00    0.83102   1.03187   -1.000
 4159.00    0.85792   1.03761   -1.000
 4160.00    1.03596   1.04060   75.397
 4161.00    1.04819   1.04230   75.425
 4162.00    1.02262   1.04455   73.752
 4163.00    1.02590   1.04778   72.377
 4164.00    1.03650   1.05054   72.375
 4165.00    1.03223   1.05090   73.309
 4166.00    1.01647   1.04855   -1.000
 4167.00    1.01316   1.04456   -1.000
 4168.00    1.02007   1.03891   77.312
 4169.00    1.02268   1.02921   77.369
 4170.00    1.00697   1.01344   76.270
 4171.00    0.98281   0.99434   76.261
 4172.00    0.96108   0.97934   79.420
 4173.00    0.95196   0.97508   -1.000
 4174.00    0.95407   0.98154   -1.000
 4175.00    0.96387   0.99180   -1.000
 4176.00    0.97116   0.99904   -1.000
 4177.00    0.97211   1.00235   -1.000
 4178.00    0.97718   1.00559   -1.000
 4179.00    0.98545   1.01124   -1.000
 4180.00    1.00133   1.01743   79.526
 4181.00    1.00966   1.02167   78.565
 4182.00    1.00504   1.02414   78.329
 4183.00    1.00417   1.02603   77.836
 4184.00    1.01254   1.02685   76.521
 4185.00    1.01451   1.02503   75.085
 4186.00    1.00347   1.02093   74.658
 4187.00    0.98585   1.01759   -1.000
 4188.00    0.98616   1.01745   -1.000
 4189.00    0.99867   1.02007   79.083
 4190.00    1.00606   1.02376   77.642
 4191.00    1.00941   1.02775   76.667
 4192.00    1.01326   1.03157   75.873
 4193.00    1.02094   1.03309   74.449
 4194.00    1.02442   1.02914   73.214
 4195.00    1.00596   1.01874   74.175
 4196.00    0.98238   1.00438   77.480
 4197.00    0.96962   0.99041   80.674
 4198.00    0.96049   0.98060   82.545
 4199.00    0.96021   0.97651   83.185
 4200.00    0.96705   0.97699   82.660
 4201.00    0.96676   0.98023   81.467
 4202.00    0.97053   0.98570   80.828
 4203.00    0.98013   0.99345   80.440
 4204.00    0.98251   1.00277   79.442
 4205.00    0.98313   1.01253   -1.000
 4206.00    0.99081   1.02148   -1.000
 4207.00    1.00121   1.02823   75.645
 4208.00    1.01193   1.03222   74.006
 4209.00    1.01384   1.03450   73.239
 4210.00    1.01183   1.03660   73.310
 4211.00    1.01500   1.03835   73.342
 4212.00    1.01566   1.03697   72.951
 4213.00    1.00770   1.03001   73.010
 4214.00    0.99576   1.01932   74.665
 4215.00    0.97704   1.01086   -1.000
 4216.00    0.97461   1.01050   -1.000
 4217.00    0.99094   1.01866   79.593
 4218.00    1.00781   1.03055   75.295
 4219.00    1.02091   1.04036   71.369
 4220.00    1.03114   1.04395   68.963
 4221.00    1.02915   1.03865   67.790
 4222.00    1.01096   1.02287   67.905
 4223.00    0.98531   0.99739   69.877
 4224.00    0.95516   0.96772   74.036
 4225.00    0.91817   0.94355   -1.000
 4226.00    0.89564   0.93564   -1.000
 4227.00    0.90692   0.94898   -1.000
 4228.00    0.94963   0.97781   -1.000
 4229.00    0.99906   1.00778   87.695
 4230.00    1.02093   1.02593   77.576
 4231.00    1.01571   1.02859   72.110
 4232.00    0.99887   1.02098   70.370
 4233.00    0.98733   1.01149   71.180
 4234.00    0.98715   1.00605   72.995
 4235.00    0.98429   1.00587   74.190
 4236.00    0.98012   1.00958   75.518
 4237.00    0.98096   1.01600   -1.000
 4238.00    0.98946   1.02429   -1.000
 4239.00    0.99648   1.03371   -1.000
 4240.00    1.00538   1.04300   -1.000
 4241.00    1.01172   1.05070   -1.000
 4242.00    1.00729   1.05560   -1.000
 4243.00    1.01201   1.05641   -1.000
 4244.00    1.01734   1.05186   70.639
 4245.00    1.00755   1.04158   69.231
 4246.00    0.98946   1.02800   -1.000
 4247.00    0.97414   1.01555   -1.000
 4248.00    0.96318   1.00771   -1.000
 4249.00    0.95858   1.00552   -1.000
 4250.00    0.96302   1.00852   -1.000
 4251.00    0.97875   1.01469   -1.000
 4252.00    0.99496   1.02093   76.561
 4253.00    1.00309   1.02547   74.335
 4254.00    1.00046   1.02895   73.767
 4255.00    0.99474   1.03233   -1.000
 4256.00    1.00224   1.03409   75.460
 4257.00    1.00734   1.03130   73.191
 4258.00    0.99706   1.02406   71.660
 4259.00    0.97422   1.01716   -1.000
 4260.00    0.95735   1.01682   -1.000
 4261.00    0.96646   1.02592   -1.000
 4262.00    0.99483   1.04150   -1.000
 4263.00    1.01537   1.05691   -1.000
 4264.00    1.02305   1.06641   -1.000
 4265.00    1.02741   1.06819   68.086
 4266.00    1.02722   1.06308   67.389
 4267.00    1.01839   1.05215   68.016
 4268.00    1.00911   1.03615   69.851
 4269.00    0.99024   1.01642   72.084
 4270.00    0.96459   0.99660   -1.000
 4271.00    0.93887   0.98200   -1.000
 4272.00    0.93376   0.97698   -1.000
 4273.00    0.93902   0.98232   -1.000
 4274.00    0.94417   0.99592   -1.000
 4275.00    0.96723   1.01444   -1.000
 4276.00    0.99396   1.03337   -1.000
 4277.00    1.01063   1.04733   -1.000
 4278.00    1.00893   1.05273   -1.000
 4279.00    0.98983   1.04989   -1.000
 4280.00    0.98124   1.04281   -1.000
 4281.00    0.97435   1.03607   -1.000
 4282.00    0.97773   1.03187   -1.000
 4283.00    0.98587   1.02961   -1.000
 4284.00    0.98327   1.02650   -1.000
 4285.00    0.97456   1.01936   -1.000
 4286.00    0.96338   1.00659   -1.000
 4287.00    0.95561   0.98939   78.821
 4288.00    0.94038   0.97186   80.285
 4289.00    0.91388   0.96031   -1.000
 4290.00    0.90179   0.95921   -1.000
 4291.00    0.92002   0.96684   -1.000
 4292.00    0.94441   0.97597   -1.000
 4293.00    0.95995   0.98037   80.417
 4294.00    0.96166   0.97923   77.415
 4295.00    0.95298   0.97382   77.319
 4296.00    0.94469   0.96362   78.419
 4297.00    0.92661   0.94731   80.024
 4298.00    0.89099   0.92581   -1.000
 4299.00    0.86046   0.90428   -1.000
 4300.00    0.84712   0.88914   -1.000
 4301.00    0.84687   0.88411   -1.000
 4302.00    0.85154   0.88847   -1.000
 4303.00    0.85944   0.89804   -1.000
 4304.00    0.87565   0.90629   -1.000
 4305.00    0.88068   0.90805   93.766
 4306.00    0.86750   0.90339   -1.000
 4307.00    0.84418   0.89748   -1.000
 4308.00    0.83133   0.89682   -1.000
 4309.00    0.83721   0.90377   -1.000
 4310.00    0.85715   0.91548   -1.000
 4311.00    0.87074   0.92718   -1.000
 4312.00    0.87873   0.93767   -1.000
 4313.00    0.89356   0.95096   -1.000
 4314.00    0.92298   0.97157   -1.000
 4315.00    0.96826   0.99950   79.804
 4316.00    1.00735   1.02786   73.707
 4317.00    1.03017   1.04837   67.751
 4318.00    1.03942   1.05666   64.285
 4319.00    1.02890   1.05385   63.406
 4320.00    1.01665   1.04351   64.039
 4321.00    1.00792   1.02816   65.333
 4322.00    0.98683   1.00857   67.257
 4323.00    0.95374   0.98672   70.163
 4324.00    0.92369   0.96883   -1.000
 4325.00    0.90623   0.96337   -1.000
 4326.00    0.91344   0.97297   -1.000
 4327.00    0.94875   0.99112   -1.000
 4328.00    0.98372   1.00739   76.154
 4329.00    0.99269   1.01546   69.567
 4330.00    0.98563   1.01623   66.786
 4331.00    0.98196   1.01305   66.508
 4332.00    0.98295   1.00669   66.447
 4333.00    0.98129   0.99442   65.586
 4334.00    0.96939   0.97183   64.696
 4335.00    0.94265   0.93502   64.354
 4336.00    0.90566   0.88319   64.952
 4337.00    0.85605   0.82155   67.861
 4338.00    0.78967   0.76282   73.607
 4339.00    0.71633   0.72237   80.671
 4340.00    0.67258   0.71344   -1.000
 4341.00    0.70048   0.73924   -1.000
 4342.00    0.77667   0.78974   88.669
 4343.00    0.84450   0.84769   80.572
 4344.00    0.88909   0.90007   74.350
 4345.00    0.92259   0.94197   71.162
 4346.00    0.94552   0.97355   69.150
 4347.00    0.95837   0.99437   67.690
 4348.00    0.97271   1.00297   66.817
 4349.00    0.97862   0.99935   65.890
 4350.00    0.96734   0.98911   65.529
 4351.00    0.95061   0.98167   67.718
 4352.00    0.94077   0.98481   -1.000
 4353.00    0.95876   0.99956   -1.000
 4354.00    0.99255   1.02000   73.786
 4355.00    1.01262   1.03841   70.464
 4356.00    1.02299   1.05020   67.863
 4357.00    1.02456   1.05553   66.196
 4358.00    1.01965   1.05792   65.649
 4359.00    1.01814   1.06152   66.529
 4360.00    1.02603   1.06814   67.661
 4361.00    1.04090   1.07680   67.227
 4362.00    1.04568   1.08506   65.424
 4363.00    1.04283   1.09051   -1.000
 4364.00    1.04759   1.09125   63.731
 4365.00    1.04600   1.08646   63.214
 4366.00    1.03121   1.07719   -1.000
 4367.00    1.02264   1.06676   -1.000
 4368.00    1.02015   1.05852   66.235
 4369.00    1.01896   1.05337   67.705
 4370.00    1.02414   1.04944   67.583
 4371.00    1.02773   1.04324   67.021
 4372.00    1.02508   1.03299   66.821
 4373.00    1.01778   1.02077   67.189
 4374.00    1.00182   1.01318   69.063
 4375.00    0.99392   1.01617   71.923
 4376.00    1.00977   1.02957   73.168
 4377.00    1.03133   1.04633   71.338
 4378.00    1.04271   1.05753   67.929
 4379.00    1.05010   1.05734   65.772
 4380.00    1.04895   1.04390   65.560
 4381.00    1.03712   1.01917   66.442
 4382.00    1.00395   0.99036   68.757
 4383.00    0.95728   0.96855   74.483
 4384.00    0.93994   0.96267   83.047
 4385.00    0.96274   0.97366   87.625
 4386.00    0.99334   0.99373   82.956
 4387.00    1.01823   1.01325   74.974
 4388.00    1.03002   1.02650   70.563
 4389.00    1.02786   1.03303   69.725
 4390.00    1.02669   1.03558   70.242
 4391.00    1.03284   1.03599   70.721
 4392.00    1.03859   1.03369   70.012
 4393.00    1.04141   1.02885   68.478
 4394.00    1.02789   1.02517   68.066
 4395.00    1.02052   1.02701   69.190
 4396.00    1.03474   1.03336   69.743
 4397.00    1.04230   1.03871   67.721
 4398.00    1.04732   1.03896   65.181
 4399.00    1.03989   1.03553   64.906
 4400.00    1.02400   1.03297   66.748
 4401.00    1.02674   1.03273   69.002
 4402.00    1.03859   1.03256   69.408
 4403.00    1.03638   1.03046   68.253
 4404.00    1.02261   1.02794   69.033
 4405.00    1.01271   1.02792   72.498
 4406.00    1.02696   1.03153   74.752
 4407.00    1.03524   1.03776   73.451
 4408.00    1.02985   1.04626   71.685
 4409.00    1.03185   1.05706   70.919
 4410.00    1.04520   1.06785   69.099
 4411.00    1.06315   1.07401   66.203
 4412.00    1.07227   1.07124   63.695
 4413.00    1.06420   1.05891   62.348
 4414.00    1.04004   1.04174   63.004
 4415.00    1.02038   1.02834   65.863
 4416.00    1.01337   1.02566   68.958
 4417.00    1.02093   1.03548   69.774
 4418.00    1.03963   1.05296   68.122
 4419.00    1.05910   1.07004   65.419
 4420.00    1.07092   1.08024   63.181
 4421.00    1.06960   1.08288   62.627
 4422.00    1.05754   1.08167   63.783
 4423.00    1.05238   1.07988   65.221
 4424.00    1.05670   1.07830   65.514
 4425.00    1.05471   1.07693   65.121
 4426.00    1.04939   1.07649   65.121
 4427.00    1.04640   1.07788   65.419
 4428.00    1.04675   1.08083   65.303
 4429.00    1.05023   1.08396   64.930
 4430.00    1.05323   1.08569   65.184
 4431.00    1.05700   1.08481   65.631
 4432.00    1.06351   1.08056   65.279
 4433.00    1.05555   1.07384   64.620
 4434.00    1.03101   1.06876   65.579
 4435.00    1.02015   1.07067   -1.000
 4436.00    1.04082   1.08147   -1.000
 4437.00    1.07658   1.09637   69.059
 4438.00    1.09813   1.10700   65.336
 4439.00    1.10002   1.10640   61.984
 4440.00    1.08876   1.09418   60.762
 4441.00    1.06595   1.07620   61.816
 4442.00    1.04469   1.06208   64.409
 4443.00    1.03410   1.05948   67.348
 4444.00    1.03295   1.06946   68.740
 4445.00    1.04997   1.08577   67.311
 4446.00    1.07400   1.10016   64.507
 4447.00    1.08466   1.10836   62.594
 4448.00    1.08165   1.11052   62.122
 4449.00    1.07288   1.10926   62.237
 4450.00    1.07255   1.10681   62.672
 4451.00    1.07842   1.10330   63.348
 4452.00    1.07629   1.09706   63.360
 4453.00    1.06619   1.08740   63.340
 4454.00    1.04937   1.07752   64.839
 4455.00    1.03289   1.07201   -1.000
 4456.00    1.03999   1.07261   69.852
 4457.00    1.06534   1.07657   69.790
 4458.00    1.07471   1.08019   68.490
 4459.00    1.06703   1.08185   67.961
 4460.00    1.06202   1.08263   68.216
 4461.00    1.06055   1.08480   68.777
 4462.00    1.06360   1.08890   69.453
 4463.00    1.07807   1.09346   68.972
 4464.00    1.08328   1.09602   66.789
 4465.00    1.07599   1.09450   64.695
 4466.00    1.07760   1.08853   63.984
 4467.00    1.07111   1.08062   64.011
 4468.00    1.05598   1.07572   64.430
 4469.00    1.04817   1.07795   65.468
 4470.00    1.05287   1.08823   66.282
 4471.00    1.07526   1.10329   65.928
 4472.00    1.09991   1.11853   64.327
 4473.00    1.11411   1.13024   62.154
 4474.00    1.11914   1.13726   60.251
 4475.00    1.11426   1.14034   59.239
 4476.00    1.11132   1.14024   59.104
 4477.00    1.12078   1.13598   58.893
 4478.00    1.12460   1.12570   58.446
 4479.00    1.11422   1.11061   58.578
 4480.00    1.09825   1.09667   60.012
 4481.00    1.08440   1.09138   62.573
 4482.00    1.07739   1.09833   64.867
 4483.00    1.08424   1.11409   65.281
 4484.00    1.10550   1.13095   63.354
 4485.00    1.12207   1.14140   60.768
 4486.00    1.12537   1.14195   59.021
 4487.00    1.12029   1.13430   58.512
 4488.00    1.10897   1.12444   59.306
 4489.00    1.09127   1.11845   61.198
 4490.00    1.08340   1.11873   63.091
 4491.00    1.09683   1.12286   63.362
 4492.00    1.10606   1.12607   62.055
 4493.00    1.10390   1.12620   60.722
 4494.00    1.09555   1.12493   60.773
 4495.00    1.09095   1.12493   62.257
 4496.00    1.09627   1.12709   63.906
 4497.00    1.10252   1.12967   64.154
 4498.00    1.11389   1.13009   62.566
 4499.00    1.11571   1.12743   60.571
 4500.00    1.10348   1.12516   59.462
 4501.00    1.09487   1.12787   59.585
 4502.00    1.10328   1.13722   60.134
 4503.00    1.12817   1.14969   59.437
 4504.00    1.14670   1.15949   57.561
 4505.00    1.14504   1.16304   56.078
 4506.00    1.13664   1.16078   55.841
 4507.00    1.13051   1.15664   56.670
 4508.00    1.13273   1.15452   57.543
 4509.00    1.14477   1.15543   57.811
 4510.00    1.14611   1.15717   57.581
 4511.00    1.13448   1.15699   57.144
 4512.00    1.12799   1.15387   57.211
 4513.00    1.13002   1.14856   58.069
 4514.00    1.12696   1.14313   59.185
 4515.00    1.12174   1.13911   59.877
 4516.00    1.12105   1.13645   59.874
 4517.00    1.11652   1.13404   59.688
 4518.00    1.11188   1.13135   60.058
 4519.00    1.11494   1.12906   60.621
 4520.00    1.11788   1.12717   60.231
 4521.00    1.11191   1.12484   59.073
 4522.00    1.10149   1.12161   58.602
 4523.00    1.09756   1.11824   59.455
 4524.00    1.10005   1.11487   60.805
 4525.00    1.10215   1.11027   61.660
 4526.00    1.10148   1.10341   62.426
 4527.00    1.08783   1.09508   63.942
 4528.00    1.07329   1.08837   65.858
 4529.00    1.07861   1.08570   67.159
 4530.00    1.09000   1.08612   67.254
 4531.00    1.09483   1.08560   66.360
 4532.00    1.08939   1.08143   65.147
 4533.00    1.07268   1.07619   64.406
 4534.00    1.05783   1.07604   65.205
 4535.00    1.05943   1.08535   67.313
 4536.00    1.07775   1.10272   67.970
 4537.00    1.10574   1.12207   65.393
 4538.00    1.13100   1.13651   61.506
 4539.00    1.13836   1.14283   58.900
 4540.00    1.13500   1.14267   58.480
 4541.00    1.13291   1.14012   59.550
 4542.00    1.12813   1.13811   60.248
 4543.00    1.15388   1.13681   59.940
 4544.00    1.00599   1.13503   -1.000
 4545.00    0.41844   1.13181   -1.000
 4546.00   -0.02213   1.12586    0.000
 4547.00    0.14709   1.11623   -1.000
 4548.00    0.58679   1.10490   -1.000
 4549.00    0.56004   1.09708   -1.000
 4550.00    0.65549   1.09672   -1.000
 4551.00    1.10464   1.10109   38.092
 4552.00    1.10380   1.10381   65.771
 4553.00    1.09119   1.10224   62.204
 4554.00    1.08943   1.09998   62.891
 4555.00    1.09523   1.10302   63.691
 4556.00    1.11066   1.11369   63.475
 4557.00    1.12820   1.12874   61.765
 4558.00    1.13651   1.14311   59.347
 4559.00    1.14158   1.15361   57.636
 4560.00    1.14721   1.15834   57.338
 4561.00    1.14385   1.15633   57.519
 4562.00    1.13129   1.14894   57.500
 4563.00    1.12031   1.14082   58.184
 4564.00    1.11560   1.13733   59.635
 4565.00    1.12055   1.14068   60.893
 4566.00    1.13632   1.14844   61.053
 4567.00    1.14627   1.15562   59.880
 4568.00    1.14717   1.15767   58.299
 4569.00    1.14135   1.15312   57.237
 4570.00    1.12957   1.14433   57.295
 4571.00    1.11932   1.13674   58.376
 4572.00    1.11701   1.13583   59.915
 4573.00    1.12680   1.14145   60.484
 4574.00    1.13654   1.14868   59.273
 4575.00    1.13568   1.15302   57.915
 4576.00    1.13254   1.15295   57.549
 4577.00    1.13547   1.14899   57.724
 4578.00    1.13566   1.14192   58.031
 4579.00    1.13210   1.13270   58.696
 4580.00    1.12721   1.12314   60.098
 4581.00    1.11906   1.11499   61.653
 4582.00    1.11716   1.10960   62.188
 4583.00    1.11578   1.10868   61.617
 4584.00    1.11447   1.11262   60.932
 4585.00    1.12556   1.11968   60.809
 4586.00    1.13936   1.12727   61.110
 4587.00    1.14767   1.13328   60.888
 4588.00    1.14785   1.13674   59.626
 4589.00    1.14202   1.13806   58.186
 4590.00    1.13764   1.13821   57.527
 4591.00    1.12986   1.13794   57.933
 4592.00    1.12292   1.13847   58.927
 4593.00    1.12211   1.14069   60.003
 4594.00    1.12615   1.14452   60.564
 4595.00    1.13401   1.14919   60.306
 4596.00    1.14055   1.15326   59.795
 4597.00    1.14268   1.15516   59.479
 4598.00    1.14609   1.15428   59.347
 4599.00    1.14240   1.15104   59.218
 4600.00    1.13128   1.14697   59.405
 4601.00    1.12759   1.14396   59.956
 4602.00    1.12689   1.14315   60.313
 4603.00    1.12944   1.14457   60.073
 4604.00    1.13527   1.14753   59.391
 4605.00    1.13794   1.15139   59.097
 4606.00    1.14151   1.15614   59.123
 4607.00    1.15146   1.16149   58.750
 4608.00    1.16213   1.16673   57.836
 4609.00    1.16208   1.17040   56.628
 4610.00    1.16194   1.17138   55.679
 4611.00    1.15985   1.17011   55.478
 4612.00    1.15150   1.16786   56.006
 4613.00    1.14976   1.16587   56.723
 4614.00    1.14966   1.16416   57.221
 4615.00    1.15231   1.16201   57.265
 4616.00    1.15539   1.15932   56.850
 4617.00    1.15525   1.15672   56.472
 4618.00    1.14918   1.15542   56.547
 4619.00    1.14164   1.15669   56.966
 4620.00    1.15183   1.16084   57.159
 4621.00    1.16315   1.16647   56.850
 4622.00    1.16900   1.17116   56.115
 4623.00    1.17380   1.17305   55.632
 4624.00    1.16840   1.17202   55.720
 4625.00    1.15530   1.16901   55.850
 4626.00    1.14349   1.16525   56.153
 4627.00    1.14760   1.16154   56.502
 4628.00    1.15573   1.15898   56.546
 4629.00    1.15211   1.15892   56.702
 4630.00    1.14596   1.16155   56.965
 4631.00    1.15225   1.16489   56.882
 4632.00    1.15926   1.16656   56.403
 4633.00    1.15735   1.16572   56.170
 4634.00    1.15868   1.16387   56.725
 4635.00    1.15447   1.16268   57.478
 4636.00    1.14767   1.16252   57.776
 4637.00    1.14747   1.16324   57.949
 4638.00    1.15310   1.16488   58.582
 4639.00    1.15677   1.16795   59.114
 4640.00    1.16132   1.17241   59.182
 4641.00    1.17518   1.17685   58.645
 4642.00    1.18441   1.17949   57.405
 4643.00    1.18469   1.17859   56.280
 4644.00    1.17490   1.17390   56.003
 4645.00    1.15923   1.16657   56.650
 4646.00    1.14583   1.15940   57.991
 4647.00    1.14303   1.15584   59.635
 4648.00    1.14469   1.15736   60.625
 4649.00    1.15635   1.16269   60.199
 4650.00    1.16440   1.16884   58.924
 4651.00    1.15660   1.17282   57.807
 4652.00    1.14768   1.17322   57.361
 4653.00    1.14963   1.17028   57.274
 4654.00    1.14846   1.16592   57.530
 4655.00    1.14103   1.16299   58.550
 4656.00    1.13764   1.16418   59.613
 4657.00    1.14491   1.17101   59.708
 4658.00    1.15697   1.18184   58.491
 4659.00    1.17272   1.19227   56.398
 4660.00    1.18636   1.19793   54.649
 4661.00    1.18306   1.19717   54.001
 4662.00    1.17213   1.19125   54.325
 4663.00    1.16768   1.18226   55.333
 4664.00    1.16654   1.17134   56.594
 4665.00    1.16482   1.15888   57.239
 4666.00    1.15661   1.14634   57.713
 4667.00    1.13534   1.13723   59.400
 4668.00    1.12237   1.13476   61.983
 4669.00    1.13125   1.13946   63.386
 4670.00    1.14529   1.14900   62.410
 4671.00    1.15602   1.15969   60.094
 4672.00    1.15813   1.16850   57.975
 4673.00    1.15883   1.17489   57.008
 4674.00    1.16749   1.17945   56.888
 4675.00    1.17501   1.18237   56.896
 4676.00    1.18234   1.18282   56.513
 4677.00    1.18648   1.17966   55.698
 4678.00    1.16747   1.17361   55.373
 4679.00    1.14512   1.16658   56.118
 4680.00    1.14420   1.16086   57.323
 4681.00    1.14937   1.15831   58.367
 4682.00    1.15296   1.15921   59.141
 4683.00    1.15991   1.16253   59.090
 4684.00    1.17130   1.16638   57.953
 4685.00    1.17263   1.16937   56.790
 4686.00    1.17511   1.17113   56.503
 4687.00    1.17918   1.17193   56.649
 4688.00    1.17786   1.17217   56.803
 4689.00    1.17545   1.17190   56.992
 4690.00    1.17180   1.17132   56.984
 4691.00    1.17257   1.17122   57.176
 4692.00    1.17385   1.17231   57.469
 4693.00    1.18221   1.17441   57.207
 4694.00    1.19245   1.17646   56.419
 4695.00    1.19546   1.17711   55.379
 4696.00    1.19388   1.17494   54.372
 4697.00    1.18938   1.16968   54.136
 4698.00    1.17468   1.16266   55.022
 4699.00    1.16058   1.15560   56.698
 4700.00    1.16107   1.14936   57.937
 4701.00    1.16704   1.14436   58.050
 4702.00    1.16035   1.14122   57.953
 4703.00    1.14768   1.14098   58.691
 4704.00    1.14852   1.14325   59.420
 4705.00    1.15454   1.14556   59.041
 4706.00    1.15927   1.14565   57.985
 4707.00    1.15301   1.14363   57.889
 4708.00    1.14321   1.14230   58.920
 4709.00    1.14292   1.14426   59.841
 4710.00    1.15447   1.14932   59.990
 4711.00    1.16805   1.15488   58.975
 4712.00    1.17576   1.15814   57.242
 4713.00    1.17735   1.15882   56.133
 4714.00    1.17184   1.15912   56.104
 4715.00    1.16832   1.16156   56.917
 4716.00    1.17060   1.16670   57.531
 4717.00    1.17996   1.17287   56.971
 4718.00    1.18453   1.17820   55.816
 4719.00    1.18494   1.18171   55.073
 4720.00    1.18999   1.18343   54.824
 4721.00    1.18900   1.18415   54.637
 4722.00    1.18662   1.18484   54.742
 4723.00    1.19121   1.18604   55.200
 4724.00    1.19406   1.18687   55.267
 4725.00    1.18365   1.18560   54.792
 4726.00    1.16922   1.18122   54.491
 4727.00    1.16567   1.17395   55.149
 4728.00    1.16437   1.16594   56.873
 4729.00    1.16603   1.15938   58.679
 4730.00    1.17025   1.15583   59.275
 4731.00    1.16937   1.15621   58.828
 4732.00    1.17285   1.15973   58.276
 4733.00    1.17405   1.16413   57.714
 4734.00    1.17491   1.16722   57.095
 4735.00    1.17429   1.16813   56.684
 4736.00    1.17148   1.16786   56.371
 4737.00    1.17813   1.16793   56.463
 4738.00    1.17453   1.16898   56.869
 4739.00    1.17364   1.17073   56.559
 4740.00    1.17916   1.17275   56.131
 4741.00    1.18327   1.17502   56.319
 4742.00    1.18768   1.17784   56.546
 4743.00    1.18505   1.18112   56.376
 4744.00    1.18281   1.18460   55.831
 4745.00    1.17922   1.18824   55.533
 4746.00    1.17638   1.19207   55.645
 4747.00    1.18799   1.19623   55.485
 4748.00    1.19393   1.20008   54.988
 4749.00    1.19104   1.20299   54.620
 4750.00    1.18442   1.20441   54.608
 4751.00    1.18368   1.20398   54.678
 4752.00    1.18818   1.20175   54.870
 4753.00    1.18429   1.19853   55.382
 4754.00    1.17882   1.19560   55.948
 4755.00    1.17788   1.19413   56.374
 4756.00    1.17427   1.19438   56.545
 4757.00    1.17266   1.19552   56.567
 4758.00    1.17941   1.19598   56.887
 4759.00    1.18344   1.19427   57.161
 4760.00    1.17950   1.18920   56.975
 4761.00    1.17149   1.18098   56.643
 4762.00    1.15979   1.17162   56.980
 4763.00    1.14715   1.16427   58.140
 4764.00    1.14614   1.16149   59.315
 4765.00    1.15514   1.16396   59.759
 4766.00    1.16974   1.17053   59.732
 4767.00    1.17462   1.17918   59.472
 4768.00    1.17767   1.18775   58.867
 4769.00    1.18295   1.19410   57.808
 4770.00    1.18293   1.19710   56.697
 4771.00    1.18176   1.19753   56.308
 4772.00    1.17788   1.19752   56.599
 4773.00    1.17867   1.19900   57.103
 4774.00    1.18716   1.20196   57.105
 4775.00    1.19328   1.20477   56.157
 4776.00    1.19392   1.20574   55.286
 4777.00    1.19395   1.20407   55.119
 4778.00    1.19588   1.20028   55.227
 4779.00    1.19046   1.19607   55.479
 4780.00    1.18269   1.19328   55.961
 4781.00    1.18657   1.19230   56.474
 4782.00    1.19078   1.19183   56.714
 4783.00    1.18277   1.19070   56.907
 4784.00    1.17466   1.18863   57.268
 4785.00    1.17258   1.18612   57.531
 4786.00    1.17078   1.18403   57.581
 4787.00    1.17058   1.18324   57.946
 4788.00    1.16913   1.18430   58.435
 4789.00    1.16934   1.18737   58.595
 4790.00    1.17732   1.19244   58.424
 4791.00    1.18524   1.19929   58.098
 4792.00    1.20089   1.20706   57.632
 4793.00    1.20240   1.21456   56.874
 4794.00    1.19739   1.21991   55.784
 4795.00    1.20174   1.22147   54.650
 4796.00    1.20544   1.21895   54.033
 4797.00    1.19843   1.21378   54.172
 4798.00    1.18576   1.20888   54.974
 4799.00    1.18336   1.20690   56.073
 4800.00    1.19063   1.20858   56.960
 4801.00    1.19227   1.21184   57.128
 4802.00    1.19568   1.21356   56.307
 4803.00    1.19547   1.21126   55.284
 4804.00    1.19042   1.20602   54.868
 4805.00    1.18371   1.20105   55.252
 4806.00    1.17779   1.19905   56.002
 4807.00    1.18208   1.20043   56.631
 4808.00    1.18992   1.20360   56.919
 4809.00    1.19582   1.20676   56.832
 4810.00    1.19296   1.20908   56.638
 4811.00    1.18613   1.21111   56.270
 4812.00    1.19033   1.21369   55.795
 4813.00    1.19968   1.21717   55.447
 4814.00    1.20388   1.22097   55.262
 4815.00    1.20311   1.22429   55.183
 4816.00    1.20301   1.22671   55.018
 4817.00    1.20412   1.22801   54.756
 4818.00    1.20946   1.22788   54.408
 4819.00    1.21502   1.22594   54.119
 4820.00    1.20470   1.22147   53.986
 4821.00    1.19503   1.21413   53.982
 4822.00    1.19531   1.20483   54.179
 4823.00    1.18745   1.19635   55.062
 4824.00    1.17990   1.19191   56.392
 4825.00    1.18718   1.19251   56.967
 4826.00    1.20015   1.19613   56.445
 4827.00    1.20205   1.19955   55.468
 4828.00    1.19569   1.20079   55.059
 4829.00    1.19437   1.19992   55.498
 4830.00    1.19304   1.19806   56.044
 4831.00    1.18666   1.19610   56.233
 4832.00    1.18437   1.19491   56.423
 4833.00    1.18882   1.19467   56.793
 4834.00    1.19470   1.19517   56.461
 4835.00    1.19975   1.19570   55.584
 4836.00    1.19597   1.19564   55.069
 4837.00    1.19101   1.19477   55.003
 4838.00    1.18535   1.19299   55.173
 4839.00    1.17493   1.19066   55.640
 4840.00    1.17055   1.18845   56.516
 4841.00    1.17139   1.18682   57.143
 4842.00    1.17535   1.18571   57.080
 4843.00    1.17155   1.18496   56.887
 4844.00    1.17123   1.18423   56.540
 4845.00    1.17973   1.18295   56.055
 4846.00    1.18421   1.18015   55.359
 4847.00    1.17123   1.17563   54.713
 4848.00    1.15564   1.17059   55.003
 4849.00    1.15335   1.16651   56.055
 4850.00    1.15767   1.16311   56.544
 4851.00    1.15441   1.15825   56.192
 4852.00    1.14759   1.14925   55.639
 4853.00    1.14224   1.13479   55.710
 4854.00    1.13255   1.11573   56.105
 4855.00    1.10606   1.09385   57.059
 4856.00    1.08621   1.06891   58.777
 4857.00    1.07313   1.03586   59.728
 4858.00    1.04234   0.98971   -1.000
 4859.00    0.97891   0.93174   -1.000
 4860.00    0.89300   0.87724   62.630
 4861.00    0.81840   0.84737   68.915
 4862.00    0.80899   0.85644   -1.000
 4863.00    0.88315   0.89940   75.412
 4864.00    0.97755   0.95775   69.701
 4865.00    1.03510   1.01338   64.289
 4866.00    1.07256   1.05703   61.157
 4867.00    1.10264   1.08722   59.379
 4868.00    1.12450   1.10510   58.428
 4869.00    1.13166   1.11237   58.026
 4870.00    1.11724   1.11243   58.078
 4871.00    1.10077   1.11111   59.044
 4872.00    1.10006   1.11396   60.669
 4873.00    1.11498   1.12274   61.365
 4874.00    1.13388   1.13469   60.295
 4875.00    1.14058   1.14595   58.800
 4876.00    1.14456   1.15491   58.021
 4877.00    1.15120   1.16273   57.639
 4878.00    1.14890   1.17097   57.375
 4879.00    1.15331   1.17915   56.935
 4880.00    1.16808   1.18509   56.171
 4881.00    1.17191   1.18667   56.001
 4882.00    1.16476   1.18451   56.696
 4883.00    1.15935   1.18102   57.420
 4884.00    1.15973   1.17863   57.537
 4885.00    1.16266   1.17794   57.520
 4886.00    1.16407   1.17777   58.067
 4887.00    1.16441   1.17636   58.761
 4888.00    1.16719   1.17221   58.817
 4889.00    1.16373   1.16612   58.573
 4890.00    1.14629   1.16153   58.859
 4891.00    1.13268   1.16341   59.926
 4892.00    1.14633   1.17453   60.613
 4893.00    1.17379   1.19238   59.370
 4894.00    1.19905   1.21154   56.783
 4895.00    1.20967   1.22668   54.499
 4896.00    1.20615   1.23528   53.140
 4897.00    1.20985   1.23722   52.438
 4898.00    1.20802   1.23399   52.343
 4899.00    1.19131   1.22805   52.848
 4900.00    1.18705   1.22213   54.067
 4901.00    1.18825   1.21794   55.098
 4902.00    1.18615   1.21599   55.356
 4903.00    1.18586   1.21662   55.193
 4904.00    1.19318   1.22013   55.507
 4905.00    1.20541   1.22549   55.725
 4906.00    1.21261   1.22969   54.859
 4907.00    1.21126   1.22969   53.946
 4908.00    1.21236   1.22484   53.888
 4909.00    1.20188   1.21730   54.709
 4910.00    1.19332   1.21083   56.155
 4911.00    1.18855   1.20859   57.456
 4912.00    1.19245   1.21148   57.604
 4913.00    1.20057   1.21750   56.699
 4914.00    1.20703   1.22319   55.758
 4915.00    1.21332   1.22427   55.014
 4916.00    1.21265   1.21759   54.383
 4917.00    1.20016   1.20217   54.180
 4918.00    1.17458   1.18116   55.052
 4919.00    1.14582   1.16083   57.423
 4920.00    1.13054   1.14746   60.467
 4921.00    1.13376   1.14370   62.547
 4922.00    1.14453   1.14771   62.179
 4923.00    1.16097   1.15639   60.003
 4924.00    1.17234   1.16832   58.291
 4925.00    1.17680   1.18331   57.753
 4926.00    1.19075   1.20003   57.466
 4927.00    1.20832   1.21577   56.428
 4928.00    1.22305   1.22787   55.103
 4929.00    1.22388   1.23447   54.301
 4930.00    1.22304   1.23443   53.852
 4931.00    1.22047   1.22750   53.502
 4932.00    1.20366   1.21575   53.487
 4933.00    1.18750   1.20355   54.371
 4934.00    1.17053   1.19560   56.061
 4935.00    1.17467   1.19277   57.433
 4936.00    1.19116   1.19201   57.099
 4937.00    1.19372   1.19037   56.400
 4938.00    1.17786   1.18873   56.992
 4939.00    1.16663   1.19104   58.685
 4940.00    1.17780   1.19965   59.533
 4941.00    1.19967   1.21297   58.408
 4942.00    1.22035   1.22641   56.421
 4943.00    1.22746   1.23610   54.892
 4944.00    1.22500   1.24078   54.079
 4945.00    1.22232   1.24202   53.787
 4946.00    1.21711   1.24252   53.963
 4947.00    1.21536   1.24418   54.261
 4948.00    1.21908   1.24708   54.153
 4949.00    1.22753   1.24990   53.595
 4950.00    1.23116   1.25127   53.124
 4951.00    1.22989   1.25052   52.952
 4952.00    1.22414   1.24714   52.904
 4953.00    1.22449   1.24005   53.224
 4954.00    1.22402   1.22748   53.681
 4955.00    1.21010   1.20928   54.327
 4956.00    1.19212   1.18952   55.278
 4957.00    1.16413   1.17617   57.255
 4958.00    1.14955   1.17605   60.034
 4959.00    1.16862   1.18877   61.146
 4960.00    1.20304   1.20751   58.998
 4961.00    1.22232   1.22392   56.050
 4962.00    1.22510   1.23331   54.676
 4963.00    1.23044   1.23508   54.523
 4964.00    1.23486   1.23130   54.857
 4965.00    1.22375   1.22489   55.374
 4966.00    1.21172   1.21899   56.218
 4967.00    1.21104   1.21571   57.265
 4968.00    1.21020   1.21583   57.744
 4969.00    1.20941   1.21901   57.677
 4970.00    1.21174   1.22426   57.414
 4971.00    1.21453   1.23022   56.917
 4972.00    1.21823   1.23558   56.302
 4973.00    1.22651   1.23922   55.674
 4974.00    1.22978   1.24050   55.055
 4975.00    1.22576   1.23921   54.642
 4976.00    1.23042   1.23567   54.634
 4977.00    1.22519   1.23027   55.096
 4978.00    1.21224   1.22328   55.740
 4979.00    1.20764   1.21400   56.555
 4980.00    1.19958   1.20176   57.405
 4981.00    1.18399   1.18763   58.144
 4982.00    1.16462   1.17511   59.341
 4983.00    1.15126   1.16879   61.319
 4984.00    1.15422   1.17118   62.627
 4985.00    1.16857   1.18126   62.175
 4986.00    1.18697   1.19500   60.778
 4987.00    1.20198   1.20742   58.980
 4988.00    1.21201   1.21454   57.243
 4989.00    1.20877   1.21543   56.334
 4990.00    1.19514   1.21231   56.679
 4991.00    1.19345   1.20902   57.449
 4992.00    1.19588   1.20841   57.842
 4993.00    1.19505   1.21103   57.670
 4994.00    1.19664   1.21568   57.235
 4995.00    1.20428   1.22006   57.073
 4996.00    1.21454   1.22144   56.959
 4997.00    1.21359   1.21742   56.662
 4998.00    1.20358   1.20803   56.592
 4999.00    1.19251   1.19622   57.089
 5000.00    1.18771   1.18717   57.996
 5001.00    1.18978   1.18344   59.031
 5002.00    1.19763   1.18365   59.526
 5003.00    1.20648   1.18363   59.347
 5004.00    1.20013   1.18062   58.828
 5005.00    1.18629   1.17584   58.855
 5006.00    1.16857   1.17326   59.947
 5007.00    1.16143   1.17592   61.097
 5008.00    1.18070   1.18251   60.787
 5009.00    1.20503   1.18834   59.132
 5010.00    1.20812   1.18889   57.714
 5011.00    1.19925   1.18315   57.577
 5012.00    1.18257   1.17400   58.684
 5013.00    1.16227   1.16577   60.619
 5014.00    1.15473   1.16135   62.626
 5015.00    1.15814   1.16026   63.479
 5016.00    1.16726   1.16022   62.764
 5017.00    1.17464   1.16012   61.375
 5018.00    1.17277   1.16162   60.433
 5019.00    1.17589   1.16701   60.289
 5020.00    1.19119   1.17588   60.074
 5021.00    1.19890   1.18583   59.438
 5022.00    1.19482   1.19476   59.203
 5023.00    1.19263   1.20245   59.440
 5024.00    1.19711   1.20898   59.411
 5025.00    1.21119   1.21374   58.965
 5026.00    1.21424   1.21600   58.409
 5027.00    1.20998   1.21635   58.242
 5028.00    1.21003   1.21636   58.536
 5029.00    1.20767   1.21759   58.547
 5030.00    1.21336   1.22069   57.803
 5031.00    1.22413   1.22505   56.789
 5032.00    1.22975   1.22865   55.947
 5033.00    1.23439   1.22899   55.121
 5034.00    1.22936   1.22487   54.729
 5035.00    1.21378   1.21744   55.370
 5036.00    1.19736   1.20886   57.328
 5037.00    1.18884   1.19973   59.194
 5038.00    1.18789   1.18900   59.893
 5039.00    1.17702   1.17675   60.258
 5040.00    1.15560   1.16650   61.533
 5041.00    1.13701   1.16416   64.030
 5042.00    1.15509   1.17285   65.808
 5043.00    1.18222   1.19049   64.701
 5044.00    1.20581   1.21076   61.202
 5045.00    1.23526   1.22702   57.823
 5046.00    1.01067   1.23501   -1.000
 5047.00    0.31546   1.23361   -1.000
 5048.00    0.02083   1.22462   -1.000
 5049.00    0.17604   1.21213   -1.000
 5050.00    0.75397   1.20127   -1.000
 5051.00    1.16291   1.19672   85.422
 5052.00    1.20377   1.20072   58.288
 5053.00    1.21281   1.21172   58.635
 5054.00    1.22573   1.22516   57.236
 5055.00    1.24115   1.23667   55.917
 5056.00    1.25138   1.24442   55.064
 5057.00    1.24509   1.24920   54.663
 5058.00    1.23959   1.25240   54.584
 5059.00    1.24009   1.25458   54.692
 5060.00    1.24144   1.25531   54.754
 5061.00    1.23999   1.25340   54.616
 5062.00    1.23954   1.24783   54.362
 5063.00    1.23332   1.23897   54.626
 5064.00    1.21379   1.22905   55.652
 5065.00    1.20494   1.22110   57.416
 5066.00    1.21145   1.21682   59.041
 5067.00    1.21581   1.21589   59.236
 5068.00    1.22017   1.21685   58.422
 5069.00    1.22008   1.21831   57.754
 5070.00    1.22993   1.21935   57.560
 5071.00    1.22840   1.21943   57.249
 5072.00    1.22842   1.21872   57.133
 5073.00    1.22910   1.21789   57.617
 5074.00    1.22294   1.21728   57.702
 5075.00    1.22451   1.21611   57.040
 5076.00    1.23010   1.21272   56.718
 5077.00    1.22979   1.20603   56.663
 5078.00    1.22146   1.19704   56.805
 5079.00    1.20236   1.18896   57.817
 5080.00    1.17896   1.18503   60.109
 5081.00    1.18600   1.18634   62.329
 5082.00    1.20647   1.19179   62.339
 5083.00    1.20469   1.19965   60.963
 5084.00    1.21164   1.20850   59.813
 5085.00    1.21801   1.21705   58.919
 5086.00    1.23339   1.22414   57.828
 5087.00    1.24283   1.22939   57.021
 5088.00    1.24319   1.23341   56.733
 5089.00    1.24151   1.23716   56.599
 5090.00    1.23941   1.24108   56.268
 5091.00    1.24532   1.24511   55.887
 5092.00    1.24547   1.24845   55.588
 5093.00    1.25758   1.24981   55.190
 5094.00    1.28186   1.24768   54.585
 5095.00    1.26077   1.24128   54.403
 5096.00    1.23326   1.23161   55.127
 5097.00    1.22136   1.22127   56.314
 5098.00    1.20551   1.21374   57.577
 5099.00    1.20831   1.21164   58.922
 5100.00    1.22261   1.21510   59.830
 5101.00    1.23134   1.22184   59.469
 5102.00    1.24342   1.22818   57.875
 5103.00    1.24715   1.23128   56.549
 5104.00    1.24138   1.22984   56.342
 5105.00    1.23731   1.22427   56.825
 5106.00    1.22272   1.21638   57.580
 5107.00    1.20531   1.20907   58.299
 5108.00    1.20248   1.20498   59.018
 5109.00    1.20488   1.20567   59.507
 5110.00    1.20964   1.21096   59.300
 5111.00    1.21667   1.21951   58.897
 5112.00    1.23133   1.22926   58.342
 5113.00    1.24135   1.23840   57.527
 5114.00    1.25683   1.24580   56.827
 5115.00    1.25740   1.25143   56.189
 5116.00    1.25339   1.25538   55.751
 5117.00    1.25518   1.25734   55.370
 5118.00    1.26003   1.25659   54.812
 5119.00    1.25806   1.25258   54.545
 5120.00    1.25528   1.24539   54.893
 5121.00    1.25114   1.23587   55.664
 5122.00    1.23879   1.22557   56.530
 5123.00    1.22085   1.21646   57.623
 5124.00    1.21204   1.21007   59.204
 5125.00    1.21755   1.20661   60.591
 5126.00    1.21863   1.20504   60.674
 5127.00    1.21651   1.20438   60.176
 5128.00    1.21947   1.20469   59.872
 5129.00    1.21730   1.20689   59.644
 5130.00    1.21783   1.21145   59.704
 5131.00    1.22484   1.21765   59.426
 5132.00    1.22955   1.22407   58.553
 5133.00    1.22911   1.22926   57.702
 5134.00    1.23299   1.23205   57.227
 5135.00    1.23937   1.23153   56.690
 5136.00    1.23710   1.22737   56.298
 5137.00    1.22765   1.22055   56.505
 5138.00    1.21708   1.21348   57.673
 5139.00    1.20636   1.20865   58.950
 5140.00    1.20410   1.20719   59.619
 5141.00    1.20627   1.20846   59.486
 5142.00    1.20667   1.21125   59.216
 5143.00    1.20825   1.21467   59.848
 5144.00    1.21788   1.21799   60.453
 5145.00    1.22356   1.22041   59.853
 5146.00    1.22383   1.22147   59.056
 5147.00    1.23279   1.22120   59.103
 5148.00    1.23714   1.21974   59.565
 5149.00    1.23628   1.21681   59.436
 5150.00    1.23531   1.21237   58.790
 5151.00    1.22123   1.20761   58.782
 5152.00    1.20653   1.20469   59.652
 5153.00    1.21159   1.20562   60.554
 5154.00    1.22176   1.21136   60.720
 5155.00    1.23331   1.22105   60.134
 5156.00    1.24824   1.23245   58.840
 5157.00    1.25925   1.24270   57.331
 5158.00    1.27437   1.24965   55.986
 5159.00    1.26713   1.25250   55.137
 5160.00    1.26505   1.25150   54.869
 5161.00    1.26192   1.24685   54.930
 5162.00    1.25455   1.23769   55.159
 5163.00    1.24591   1.22153   55.569
 5164.00    1.23548   1.19565   56.276
 5165.00    1.21637   1.16037   -1.000
 5166.00    1.17453   1.12220   -1.000
 5167.00    1.12473   1.09164   65.952
 5168.00    1.10027   1.07616   72.249
 5169.00    1.10886   1.07465   75.166
 5170.00    1.14139   1.07918   -1.000
 5171.00    1.16144   1.08443   -1.000
 5172.00    1.13429   1.09265   69.874
 5173.00    1.11791   1.11004   74.695
 5174.00    1.14639   1.13828   77.405
 5175.00    1.20485   1.17114   72.296
 5176.00    1.24667   1.19967   64.838
 5177.00    1.26379   1.21778   60.405
 5178.00    1.26966   1.22362   58.691
 5179.00    1.26765   1.21711   58.234
 5180.00    1.25900   1.19821   -1.000
 5181.00    1.24281   1.16963   -1.000
 5182.00    1.20552   1.13919   -1.000
 5183.00    1.14895   1.11849   67.407
 5184.00    1.12413   1.11654   74.723
 5185.00    1.15274   1.13256   77.743
 5186.00    1.20060   1.15745   -1.000
 5187.00    1.23411   1.17999   -1.000
 5188.00    1.23658   1.19387   60.012
 5189.00    1.23388   1.19867   58.638
 5190.00    1.23773   1.19671   58.250
 5191.00    1.22692   1.19164   58.259
 5192.00    1.20885   1.18712   59.262
 5193.00    1.19854   1.18600   61.139
 5194.00    1.20525   1.18893   62.212
 5195.00    1.21793   1.19496   61.477
 5196.00    1.22772   1.20262   60.437
 5197.00    1.23771   1.21114   59.554
 5198.00    1.24900   1.21952   58.592
 5199.00    1.26493   1.22601   57.449
 5200.00    1.26312   1.22834   56.622
 5201.00    1.25324   1.22456   56.293
 5202.00    1.24779   1.21423   56.396
 5203.00    1.23617   1.19896   57.030
 5204.00    1.22130   1.18244   58.166
 5205.00    1.20606   1.16872   59.647
 5206.00    1.19155   1.16052   61.540
 5207.00    1.19281   1.15854   62.974
 5208.00    1.20122   1.16256   63.154
 5209.00    1.21132   1.17262   63.512
 5210.00    1.22487   1.18782   63.536
 5211.00    1.23569   1.20546   62.226
 5212.00    1.24948   1.22086   60.013
 5213.00    1.26476   1.22980   57.596
 5214.00    1.27142   1.23156   55.638
 5215.00    1.25901   1.22919   55.011
 5216.00    1.24372   1.22793   55.891
 5217.00    1.23701   1.23151   57.075
 5218.00    1.25258   1.24005   57.418
 5219.00    1.27155   1.25051   56.676
 5220.00    1.28125   1.25871   55.516
 5221.00    1.28574   1.26119   54.806
 5222.00    1.28374   1.25566   54.458
 5223.00    1.28240   1.24140   54.495
 5224.00    1.27127   1.22022   -1.000
 5225.00    1.24096   1.19773   57.405
 5226.00    1.20459   1.18213   59.893
 5227.00    1.17814   1.17959   62.417
 5228.00    1.19059   1.18984   63.255
 5229.00    1.22864   1.20593   61.158
 5230.00    1.25231   1.21880   57.905
 5231.00    1.26471   1.22357   55.942
 5232.00    1.26095   1.22163   55.250
 5233.00    1.24297   1.21890   55.524
 5234.00    1.23885   1.22069   56.676
 5235.00    1.24721   1.22866   57.374
 5236.00    1.26286   1.24044   56.870
 5237.00    1.27967   1.25182   55.493
 5238.00    1.28914   1.26007   54.355
 5239.00    1.29208   1.26460   53.927
 5240.00    1.28352   1.26652   53.963
 5241.00    1.28693   1.26725   54.075
 5242.00    1.28756   1.26760   53.904
 5243.00    1.28393   1.26742   53.680
 5244.00    1.28464   1.26563   53.733
 5245.00    1.28335   1.26118   53.618
 5246.00    1.27432   1.25423   53.837
 5247.00    1.26139   1.24640   55.138
 5248.00    1.26009   1.23972   56.787
 5249.00    1.25111   1.23551   57.775
 5250.00    1.24481   1.23411   57.851
 5251.00    1.24789   1.23493   58.029
 5252.00    1.25530   1.23711   58.246
 5253.00    1.26130   1.24001   57.795
 5254.00    1.26481   1.24377   57.026
 5255.00    1.26124   1.24931   56.624
 5256.00    1.26927   1.25663   56.554
 5257.00    1.28346   1.26371   55.881
 5258.00    1.28864   1.26704   54.474
 5259.00    1.29882   1.26328   53.250
 5260.00    1.28823   1.25134   53.081
 5261.00    1.27116   1.23295   53.871
 5262.00    1.25376   1.21174   55.606
 5263.00    1.23418   1.19207   58.087
 5264.00    1.21124   1.17731   60.681
 5265.00    1.20377   1.16830   62.523
 5266.00    1.20429   1.16322   63.481
 5267.00    1.20616   1.15854   -1.000
 5268.00    1.20713   1.15319   -1.000
 5269.00    1.19634   1.15019   61.603
 5270.00    1.17927   1.15431   63.368
 5271.00    1.18103   1.16730   65.059
 5272.00    1.21086   1.18502   63.034
 5273.00    1.23701   1.20164   59.404
 5274.00    1.24745   1.21412   57.412
 5275.00    1.25570   1.22411   57.080
 5276.00    1.25963   1.23464   57.097
 5277.00    1.26623   1.24570   56.705
 5278.00    1.28131   1.25450   55.342
 5279.00    1.28676   1.25747   53.626
 5280.00    1.28623   1.25370   53.006
 5281.00    1.28608   1.24576   53.635
 5282.00    1.26862   1.23861   55.007
 5283.00    1.25079   1.23702   56.340
 5284.00    1.24871   1.24318   57.158
 5285.00    1.25772   1.25560   57.034
 5286.00    1.27656   1.26989   55.652
 5287.00    1.30118   1.28185   53.906
 5288.00    1.31301   1.28933   52.530
 5289.00    1.31228   1.29270   52.371
 5290.00    1.30571   1.29332   52.612
 5291.00    1.30626   1.29221   52.511
 5292.00    1.30840   1.28966   52.236
 5293.00    1.29890   1.28521   52.240
 5294.00    1.29838   1.27802   52.617
 5295.00    1.29190   1.26786   53.175
 5296.00    1.28122   1.25636   54.072
 5297.00    1.26729   1.24668   55.732
 5298.00    1.25211   1.24191   57.759
 5299.00    1.24900   1.24294   58.797
 5300.00    1.26837   1.24830   58.042
 5301.00    1.28459   1.25588   56.608
 5302.00    1.28277   1.26409   55.749
 5303.00    1.28499   1.27200   55.350
 5304.00    1.29433   1.27853   54.444
 5305.00    1.30360   1.28269   53.046
 5306.00    1.30343   1.28453   52.304
 5307.00    1.29737   1.28535   52.370
 5308.00    1.30070   1.28660   52.904
 5309.00    1.29800   1.28863   53.163
 5310.00    1.30397   1.29039   52.718
 5311.00    1.31256   1.29047   52.207
 5312.00    1.31237   1.28778   51.979
 5313.00    1.30857   1.28218   52.110
 5314.00    1.30247   1.27467   52.401
 5315.00    1.29765   1.26722   52.659
 5316.00    1.28156   1.26264   53.086
 5317.00    1.27316   1.26256   53.607
 5318.00    1.27938   1.26634   53.969
 5319.00    1.28746   1.27111   53.859
 5320.00    1.30133   1.27322   53.477
 5321.00    1.29995   1.27057   53.361
 5322.00    1.29250   1.26306   53.625
 5323.00    1.28230   1.25234   54.072
 5324.00    1.26784   1.23966   54.798
 5325.00    1.26189   1.22512   55.672
 5326.00    1.26064   1.20956   -1.000
 5327.00    1.24114   1.19627   56.340
 5328.00    1.21225   1.19116   58.465
 5329.00    1.20224   1.19804   61.941
 5330.00    1.23474   1.21469   62.733
 5331.00    1.27187   1.23461   59.734
 5332.00    1.28802   1.25096   56.491
 5333.00    1.28335   1.26092   55.058
 5334.00    1.28696   1.26533   54.555
 5335.00    1.29361   1.26586   54.006
 5336.00    1.29435   1.26370   53.463
 5337.00    1.28758   1.25932   53.390
 5338.00    1.28185   1.25345   53.768
 5339.00    1.27560   1.24771   54.170
 5340.00    1.26833   1.24472   54.957
 5341.00    1.26132   1.24628   56.303
 5342.00    1.26772   1.25159   56.923
 5343.00    1.28333   1.25791   56.113
 5344.00    1.29549   1.26198   54.654
 5345.00    1.30623   1.26249   -1.000
 5346.00    1.29933   1.26059   54.069
 5347.00    1.28455   1.25823   54.440
 5348.00    1.28376   1.25749   54.770
 5349.00    1.28392   1.25985   55.085
 5350.00    1.28743   1.26520   55.515
 5351.00    1.30145   1.27270   55.394
 5352.00    1.30716   1.28069   54.377
 5353.00    1.30465   1.28801   53.223
 5354.00    1.30393   1.29437   52.710
 5355.00    1.31344   1.29954   52.514
 5356.00    1.32173   1.30332   52.023
 5357.00    1.32111   1.30507   51.404
 5358.00    1.31893   1.30426   51.135
 5359.00    1.32093   1.30076   51.214
 5360.00    1.32281   1.29477   51.318
 5361.00    1.31259   1.28718   51.605
 5362.00    1.29991   1.27928   52.298
 5363.00    1.29412   1.27241   53.168
 5364.00    1.29059   1.26752   53.848
 5365.00    1.29208   1.26432   54.186
 5366.00    1.29566   1.26142   54.500
 5367.00    1.29112   1.25685   54.719
 5368.00    1.29178   1.24911   -1.000
 5369.00    1.28000   1.23930   54.688
 5370.00    1.25844   1.23120   55.459
 5371.00    1.24260   1.22981   56.965
 5372.00    1.25155   1.23737   58.374
 5373.00    1.27167   1.25197   57.920
 5374.00    1.30515   1.26846   55.530
 5375.00    1.31920   1.28166   53.210
 5376.00    1.32707   1.28957   52.187
 5377.00    1.32718   1.29238   51.973
 5378.00    1.32067   1.29152   52.132
 5379.00    1.31420   1.28828   52.159
 5380.00    1.31288   1.28370   52.312
 5381.00    1.30714   1.27936   52.676
 5382.00    1.29020   1.27674   53.212
 5383.00    1.28437   1.27689   53.678
 5384.00    1.29609   1.27985   53.857
 5385.00    1.30236   1.28415   53.754
 5386.00    1.31229   1.28780   53.414
 5387.00    1.31549   1.28888   52.920
 5388.00    1.31812   1.28652   52.924
 5389.00    1.31971   1.28142   53.245
 5390.00    1.30803   1.27499   53.844
 5391.00    1.31143   1.26858   -1.000
 5392.00    1.30119   1.26287   55.160
 5393.00    1.28907   1.25730   55.333
 5394.00    1.28750   1.25101   55.377
 5395.00    1.29233   1.24400   -1.000
 5396.00    1.27625   1.23847   56.108
 5397.00    1.25791   1.23721   56.958
 5398.00    1.26033   1.24143   57.906
 5399.00    1.27462   1.24941   57.477
 5400.00    1.29050   1.25673   55.662
 5401.00    1.29873   1.25903   54.343
 5402.00    1.29829   1.25427   -1.000
 5403.00    1.28574   1.24395   -1.000
 5404.00    1.26658   1.23210   55.102
 5405.00    1.25074   1.22383   56.901
 5406.00    1.24435   1.22174   58.551
 5407.00    1.25507   1.22492   59.035
 5408.00    1.27294   1.23059   -1.000
 5409.00    1.27729   1.23647   57.043
 5410.00    1.28059   1.24272   56.815
 5411.00    1.28405   1.24971   57.223
 5412.00    1.28989   1.25712   56.619
 5413.00    1.30053   1.26382   55.069
 5414.00    1.30510   1.26905   53.957
 5415.00    1.30369   1.27340   53.568
 5416.00    1.30423   1.27738   53.640
 5417.00    1.30655   1.28081   53.572
 5418.00    1.30929   1.28306   53.149
 5419.00    1.30177   1.28358   52.934
 5420.00    1.29469   1.28236   53.258
 5421.00    1.29921   1.27982   53.767
 5422.00    1.30660   1.27644   53.959
 5423.00    1.29970   1.27352   53.701
 5424.00    1.29247   1.27247   53.686
 5425.00    1.28474   1.27312   54.463
 5426.00    1.29094   1.27362   54.712
 5427.00    1.30922   1.27133   -1.000
 5428.00    1.30366   1.26572   -1.000
 5429.00    1.28089   1.25906   53.777
 5430.00    1.26937   1.25375   55.417
 5431.00    1.27226   1.25086   56.870
 5432.00    1.28390   1.24909   56.604
 5433.00    1.29120   1.24771   -1.000
 5434.00    1.27919   1.24841   55.933
 5435.00    1.26396   1.25314   56.765
 5436.00    1.26788   1.26284   57.228
 5437.00    1.28627   1.27545   56.761
 5438.00    1.30456   1.28780   55.473
 5439.00    1.32035   1.29753   53.988
 5440.00    1.32258   1.30340   52.965
 5441.00    1.31764   1.30502   52.312
 5442.00    1.32298   1.30161   51.968
 5443.00    1.31866   1.29256   51.923
 5444.00    1.30700   1.27862   52.033
 5445.00    1.29190   1.26320   52.793
 5446.00    1.26634   1.25158   54.421
 5447.00    1.25515   1.24792   56.651
 5448.00    1.26372   1.25280   58.027
 5449.00    1.28475   1.26263   57.129
 5450.00    1.30729   1.27181   55.234
 5451.00    1.31575   1.27572   53.918
 5452.00    1.31485   1.27266   53.585
 5453.00    1.31476   1.26407   -1.000
 5454.00    1.30580   1.25457   -1.000
 5455.00    1.28462   1.24938   55.757
 5456.00    1.26957   1.25179   57.311
 5457.00    1.27826   1.26098   58.113
 5458.00    1.30980   1.27244   56.871
 5459.00    1.32529   1.28111   -1.000
 5460.00    1.31733   1.28400   53.669
 5461.00    1.31634   1.28191   53.638
 5462.00    1.31413   1.27794   54.414
 5463.00    1.30899   1.27525   55.414
 5464.00    1.30148   1.27546   56.051
 5465.00    1.30283   1.27843   56.129
 5466.00    1.31371   1.28272   55.357
 5467.00    1.30980   1.28671   54.796
 5468.00    1.31202   1.28949   54.501
 5469.00    1.32182   1.29041   53.932
 5470.00    1.33374   1.28931   -1.000
 5471.00    1.33145   1.28607   -1.000
 5472.00    1.31726   1.28062   54.958
 5473.00    1.31029   1.27306   55.136
 5474.00    1.30670   1.26404   -1.000
 5475.00    1.29984   1.25535   -1.000
 5476.00    1.27909   1.25012   57.008
 5477.00    1.27261   1.25040   58.204
 5478.00    1.28303   1.25540   58.811
 5479.00    1.30081   1.26265   57.911
 5480.00    1.31443   1.26914   -1.000
 5481.00    1.30995   1.27376   55.439
 5482.00    1.30475   1.27783   56.037
 5483.00    1.30917   1.28220   56.599
 5484.00    1.31365   1.28654   56.253
 5485.00    1.31415   1.28948   55.166
 5486.00    1.31169   1.29003   54.147
 5487.00    1.30732   1.28874   53.914
 5488.00    1.30444   1.28706   54.569
 5489.00    1.30846   1.28643   55.286
 5490.00    1.31129   1.28728   55.507
 5491.00    1.31291   1.28888   55.420
 5492.00    1.32047   1.29011   54.993
 5493.00    1.32338   1.28998   54.630
 5494.00    1.32040   1.28794   54.504
 5495.00    1.31658   1.28426   54.635
 5496.00    1.31345   1.28019   54.639
 5497.00    1.29851   1.27714   54.702
 5498.00    1.29141   1.27528   55.139
 5499.00    1.30114   1.27405   55.399
 5500.00    1.30819   1.27271   54.978
 5501.00    1.30188   1.27112   54.518
 5502.00    1.30048   1.26997   55.134
 5503.00    1.30338   1.26909   55.917
 5504.00    1.30855   1.26790   -1.000
 5505.00    1.31302   1.26621   -1.000
 5506.00    1.30398   1.26481   55.465
 5507.00    1.29320   1.26538   56.261
 5508.00    1.29812   1.26793   56.602
 5509.00    1.30665   1.27079   55.918
 5510.00    1.31079   1.27203   55.104
 5511.00    1.31342   1.27074   -1.000
 5512.00    1.31154   1.26846   -1.000
 5513.00    1.30975   1.26735   -1.000
 5514.00    1.30633   1.26894   57.542
 5515.00    1.30216   1.27352   57.806
 5516.00    1.30771   1.28020   56.956
 5517.00    1.32161   1.28737   55.960
 5518.00    1.32192   1.29361   55.091
 5519.00    1.33380   1.29787   54.056
 5520.00    1.33257   1.30001   53.302
 5521.00    1.33177   1.30036   53.275
 5522.00    1.33174   1.29880   53.375
 5523.00    1.32945   1.29498   53.496
 5524.00    1.32382   1.28781   53.674
 5525.00    1.31436   1.27761   53.795
 5526.00    1.30724   1.26664   -1.000
 5527.00    1.29399   1.25857   55.071
 5528.00    1.27778   1.25674   56.418
 5529.00    1.28304   1.26122   57.699
 5530.00    1.30020   1.26922   57.649
 5531.00    1.31145   1.27652   56.220
 5532.00    1.31639   1.28030   54.841
 5533.00    1.30965   1.28073   54.337
 5534.00    1.30359   1.28029   54.585
 5535.00    1.30204   1.28124   55.091
 5536.00    1.30536   1.28434   55.258
 5537.00    1.32155   1.28901   54.984
 5538.00    1.32657   1.29372   54.562
 5539.00    1.32391   1.29738   54.443
 5540.00    1.32674   1.29938   54.143
 5541.00    1.33073   1.29958   53.604
 5542.00    1.33120   1.29838   53.264
 5543.00    1.32732   1.29671   53.416
 5544.00    1.31945   1.29565   54.014
 5545.00    1.31226   1.29596   54.490
 5546.00    1.32009   1.29800   54.545
 5547.00    1.32054   1.30138   54.372
 5548.00    1.32692   1.30499   54.219
 5549.00    1.33069   1.30789   53.824
 5550.00    1.32890   1.30921   53.285
 5551.00    1.33344   1.30882   52.901
 5552.00    1.33498   1.30713   52.873
 5553.00    1.32934   1.30513   53.221
 5554.00    1.32063   1.30359   53.724
 5555.00    1.32280   1.30279   54.299
 5556.00    1.32227   1.30277   54.470
 5557.00    1.32505   1.30315   54.345
 5558.00    1.32328   1.30359   54.179
 5559.00    1.33199   1.30345   54.099
 5560.00    1.33752   1.30235   54.034
 5561.00    1.33948   1.30044   -1.000
 5562.00    1.33410   1.29802   54.162
 5563.00    1.32405   1.29561   54.498
 5564.00    1.31815   1.29342   55.055
 5565.00    1.31561   1.29139   55.384
 5566.00    1.32154   1.28935   55.514
 5567.00    1.31917   1.28701   55.616
 5568.00    1.30471   1.28491   55.641
 5569.00    1.30219   1.28308   55.508
 5570.00    1.30599   1.28110   55.435
 5571.00    1.30286   1.27970   55.593
 5572.00    1.30338   1.27921   55.537
 5573.00    1.27832   1.28005   55.574
 5574.00    1.22275   1.28263   55.692
 5575.00    1.07448   1.28637   -1.000
 5576.00    0.89423   1.29043   -1.000
 5577.00    1.07921   1.29411   -1.000
 5578.00    1.51833   1.29690   -1.000
 5579.00    1.68720   1.29836   -1.000
 5580.00    1.55351   1.29860   -1.000
 5581.00    1.36926   1.29759   -1.000
 5582.00    1.32134   1.29520   56.054
 5583.00    1.32525   1.29074   55.298
 5584.00    1.32177   1.28328   -1.000
 5585.00    1.31435   1.27319   -1.000
 5586.00    1.30191   1.26213   -1.000
 5587.00    1.28757   1.25325   56.606
 5588.00    1.27696   1.24921   58.029
 5589.00    1.26627   1.25090   59.188
 5590.00    1.27336   1.25660   59.382
 5591.00    1.29201   1.26352   58.519
 5592.00    1.30574   1.26952   -1.000
 5593.00    1.31020   1.27390   -1.000
 5594.00    1.30502   1.27720   56.725
 5595.00    1.29730   1.27917   56.908
 5596.00    1.30691   1.27935   56.434
 5597.00    1.31575   1.27761   -1.000
 5598.00    1.31142   1.27387   -1.000
 5599.00    1.30328   1.26907   56.030
 5600.00    1.31680   1.26537   -1.000
 5601.00    1.30732   1.26451   -1.000
 5602.00    1.29411   1.26762   57.420
 5603.00    1.29220   1.27517   57.784
 5604.00    1.29898   1.28561   57.879
 5605.00    1.31216   1.29652   56.712
 5606.00    1.33218   1.30563   55.138
 5607.00    1.33904   1.31181   53.993
 5608.00    1.34239   1.31536   53.480
 5609.00    1.33276   1.31690   53.441
 5610.00    1.33891   1.31642   53.543
 5611.00    1.34081   1.31308   53.632
 5612.00    1.34457   1.30603   -1.000
 5613.00    1.33950   1.29570   -1.000
 5614.00    1.32442   1.28544   -1.000
 5615.00    1.30445   1.27882   55.147
 5616.00    1.29205   1.27794   57.067
 5617.00    1.29835   1.28246   58.067
 5618.00    1.31838   1.28942   57.284
 5619.00    1.32656   1.29577   55.905
 5620.00    1.32306   1.29972   55.290
 5621.00    1.33368   1.30069   55.205
 5622.00    1.34061   1.29923   -1.000
 5623.00    1.32844   1.29653   54.725
 5624.00    1.31510   1.29422   55.128
 5625.00    1.31016   1.29397   56.306
 5626.00    1.31901   1.29607   57.162
 5627.00    1.33334   1.29998   56.681
 5628.00    1.33761   1.30428   55.674
 5629.00    1.33345   1.30775   54.912
 5630.00    1.33758   1.31007   54.322
 5631.00    1.34450   1.31100   53.977
 5632.00    1.34430   1.31081   53.842
 5633.00    1.34145   1.30968   53.650
 5634.00    1.33490   1.30766   53.786
 5635.00    1.33734   1.30519   54.243
 5636.00    1.32740   1.30255   54.618
 5637.00    1.32811   1.30004   54.965
 5638.00    1.33058   1.29786   55.374
 5639.00    1.33731   1.29610   -1.000
 5640.00    1.32486   1.29504   55.653
 5641.00    1.32175   1.29495   55.622
 5642.00    1.32148   1.29588   55.821
 5643.00    1.32544   1.29775   55.797
 5644.00    1.33863   1.30009   55.542
 5645.00    1.33034   1.30219   55.304
 5646.00    1.33650   1.30382   55.197
 5647.00    1.34613   1.30489   -1.000
 5648.00    1.33828   1.30546   54.681
 5649.00    1.34208   1.30603   54.545
 5650.00    1.34118   1.30663   54.498
 5651.00    1.33892   1.30708   54.639
 5652.00    1.33427   1.30685   54.563
 5653.00    1.34416   1.30496   -1.000
 5654.00    1.33973   1.30053   -1.000
 5655.00    1.32936   1.29305   54.327
 5656.00    1.33352   1.28394   -1.000
 5657.00    1.32168   1.27594   -1.000
 5658.00    1.30101   1.27133   56.606
 5659.00    1.28734   1.27138   58.332
 5660.00    1.28755   1.27496   58.953
 5661.00    1.30084   1.28035   57.855
 5662.00    1.31437   1.28624   56.680
 5663.00    1.31634   1.29131   56.622
 5664.00    1.31708   1.29514   56.652
 5665.00    1.32857   1.29717   55.911
 5666.00    1.32926   1.29701   55.172
 5667.00    1.32794   1.29585   55.080
 5668.00    1.33505   1.29529   -1.000
 5669.00    1.33290   1.29642   55.733
 5670.00    1.32561   1.29936   55.745
 5671.00    1.32834   1.30322   55.555
 5672.00    1.33426   1.30705   55.155
 5673.00    1.33691   1.31024   54.654
 5674.00    1.34636   1.31260   54.100
 5675.00    1.34156   1.31417   53.644
 5676.00    1.33731   1.31492   53.741
 5677.00    1.34015   1.31468   53.894
 5678.00    1.33849   1.31314   53.689
 5679.00    1.33353   1.30999   53.661
 5680.00    1.33684   1.30538   53.972
 5681.00    1.34270   1.30010   -1.000
 5682.00    1.34122   1.29545   -1.000
 5683.00    1.33569   1.29257   -1.000
 5684.00    1.32860   1.29168   -1.000
 5685.00    1.32546   1.29216   55.843
 5686.00    1.32330   1.29312   55.478
 5687.00    1.33123   1.29403   -1.000
 5688.00    1.32658   1.29530   55.670
 5689.00    1.31538   1.29769   56.322
 5690.00    1.32969   1.30141   56.350
 5691.00    1.33841   1.30583   -1.000
 5692.00    1.33867   1.30991   54.565
 5693.00    1.34291   1.31284   54.134
 5694.00    1.34522   1.31424   53.829
 5695.00    1.34318   1.31418   53.779
 5696.00    1.34389   1.31274   53.860
 5697.00    1.34000   1.31000   53.909
 5698.00    1.33042   1.30637   54.119
 5699.00    1.33749   1.30242   54.713
 5700.00    1.33559   1.29902   -1.000
 5701.00    1.32251   1.29717   55.818
 5702.00    1.30991   1.29682   56.400
 5703.00    1.31085   1.29705   56.538
 5704.00    1.31741   1.29669   56.017
 5705.00    1.32278   1.29435   55.465
 5706.00    1.32881   1.28960   -1.000
 5707.00    1.32137   1.28339   -1.000
 5708.00    1.31234   1.27749   56.786
 5709.00    1.30304   1.27390   57.859
 5710.00    1.29251   1.27400   58.676
 5711.00    1.28559   1.27803   58.895
 5712.00    1.29752   1.28491   58.654
 5713.00    1.31387   1.29277   57.933
 5714.00    1.32081   1.30008   56.642
 5715.00    1.33125   1.30594   55.270
 5716.00    1.33712   1.31014   54.561
 5717.00    1.33425   1.31330   54.448
 5718.00    1.33485   1.31594   54.325
 5719.00    1.33734   1.31832   54.137
 5720.00    1.33940   1.32050   53.851
 5721.00    1.33849   1.32237   53.501
 5722.00    1.34335   1.32352   53.278
 5723.00    1.35554   1.32348   53.169
 5724.00    1.35132   1.32201   53.093
 5725.00    1.35195   1.31945   53.050
 5726.00    1.34265   1.31652   53.234
 5727.00    1.33126   1.31409   53.736
 5728.00    1.34232   1.31300   54.303
 5729.00    1.34660   1.31321   54.644
 5730.00    1.34976   1.31433   -1.000
 5731.00    1.34296   1.31605   53.978
 5732.00    1.33474   1.31819   54.202
 5733.00    1.34061   1.32035   54.443
 5734.00    1.34120   1.32216   54.141
 5735.00    1.35055   1.32343   53.593
 5736.00    1.34809   1.32374   53.321
 5737.00    1.34613   1.32345   53.418
 5738.00    1.33892   1.32318   53.486
 5739.00    1.34281   1.32302   53.653
 5740.00    1.34370   1.32300   53.680
 5741.00    1.33506   1.32314   53.808
 5742.00    1.33588   1.32350   53.884
 5743.00    1.33782   1.32393   53.991
 5744.00    1.33919   1.32426   53.834
 5745.00    1.33841   1.32424   53.767
 5746.00    1.33824   1.32375   53.329
 5747.00    1.34375   1.32317   53.115
 5748.00    1.34798   1.32267   53.504
 5749.00    1.34829   1.32194   54.034
 5750.00    1.34970   1.32059   54.143
 5751.00    1.34064   1.31812   53.772
 5752.00    1.33555   1.31535   53.688
 5753.00    1.32341   1.31383   54.210
 5754.00    1.32030   1.31467   54.885
 5755.00    1.32828   1.31810   55.366
 5756.00    1.34388   1.32273   55.219
 5757.00    1.34335   1.32639   54.400
 5758.00    1.34443   1.32748   53.388
 5759.00    1.34912   1.32577   52.878
 5760.00    1.34267   1.32210   53.178
 5761.00    1.33787   1.31851   53.831
 5762.00    1.33357   1.31711   54.549
 5763.00    1.32795   1.31856   55.260
 5764.00    1.33784   1.32214   55.396
 5765.00    1.34533   1.32650   54.657
 5766.00    1.34091   1.32994   53.665
 5767.00    1.34254   1.33158   53.096
 5768.00    1.34922   1.33174   52.999
 5769.00    1.34825   1.33093   52.949
 5770.00    1.34165   1.32954   52.869
 5771.00    1.33921   1.32778   53.011
 5772.00    1.34116   1.32579   53.202
 5773.00    1.34559   1.32366   53.518
 5774.00    1.34091   1.32179   53.837
 5775.00    1.33797   1.32018   53.938
 5776.00    1.33295   1.31840   53.985
 5777.00    1.33014   1.31616   53.836
 5778.00    1.31868   1.31287   53.563
 5779.00    1.30104   1.30845   53.562
 5780.00    1.28740   1.30382   53.803
 5781.00    1.29963   1.30004   54.702
 5782.00    1.31299   1.29782   55.954
 5783.00    1.32104   1.29742   56.540
 5784.00    1.33163   1.29867   56.331
 5785.00    1.33293   1.30110   56.110
 5786.00    1.34618   1.30415   -1.000
 5787.00    1.33976   1.30741   55.675
 5788.00    1.33625   1.31042   54.989
 5789.00    1.33772   1.31283   54.271
 5790.00    1.34239   1.31505   53.931
 5791.00    1.34113   1.31758   54.061
 5792.00    1.33645   1.32077   54.300
 5793.00    1.34642   1.32440   54.147
 5794.00    1.34176   1.32753   53.662
 5795.00    1.34159   1.32937   53.314
 5796.00    1.34112   1.32995   53.015
 5797.00    1.33410   1.33018   53.040
 5798.00    1.33927   1.33088   53.402
 5799.00    1.34335   1.33261   53.700
 5800.00    1.35565   1.33489   53.338
 5801.00    1.36202   1.33654   52.607
 5802.00    1.35623   1.33699   51.923
 5803.00    1.35412   1.33643   51.916
 5804.00    1.35714   1.33549   52.413
 5805.00    1.34836   1.33495   52.810
 5806.00    1.34840   1.33530   53.235
 5807.00    1.35559   1.33623   53.421
 5808.00    1.34827   1.33736   53.251
 5809.00    1.34452   1.33827   53.048
 5810.00    1.35599   1.33863   52.906
 5811.00    1.35953   1.33832   52.920
 5812.00    1.35826   1.33719   52.850
 5813.00    1.36760   1.33542   -1.000
 5814.00    1.36380   1.33356   52.505
 5815.00    1.35524   1.33245   52.663
 5816.00    1.35978   1.33275   53.130
 5817.00    1.35551   1.33435   53.311
 5818.00    1.35528   1.33678   52.970
 5819.00    1.36689   1.33917   52.606
 5820.00    1.37129   1.34079   -1.000
 5821.00    1.36823   1.34159   52.080
 5822.00    1.36906   1.34182   51.932
 5823.00    1.37152   1.34188   52.055
 5824.00    1.36253   1.34208   52.232
 5825.00    1.36000   1.34265   52.101
 5826.00    1.36671   1.34356   52.031
 5827.00    1.36944   1.34471   51.932
 5828.00    1.36820   1.34569   51.894
 5829.00    1.37689   1.34627   -1.000
 5830.00    1.36606   1.34635   52.025
 5831.00    1.36308   1.34574   51.898
 5832.00    1.36208   1.34463   51.928
 5833.00    1.36445   1.34341   51.851
 5834.00    1.36963   1.34247   51.995
 5835.00    1.37878   1.34216   -1.000
 5836.00    1.37667   1.34257   -1.000
 5837.00    1.35559   1.34369   52.191
 5838.00    1.36297   1.34505   52.117
 5839.00    1.37332   1.34625   52.318
 5840.00    1.37385   1.34702   52.411
 5841.00    1.37723   1.34700   -1.000
 5842.00    1.37641   1.34605   -1.000
 5843.00    1.36782   1.34430   51.554
 5844.00    1.36064   1.34193   51.609
 5845.00    1.36520   1.33942   51.800
 5846.00    1.37397   1.33705   -1.000
 5847.00    1.37736   1.33487   -1.000
 5848.00    1.36614   1.33259   -1.000
 5849.00    1.35435   1.32980   52.867
 5850.00    1.36208   1.32600   -1.000
 5851.00    1.37056   1.32142   -1.000
 5852.00    1.35985   1.31675   -1.000
 5853.00    1.35530   1.31233   -1.000
 5854.00    1.35203   1.30819   -1.000
 5855.00    1.33842   1.30436   -1.000
 5856.00    1.34642   1.30133   -1.000
 5857.00    1.33252   1.29967   54.474
 5858.00    1.32352   1.30028   55.105
 5859.00    1.34076   1.30350   -1.000
 5860.00    1.34249   1.30821   -1.000
 5861.00    1.35565   1.31293   -1.000
 5862.00    1.35822   1.31635   -1.000
 5863.00    1.35557   1.31805   -1.000
 5864.00    1.35515   1.31835   -1.000
 5865.00    1.35825   1.31801   -1.000
 5866.00    1.35117   1.31793   53.684
 5867.00    1.35494   1.31880   -1.000
 5868.00    1.35893   1.32079   -1.000
 5869.00    1.35578   1.32334   -1.000
 5870.00    1.35961   1.32533   -1.000
 5871.00    1.36311   1.32602   -1.000
 5872.00    1.37289   1.32529   -1.000
 5873.00    1.37178   1.32346   -1.000
 5874.00    1.36774   1.32120   -1.000
 5875.00    1.37131   1.31888   -1.000
 5876.00    1.36574   1.31644   -1.000
 5877.00    1.36907   1.31385   -1.000
 5878.00    1.36107   1.31107   -1.000
 5879.00    1.34645   1.30799   -1.000
 5880.00    1.35182   1.30476   -1.000
 5881.00    1.34999   1.30130   -1.000
 5882.00    1.34413   1.29727   -1.000
 5883.00    1.34925   1.29199   -1.000
 5884.00    1.34994   1.28403   -1.000
 5885.00    1.33038   1.27106   -1.000
 5886.00    1.28976   1.25118   54.292
 5887.00    1.22476   1.22557   54.522
 5888.00    1.11582   1.19956   -1.000
 5889.00    1.02616   1.17986   -1.000
 5890.00    1.03903   1.17102   -1.000
 5891.00    1.13570   1.17291   65.285
 5892.00    1.20836   1.17919   66.033
 5893.00    1.20960   1.18333   63.877
 5894.00    1.14965   1.18394   61.231
 5895.00    1.09215   1.18473   -1.000
 5896.00    1.10201   1.19039   -1.000
 5897.00    1.17811   1.20328   63.120
 5898.00    1.26031   1.22222   -1.000
 5899.00    1.30806   1.24228   -1.000
 5900.00    1.32695   1.25982   -1.000
 5901.00    1.34104   1.27373   -1.000
 5902.00    1.35176   1.28393   -1.000
 5903.00    1.34982   1.29090   -1.000
 5904.00    1.34177   1.29547   -1.000
 5905.00    1.35187   1.29840   -1.000
 5906.00    1.34892   1.30047   -1.000
 5907.00    1.35273   1.30215   -1.000
 5908.00    1.35392   1.30339   -1.000
 5909.00    1.34129   1.30395   -1.000
 5910.00    1.35303   1.30337   -1.000
 5911.00    1.34733   1.30127   -1.000
 5912.00    1.34913   1.29785   -1.000
 5913.00    1.34453   1.29398   -1.000
 5914.00    1.34244   1.29066   -1.000
 5915.00    1.33032   1.28891   -1.000
 5916.00    1.34447   1.28924   -1.000
 5917.00    1.32467   1.29133   55.804
 5918.00    1.32240   1.29419   55.451
 5919.00    1.32135   1.29709   55.278
 5920.00    1.32690   1.29937   55.037
 5921.00    1.34053   1.30089   -1.000
 5922.00    1.33330   1.30213   54.707
 5923.00    1.33465   1.30352   54.767
 5924.00    1.34214   1.30511   -1.000
 5925.00    1.34977   1.30669   -1.000
 5926.00    1.35780   1.30756   -1.000
 5927.00    1.35355   1.30728   -1.000
 5928.00    1.34656   1.30631   -1.000
 5929.00    1.34686   1.30525   -1.000
 5930.00    1.35124   1.30468   -1.000
 5931.00    1.34394   1.30487   -1.000
 5932.00    1.34264   1.30548   -1.000
 5933.00    1.35146   1.30600   -1.000
 5934.00    1.34422   1.30640   -1.000
 5935.00    1.33776   1.30681   54.841
 5936.00    1.34447   1.30722   -1.000
 5937.00    1.35031   1.30728   -1.000
 5938.00    1.35218   1.30661   -1.000
 5939.00    1.35233   1.30504   -1.000
 5940.00    1.33461   1.30307   54.187
 5941.00    1.32139   1.30162   54.451
 5942.00    1.32684   1.30137   55.065
 5943.00    1.33710   1.30213   -1.000
 5944.00    1.33325   1.30332   55.219
 5945.00    1.33791   1.30424   -1.000
 5946.00    1.34194   1.30440   -1.000
 5947.00    1.34595   1.30405   -1.000
 5948.00    1.33269   1.30368   54.565
 5949.00    1.32960   1.30365   55.106
 5950.00    1.33917   1.30415   -1.000
 5951.00    1.34295   1.30482   -1.000
 5952.00    1.34193   1.30503   -1.000
 5953.00    1.33943   1.30466   -1.000
 5954.00    1.34748   1.30382   -1.000
 5955.00    1.33737   1.30301   -1.000
 5956.00    1.33060   1.30276   55.215
 5957.00    1.32751   1.30362   55.249
 5958.00    1.32373   1.30581   55.511
 5959.00    1.33602   1.30891   55.555
 5960.00    1.34516   1.31210   -1.000
 5961.00    1.33804   1.31441   54.588
 5962.00    1.34862   1.31541   -1.000
 5963.00    1.35143   1.31508   -1.000
 5964.00    1.34560   1.31393   53.891
 5965.00    1.34297   1.31275   54.047
 5966.00    1.33836   1.31219   54.372
 5967.00    1.33232   1.31256   54.529
 5968.00    1.34110   1.31383   54.734
 5969.00    1.34507   1.31545   54.546
 5970.00    1.33443   1.31681   54.090
 5971.00    1.34802   1.31755   54.016
 5972.00    1.34681   1.31734   54.012
 5973.00    1.34160   1.31595   53.872
 5974.00    1.34168   1.31367   53.829
 5975.00    1.33236   1.31113   54.183
 5976.00    1.33378   1.30901   54.628
 5977.00    1.33143   1.30805   55.039
 5978.00    1.32741   1.30844   55.428
 5979.00    1.33674   1.30948   55.651
 5980.00    1.35397   1.31027   -1.000
 5981.00    1.34921   1.30996   -1.000
 5982.00    1.33709   1.30858   54.661
 5983.00    1.33416   1.30692   54.843
 5984.00    1.32748   1.30595   55.340
 5985.00    1.32459   1.30630   55.825
 5986.00    1.32939   1.30786   56.063
 5987.00    1.32820   1.30998   55.787
 5988.00    1.33207   1.31187   55.148
 5989.00    1.34126   1.31342   54.870
 5990.00    1.33549   1.31506   54.702
 5991.00    1.33085   1.31711   54.417
 5992.00    1.33232   1.31954   54.566
 5993.00    1.33328   1.32185   54.688
 5994.00    1.33594   1.32333   54.352
 5995.00    1.34055   1.32346   53.876
 5996.00    1.34032   1.32249   53.779
 5997.00    1.33129   1.32103   54.234
 5998.00    1.32449   1.31963   54.598
 5999.00    1.33087   1.31849   54.816
 6000.00    1.33962   1.31747   54.914
 6001.00    1.34080   1.31634   54.783
 6002.00    1.33866   1.31513   54.866
 6003.00    1.32518   1.31379   55.236
 6004.00    1.32795   1.31211   55.386
 6005.00    1.33116   1.31015   55.339
 6006.00    1.32550   1.30830   55.170
 6007.00    1.31895   1.30727   55.242
 6008.00    1.31521   1.30756   55.695
 6009.00    1.31528   1.30911   56.276
 6010.00    1.31232   1.31126   56.174
 6011.00    1.32772   1.31317   55.442
 6012.00    1.33089   1.31421   54.892
 6013.00    1.33023   1.31448   55.008
 6014.00    1.34326   1.31430   55.482
 6015.00    1.32409   1.31382   55.743
 6016.00    1.32875   1.31301   55.381
 6017.00    1.33613   1.31173   55.431
 6018.00    1.34095   1.31033   -1.000
 6019.00    1.31369   1.30924   55.788
 6020.00    1.31638   1.30864   55.607
 6021.00    1.31137   1.30876   55.834
 6022.00    1.31367   1.30982   56.211
 6023.00    1.32152   1.31181   55.902
 6024.00    1.30890   1.31449   55.512
 6025.00    1.31981   1.31766   55.435
 6026.00    1.32858   1.32095   55.364
 6027.00    1.31901   1.32387   54.989
 6028.00    1.32754   1.32618   54.860
 6029.00    1.32700   1.32796   54.477
 6030.00    1.33863   1.32930   54.263
 6031.00    1.33482   1.33037   54.209
 6032.00    1.34135   1.33146   54.234
 6033.00    1.33121   1.33251   54.377
 6034.00    1.32691   1.33321   54.241
 6035.00    1.32689   1.33328   53.982
 6036.00    1.32904   1.33251   53.865
 6037.00    1.32752   1.33080   53.855
 6038.00    1.32511   1.32844   53.739
 6039.00    1.32614   1.32572   53.825
 6040.00    1.32500   1.32276   54.168
 6041.00    1.33102   1.32059   54.241
 6042.00    1.33602   1.32026   54.430
 6043.00    1.32719   1.32182   54.267
 6044.00    1.33160   1.32499   54.208
 6045.00    1.33087   1.32938   53.896
 6046.00    1.32923   1.33304   53.449
 6047.00    1.32464   1.33486   53.550
 6048.00    1.32796   1.33521   53.548
 6049.00    1.33694   1.33470   53.448
 6050.00    1.33825   1.33369   53.523
 6051.00    1.33482   1.33246   53.728
 6052.00    1.33439   1.33112   53.835
 6053.00    1.33216   1.32943   53.875
 6054.00    1.32269   1.32763   53.988
 6055.00    1.32446   1.32601   54.225
 6056.00    1.31719   1.32497   54.380
 6057.00    1.32191   1.32472   54.705
 6058.00    1.32699   1.32507   54.846
 6059.00    1.32264   1.32535   54.722
 6060.00    1.32465   1.32463   54.408
 6061.00    1.33070   1.32239   54.134
 6062.00    1.32716   1.31870   54.245
 6063.00    1.29989   1.31480   54.368
 6064.00    1.37523   1.31232   -1.000
 6065.00    0.66624   1.31258   -1.000
 6066.00    0.45605   1.31567   -1.000
 6067.00    1.19141   1.32082   -1.000
 6068.00    1.29696   1.32648   16.477
 6069.00    1.28369   1.33126   58.456
 6070.00    1.37421   1.33464   -1.000
 6071.00    0.74376   1.33673   -1.000
 6072.00    0.49393   1.33769   -1.000
 6073.00    1.37473   1.33760   -1.000
 6074.00    1.32496   1.33649   53.486
 6075.00    1.32231   1.33447   53.726
 6076.00    1.32235   1.33192   53.761
 6077.00    1.32870   1.32924   53.961
 6078.00    1.32581   1.32675   54.252
 6079.00    1.31216   1.32455   54.564
 6080.00    1.31716   1.32271   55.004
 6081.00    1.31630   1.32130   55.326
 6082.00    1.31601   1.32043   55.321
 6083.00    1.31109   1.32025   55.380
 6084.00    1.30577   1.32090   55.552
 6085.00    1.30712   1.32209   55.526
 6086.00    1.31008   1.32329   55.484
 6087.00    1.31673   1.32399   55.423
 6088.00    1.31994   1.32397   55.250
 6089.00    1.31179   1.32337   55.021
 6090.00    1.31303   1.32270   55.169
 6091.00    1.30638   1.32256   55.526
 6092.00    1.30382   1.32340   55.746
 6093.00    1.30924   1.32529   55.690
 6094.00    1.31209   1.32776   55.298
 6095.00    1.31234   1.33018   55.037
 6096.00    1.31640   1.33181   54.718
 6097.00    1.31583   1.33183   54.491
 6098.00    1.31732   1.32947   54.537
 6099.00    1.31465   1.32433   54.683
 6100.00    1.31085   1.31734   54.706
 6101.00    1.31011   1.31044   54.708
 6102.00    1.29268   1.30587   55.435
 6103.00    1.28186   1.30502   56.867
 6104.00    1.28595   1.30820   57.718
 6105.00    1.30059   1.31399   57.173
 6106.00    1.31227   1.32034   56.026
 6107.00    1.30583   1.32562   55.213
 6108.00    1.29868   1.32928   55.083
 6109.00    1.30303   1.33142   55.327
 6110.00    1.29509   1.33247   55.450
 6111.00    1.29758   1.33281   55.413
 6112.00    1.30783   1.33292   55.285
 6113.00    1.30494   1.33299   55.029
 6114.00    1.29980   1.33299   55.044
 6115.00    1.30449   1.33233   54.718
 6116.00    1.29973   1.32998   54.607
 6117.00    1.30099   1.32536   54.850
 6118.00    1.30924   1.31831   55.225
 6119.00    1.31197   1.30964   55.272
 6120.00    1.29687   1.30158   55.564
 6121.00    1.28772   1.29671   56.422
 6122.00    1.27664   1.29622   57.139
 6123.00    1.26785   1.29990   57.667
 6124.00    1.27347   1.30620   57.668
 6125.00    1.28329   1.31217   56.646
 6126.00    1.28815   1.31634   55.947
 6127.00    1.28939   1.31931   55.991
 6128.00    1.29001   1.32199   56.343
 6129.00    1.29748   1.32485   56.230
 6130.00    1.30197   1.32770   56.109
 6131.00    1.29297   1.32907   55.618
 6132.00    1.29324   1.32652   55.090
 6133.00    1.30165   1.31908   55.013
 6134.00    1.30079   1.30829   55.134
 6135.00    1.28259   1.29720   55.694
 6136.00    1.26499   1.28888   57.021
 6137.00    1.24517   1.28511   58.745
 6138.00    1.23279   1.28595   60.194
 6139.00    1.24464   1.29014   60.258
 6140.00    1.25646   1.29570   58.616
 6141.00    1.26327   1.30144   56.956
 6142.00    1.26297   1.30717   56.411
 6143.00    1.26634   1.31286   56.562
 6144.00    1.27669   1.31741   56.646
 6145.00    1.27981   1.31949   56.017
 6146.00    1.28418   1.31906   55.343
 6147.00    1.29176   1.31711   55.310
 6148.00    1.28733   1.31507   55.588
 6149.00    1.28075   1.31392   55.948
 6150.00    1.27836   1.31404   56.357
 6151.00    1.27935   1.31488   56.678
 6152.00    1.27988   1.31551   56.656
 6153.00    1.27601   1.31524   56.433
 6154.00    1.28149   1.31363   56.023
 6155.00    1.28541   1.31067   55.985
 6156.00    1.27693   1.30631   56.505
 6157.00    1.27859   1.29988   56.772
 6158.00    1.28247   1.29067   56.795
 6159.00    1.26931   1.27907   57.051
 6160.00    1.26635   1.26711   57.688
 6161.00    1.25689   1.25733   58.829
 6162.00    1.24187   1.25220   60.670
 6163.00    1.22881   1.25264   62.418
 6164.00    1.23191   1.25746   62.922
 6165.00    1.24757   1.26351   61.880
 6166.00    1.25655   1.26810   60.115
 6167.00    1.26125   1.27048   59.265
 6168.00    1.25826   1.27163   59.053
 6169.00    1.24939   1.27297   59.235
 6170.00    1.23926   1.27559   60.059
 6171.00    1.24581   1.27995   60.644
 6172.00    1.25345   1.28543   60.115
 6173.00    1.26715   1.29074   58.899
 6174.00    1.26092   1.29503   58.111
 6175.00    1.26680   1.29823   58.233
 6176.00    1.26407   1.30056   58.267
 6177.00    1.25708   1.30220   58.110
 6178.00    1.26456   1.30358   58.004
 6179.00    1.26825   1.30491   57.842
 6180.00    1.27162   1.30610   57.545
 6181.00    1.27040   1.30698   57.345
 6182.00    1.26750   1.30735   57.163
 6183.00    1.27011   1.30676   56.889
 6184.00    1.27754   1.30496   56.757
 6185.00    1.27599   1.30187   56.891
 6186.00    1.26900   1.29739   57.096
 6187.00    1.26665   1.29152   57.574
 6188.00    1.26518   1.28485   58.217
 6189.00    1.26897   1.27886   58.814
 6190.00    1.26461   1.27507   59.370
 6191.00    1.24996   1.27465   59.787
 6192.00    1.23983   1.27788   60.608
 6193.00    1.23711   1.28391   60.954
 6194.00    1.24655   1.29065   60.194
 6195.00    1.25504   1.29603   58.637
 6196.00    1.26018   1.29894   57.733
 6197.00    1.26403   1.29981   57.417
 6198.00    1.26443   1.29965   57.348
 6199.00    1.25829   1.29964   57.759
 6200.00    1.25447   1.30070   58.453
 6201.00    1.25183   1.30314   58.908
 6202.00    1.24238   1.30641   58.813
 6203.00    1.24542   1.30958   58.177
 6204.00    1.25414   1.31205   57.440
 6205.00    1.26353   1.31362   57.327
 6206.00    1.26697   1.31427   57.337
 6207.00    1.27436   1.31398   57.230
 6208.00    1.27017   1.31258   57.238
 6209.00    1.27010   1.30978   57.478
 6210.00    1.26638   1.30545   57.450
 6211.00    1.26110   1.29995   57.730
 6212.00    1.25615   1.29404   58.280
 6213.00    1.25151   1.28858   58.724
 6214.00    1.25259   1.28427   59.313
 6215.00    1.23951   1.28143   60.245
 6216.00    1.24408   1.27980   60.821
 6217.00    1.25320   1.27900   60.951
 6218.00    1.24663   1.27883   60.081
 6219.00    1.24032   1.27932   59.844
 6220.00    1.24155   1.28041   60.351
 6221.00    1.24749   1.28207   60.065
 6222.00    1.25089   1.28395   59.613
 6223.00    1.28269   1.28553   60.048
 6224.00    1.27386   1.28622   64.865
 6225.00    1.25614   1.28558   62.193
 6226.00    1.25401   1.28311   59.315
 6227.00    1.25454   1.27866   59.350
 6228.00    1.25509   1.27302   59.369
 6229.00    1.24959   1.26775   59.730
 6230.00    1.24224   1.26472   60.577
 6231.00    1.22429   1.26512   61.594
 6232.00    1.21810   1.26892   62.361
 6233.00    1.23735   1.27443   62.028
 6234.00    1.24458   1.27946   61.104
 6235.00    1.25244   1.28228   59.933
 6236.00    1.25736   1.28245   58.971
 6237.00    1.25367   1.28056   58.741
 6238.00    1.24767   1.27780   59.172
 6239.00    1.24383   1.27507   59.780
 6240.00    1.24222   1.27258   60.386
 6241.00    1.23603   1.27012   61.033
 6242.00    1.23243   1.26743   61.261
 6243.00    1.22630   1.26478   61.225
 6244.00    1.22298   1.26308   61.707
 6245.00    1.22834   1.26334   62.105
 6246.00    1.22281   1.26587   62.041
 6247.00    1.22185   1.26987   61.628
 6248.00    1.23001   1.27364   61.006
 6249.00    1.24233   1.27544   60.220
 6250.00    1.24584   1.27452   59.602
 6251.00    1.22928   1.27139   59.570
 6252.00    1.22550   1.26740   60.152
 6253.00    1.21528   1.26397   61.295
 6254.00    1.20040   1.26194   62.026
 6255.00    1.20603   1.26140   62.437
 6256.00    1.20860   1.26209   62.600
 6257.00    1.20961   1.26392   62.566
 6258.00    1.20936   1.26696   63.167
 6259.00    1.21232   1.27127   63.725
 6260.00    1.21585   1.27639   63.415
 6261.00    1.21928   1.28144   62.433
 6262.00    1.22654   1.28557   61.500
 6263.00    1.22724   1.28850   60.669
 6264.00    1.23157   1.29025   59.722
 6265.00    1.23111   1.29102   59.453
 6266.00    1.22417   1.29110   59.954
 6267.00    1.22520   1.29070   60.345
 6268.00    1.22808   1.28988   60.050
 6269.00    1.22272   1.28855   59.608
 6270.00    1.21718   1.28665   59.845
 6271.00    1.21804   1.28396   60.149
 6272.00    1.22265   1.28004   60.056
 6273.00    1.22057   1.27452   59.845
 6274.00    1.21465   1.26748   59.707
 6275.00    1.21057   1.25981   59.875
 6276.00    1.19116   1.25279   60.320
 6277.00    1.16255   1.24782   -1.000
 6278.00    1.14278   1.24581   -1.000
 6279.00    1.15282   1.24714   -1.000
 6280.00    1.16399   1.25148   -1.000
 6281.00    1.15424   1.25808   -1.000
 6282.00    1.14633   1.26588   -1.000
 6283.00    1.15376   1.27375   -1.000
 6284.00    1.16707   1.28068   -1.000
 6285.00    1.18960   1.28599   -1.000
 6286.00    1.21364   1.28929   -1.000
 6287.00    1.21057   1.29063   -1.000
 6288.00    1.21280   1.29026   -1.000
 6289.00    1.21672   1.28866   59.342
 6290.00    1.21620   1.28633   59.232
 6291.00    1.20099   1.28384   -1.000
 6292.00    1.20334   1.28134   -1.000
 6293.00    1.20711   1.27874   60.514
 6294.00    1.20218   1.27594   -1.000
 6295.00    1.20395   1.27312   60.690
 6296.00    1.21364   1.27059   60.799
 6297.00    1.21453   1.26864   61.280
 6298.00    1.21752   1.26752   61.681
 6299.00    1.23458   1.26741   61.769
 6300.00    1.27845   1.26837   61.674
 6301.00    1.28906   1.27043   61.410
 6302.00    1.26621   1.27357   61.137
 6303.00    1.23678   1.27767   61.671
 6304.00    1.21558   1.28223   62.379
 6305.00    1.21096   1.28656   -1.000
 6306.00    1.21700   1.29018   60.853
 6307.00    1.22328   1.29292   60.110
 6308.00    1.21817   1.29472   59.600
 6309.00    1.21904   1.29545   59.056
 6310.00    1.21318   1.29509   -1.000
 6311.00    1.21789   1.29377   59.230
 6312.00    1.21738   1.29174   59.636
 6313.00    1.21281   1.28930   -1.000
 6314.00    1.20055   1.28672   -1.000
 6315.00    1.19790   1.28442   -1.000
 6316.00    1.20089   1.28301   -1.000
 6317.00    1.20588   1.28302   -1.000
 6318.00    1.19423   1.28462   -1.000
 6319.00    1.18887   1.28772   -1.000
 6320.00    1.20075   1.29195   -1.000
 6321.00    1.20891   1.29653   -1.000
 6322.00    1.21045   1.30068   -1.000
 6323.00    1.21353   1.30403   -1.000
 6324.00    1.21519   1.30649   -1.000
 6325.00    1.21005   1.30806   -1.000
 6326.00    1.22055   1.30882   -1.000
 6327.00    1.22911   1.30912   58.447
 6328.00    1.22442   1.30936   -1.000
 6329.00    1.22791   1.30957   -1.000
 6330.00    1.23111   1.30939   58.177
 6331.00    1.23414   1.30824   58.218
 6332.00    1.23039   1.30574   58.259
 6333.00    1.23215   1.30216   58.047
 6334.00    1.21721   1.29840   57.951
 6335.00    1.19109   1.29573   -1.000
 6336.00    1.20549   1.29517   -1.000
 6337.00    1.20912   1.29695   -1.000
 6338.00    1.21411   1.30025   -1.000
 6339.00    1.22153   1.30363   -1.000
 6340.00    1.22302   1.30589   -1.000
 6341.00    1.23296   1.30656   58.010
 6342.00    1.22641   1.30581   57.724
 6343.00    1.22765   1.30434   57.442
 6344.00    1.22762   1.30313   57.483
 6345.00    1.22412   1.30312   58.002
 6346.00    1.22357   1.30479   -1.000
 6347.00    1.23009   1.30792   57.932
 6348.00    1.23000   1.31168   57.619
 6349.00    1.22922   1.31500   -1.000
 6350.00    1.23384   1.31693   56.995
 6351.00    1.22940   1.31705   -1.000
 6352.00    1.22626   1.31556   -1.000
 6353.00    1.22587   1.31306   -1.000
 6354.00    1.22698   1.31009   -1.000
 6355.00    1.22092   1.30702   -1.000
 6356.00    1.21738   1.30405   -1.000
 6357.00    1.23027   1.30116   58.602
 6358.00    1.22453   1.29835   58.636
 6359.00    1.22163   1.29586   -1.000
 6360.00    1.22118   1.29411   -1.000
 6361.00    1.21349   1.29349   -1.000
 6362.00    1.22725   1.29412   59.501
 6363.00    1.23668   1.29597   59.308
 6364.00    1.25153   1.29875   59.250
 6365.00    1.25479   1.30187   59.048
 6366.00    1.24100   1.30459   58.661
 6367.00    1.23251   1.30645   58.286
 6368.00    1.23077   1.30745   57.972
 6369.00    1.21756   1.30801   -1.000
 6370.00    1.22084   1.30865   -1.000
 6371.00    1.21695   1.30978   -1.000
 6372.00    1.21613   1.31141   -1.000
 6373.00    1.22111   1.31309   -1.000
 6374.00    1.21510   1.31418   -1.000
 6375.00    1.21446   1.31420   -1.000
 6376.00    1.21533   1.31307   -1.000
 6377.00    1.21090   1.31116   -1.000
 6378.00    1.20659   1.30900   -1.000
 6379.00    1.20634   1.30705   -1.000
 6380.00    1.20951   1.30572   -1.000
 6381.00    1.20316   1.30518   -1.000
 6382.00    1.20413   1.30544   -1.000
 6383.00    1.19913   1.30638   -1.000
 6384.00    1.19821   1.30773   -1.000
 6385.00    1.19525   1.30915   -1.000
 6386.00    1.19475   1.31025   -1.000
 6387.00    1.18775   1.31055   -1.000
 6388.00    1.18171   1.30960   -1.000
 6389.00    1.17901   1.30712   -1.000
 6390.00    1.16911   1.30351   -1.000
 6391.00    1.16160   1.29978   -1.000
 6392.00    1.15227   1.29709   -1.000
 6393.00    1.14415   1.29628   -1.000
 6394.00    1.13405   1.29727   -1.000
 6395.00    1.12444   1.29900   -1.000
 6396.00    1.12337   1.30005   -1.000
 6397.00    1.12691   1.29967   -1.000
 6398.00    1.12990   1.29843   -1.000
 6399.00    1.12867   1.29777   -1.000
 6400.00    1.11049   1.29900   -1.000
 6401.00    1.08816   1.30231   -1.000
 6402.00    1.09006   1.30654   -1.000
 6403.00    1.11148   1.30987   -1.000
 6404.00    1.11233   1.31084   -1.000
 6405.00    1.10039   1.30929   -1.000
 6406.00    1.09911   1.30627   -1.000
 6407.00    1.08787   1.30308   -1.000
 6408.00    1.08417   1.30086   -1.000
 6409.00    1.07484   1.30008   -1.000
 6410.00    1.06158   1.30053   -1.000
 6411.00    1.05606   1.30161   -1.000
 6412.00    1.05091   1.30275   -1.000
 6413.00    1.03735   1.30387   -1.000
 6414.00    1.03094   1.30497   -1.000
 6415.00    1.03701   1.30571   -1.000
 6416.00    1.02976   1.30560   -1.000
 6417.00    1.02039   1.30456   -1.000
 6418.00    1.01450   1.30296   -1.000
 6419.00    1.00578   1.30160   -1.000
 6420.00    0.99827   1.30157   -1.000
 6421.00    0.98738   1.30357   -1.000
 6422.00    0.97469   1.30752   -1.000
 6423.00    0.96389   1.31247   -1.000
 6424.00    0.95629   1.31693   -1.000
 6425.00    0.96373   1.31949   -1.000
 6426.00    0.95587   1.31943   -1.000
 6427.00    0.94495   1.31682   -1.000
 6428.00    0.93359   1.31251   -1.000
