###################################################################
## OUTPUT of StarlightChains_v04.for    [Cid@UFSC - 01/Apr/2007] ##
###################################################################

## Some input info
NGC6624_a_2.cxt                          [arq_obs]
Base.BC03.S                              [arq_base]
NGC6624_a_2.msk                          [arq_masks]
StCv04.C11.config                        [arq_config]
  150                                    [N_base]
    0                                    [N_YAV_components = # of components with extra extinction!]
    0                                    [i_FitPowerLaw (1/0 = Yes/No)]
-9.99                                    [alpha_PowerLaw]
CCM                                      [red_law_option]
 1.458241                                [q_norm = A(l_norm)/A(V)]

## (Re)Sampling Parameters
 3359.00                                 [l_ini (A)]
 6428.00                                 [l_fin (A)]
    1.00                                 [dl    (A)]     (OBS: dl_cushion =    50.00 A)

## Normalization info
 4020.00                                 [l_norm (A) - for base]
 4010.00                                 [llow_norm (A) - window for f_obs]
 4060.00                                 [lupp_norm (A) - window for f_obs]
2.206219E-14                             [fobs_norm (in input units)]

## S/N
 4730.00                                 [llow_SN (A) - window for S/N]
 4780.00                                 [lupp_SN (A) - window for S/N]
  40.676                                 [S/N in S/N window]
  27.417                                 [S/N in norm. window]
 123.712                                 [S/N_err in S/N window]
  83.385                                 [S/N_err in norm. window]
  1.0000                                 [fscale_chi2]

## etc...
  2147483596                             [idum_orig]
  3068                                   [NOl_eff]
  1234                                   [Nl_eff]
  1834    NSIGMA                         [Ntot_cliped & clip_method]
  1334970                                [Nglobal_steps]
   7                                     [N_chains]
  19                                     [NEX0s_base = N_base in EX0s-fits]
 0   0   1      121   2.0   9.130E+02    [Clip-Bug, RC-Crash & Burn-In warning-flags, n_censored_weights, wei_nsig_threshold & wei_limit]
    56     56.221     56.201      0.020  [idt_all, wdt_TotTime, wdt_UsrTime & wdt_SysTime (sec)]

## Synthesis Results - Best model ##

 2.43416E+00                             [chi2/Nl_eff]
     1.27481                             [adev (%)]

    99.06500                             [sum-of-x (%)]
 4.95789E-14                             [Flux_tot (units of input spectrum!)]
 2.23800E-09                             [Mini_tot (???)]
 1.12989E-09                             [Mcor_tot (???)]

  27.10                                  [v0_min  (km/s)]
  48.54                                  [vd_min  (km/s)]
 0.6099                                  [AV_min  (mag)]
 0.0000                                  [YAV_min (mag)]

# j     x_j(%)      Mini_j(%)     Mcor_j(%)     age_j(yr)     Z_j      (L/M)_j    YAV?  Mstars   component_j        a/Fe...       SSP_chi2r SSP_adev(%)   SSP_AV   SSP_x(%)
  1      0.0000     0.0000E+00    0.0000E+00    1.000000E+06  0.00010  8.160E-03    0   1.0000   age020_m22            0.0000     1.1447E+03    25.0067   4.0000    84.7316
  2      0.0000     0.0000E+00    0.0000E+00    3.160000E+06  0.00010  4.759E-02    0   1.0000   age045_m22            0.0000     1.5832E+02    10.2312   2.8055    95.3886
  3      0.0000     0.0000E+00    0.0000E+00    5.010000E+06  0.00010  1.932E-02    0   0.9582   age055_m22            0.0000     4.0989E+02    15.7437   3.1705    80.0100
  4      0.0000     0.0000E+00    0.0000E+00    6.610000E+06  0.00010  9.973E-03    0   0.9297   age061_m22            0.0000     1.0942E+03    24.2956   4.0000    87.4313
  5      0.0000     0.0000E+00    0.0000E+00    8.710000E+06  0.00010  7.690E-03    0   0.9030   age067_m22            0.0000     1.0567E+03    23.9505   4.0000    87.9701
  6      0.0000     0.0000E+00    0.0000E+00    1.000000E+07  0.00010  6.375E-03    0   0.8902   age070_m22            0.0000     1.0521E+03    23.9151   4.0000    88.4200
  7      0.0000     0.0000E+00    0.0000E+00    1.445000E+07  0.00010  4.874E-03    0   0.8589   age078_m22            0.0000     7.1490E+02    20.2399   4.0000    90.2703
  8      0.0000     0.0000E+00    0.0000E+00    2.512000E+07  0.00010  4.103E-03    0   0.8174   age090_m22            0.0000     2.7550E+02    13.5700   4.0000    91.8093
  9      0.0000     0.0000E+00    0.0000E+00    4.000000E+07  0.00010  3.654E-03    0   0.7830   age104_m22            0.0000     2.1089E+02    12.3714   3.8776    93.7766
 10      0.0000     0.0000E+00    0.0000E+00    5.500000E+07  0.00010  3.093E-03    0   0.7597   age110_m22            0.0000     2.0786E+02    11.9981   3.7657    95.7465
 11      0.0000     0.0000E+00    0.0000E+00    1.015200E+08  0.00010  2.431E-03    0   0.7138   age116_m22            0.0000     2.2725E+02    11.9340   3.4007    99.3643
 12      0.0000     0.0000E+00    0.0000E+00    1.609000E+08  0.00010  1.319E-03    0   0.6775   age120_m22            0.0000     2.0987E+02    11.2659   2.9238   101.6152
 13      0.0000     0.0000E+00    0.0000E+00    2.861200E+08  0.00010  1.075E-03    0   0.6412   age125_m22            0.0000     3.4781E+02    12.6371   2.9535   106.7214
 14      0.0000     0.0000E+00    0.0000E+00    5.088000E+08  0.00010  7.183E-04    0   0.6083   age130_m22            0.0000     3.9757E+02    13.0823   2.7110   108.9769
 15      0.0000     0.0000E+00    0.0000E+00    9.047900E+08  0.00010  4.524E-04    0   0.5785   age135_m22            0.0000     3.9903E+02    12.9999   2.5040   110.4208
 16      0.0000     0.0000E+00    0.0000E+00    1.278050E+09  0.00010  3.018E-04    0   0.5588   age138_m22            0.0000     2.3305E+02    10.3991   1.9919   107.7871
 17      0.0000     0.0000E+00    0.0000E+00    1.434000E+09  0.00010  2.691E-04    0   0.5532   age139_m22            0.0000     2.0400E+02     9.8364   1.8403   107.0278
 18      0.0000     0.0000E+00    0.0000E+00    2.500000E+09  0.00010  1.582E-04    0   0.5296   age150_m22            0.0000     1.9192E+02     9.8581   1.7257   107.7305
 19      0.0000     0.0000E+00    0.0000E+00    4.250000E+09  0.00010  1.007E-04    0   0.5110   age158_m22            0.0000     1.4137E+02     8.7987   1.5882   105.3720
 20      0.0000     0.0000E+00    0.0000E+00    6.250000E+09  0.00010  6.869E-05    0   0.4985   age166_m22            0.0000     1.0897E+02     8.0106   1.5470   101.8593
 21      0.0000     0.0000E+00    0.0000E+00    7.500000E+09  0.00010  5.873E-05    0   0.4931   age171_m22            0.0000     1.0962E+02     8.1405   1.5374   101.2057
 22      0.0134     6.6685E-03    6.4114E-03    1.000000E+10  0.00010  4.481E-05    0   0.4854   age181_m22            0.0000     1.0676E+02     8.0436   1.4996   100.8339
 23      0.0000     0.0000E+00    0.0000E+00    1.300000E+10  0.00010  3.489E-05    0   0.4791   age193_m22            0.0000     1.0040E+02     7.8088   1.4443   100.2385
 24      0.0029     2.1014E-03    1.9837E-03    1.500000E+10  0.00010  3.035E-05    0   0.4766   age201_m22            0.0000     9.7049E+01     7.6990   1.4059   100.0261
 25      0.0030     2.6632E-03    2.4977E-03    1.800000E+10  0.00010  2.510E-05    0   0.4735   age213_m22            0.0000     9.0698E+01     7.4815   1.3401    99.3147
 26      0.0000     0.0000E+00    0.0000E+00    1.000000E+06  0.00040  8.458E-03    0   1.0000   age020_m32            0.0000     1.1615E+03    25.1012   4.0000    85.5915
 27      0.0000     0.0000E+00    0.0000E+00    3.160000E+06  0.00040  3.973E-02    0   1.0000   age045_m32            0.0000     2.6073E+02    13.2342   4.0000    89.7254
 28      0.0000     0.0000E+00    0.0000E+00    5.010000E+06  0.00040  1.935E-02    0   0.9532   age055_m32            0.0000     5.0805E+02    17.0693   4.0000    86.8179
 29      0.0000     0.0000E+00    0.0000E+00    6.610000E+06  0.00040  1.204E-02    0   0.9243   age061_m32            0.0000     8.3542E+02    21.5746   4.0000    88.6074
 30      0.0000     0.0000E+00    0.0000E+00    8.710000E+06  0.00040  9.433E-03    0   0.9001   age067_m32            0.0000     7.6415E+02    20.7867   4.0000    89.4774
 31      0.0000     0.0000E+00    0.0000E+00    1.000000E+07  0.00040  8.053E-03    0   0.8877   age070_m32            0.0000     7.0978E+02    20.1084   4.0000    89.6289
 32      0.0000     0.0000E+00    0.0000E+00    1.445000E+07  0.00040  7.027E-03    0   0.8578   age078_m32            0.0000     2.9079E+02    14.1553   4.0000    87.4148
 33      0.0000     0.0000E+00    0.0000E+00    2.512000E+07  0.00040  4.707E-03    0   0.8166   age090_m32            0.0000     2.3267E+02    13.0557   3.7538    90.7117
 34      0.0000     0.0000E+00    0.0000E+00    4.000000E+07  0.00040  3.714E-03    0   0.7827   age104_m32            0.0000     2.0748E+02    12.2850   3.5263    95.0746
 35      0.0000     0.0000E+00    0.0000E+00    5.500000E+07  0.00040  2.982E-03    0   0.7593   age110_m32            0.0000     2.0692E+02    12.0730   3.4560    96.6106
 36      0.0000     0.0000E+00    0.0000E+00    1.015200E+08  0.00040  2.188E-03    0   0.7143   age116_m32            0.0000     2.5151E+02    11.8884   3.1610   102.2217
 37      0.0000     0.0000E+00    0.0000E+00    1.609000E+08  0.00040  1.690E-03    0   0.6856   age120_m32            0.0000     3.1054E+02    12.2861   2.9366   105.7385
 38      0.0000     0.0000E+00    0.0000E+00    2.861200E+08  0.00040  1.152E-03    0   0.6509   age125_m32            0.0000     3.5736E+02    12.6093   2.7000   108.1495
 39      0.0000     0.0000E+00    0.0000E+00    5.088000E+08  0.00040  7.331E-04    0   0.6182   age130_m32            0.0000     3.7534E+02    12.6536   2.5306   109.1248
 40      0.0000     0.0000E+00    0.0000E+00    9.047900E+08  0.00040  3.960E-04    0   0.5890   age135_m32            0.0000     2.3432E+02    10.3266   2.0842   107.0249
 41      0.0000     0.0000E+00    0.0000E+00    1.278050E+09  0.00040  2.854E-04    0   0.5687   age138_m32            0.0000     2.0607E+02    10.0121   1.7873   108.9317
 42      0.0000     0.0000E+00    0.0000E+00    1.434000E+09  0.00040  2.531E-04    0   0.5632   age139_m32            0.0000     2.0263E+02     9.9428   1.7257   108.9307
 43      0.0000     0.0000E+00    0.0000E+00    2.500000E+09  0.00040  1.488E-04    0   0.5386   age150_m32            0.0000     1.6108E+02     8.9370   1.4758   106.8548
 44      0.0000     0.0000E+00    0.0000E+00    4.250000E+09  0.00040  9.082E-05    0   0.5199   age158_m32            0.0000     9.6960E+01     7.3765   1.4022   102.4092
 45      7.3132     2.5706E+00    2.5845E+00    6.250000E+09  0.00040  6.362E-05    0   0.5076   age166_m32            0.0000     8.1112E+01     6.9942   1.3830    98.0572
 46      6.6545     2.8136E+00    2.8015E+00    7.500000E+09  0.00040  5.289E-05    0   0.5027   age171_m32            0.0000     7.7030E+01     6.8058   1.3516    96.6208
 47     14.3441     8.0757E+00    7.9147E+00    1.000000E+10  0.00040  3.972E-05    0   0.4948   age181_m32            0.0000     7.1245E+01     6.5320   1.2926    95.1661
 48      0.0000     0.0000E+00    0.0000E+00    1.300000E+10  0.00040  3.283E-05    0   0.4870   age193_m32            0.0000     7.0033E+01     6.5043   1.2359    98.4344
 49      0.0000     0.0000E+00    0.0000E+00    1.500000E+10  0.00040  2.925E-05    0   0.4854   age201_m32            0.0000     7.4174E+01     6.6359   1.2099   100.3608
 50      0.0000     3.3423E-05    3.1903E-05    1.800000E+10  0.00040  2.469E-05    0   0.4819   age213_m32            0.0000     7.4820E+01     6.6269   1.1661   101.0516
 51      0.0000     0.0000E+00    0.0000E+00    1.000000E+06  0.00400  1.114E-02    0   1.0000   age020_m42            0.0000     1.0371E+03    23.8234   4.0000    85.5987
 52      0.0000     0.0000E+00    0.0000E+00    3.160000E+06  0.00400  4.073E-02    0   0.9999   age045_m42            0.0000     1.9411E+02    11.6182   3.8063    90.5841
 53      0.0000     0.0000E+00    0.0000E+00    5.010000E+06  0.00400  2.534E-02    0   0.9488   age055_m42            0.0000     3.3770E+02    14.4261   4.0000    87.6374
 54      0.0000     0.0000E+00    0.0000E+00    6.610000E+06  0.00400  2.583E-02    0   0.9220   age061_m42            0.0000     1.8892E+02    11.7435   3.6031    92.0809
 55      0.0000     0.0000E+00    0.0000E+00    8.710000E+06  0.00400  1.706E-02    0   0.8983   age067_m42            0.0000     2.2914E+02    13.0094   3.4405    89.6141
 56      0.7856     1.3822E-03    2.4262E-03    1.000000E+07  0.00400  1.271E-02    0   0.8862   age070_m42            0.0000     2.7967E+02    14.3270   3.4368    87.6999
 57      0.0000     0.0000E+00    0.0000E+00    1.445000E+07  0.00400  7.666E-03    0   0.8571   age078_m42            0.0000     3.1761E+02    14.9228   3.8529    83.9259
 58      0.0000     0.0000E+00    0.0000E+00    2.512000E+07  0.00400  5.070E-03    0   0.8174   age090_m42            0.0000     2.5603E+02    13.7037   3.3038    89.3933
 59      0.0000     0.0000E+00    0.0000E+00    4.000000E+07  0.00400  3.505E-03    0   0.7851   age104_m42            0.0000     1.9628E+02    11.9355   2.9823    92.6212
 60      0.0000     0.0000E+00    0.0000E+00    5.500000E+07  0.00400  3.059E-03    0   0.7629   age110_m42            0.0000     1.6502E+02    10.6158   2.9992    98.8817
 61      0.0000     0.0000E+00    0.0000E+00    1.015200E+08  0.00400  2.268E-03    0   0.7207   age116_m42            0.0000     2.6576E+02    11.3032   2.8580   106.2564
 62      0.0000     0.0000E+00    0.0000E+00    1.609000E+08  0.00400  1.720E-03    0   0.6930   age120_m42            0.0000     2.7850E+02    11.1371   2.7110   108.1748
 63      0.0000     0.0000E+00    0.0000E+00    2.861200E+08  0.00400  1.079E-03    0   0.6613   age125_m42            0.0000     2.6467E+02    10.8784   2.3541   108.8375
 64      0.0000     0.0000E+00    0.0000E+00    5.088000E+08  0.00400  6.261E-04    0   0.6313   age130_m42            0.0000     2.9980E+02    11.3648   2.1404   112.5627
 65      0.0000     0.0000E+00    0.0000E+00    9.047900E+08  0.00400  3.535E-04    0   0.6024   age135_m42            0.0000     1.9254E+02     9.2737   1.7472   112.4095
 66      0.0000     0.0000E+00    0.0000E+00    1.278050E+09  0.00400  2.677E-04    0   0.5837   age138_m42            0.0000     6.1571E+01     5.3546   1.0939   108.6877
 67      0.0000     0.0000E+00    0.0000E+00    1.434000E+09  0.00400  1.910E-04    0   0.5716   age139_m42            0.0000     8.8677E+01     6.1000   1.2588   109.6678
 68      0.0000     7.5012E-06    8.1168E-06    2.500000E+09  0.00400  9.818E-05    0   0.5463   age150_m42            0.0000     2.1769E+01     3.1152   1.0222   103.4140
 69      0.0000     0.0000E+00    0.0000E+00    4.250000E+09  0.00400  5.491E-05    0   0.5269   age158_m42            0.0000     9.1270E+00     2.1778   0.9121   100.1263
 70      0.0000     0.0000E+00    0.0000E+00    6.250000E+09  0.00400  3.857E-05    0   0.5151   age166_m42            0.0000     5.2665E+00     1.6847   0.7921    98.6187
 71      0.0000     0.0000E+00    0.0000E+00    7.500000E+09  0.00400  3.243E-05    0   0.5110   age171_m42            0.0000     4.9451E+00     1.6619   0.7162    98.0371
 72     11.5422     1.0648E+01    1.0604E+01    1.000000E+10  0.00400  2.424E-05    0   0.5028   age181_m42            0.0000     6.5959E+00     1.9509   0.6382    97.4186
 73      0.0000     0.0000E+00    0.0000E+00    1.300000E+10  0.00400  1.883E-05    0   0.4927   age193_m42            0.0000     1.0010E+01     2.4050   0.5996    97.1102
 74      0.0000     0.0000E+00    0.0000E+00    1.500000E+10  0.00400  1.685E-05    0   0.4919   age201_m42            0.0000     9.4438E+00     2.3133   0.6050    97.1092
 75      0.0000     0.0000E+00    0.0000E+00    1.800000E+10  0.00400  1.452E-05    0   0.4874   age213_m42            0.0000     8.7733E+00     2.1768   0.6211    97.3457
 76      0.0000     0.0000E+00    0.0000E+00    1.000000E+06  0.00800  1.286E-02    0   1.0000   age020_m52            0.0000     9.7081E+02    22.8891   4.0000    87.4000
 77      0.0000     0.0000E+00    0.0000E+00    3.160000E+06  0.00800  3.147E-02    0   0.9966   age045_m52            0.0000     8.4461E+02    21.5744   4.0000    88.2844
 78      0.0000     0.0000E+00    0.0000E+00    5.010000E+06  0.00800  2.664E-02    0   0.9443   age055_m52            0.0000     4.4480E+02    16.0158   4.0000    88.1845
 79      0.0000     0.0000E+00    0.0000E+00    6.610000E+06  0.00800  2.151E-02    0   0.9177   age061_m52            0.0000     2.3067E+02    12.3532   3.0462    88.8474
 80      0.0000     0.0000E+00    0.0000E+00    8.710000E+06  0.00800  1.628E-02    0   0.8948   age067_m52            0.0000     2.5193E+02    13.3738   3.4117    89.3867
 81      0.0000     0.0000E+00    0.0000E+00    1.000000E+07  0.00800  1.215E-02    0   0.8827   age070_m52            0.0000     2.8685E+02    14.2344   3.7620    87.1480
 82      0.0000     0.0000E+00    0.0000E+00    1.445000E+07  0.00800  8.739E-03    0   0.8552   age078_m52            0.0000     2.6163E+02    13.7579   3.7931    88.8059
 83      0.0000     0.0000E+00    0.0000E+00    2.512000E+07  0.00800  5.676E-03    0   0.8162   age090_m52            0.0000     2.2678E+02    12.9895   3.3637    94.7126
 84      0.0000     0.0000E+00    0.0000E+00    4.000000E+07  0.00800  3.939E-03    0   0.7841   age104_m52            0.0000     2.0542E+02    12.0140   3.1888    97.8269
 85      0.0000     0.0000E+00    0.0000E+00    5.500000E+07  0.00800  3.155E-03    0   0.7627   age110_m52            0.0000     2.0438E+02    11.4878   3.1427   100.2098
 86      0.0000     0.0000E+00    0.0000E+00    1.015200E+08  0.00800  2.206E-03    0   0.7226   age116_m52            0.0000     2.2861E+02    10.9498   2.9298   105.3553
 87      0.0000     0.0000E+00    0.0000E+00    1.609000E+08  0.00800  1.596E-03    0   0.6963   age120_m52            0.0000     2.4298E+02    10.8667   2.7028   107.6355
 88      0.0000     0.0000E+00    0.0000E+00    2.861200E+08  0.00800  1.002E-03    0   0.6665   age125_m52            0.0000     3.0404E+02    11.2721   2.3903   111.4575
 89      0.0000     0.0000E+00    0.0000E+00    5.088000E+08  0.00800  5.759E-04    0   0.6377   age130_m52            0.0000     3.0765E+02    10.7971   2.0349   115.8979
 90      0.0000     0.0000E+00    0.0000E+00    9.047900E+08  0.00800  2.972E-04    0   0.6086   age135_m52            0.0000     1.6364E+02     7.9950   1.5278   113.3875
 91      0.0000     0.0000E+00    0.0000E+00    1.278050E+09  0.00800  2.242E-04    0   0.5907   age138_m52            0.0000     4.9888E+01     4.7158   0.9400   110.8628
 92      0.0000     0.0000E+00    0.0000E+00    1.434000E+09  0.00800  1.645E-04    0   0.5787   age139_m52            0.0000     4.5975E+01     4.4797   1.0916   110.0632
 93      0.0000     0.0000E+00    0.0000E+00    2.500000E+09  0.00800  7.723E-05    0   0.5519   age150_m52            0.0000     1.2324E+01     2.5180   0.7723   105.4842
 94      0.0000     0.0000E+00    0.0000E+00    4.250000E+09  0.00800  4.151E-05    0   0.5320   age158_m52            0.0000     6.3323E+00     1.8419   0.7066   102.7173
 95      0.3093     2.2977E-01    2.3652E-01    6.250000E+09  0.00800  3.010E-05    0   0.5197   age166_m52            0.0000     7.4232E+00     2.1048   0.5199   101.1769
 96      0.0833     7.5536E-02    7.6888E-02    7.500000E+09  0.00800  2.467E-05    0   0.5139   age171_m52            0.0000     9.0982E+00     2.3303   0.4790   100.7820
 97     40.7451     4.8934E+01    4.8986E+01    1.000000E+10  0.00800  1.862E-05    0   0.5054   age181_m52            0.0000     1.7270E+01     3.1928   0.3508   100.4116
 98     12.2487     1.9114E+01    1.8885E+01    1.300000E+10  0.00800  1.433E-05    0   0.4988   age193_m52            0.0000     2.9852E+01     4.1823   0.2580   101.0232
 99      0.0002     3.1114E-04    3.0420E-04    1.500000E+10  0.00800  1.244E-05    0   0.4936   age201_m52            0.0000     3.5932E+01     4.5554   0.2304   101.4691
100      0.0000     0.0000E+00    0.0000E+00    1.800000E+10  0.00800  1.070E-05    0   0.4888   age213_m52            0.0000     4.0479E+01     4.8417   0.1959   101.3432
101      0.0000     0.0000E+00    0.0000E+00    1.000000E+06  0.02000  1.989E-02    0   1.0000   age020_m62            0.0000     9.7579E+02    23.0526   4.0000    86.1456
102      0.0000     0.0000E+00    0.0000E+00    3.160000E+06  0.02000  3.772E-02    0   0.9858   age045_m62            0.0000     7.7296E+02    20.8669   4.0000    87.2036
103      0.0000     0.0000E+00    0.0000E+00    5.010000E+06  0.02000  3.227E-02    0   0.9342   age055_m62            0.0000     2.5114E+02    13.4120   4.0000    88.3360
104      0.0000     0.0000E+00    0.0000E+00    6.610000E+06  0.02000  2.387E-02    0   0.9090   age061_m62            0.0000     3.1516E+02    15.0243   3.8278    85.8700
105      0.0000     0.0000E+00    0.0000E+00    8.710000E+06  0.02000  1.102E-02    0   0.8861   age067_m62            0.0000     6.2445E+02    20.3676   3.4870    79.7473
106      0.0000     0.0000E+00    0.0000E+00    1.000000E+07  0.02000  1.011E-02    0   0.8751   age070_m62            0.0000     4.7163E+02    17.8579   3.4952    82.7895
107      0.0000     0.0000E+00    0.0000E+00    1.445000E+07  0.02000  7.331E-03    0   0.8472   age078_m62            0.0000     3.6728E+02    15.8619   3.5026    84.6916
108      0.0000     0.0000E+00    0.0000E+00    2.512000E+07  0.02000  4.206E-03    0   0.8099   age090_m62            0.0000     3.7981E+02    15.9349   3.4235    83.7804
109      0.0000     0.0000E+00    0.0000E+00    4.000000E+07  0.02000  3.373E-03    0   0.7799   age104_m62            0.0000     2.0616E+02    12.2849   3.1734    94.6771
110      0.0000     0.0000E+00    0.0000E+00    5.500000E+07  0.02000  2.747E-03    0   0.7595   age110_m62            0.0000     1.9108E+02    11.5246   3.0788    99.4006
111      0.0000     0.0000E+00    0.0000E+00    1.015200E+08  0.02000  1.878E-03    0   0.7221   age116_m62            0.0000     2.4598E+02    11.5278   2.8996   106.1073
112      0.0000     0.0000E+00    0.0000E+00    1.609000E+08  0.02000  1.378E-03    0   0.6978   age120_m62            0.0000     3.0221E+02    11.8888   2.7251   109.6810
113      0.0000     0.0000E+00    0.0000E+00    2.861200E+08  0.02000  8.869E-04    0   0.6700   age125_m62            0.0000     4.0301E+02    12.6069   2.3318   115.2882
114      0.0000     0.0000E+00    0.0000E+00    5.088000E+08  0.02000  4.834E-04    0   0.6430   age130_m62            0.0000     3.3656E+02    11.1213   1.8974   117.6291
115      0.0000     0.0000E+00    0.0000E+00    9.047900E+08  0.02000  2.312E-04    0   0.6152   age135_m62            0.0000     1.5144E+02     7.2998   1.3246   115.4646
116      0.0000     0.0000E+00    0.0000E+00    1.278050E+09  0.02000  1.387E-04    0   0.5927   age138_m62            0.0000     5.1585E+01     4.5146   0.9801   109.4997
117      0.0000     0.0000E+00    0.0000E+00    1.434000E+09  0.02000  1.168E-04    0   0.5865   age139_m62            0.0000     3.7833E+01     3.9386   0.9623   107.5387
118      0.0000     0.0000E+00    0.0000E+00    2.500000E+09  0.02000  5.505E-05    0   0.5610   age150_m62            0.0000     1.4121E+01     2.6089   0.6035   104.1441
119      0.0000     0.0000E+00    0.0000E+00    4.250000E+09  0.02000  3.070E-05    0   0.5407   age158_m62            0.0000     2.8828E+01     3.8918   0.3131   104.0823
120      0.0000     0.0000E+00    0.0000E+00    6.250000E+09  0.02000  2.104E-05    0   0.5277   age166_m62            0.0000     4.3826E+01     4.8883   0.1839   104.5054
121      0.0000     0.0000E+00    0.0000E+00    7.500000E+09  0.02000  1.770E-05    0   0.5223   age171_m62            0.0000     5.4456E+01     5.4292   0.0960   104.9221
122      0.0000     0.0000E+00    0.0000E+00    1.000000E+10  0.02000  1.297E-05    0   0.5121   age181_m62            0.0000     7.9991E+01     6.5282  -0.0618   105.4830
123      0.0000     0.0000E+00    0.0000E+00    1.300000E+10  0.02000  9.691E-06    0   0.5047   age193_m62            0.0000     1.0017E+02     7.2522  -0.1444   105.9016
124      0.0000     0.0000E+00    0.0000E+00    1.500000E+10  0.02000  8.360E-06    0   0.4999   age201_m62            0.0000     1.1883E+02     7.8659  -0.2150   106.1943
125      0.0000     7.8934E-05    7.7329E-05    1.800000E+10  0.02000  6.911E-06    0   0.4946   age213_m62            0.0000     1.4378E+02     8.6204  -0.2911   106.5812
126      0.0000     0.0000E+00    0.0000E+00    1.000000E+06  0.05000  2.651E-02    0   0.9998   age020_m72            0.0000     9.5838E+02    22.7444   4.0000    87.1408
127      0.0000     0.0000E+00    0.0000E+00    3.160000E+06  0.05000  4.817E-02    0   0.9577   age045_m72            0.0000     5.3323E+02    17.7127   4.0000    89.4077
128      0.0000     0.0000E+00    0.0000E+00    5.010000E+06  0.05000  3.101E-02    0   0.9147   age055_m72            0.0000     3.2902E+02    14.6241   4.0000    86.5111
129      0.0000     0.0000E+00    0.0000E+00    6.610000E+06  0.05000  1.472E-02    0   0.8877   age061_m72            0.0000     5.0998E+02    18.0454   3.7132    81.2203
130      0.0000     0.0000E+00    0.0000E+00    8.710000E+06  0.05000  1.050E-02    0   0.8638   age067_m72            0.0000     3.9546E+02    15.8669   4.0000    83.9672
131      0.0000     0.0000E+00    0.0000E+00    1.000000E+07  0.05000  8.954E-03    0   0.8524   age070_m72            0.0000     4.3021E+02    15.6882   4.0000    89.0245
132      0.0000     0.0000E+00    0.0000E+00    1.445000E+07  0.05000  6.392E-03    0   0.8262   age078_m72            0.0000     3.6477E+02    14.5106   4.0000    89.4099
133      0.0000     0.0000E+00    0.0000E+00    2.512000E+07  0.05000  4.207E-03    0   0.7902   age090_m72            0.0000     2.2004E+02    12.3747   3.8972    89.3234
134      0.0000     0.0000E+00    0.0000E+00    4.000000E+07  0.05000  3.198E-03    0   0.7618   age104_m72            0.0000     1.9279E+02    10.8067   3.3126   100.2857
135      0.0000     0.0000E+00    0.0000E+00    5.500000E+07  0.05000  2.593E-03    0   0.7432   age110_m72            0.0000     2.1873E+02    11.0838   3.2012   102.9660
136      0.0000     0.0000E+00    0.0000E+00    1.015200E+08  0.05000  1.716E-03    0   0.7092   age116_m72            0.0000     2.7572E+02    11.6631   2.9823   106.6651
137      0.0000     0.0000E+00    0.0000E+00    1.609000E+08  0.05000  1.218E-03    0   0.6876   age120_m72            0.0000     3.3699E+02    12.0000   2.6895   110.5293
138      0.0000     0.0000E+00    0.0000E+00    2.861200E+08  0.05000  7.047E-04    0   0.6618   age125_m72            0.0000     3.8494E+02    11.7854   2.1300   115.5808
139      0.0000     0.0000E+00    0.0000E+00    5.088000E+08  0.05000  3.590E-04    0   0.6356   age130_m72            0.0000     2.8511E+02     9.7577   1.5617   118.0072
140      0.0000     0.0000E+00    0.0000E+00    9.047900E+08  0.05000  1.484E-04    0   0.6088   age135_m72            0.0000     6.7229E+01     5.1410   0.8751   109.3703
141      0.0000     0.0000E+00    0.0000E+00    1.278050E+09  0.05000  9.435E-05    0   0.5924   age138_m72            0.0000     4.0822E+01     4.1900   0.4909   105.7089
142      0.0000     0.0000E+00    0.0000E+00    1.434000E+09  0.05000  7.827E-05    0   0.5847   age139_m72            0.0000     3.2909E+01     3.8667   0.5075   104.9644
143      0.0000     0.0000E+00    0.0000E+00    2.500000E+09  0.05000  3.759E-05    0   0.5583   age150_m72            0.0000     4.4759E+01     4.8986   0.1922   103.9243
144      3.1427     3.8153E+00    4.0611E+00    4.250000E+09  0.05000  1.842E-05    0   0.5374   age158_m72            0.0000     8.1898E+01     6.4801  -0.1196   103.5967
145      1.2724     2.3574E+00    2.4477E+00    6.250000E+09  0.05000  1.207E-05    0   0.5242   age166_m72            0.0000     1.2647E+02     7.9389  -0.3607   103.4825
146      0.6044     1.3526E+00    1.3886E+00    7.500000E+09  0.05000  9.993E-06    0   0.5183   age171_m72            0.0000     1.3425E+02     8.1393  -0.4047   103.4640
147      0.0000     0.0000E+00    0.0000E+00    1.000000E+10  0.05000  7.291E-06    0   0.5081   age181_m72            0.0000     1.7176E+02     9.1599  -0.5326   103.5790
148      0.0000     0.0000E+00    0.0000E+00    1.300000E+10  0.05000  5.316E-06    0   0.5018   age193_m72            0.0000     2.3809E+02    10.6862  -0.7264   103.8309
149      0.0000     0.0000E+00    0.0000E+00    1.500000E+10  0.05000  4.497E-06    0   0.4972   age201_m72            0.0000     2.7469E+02    11.4498  -0.8046   104.2656
150      0.0000     0.0000E+00    0.0000E+00    1.800000E+10  0.05000  3.739E-06    0   0.4924   age213_m72            0.0000     3.2415E+02    12.4193  -0.9180   104.6490


## Synthesis Results - Average & Chains ##

# j      x_j: min, <> & last-chain-values for 1 ...  7 chains
  1      0.0000      0.0039      0.0000      0.0000      0.0000      0.0000      0.0000      0.0000      0.0222
  2      0.0000      0.0437      0.0052      0.2858      0.0383      0.1309      0.0020      0.2620      0.0048
  3      0.0000      0.0212      0.0113      0.1609      0.0000      0.0000      0.0000      0.0000      0.0000
  4      0.0000      0.0156      0.0000      0.0000      0.0000      0.0000      0.0000      0.0000      0.0000
  5      0.0000      0.0124      0.0000      0.0000      0.0135      0.0032      0.0000      0.0000      0.0000
  6      0.0000      0.0083      0.0000      0.0600      0.0000      0.0000      0.0000      0.0000      0.0000
  7      0.0000      0.0524      0.0000      0.0524      0.1521      0.0157      0.0106      0.2078      0.0000
  8      0.0000      0.0147      0.0000      0.0000      0.0069      0.0000      0.0294      0.0658      0.0000
  9      0.0000      0.0152      0.0000      0.0000      0.0000      0.0000      0.2328      0.0000      0.0123
 10      0.0000      0.0206      0.0182      0.0000      0.0000      0.0000      0.0000      0.0000      0.0000
 11      0.0000      0.0157      0.0000      0.0000      0.0000      0.0000      0.0000      0.0000      0.0000
 12      0.0000      0.0125      0.0000      0.0000      0.0000      0.0000      0.0124      0.0000      0.0000
 13      0.0000      0.0122      0.0000      0.0700      0.0000      0.0000      0.0000      0.0000      0.0000
 14      0.0000      0.0069      0.0000      0.0000      0.0000      0.0000      0.0000      0.0000      0.1464
 15      0.0000      0.0105      0.0667      0.0000      0.0000      0.0000      0.0000      0.0000      0.0000
 16      0.0000      0.0092      0.0000      0.0000      0.0000      0.0000      0.0000      0.0000      0.0000
 17      0.0000      0.0203      0.0000      0.0000      0.0000      0.0000      0.0000      0.0000      0.0000
 18      0.0000      0.0260      0.0000      0.0000      0.0832      0.0000      0.0000      0.0000      0.0000
 19      0.0000      0.1528      0.0000      0.2126      0.0000      0.0000      0.2541      0.0000      0.0000
 20      0.0000      0.0571      0.0000      0.0000      0.2101      0.0000      0.0000      0.0000      0.0000
 21      0.0000      0.2067      0.6661      0.2795      0.2653      0.2381      0.1135      0.0000      0.0000
 22      0.0134      0.2326      0.4791      0.6820      0.0000      0.0000      0.2420      0.2537      0.2725
 23      0.0000      0.1158      0.0000      0.0628      0.0000      0.1918      0.3723      0.2644      0.0204
 24      0.0029      0.2378      0.0733      0.0000      0.2454      0.3961      0.0000      0.6410      0.7642
 25      0.0030      0.3481      0.4272      0.1385      0.4423      0.4637      0.2851      0.0000      0.2208
 26      0.0000      0.0126      0.0000      0.1236      0.0000      0.1473      0.0000      0.0039      0.0000
 27      0.0000      0.0148      0.1237      0.0000      0.0000      0.0000      0.0000      0.0155      0.0000
 28      0.0000      0.0150      0.0000      0.0000      0.0000      0.0000      0.0000      0.1409      0.0000
 29      0.0000      0.0109      0.0949      0.0000      0.0000      0.0000      0.0000      0.0000      0.0000
 30      0.0000      0.0127      0.0000      0.0000      0.0000      0.0000      0.0000      0.0000      0.0000
 31      0.0000      0.0074      0.0000      0.0000      0.0000      0.0000      0.0000      0.0000      0.0000
 32      0.0000      0.0283      0.0000      0.0000      0.0000      0.0000      0.0000      0.0000      0.0000
 33      0.0000      0.0116      0.0000      0.0153      0.0029      0.0066      0.0000      0.0000      0.0000
 34      0.0000      0.0249      0.0000      0.0000      0.0945      0.0000      0.0000      0.0000      0.0391
 35      0.0000      0.0081      0.0000      0.0000      0.0000      0.0000      0.0000      0.0000      0.0000
 36      0.0000      0.0113      0.0484      0.0000      0.0000      0.0086      0.0000      0.0000      0.0000
 37      0.0000      0.0111      0.0000      0.0000      0.0000      0.0000      0.0000      0.0000      0.0000
 38      0.0000      0.0088      0.0000      0.0714      0.0000      0.0817      0.0000      0.0285      0.0000
 39      0.0000      0.0119      0.0000      0.0000      0.0196      0.0000      0.0000      0.0000      0.0000
 40      0.0000      0.0169      0.0000      0.0000      0.0000      0.0000      0.0000      0.0000      0.0000
 41      0.0000      0.0282      0.0164      0.0000      0.0000      0.0000      0.0326      0.0196      0.0000
 42      0.0000      0.0330      0.0000      0.0000      0.0872      0.0000      0.0000      0.1343      0.0000
 43      0.0000      0.0482      0.0000      0.0614      0.1148      0.1144      0.0000      0.0000      0.0000
 44      0.0000      0.1695      0.0541      0.1314      0.2983      0.2215      0.2454      0.2885      0.0000
 45      7.3132      4.5926      5.2894      4.5415      4.7085      4.6469      5.2822      4.8656      4.5062
 46      6.6545      5.7506      5.7436      5.8503      6.3190      6.6032      6.5270      5.4538      6.2177
 47     14.3441     13.5308     13.4534     14.2608     14.0234     12.8714     13.7171     14.0633     14.3959
 48      0.0000      0.2241      0.5868      0.0000      0.0000      0.0670      0.2758      0.3449      0.1039
 49      0.0000      0.2237      0.2450      0.0189      0.0689      0.0637      0.0000      0.5358      0.0433
 50      0.0000      0.1951      0.0000      0.0000      0.0577      0.0000      0.0000      0.2608      0.3801
 51      0.0000      0.0100      0.0000      0.0000      0.0000      0.0000      0.0045      0.0000      0.1492
 52      0.0000      0.0594      0.2233      0.0036      0.0101      0.0168      0.0000      0.0000      0.0000
 53      0.0000      0.0248      0.3255      0.0061      0.0000      0.0000      0.0000      0.0000      0.0000
 54      0.0000      0.0229      0.0216      0.0000      0.0000      0.0862      0.0000      0.0000      0.0000
 55      0.0000      0.0262      0.0000      0.1270      0.0000      0.2239      0.0000      0.0000      0.0000
 56      0.7856      0.0321      0.0000      0.0000      0.0000      0.0000      0.0000      0.0000      0.4271
 57      0.0000      0.0133      0.0000      0.0000      0.0000      0.0000      0.0194      0.0000      0.0000
 58      0.0000      0.0292      0.0590      0.0000      0.0946      0.0733      0.0000      0.0000      0.0000
 59      0.0000      0.0119      0.0000      0.0000      0.0000      0.0000      0.0000      0.0000      0.0177
 60      0.0000      0.0087      0.0705      0.0000      0.0000      0.0000      0.0000      0.0000      0.0000
 61      0.0000      0.0062      0.0000      0.0000      0.0327      0.0000      0.0000      0.0000      0.0000
 62      0.0000      0.0087      0.0051      0.0000      0.0000      0.0000      0.0000      0.0000      0.0000
 63      0.0000      0.0145      0.0000      0.0100      0.0000      0.0000      0.0000      0.0000      0.0000
 64      0.0000      0.0095      0.0000      0.0000      0.0000      0.0000      0.0000      0.0000      0.0000
 65      0.0000      0.0150      0.0000      0.0000      0.0582      0.0000      0.0000      0.0000      0.0248
 66      0.0000      0.0445      0.0000      0.0000      0.0000      0.0000      0.0000      0.0414      0.0232
 67      0.0000      0.0305      0.0000      0.0000      0.0000      0.0000      0.0000      0.0000      0.0000
 68      0.0000      0.0833      0.1236      0.0000      0.0363      0.0294      0.0000      0.0000      0.2899
 69      0.0000      0.1091      0.1268      0.0000      0.0000      0.0000      0.0000      0.1138      0.0000
 70      0.0000      0.1910      0.0104      0.1328      0.0000      0.0000      0.0000      0.3087      0.1208
 71      0.0000      0.2283      0.0000      0.0780      0.1993      0.2911      0.0000      0.1888      0.0955
 72     11.5422     14.2739     14.1940     14.7650     14.8887     14.6923     12.3810     13.3739     14.0921
 73      0.0000      1.1083      0.3916      0.0664      0.3649      0.5074      1.3829      0.8971      0.0000
 74      0.0000      0.3138      0.3492      0.0000      0.0000      0.0612      0.2136      0.4242      0.0191
 75      0.0000      0.1395      0.0048      0.0000      0.0000      0.2118      0.1926      0.0000      0.0000
 76      0.0000      0.0083      0.0000      0.0000      0.0000      0.0015      0.0000      0.0000      0.0000
 77      0.0000      0.0177      0.0000      0.0000      0.0831      0.0000      0.0000      0.0000      0.0000
 78      0.0000      0.0180      0.0000      0.0000      0.0000      0.0000      0.0000      0.0000      0.0000
 79      0.0000      0.0337      0.0000      0.0000      0.0000      0.3310      0.0032      0.0000      0.0776
 80      0.0000      0.0152      0.0000      0.0000      0.0000      0.0440      0.0099      0.0000      0.0000
 81      0.0000      0.0252      0.0000      0.0000      0.0886      0.0000      0.1285      0.0000      0.0000
 82      0.0000      0.0208      0.0000      0.0000      0.1054      0.0000      0.0253      0.0000      0.0000
 83      0.0000      0.0144      0.0000      0.1319      0.0000      0.0124      0.0000      0.0000      0.0000
 84      0.0000      0.0104      0.0000      0.0000      0.0019      0.0000      0.0149      0.0466      0.0000
 85      0.0000      0.0141      0.0000      0.0000      0.0000      0.0000      0.0000      0.0000      0.0000
 86      0.0000      0.0213      0.0506      0.0000      0.0623      0.0000      0.0000      0.0000      0.0000
 87      0.0000      0.0093      0.0000      0.0000      0.0000      0.0000      0.0220      0.0000      0.1268
 88      0.0000      0.0112      0.0000      0.0000      0.0000      0.0000      0.0000      0.0000      0.0000
 89      0.0000      0.0126      0.0000      0.0000      0.0000      0.0000      0.0000      0.0009      0.0000
 90      0.0000      0.0185      0.0000      0.0579      0.0000      0.0000      0.0000      0.0000      0.0363
 91      0.0000      0.0219      0.0546      0.0000      0.0000      0.0000      0.0000      0.0000      0.0000
 92      0.0000      0.0216      0.0000      0.0000      0.0000      0.0000      0.0000      0.0000      0.0080
 93      0.0000      0.0672      0.0000      0.4291      0.0000      0.0000      0.0000      0.0000      0.0000
 94      0.0000      0.2146      0.0000      0.4204      0.1402      0.1759      0.0000      0.4464      0.0000
 95      0.3093      1.4189      0.6602      2.3312      0.9876      3.3498      1.7012      1.6419      0.5135
 96      0.0833      1.1515      1.8923      1.2069      1.4081      1.1961      1.2775      1.3440      1.6338
 97     40.7451     34.2334     34.9022     34.9474     34.9838     33.3545     35.0813     34.8625     36.0724
 98     12.2487     10.7704     11.3214     10.6952     11.0957     12.0611     11.5129     10.5649     10.6001
 99      0.0002      1.4216      2.0951      1.3983      1.8814      0.7985      1.7936      1.5306      2.3698
100      0.0000      0.3286      0.3040      0.1239      0.0000      0.9042      0.0000      0.0000      0.1244
101      0.0000      0.0065      0.0000      0.0105      0.0000      0.0000      0.0000      0.0000      0.0000
102      0.0000      0.0082      0.0000      0.0310      0.0000      0.0059      0.0000      0.0992      0.0000
103      0.0000      0.0165      0.0000      0.0000      0.0000      0.0000      0.0000      0.0000      0.0000
104      0.0000      0.0133      0.0000      0.0000      0.0000      0.0000      0.0000      0.0000      0.0000
105      0.0000      0.0109      0.0000      0.0078      0.0000      0.0000      0.0000      0.0000      0.0000
106      0.0000      0.0131      0.0000      0.0000      0.1463      0.0000      0.0000      0.0000      0.0000
107      0.0000      0.0187      0.0000      0.0000      0.0000      0.0000      0.0000      0.0000      0.0000
108      0.0000      0.0063      0.0000      0.0328      0.0000      0.0000      0.0000      0.0512      0.0000
109      0.0000      0.0159      0.0000      0.0000      0.0000      0.0000      0.0000      0.0207      0.0000
110      0.0000      0.0092      0.0000      0.0000      0.0000      0.0000      0.0000      0.0000      0.0000
111      0.0000      0.0087      0.0000      0.0000      0.0000      0.0000      0.0000      0.0090      0.0000
112      0.0000      0.0062      0.0000      0.0938      0.0000      0.0000      0.0128      0.0000      0.0000
113      0.0000      0.0089      0.0000      0.0000      0.0000      0.0000      0.0000      0.0000      0.0000
114      0.0000      0.0114      0.0000      0.0000      0.0000      0.0000      0.0963      0.0000      0.0000
115      0.0000      0.0247      0.0000      0.0000      0.0000      0.2174      0.0000      0.0000      0.1270
116      0.0000      0.0421      0.0000      0.0000      0.0000      0.0000      0.0516      0.0000      0.0000
117      0.0000      0.0442      0.1336      0.0000      0.0000      0.0000      0.0167      0.1223      0.0000
118      0.0000      0.0872      0.0000      0.0000      0.0527      0.0000      0.0000      0.0000      0.0421
119      0.0000      0.1296      0.1347      0.0000      0.2002      0.0000      0.0000      0.0000      0.0000
120      0.0000      0.1008      0.0000      0.2771      0.1901      0.0232      0.0000      0.0960      0.0308
121      0.0000      0.0929      0.0000      0.0000      0.0000      0.0522      0.0541      0.0000      0.0000
122      0.0000      0.0892      0.0000      0.0000      0.1169      0.0000      0.0655      0.0000      0.0101
123      0.0000      0.0378      0.0000      0.0000      0.0233      0.0212      0.0000      0.0000      0.0000
124      0.0000      0.3997      0.1644      0.0101      0.5744      0.0000      0.3190      0.4038      0.0000
125      0.0000      2.3718      2.4681      2.3144      1.8670      2.0303      2.3099      2.0184      2.2493
126      0.0000      0.0070      0.0000      0.0000      0.0000      0.0000      0.0000      0.0000      0.0000
127      0.0000      0.0183      0.0000      0.0000      0.0000      0.0000      0.0291      0.0000      0.0000
128      0.0000      0.0127      0.0000      0.0000      0.0000      0.0000      0.0000      0.0000      0.0000
129      0.0000      0.0410      0.0000      0.0000      0.0000      0.0883      0.0000      0.0000      0.1560
130      0.0000      0.0195      0.0000      0.0000      0.0000      0.0000      0.1152      0.0000      0.0000
131      0.0000      0.0317      0.0000      0.0000      0.0000      0.0000      0.1883      0.0000      0.0096
132      0.0000      0.0141      0.0000      0.0000      0.0000      0.0000      0.1361      0.0000      0.0000
133      0.0000      0.0170      0.0383      0.0000      0.0222      0.0000      0.0000      0.0000      0.0102
134      0.0000      0.0085      0.0000      0.0691      0.0000      0.0000      0.0000      0.0399      0.0000
135      0.0000      0.0074      0.0000      0.0000      0.0071      0.0000      0.0625      0.0000      0.0000
136      0.0000      0.0056      0.0080      0.0316      0.0000      0.0000      0.0000      0.0000      0.0000
137      0.0000      0.0054      0.0000      0.0000      0.0000      0.0000      0.0000      0.0000      0.0000
138      0.0000      0.0070      0.0000      0.0000      0.0000      0.0000      0.0000      0.0000      0.0000
139      0.0000      0.0107      0.0000      0.0000      0.0000      0.0009      0.0000      0.0000      0.0000
140      0.0000      0.0275      0.0090      0.0000      0.1317      0.0000      0.0000      0.0000      0.0071
141      0.0000      0.0522      0.0180      0.0000      0.0048      0.0000      0.0686      0.0022      0.0000
142      0.0000      0.0611      0.0417      0.0000      0.0000      0.0000      0.0000      0.1283      0.0000
143      0.0000      0.2074      0.0000      0.0000      0.2056      0.4159      0.0619      0.6487      0.2161
144      3.1427      0.5728      0.6995      0.9796      0.8652      0.4219      1.2965      0.5315      1.3640
145      1.2724      0.4392      0.3832      0.8202      0.2516      0.5522      0.2063      0.5708      0.6600
146      0.6044      0.2847      0.0000      0.0000      0.4522      0.2805      0.6531      0.8129      0.2894
147      0.0000      0.0914      0.0000      0.3194      0.0000      0.0000      0.0000      0.0085      0.0000
148      0.0000      0.1961      0.2589      0.2084      0.0000      0.1892      0.0564      0.0000      0.0000
149      0.0000      0.0948      0.1173      0.0000      0.2604      0.1513      0.0000      0.0000      0.0020
150      0.0000      0.0152      0.1294      0.0000      0.0436      0.0000      0.0000      0.0000      0.0000

# j      m_j: min, <> & last-chain-values for 1 ...  7 chains
  1  0.0000E+00  2.0116E-05  0.0000E+00  0.0000E+00  0.0000E+00  0.0000E+00  0.0000E+00  0.0000E+00  1.1635E-04
  2  0.0000E+00  3.8811E-05  4.5405E-06  2.5753E-04  3.4220E-05  1.1762E-04  1.7959E-06  2.3655E-04  4.3061E-06
  3  0.0000E+00  4.4562E-05  2.3563E-05  3.4231E-04  0.0000E+00  0.0000E+00  0.0000E+00  0.0000E+00  0.0000E+00
  4  0.0000E+00  6.1576E-05  0.0000E+00  0.0000E+00  0.0000E+00  0.0000E+00  0.0000E+00  0.0000E+00  0.0000E+00
  5  0.0000E+00  6.1380E-05  0.0000E+00  0.0000E+00  6.7218E-05  1.6077E-05  0.0000E+00  0.0000E+00  0.0000E+00
  6  0.0000E+00  4.8852E-05  0.0000E+00  3.5953E-04  0.0000E+00  0.0000E+00  0.0000E+00  0.0000E+00  0.0000E+00
  7  0.0000E+00  3.9048E-04  0.0000E+00  3.9626E-04  1.1384E-03  1.1838E-04  7.8862E-05  1.5736E-03  0.0000E+00
  8  0.0000E+00  1.2391E-04  0.0000E+00  0.0000E+00  5.8245E-05  0.0000E+00  2.4825E-04  5.6331E-04  0.0000E+00
  9  0.0000E+00  1.3803E-04  0.0000E+00  0.0000E+00  0.0000E+00  0.0000E+00  2.1157E-03  0.0000E+00  1.1214E-04
 10  0.0000E+00  2.1424E-04  1.8694E-04  0.0000E+00  0.0000E+00  0.0000E+00  0.0000E+00  0.0000E+00  0.0000E+00
 11  0.0000E+00  1.9499E-04  0.0000E+00  0.0000E+00  0.0000E+00  0.0000E+00  0.0000E+00  0.0000E+00  0.0000E+00
 12  0.0000E+00  2.7169E-04  0.0000E+00  0.0000E+00  0.0000E+00  0.0000E+00  2.6938E-04  0.0000E+00  0.0000E+00
 13  0.0000E+00  3.0712E-04  0.0000E+00  1.7900E-03  0.0000E+00  0.0000E+00  0.0000E+00  0.0000E+00  0.0000E+00
 14  0.0000E+00  2.4626E-04  0.0000E+00  0.0000E+00  0.0000E+00  0.0000E+00  0.0000E+00  0.0000E+00  5.2924E-03
 15  0.0000E+00  5.7031E-04  3.5756E-03  0.0000E+00  0.0000E+00  0.0000E+00  0.0000E+00  0.0000E+00  0.0000E+00
 16  0.0000E+00  7.2133E-04  0.0000E+00  0.0000E+00  0.0000E+00  0.0000E+00  0.0000E+00  0.0000E+00  0.0000E+00
 17  0.0000E+00  1.7616E-03  0.0000E+00  0.0000E+00  0.0000E+00  0.0000E+00  0.0000E+00  0.0000E+00  0.0000E+00
 18  0.0000E+00  3.6856E-03  0.0000E+00  0.0000E+00  1.1831E-02  0.0000E+00  0.0000E+00  0.0000E+00  0.0000E+00
 19  0.0000E+00  3.2801E-02  0.0000E+00  4.6271E-02  0.0000E+00  0.0000E+00  5.4680E-02  0.0000E+00  0.0000E+00
 20  0.0000E+00  1.7541E-02  0.0000E+00  0.0000E+00  6.4775E-02  0.0000E+00  0.0000E+00  0.0000E+00  0.0000E+00
 21  0.0000E+00  7.3428E-02  2.3442E-01  1.0066E-01  9.4631E-02  8.5461E-02  4.0400E-02  0.0000E+00  0.0000E+00
 22  6.4114E-03  1.0660E-01  2.1753E-01  3.1686E-01  0.0000E+00  0.0000E+00  1.1115E-01  1.1810E-01  1.2604E-01
 23  0.0000E+00  6.7259E-02  0.0000E+00  3.6982E-02  0.0000E+00  1.1257E-01  2.1678E-01  1.5602E-01  1.1974E-02
 24  1.9837E-03  1.5794E-01  4.8220E-02  0.0000E+00  1.6369E-01  2.6594E-01  0.0000E+00  4.3252E-01  5.1238E-01
 25  2.4977E-03  2.7781E-01  3.3784E-01  1.1205E-01  3.5441E-01  3.7397E-01  2.2803E-01  0.0000E+00  1.7787E-01
 26  0.0000E+00  6.2813E-05  0.0000E+00  6.2700E-04  0.0000E+00  7.4456E-04  0.0000E+00  1.9866E-05  0.0000E+00
 27  0.0000E+00  1.5811E-05  1.3052E-04  0.0000E+00  0.0000E+00  0.0000E+00  0.0000E+00  1.6715E-05  0.0000E+00
 28  0.0000E+00  3.1184E-05  0.0000E+00  0.0000E+00  0.0000E+00  0.0000E+00  0.0000E+00  2.9824E-04  0.0000E+00
 29  0.0000E+00  3.5343E-05  3.0552E-04  0.0000E+00  0.0000E+00  0.0000E+00  0.0000E+00  0.0000E+00  0.0000E+00
 30  0.0000E+00  5.1439E-05  0.0000E+00  0.0000E+00  0.0000E+00  0.0000E+00  0.0000E+00  0.0000E+00  0.0000E+00
 31  0.0000E+00  3.4367E-05  0.0000E+00  0.0000E+00  0.0000E+00  0.0000E+00  0.0000E+00  0.0000E+00  0.0000E+00
 32  0.0000E+00  1.4614E-04  0.0000E+00  0.0000E+00  0.0000E+00  0.0000E+00  0.0000E+00  0.0000E+00  0.0000E+00
 33  0.0000E+00  8.4813E-05  0.0000E+00  1.1347E-04  2.1339E-05  4.8628E-05  0.0000E+00  0.0000E+00  0.0000E+00
 34  0.0000E+00  2.2212E-04  0.0000E+00  0.0000E+00  8.4640E-04  0.0000E+00  0.0000E+00  0.0000E+00  3.5151E-04
 35  0.0000E+00  8.7107E-05  0.0000E+00  0.0000E+00  0.0000E+00  0.0000E+00  0.0000E+00  0.0000E+00  0.0000E+00
 36  0.0000E+00  1.5645E-04  6.6292E-04  0.0000E+00  0.0000E+00  1.1947E-04  0.0000E+00  0.0000E+00  0.0000E+00
 37  0.0000E+00  1.9124E-04  0.0000E+00  0.0000E+00  0.0000E+00  0.0000E+00  0.0000E+00  0.0000E+00  0.0000E+00
 38  0.0000E+00  2.0929E-04  0.0000E+00  1.7294E-03  0.0000E+00  1.9741E-03  0.0000E+00  6.9191E-04  0.0000E+00
 39  0.0000E+00  4.2295E-04  0.0000E+00  0.0000E+00  7.0231E-04  0.0000E+00  0.0000E+00  0.0000E+00  0.0000E+00
 40  0.0000E+00  1.0654E-03  0.0000E+00  0.0000E+00  0.0000E+00  0.0000E+00  0.0000E+00  0.0000E+00  0.0000E+00
 41  0.0000E+00  2.3768E-03  1.3663E-03  0.0000E+00  0.0000E+00  0.0000E+00  2.7554E-03  1.6801E-03  0.0000E+00
 42  0.0000E+00  3.1029E-03  0.0000E+00  0.0000E+00  8.2460E-03  0.0000E+00  0.0000E+00  1.2843E-02  0.0000E+00
 43  0.0000E+00  7.3792E-03  0.0000E+00  9.5360E-03  1.7657E-02  1.7707E-02  0.0000E+00  0.0000E+00  0.0000E+00
 44  0.0000E+00  4.1046E-02  1.2984E-02  3.2269E-02  7.2530E-02  5.4204E-02  5.9567E-02  7.0978E-02  0.0000E+00
 45  2.5845E+00  1.5501E+00  1.7690E+00  1.5541E+00  1.5958E+00  1.5850E+00  1.7871E+00  1.6682E+00  1.5351E+00
 46  2.8015E+00  2.3122E+00  2.2883E+00  2.3849E+00  2.5513E+00  2.6830E+00  2.6306E+00  2.2275E+00  2.5233E+00
 47  7.9147E+00  7.1304E+00  7.0251E+00  7.6192E+00  7.4207E+00  6.8546E+00  7.2458E+00  7.5281E+00  7.6571E+00
 48  0.0000E+00  1.4060E-01  3.6491E-01  0.0000E+00  0.0000E+00  4.2516E-02  1.7346E-01  2.1983E-01  6.5821E-02
 49  0.0000E+00  1.5701E-01  1.7041E-01  1.3455E-02  4.8547E-02  4.5192E-02  0.0000E+00  3.8208E-01  3.0666E-02
 50  3.1903E-05  1.6111E-01  0.0000E+00  0.0000E+00  4.7867E-02  0.0000E+00  0.0000E+00  2.1876E-01  3.1673E-01
 51  0.0000E+00  3.7906E-05  0.0000E+00  0.0000E+00  0.0000E+00  0.0000E+00  1.7103E-05  0.0000E+00  5.7194E-04
 52  0.0000E+00  6.1687E-05  2.2975E-04  3.7495E-06  1.0537E-05  1.7654E-05  0.0000E+00  0.0000E+00  0.0000E+00
 53  0.0000E+00  3.9212E-05  5.1089E-04  9.7408E-06  0.0000E+00  0.0000E+00  0.0000E+00  0.0000E+00  0.0000E+00
 54  0.0000E+00  3.4611E-05  3.2263E-05  0.0000E+00  0.0000E+00  1.3154E-04  0.0000E+00  0.0000E+00  0.0000E+00
 55  0.0000E+00  5.8399E-05  0.0000E+00  2.8679E-04  0.0000E+00  5.0402E-04  0.0000E+00  0.0000E+00  0.0000E+00
 56  2.4262E-03  9.4613E-05  0.0000E+00  0.0000E+00  0.0000E+00  0.0000E+00  0.0000E+00  0.0000E+00  1.2715E-03
 57  0.0000E+00  6.2913E-05  0.0000E+00  0.0000E+00  0.0000E+00  0.0000E+00  9.2122E-05  0.0000E+00  0.0000E+00
 58  0.0000E+00  1.9933E-04  3.9846E-04  0.0000E+00  6.4761E-04  5.0528E-04  0.0000E+00  0.0000E+00  0.0000E+00
 59  0.0000E+00  1.1257E-04  0.0000E+00  0.0000E+00  0.0000E+00  0.0000E+00  0.0000E+00  0.0000E+00  1.6927E-04
 60  0.0000E+00  9.2034E-05  7.3651E-04  0.0000E+00  0.0000E+00  0.0000E+00  0.0000E+00  0.0000E+00  0.0000E+00
 61  0.0000E+00  8.3432E-05  0.0000E+00  0.0000E+00  4.4178E-04  0.0000E+00  0.0000E+00  0.0000E+00  0.0000E+00
 62  0.0000E+00  1.4823E-04  8.5810E-05  0.0000E+00  0.0000E+00  0.0000E+00  0.0000E+00  0.0000E+00  0.0000E+00
 63  0.0000E+00  3.7573E-04  0.0000E+00  2.6226E-04  0.0000E+00  0.0000E+00  0.0000E+00  0.0000E+00  0.0000E+00
 64  0.0000E+00  4.0529E-04  0.0000E+00  0.0000E+00  0.0000E+00  0.0000E+00  0.0000E+00  0.0000E+00  0.0000E+00
 65  0.0000E+00  1.0826E-03  0.0000E+00  0.0000E+00  4.2143E-03  0.0000E+00  0.0000E+00  0.0000E+00  1.8025E-03
 66  0.0000E+00  4.1009E-03  0.0000E+00  0.0000E+00  0.0000E+00  0.0000E+00  0.0000E+00  3.8783E-03  2.1563E-03
 67  0.0000E+00  3.8606E-03  0.0000E+00  0.0000E+00  0.0000E+00  0.0000E+00  0.0000E+00  0.0000E+00  0.0000E+00
 68  8.1168E-06  1.9601E-02  2.8836E-02  0.0000E+00  8.5802E-03  6.9912E-03  0.0000E+00  0.0000E+00  6.8878E-02
 69  0.0000E+00  4.4296E-02  5.0992E-02  0.0000E+00  0.0000E+00  0.0000E+00  0.0000E+00  4.6904E-02  0.0000E+00
 70  0.0000E+00  1.0791E-01  5.8232E-03  7.6039E-02  0.0000E+00  0.0000E+00  0.0000E+00  1.7718E-01  6.8897E-02
 71  0.0000E+00  1.5220E-01  0.0000E+00  5.2728E-02  1.3342E-01  1.9607E-01  0.0000E+00  1.2784E-01  6.4261E-02
 72  1.0604E+01  1.2525E+01  1.2341E+01  1.3135E+01  1.3119E+01  1.3028E+01  1.0890E+01  1.1921E+01  1.2481E+01
 73  0.0000E+00  1.2267E+00  4.2950E-01  7.4569E-02  4.0560E-01  5.6754E-01  1.5344E+00  1.0086E+00  0.0000E+00
 74  0.0000E+00  3.8750E-01  4.2728E-01  0.0000E+00  0.0000E+00  7.6350E-02  2.6444E-01  5.3210E-01  2.3824E-02
 75  0.0000E+00  1.9806E-01  6.7006E-03  0.0000E+00  0.0000E+00  3.0386E-01  2.7414E-01  0.0000E+00  0.0000E+00
 76  0.0000E+00  2.7335E-05  0.0000E+00  0.0000E+00  0.0000E+00  5.0744E-06  0.0000E+00  0.0000E+00  0.0000E+00
 77  0.0000E+00  2.3730E-05  0.0000E+00  0.0000E+00  1.1173E-04  0.0000E+00  0.0000E+00  0.0000E+00  0.0000E+00
 78  0.0000E+00  2.7040E-05  0.0000E+00  0.0000E+00  0.0000E+00  0.0000E+00  0.0000E+00  0.0000E+00  0.0000E+00
 79  0.0000E+00  6.0795E-05  0.0000E+00  0.0000E+00  0.0000E+00  6.0373E-04  5.7810E-06  0.0000E+00  1.4129E-04
 80  0.0000E+00  3.5240E-05  0.0000E+00  0.0000E+00  0.0000E+00  1.0343E-04  2.3056E-05  0.0000E+00  0.0000E+00
 81  0.0000E+00  7.7417E-05  0.0000E+00  0.0000E+00  2.7328E-04  0.0000E+00  3.9593E-04  0.0000E+00  0.0000E+00
 82  0.0000E+00  8.5993E-05  0.0000E+00  0.0000E+00  4.3820E-04  0.0000E+00  1.0518E-04  0.0000E+00  0.0000E+00
 83  0.0000E+00  8.7772E-05  0.0000E+00  8.1320E-04  0.0000E+00  7.6464E-05  0.0000E+00  0.0000E+00  0.0000E+00
 84  0.0000E+00  8.7440E-05  0.0000E+00  0.0000E+00  1.5973E-05  0.0000E+00  1.2577E-04  3.9819E-04  0.0000E+00
 85  0.0000E+00  1.4376E-04  0.0000E+00  0.0000E+00  0.0000E+00  0.0000E+00  0.0000E+00  0.0000E+00  0.0000E+00
 86  0.0000E+00  2.9579E-04  6.9541E-04  0.0000E+00  8.6732E-04  0.0000E+00  0.0000E+00  0.0000E+00  0.0000E+00
 87  0.0000E+00  1.7142E-04  0.0000E+00  0.0000E+00  0.0000E+00  0.0000E+00  4.0613E-04  0.0000E+00  2.3613E-03
 88  0.0000E+00  3.1508E-04  0.0000E+00  0.0000E+00  0.0000E+00  0.0000E+00  0.0000E+00  0.0000E+00  0.0000E+00
 89  0.0000E+00  5.9020E-04  0.0000E+00  0.0000E+00  0.0000E+00  0.0000E+00  0.0000E+00  4.2252E-05  0.0000E+00
 90  0.0000E+00  1.6036E-03  0.0000E+00  5.0851E-03  0.0000E+00  0.0000E+00  0.0000E+00  0.0000E+00  3.1697E-03
 91  0.0000E+00  2.4397E-03  6.0263E-03  0.0000E+00  0.0000E+00  0.0000E+00  0.0000E+00  0.0000E+00  0.0000E+00
 92  0.0000E+00  3.2219E-03  0.0000E+00  0.0000E+00  0.0000E+00  0.0000E+00  0.0000E+00  0.0000E+00  1.1994E-03
 93  0.0000E+00  2.0326E-02  0.0000E+00  1.3150E-01  0.0000E+00  0.0000E+00  0.0000E+00  0.0000E+00  0.0000E+00
 94  0.0000E+00  1.1637E-01  0.0000E+00  2.3110E-01  7.6335E-02  9.6355E-02  0.0000E+00  2.4586E-01  0.0000E+00
 95  2.3652E-01  1.0363E+00  4.7785E-01  1.7263E+00  7.2436E-01  2.4725E+00  1.2455E+00  1.2182E+00  3.7853E-01
 96  7.6888E-02  1.0148E+00  1.6523E+00  1.0782E+00  1.2460E+00  1.0651E+00  1.1284E+00  1.2031E+00  1.4532E+00
 97  4.8986E+01  3.9308E+01  3.9711E+01  4.0683E+01  4.0336E+01  3.8703E+01  4.0377E+01  4.0663E+01  4.1806E+01
 98  1.8885E+01  1.5859E+01  1.6519E+01  1.5967E+01  1.6406E+01  1.7947E+01  1.6993E+01  1.5802E+01  1.5754E+01
 99  3.0420E-04  2.3863E+00  3.4847E+00  2.3795E+00  3.1711E+00  1.3544E+00  3.0178E+00  2.6097E+00  4.0149E+00
100  0.0000E+00  6.3506E-01  5.8217E-01  2.4280E-01  0.0000E+00  1.7659E+00  0.0000E+00  0.0000E+00  2.4265E-01
101  0.0000E+00  1.3873E-05  0.0000E+00  2.2652E-05  0.0000E+00  0.0000E+00  0.0000E+00  0.0000E+00  0.0000E+00
102  0.0000E+00  9.1004E-06  0.0000E+00  3.4734E-05  0.0000E+00  6.5504E-06  0.0000E+00  1.1141E-04  0.0000E+00
103  0.0000E+00  2.0165E-05  0.0000E+00  0.0000E+00  0.0000E+00  0.0000E+00  0.0000E+00  0.0000E+00  0.0000E+00
104  0.0000E+00  2.1476E-05  0.0000E+00  0.0000E+00  0.0000E+00  0.0000E+00  0.0000E+00  0.0000E+00  0.0000E+00
105  0.0000E+00  3.7055E-05  0.0000E+00  2.6891E-05  0.0000E+00  0.0000E+00  0.0000E+00  0.0000E+00  0.0000E+00
106  0.0000E+00  4.7803E-05  0.0000E+00  0.0000E+00  5.3808E-04  0.0000E+00  0.0000E+00  0.0000E+00  0.0000E+00
107  0.0000E+00  9.1611E-05  0.0000E+00  0.0000E+00  0.0000E+00  0.0000E+00  0.0000E+00  0.0000E+00  0.0000E+00
108  0.0000E+00  5.1376E-05  0.0000E+00  2.7071E-04  0.0000E+00  0.0000E+00  0.0000E+00  4.2393E-04  0.0000E+00
109  0.0000E+00  1.5538E-04  0.0000E+00  0.0000E+00  0.0000E+00  0.0000E+00  0.0000E+00  2.0597E-04  0.0000E+00
110  0.0000E+00  1.0789E-04  0.0000E+00  0.0000E+00  0.0000E+00  0.0000E+00  0.0000E+00  0.0000E+00  0.0000E+00
111  0.0000E+00  1.4219E-04  0.0000E+00  0.0000E+00  0.0000E+00  0.0000E+00  0.0000E+00  1.4916E-04  0.0000E+00
112  0.0000E+00  1.3195E-04  0.0000E+00  2.0367E-03  0.0000E+00  0.0000E+00  2.7394E-04  0.0000E+00  0.0000E+00
113  0.0000E+00  2.8572E-04  0.0000E+00  0.0000E+00  0.0000E+00  0.0000E+00  0.0000E+00  0.0000E+00  0.0000E+00
114  0.0000E+00  6.4155E-04  0.0000E+00  0.0000E+00  0.0000E+00  0.0000E+00  5.4340E-03  0.0000E+00  0.0000E+00
115  0.0000E+00  2.7850E-03  0.0000E+00  0.0000E+00  0.0000E+00  2.4726E-02  0.0000E+00  0.0000E+00  1.4425E-02
116  0.0000E+00  7.6175E-03  0.0000E+00  0.0000E+00  0.0000E+00  0.0000E+00  9.3577E-03  0.0000E+00  0.0000E+00
117  0.0000E+00  9.3944E-03  2.8113E-02  0.0000E+00  0.0000E+00  0.0000E+00  3.5531E-03  2.6400E-02  0.0000E+00
118  0.0000E+00  3.7579E-02  0.0000E+00  0.0000E+00  2.2835E-02  0.0000E+00  0.0000E+00  0.0000E+00  1.8309E-02
119  0.0000E+00  9.6543E-02  9.9451E-02  0.0000E+00  1.4981E-01  0.0000E+00  0.0000E+00  0.0000E+00  0.0000E+00
120  0.0000E+00  1.0698E-01  0.0000E+00  2.9812E-01  2.0252E-01  2.4927E-02  0.0000E+00  1.0349E-01  3.3030E-02
121  0.0000E+00  1.1592E-01  0.0000E+00  0.0000E+00  0.0000E+00  6.5818E-02  6.7703E-02  0.0000E+00  0.0000E+00
122  0.0000E+00  1.4904E-01  0.0000E+00  0.0000E+00  1.9608E-01  0.0000E+00  1.0964E-01  0.0000E+00  1.7056E-02
123  0.0000E+00  8.3230E-02  0.0000E+00  0.0000E+00  5.1600E-02  4.7186E-02  0.0000E+00  0.0000E+00  0.0000E+00
124  0.0000E+00  1.0111E+00  4.1199E-01  2.5878E-02  1.4591E+00  0.0000E+00  8.0897E-01  1.0375E+00  0.0000E+00
125  7.7329E-05  7.1806E+00  7.4042E+00  7.1040E+00  5.6759E+00  6.2117E+00  7.0099E+00  6.2072E+00  6.8735E+00
126  0.0000E+00  1.1226E-05  0.0000E+00  0.0000E+00  0.0000E+00  0.0000E+00  0.0000E+00  0.0000E+00  0.0000E+00
127  0.0000E+00  1.5377E-05  0.0000E+00  0.0000E+00  0.0000E+00  0.0000E+00  2.4528E-05  0.0000E+00  0.0000E+00
128  0.0000E+00  1.5816E-05  0.0000E+00  0.0000E+00  0.0000E+00  0.0000E+00  0.0000E+00  0.0000E+00  0.0000E+00
129  0.0000E+00  1.0450E-04  0.0000E+00  0.0000E+00  0.0000E+00  2.2754E-04  0.0000E+00  0.0000E+00  4.0157E-04
130  0.0000E+00  6.7819E-05  0.0000E+00  0.0000E+00  0.0000E+00  0.0000E+00  4.0169E-04  0.0000E+00  0.0000E+00
131  0.0000E+00  1.2759E-04  0.0000E+00  0.0000E+00  0.0000E+00  0.0000E+00  7.6004E-04  0.0000E+00  3.9002E-05
132  0.0000E+00  7.7102E-05  0.0000E+00  0.0000E+00  0.0000E+00  0.0000E+00  7.4578E-04  0.0000E+00  0.0000E+00
133  0.0000E+00  1.3482E-04  3.0181E-04  0.0000E+00  1.7721E-04  0.0000E+00  0.0000E+00  0.0000E+00  8.1436E-05
134  0.0000E+00  8.5268E-05  0.0000E+00  7.0599E-04  0.0000E+00  0.0000E+00  0.0000E+00  4.0856E-04  0.0000E+00
135  0.0000E+00  9.0140E-05  0.0000E+00  0.0000E+00  8.5977E-05  0.0000E+00  7.5943E-04  0.0000E+00  0.0000E+00
136  0.0000E+00  9.7929E-05  1.3911E-04  5.6059E-04  0.0000E+00  0.0000E+00  0.0000E+00  0.0000E+00  0.0000E+00
137  0.0000E+00  1.2874E-04  0.0000E+00  0.0000E+00  0.0000E+00  0.0000E+00  0.0000E+00  0.0000E+00  0.0000E+00
138  0.0000E+00  2.7744E-04  0.0000E+00  0.0000E+00  0.0000E+00  0.0000E+00  0.0000E+00  0.0000E+00  0.0000E+00
139  0.0000E+00  8.0200E-04  0.0000E+00  0.0000E+00  0.0000E+00  6.7728E-05  0.0000E+00  0.0000E+00  0.0000E+00
140  0.0000E+00  4.7710E-03  1.5458E-03  0.0000E+00  2.2944E-02  0.0000E+00  0.0000E+00  0.0000E+00  1.2388E-03
141  0.0000E+00  1.3864E-02  4.7319E-03  0.0000E+00  1.2688E-03  0.0000E+00  1.8257E-02  5.9494E-04  0.0000E+00
142  0.0000E+00  1.9320E-02  1.3058E-02  0.0000E+00  0.0000E+00  0.0000E+00  0.0000E+00  4.1183E-02  0.0000E+00
143  0.0000E+00  1.3032E-01  0.0000E+00  0.0000E+00  1.2969E-01  2.6409E-01  3.9009E-02  4.1404E-01  1.3702E-01
144  4.0611E+00  7.0695E-01  8.5541E-01  1.2257E+00  1.0723E+00  5.2618E-01  1.6039E+00  6.6630E-01  1.6991E+00
145  2.4477E+00  8.0699E-01  6.9763E-01  1.5277E+00  4.6414E-01  1.0253E+00  3.7986E-01  1.0653E+00  1.2238E+00
146  1.3886E+00  6.2473E-01  0.0000E+00  0.0000E+00  9.9624E-01  6.2201E-01  1.4363E+00  1.8118E+00  6.4090E-01
147  0.0000E+00  2.6953E-01  0.0000E+00  9.5460E-01  0.0000E+00  0.0000E+00  0.0000E+00  2.5465E-02  0.0000E+00
148  0.0000E+00  7.8295E-01  1.0245E+00  8.4366E-01  0.0000E+00  7.6366E-01  2.2573E-01  0.0000E+00  0.0000E+00
149  0.0000E+00  4.4330E-01  5.4346E-01  0.0000E+00  1.2228E+00  7.1532E-01  0.0000E+00  0.0000E+00  9.3567E-03
150  0.0000E+00  8.4782E-02  7.1428E-01  0.0000E+00  2.4403E-01  0.0000E+00  0.0000E+00  0.0000E+00  0.0000E+00

# AV, chi2 & Mass for <> & i_chain = 1 ...  7 solutions
AV       0.6099      0.6191      0.6187      0.6178      0.6157      0.6200      0.6174      0.6198      0.6178
chi2 2.4342E+00  2.4990E+00  2.4847E+00  2.4816E+00  2.4857E+00  2.4821E+00  2.4765E+00  2.4812E+00  2.4746E+00
Mass 1.1299E-09  1.1978E-09  1.2082E-09  1.1795E-09  1.1875E-09  1.1867E-09  1.1923E-09  1.1803E-09  1.1846E-09
  27.10                                  [v0_min (km/s) before EX0s...]
  48.54                                  [vd_min (km/s) before EX0s...]


## Synthetic spectrum (Best Model) ##l_obs f_obs f_syn wei
 3070    [Nl_obs]
 3359.00    0.00000   0.38350   -2.000
 3360.00    0.20982   0.33897   -1.000
 3361.00    0.20046   0.32640   -1.000
 3362.00    0.21303   0.34894   -1.000
 3363.00    0.23808   0.39275   -1.000
 3364.00    0.25035   0.43365   -1.000
 3365.00    0.26056   0.45101   -1.000
 3366.00    0.26363   0.44314   -1.000
 3367.00    0.26655   0.42205   -1.000
 3368.00    0.26008   0.39913   -1.000
 3369.00    0.25464   0.38125   -1.000
 3370.00    0.25124   0.36459   -1.000
 3371.00    0.23475   0.35026   -1.000
 3372.00    0.24329   0.34788   -1.000
 3373.00    0.25037   0.36402   -1.000
 3374.00    0.25746   0.39630   -1.000
 3375.00    0.28303   0.43574   -1.000
 3376.00    0.30889   0.46655   -1.000
 3377.00    0.32365   0.47405   -1.000
 3378.00    0.32429   0.45560   -1.000
 3379.00    0.30359   0.42699   -1.000
 3380.00    0.29925   0.40780   -1.000
 3381.00    0.30329   0.40625   -1.000
 3382.00    0.31095   0.41948   -1.000
 3383.00    0.31724   0.43656   -1.000
 3384.00    0.31761   0.45035   -1.000
 3385.00    0.32214   0.46230   -1.000
 3386.00    0.32848   0.46710   -1.000
 3387.00    0.33233   0.46245   -1.000
 3388.00    0.33578   0.45714   -1.000
 3389.00    0.33874   0.45910   -1.000
 3390.00    0.35188   0.46409   -1.000
 3391.00    0.35670   0.46170   -1.000
 3392.00    0.34662   0.44589   -1.000
 3393.00    0.34049   0.42911   -1.000
 3394.00    0.34864   0.42882   -1.000
 3395.00    0.36439   0.44722   -1.000
 3396.00    0.38660   0.47438   -1.000
 3397.00    0.39822   0.49984   -1.000
 3398.00    0.41564   0.52079   -1.000
 3399.00    0.44000   0.53389   -1.000
 3400.00    0.45019   0.53470   -1.000
 3401.00    0.44473   0.52499   -1.000
 3402.00    0.43570   0.50633   -1.000
 3403.00    0.42159   0.48703   -1.000
 3404.00    0.42068   0.47415   -1.000
 3405.00    0.41551   0.46815   -1.000
 3406.00    0.40945   0.46414   -1.000
 3407.00    0.40106   0.45799   -1.000
 3408.00    0.39217   0.45192   -1.000
 3409.00    0.39220   0.45225   -1.000
 3410.00    0.39595   0.46141   -1.000
 3411.00    0.39582   0.46724   -1.000
 3412.00    0.39028   0.45888   -1.000
 3413.00    0.39344   0.43955   -1.000
 3414.00    0.38144   0.42325   -1.000
 3415.00    0.37721   0.42441   -1.000
 3416.00    0.38794   0.44098   -1.000
 3417.00    0.40312   0.46440   -1.000
 3418.00    0.40715   0.48852   -1.000
 3419.00    0.43534   0.51019   -1.000
 3420.00    0.45176   0.52434   -1.000
 3421.00    0.45879   0.52348   -1.000
 3422.00    0.45118   0.50560   -1.000
 3423.00    0.43992   0.48412   -1.000
 3424.00    0.43563   0.47508   -1.000
 3425.00    0.43550   0.47871   -1.000
 3426.00    0.44824   0.48537   -1.000
 3427.00    0.45988   0.49359   -1.000
 3428.00    0.45994   0.51028   -1.000
 3429.00    0.46676   0.53430   -1.000
 3430.00    0.49443   0.54923   -1.000
 3431.00    0.48970   0.53981   -1.000
 3432.00    0.47834   0.51362   -1.000
 3433.00    0.45455   0.49184   -1.000
 3434.00    0.45252   0.49117   -1.000
 3435.00    0.47525   0.50547   -1.000
 3436.00    0.47156   0.51252   -1.000
 3437.00    0.45875   0.50251   -1.000
 3438.00    0.43914   0.47978   -1.000
 3439.00    0.41342   0.44749   -1.000
 3440.00    0.39936   0.41112  267.527
 3441.00    0.38095   0.38094  278.170
 3442.00    0.37033   0.36687  278.503
 3443.00    0.37100   0.37083  277.296
 3444.00    0.38068   0.38631  266.151
 3445.00    0.39745   0.40584  251.520
 3446.00    0.42296   0.43002  237.590
 3447.00    0.43767   0.45961   -1.000
 3448.00    0.45252   0.48897   -1.000
 3449.00    0.47516   0.51283   -1.000
 3450.00    0.49345   0.52268   -1.000
 3451.00    0.49931   0.51170   -1.000
 3452.00    0.47974   0.49122   -1.000
 3453.00    0.48287   0.48018  913.030
 3454.00    0.47496   0.48446   -1.000
 3455.00    0.48936   0.49556   -1.000
 3456.00    0.49154   0.49882   -1.000
 3457.00    0.49280   0.48799   -1.000
 3458.00    0.47447   0.46857   -1.000
 3459.00    0.46513   0.44997   -1.000
 3460.00    0.45038   0.43555   -1.000
 3461.00    0.44547   0.43050   -1.000
 3462.00    0.45821   0.44266   -1.000
 3463.00    0.47146   0.46615   -1.000
 3464.00    0.49457   0.48287   -1.000
 3465.00    0.49919   0.48259   -1.000
 3466.00    0.50404   0.47681   -1.000
 3467.00    0.50614   0.48164   -1.000
 3468.00    0.50923   0.49977   -1.000
 3469.00    0.52072   0.52152  913.030
 3470.00    0.53032   0.53336   -1.000
 3471.00    0.53888   0.52764   -1.000
 3472.00    0.52584   0.50728   -1.000
 3473.00    0.50294   0.47650   -1.000
 3474.00    0.47529   0.44343   -1.000
 3475.00    0.45141   0.41785   -1.000
 3476.00    0.43062   0.41008   -1.000
 3477.00    0.43453   0.42613  228.779
 3478.00    0.46054   0.45592   -1.000
 3479.00    0.48676   0.48368  913.030
 3480.00    0.52092   0.50216   -1.000
 3481.00    0.53148   0.50828   -1.000
 3482.00    0.52547   0.50229   -1.000
 3483.00    0.52275   0.49103   -1.000
 3484.00    0.51078   0.48398   -1.000
 3485.00    0.52556   0.49134   -1.000
 3486.00    0.53729   0.51109   -1.000
 3487.00    0.55539   0.52524   -1.000
 3488.00    0.56029   0.51837   -1.000
 3489.00    0.53365   0.49217   -1.000
 3490.00    0.49513   0.46346   -1.000
 3491.00    0.46784   0.44968   -1.000
 3492.00    0.46468   0.45380   -1.000
 3493.00    0.48733   0.46530   -1.000
 3494.00    0.50175   0.47287   -1.000
 3495.00    0.49490   0.46995   -1.000
 3496.00    0.48320   0.45972   -1.000
 3497.00    0.48853   0.45772   -1.000
 3498.00    0.49799   0.47321   -1.000
 3499.00    0.52617   0.49935   -1.000
 3500.00    0.55586   0.52015   -1.000
 3501.00    0.55677   0.53092   -1.000
 3502.00    0.57432   0.54021   -1.000
 3503.00    0.58268   0.54819   -1.000
 3504.00    0.58590   0.54744   -1.000
 3505.00    0.57444   0.53606   -1.000
 3506.00    0.56506   0.52122   -1.000
 3507.00    0.56959   0.51329   -1.000
 3508.00    0.56712   0.51221   -1.000
 3509.00    0.56553   0.50904   -1.000
 3510.00    0.54803   0.50060   -1.000
 3511.00    0.53393   0.48997   -1.000
 3512.00    0.51673   0.47742   -1.000
 3513.00    0.50039   0.46228   -1.000
 3514.00    0.49390   0.45350   -1.000
 3515.00    0.49812   0.46542   -1.000
 3516.00    0.51901   0.50051   -1.000
 3517.00    0.55821   0.53988   -1.000
 3518.00    0.58173   0.55993   -1.000
 3519.00    0.58532   0.55042   -1.000
 3520.00    0.55525   0.52287   -1.000
 3521.00    0.51688   0.49406   -1.000
 3522.00    0.50342   0.47102   -1.000
 3523.00    0.47518   0.45025   -1.000
 3524.00    0.46182   0.42811   -1.000
 3525.00    0.44726   0.41160   -1.000
 3526.00    0.44281   0.41561   -1.000
 3527.00    0.46268   0.44265   -1.000
 3528.00    0.49606   0.48185   -1.000
 3529.00    0.52678   0.51617   -1.000
 3530.00    0.55060   0.53398   -1.000
 3531.00    0.54979   0.53471   -1.000
 3532.00    0.53943   0.52717   -1.000
 3533.00    0.54179   0.52279   -1.000
 3534.00    0.55275   0.52651   -1.000
 3535.00    0.56941   0.53458   -1.000
 3536.00    0.56476   0.54388   -1.000
 3537.00    0.56907   0.55583   -1.000
 3538.00    0.56823   0.57095   -1.000
 3539.00    0.58438   0.58335  913.030
 3540.00    0.58175   0.58373   -1.000
 3541.00    0.56918   0.57370   -1.000
 3542.00    0.56299   0.56628   -1.000
 3543.00    0.56737   0.57031   -1.000
 3544.00    0.57132   0.58064   -1.000
 3545.00    0.56498   0.58623   -1.000
 3546.00    0.56442   0.58246   -1.000
 3547.00    0.55967   0.57340   -1.000
 3548.00    0.55595   0.56706   -1.000
 3549.00    0.55992   0.56803   -1.000
 3550.00    0.55525   0.57277   -1.000
 3551.00    0.55152   0.57305   -1.000
 3552.00    0.54121   0.56247   -1.000
 3553.00    0.53122   0.54417   -1.000
 3554.00    0.52121   0.53010   -1.000
 3555.00    0.51574   0.52964   -1.000
 3556.00    0.51779   0.53828   -1.000
 3557.00    0.52982   0.54549   -1.000
 3558.00    0.52909   0.54614   -1.000
 3559.00    0.51565   0.54329   -1.000
 3560.00    0.51090   0.54463   -1.000
 3561.00    0.51828   0.55397   -1.000
 3562.00    0.53167   0.56473   -1.000
 3563.00    0.53749   0.55936   -1.000
 3564.00    0.52202   0.52662   -1.000
 3565.00    0.48276   0.48022  225.831
 3566.00    0.44753   0.44932  235.135
 3567.00    0.43566   0.44450  232.282
 3568.00    0.44078   0.44779  231.008
 3569.00    0.43900   0.44058  239.041
 3570.00    0.42020   0.42758  243.395
 3571.00    0.42919   0.42458  235.616
 3572.00    0.44623   0.43659  225.022
 3573.00    0.45883   0.45424   -1.000
 3574.00    0.48069   0.46813   -1.000
 3575.00    0.48617   0.47754   -1.000
 3576.00    0.49353   0.48481   -1.000
 3577.00    0.48270   0.48591  913.030
 3578.00    0.47821   0.47650   -1.000
 3579.00    0.45958   0.45348  233.409
 3580.00    0.42964   0.42247  252.141
 3581.00    0.40218   0.39616  265.900
 3582.00    0.38292   0.38633  267.471
 3583.00    0.38778   0.39249  268.568
 3584.00    0.38897   0.39571  275.449
 3585.00    0.37861   0.38601  284.589
 3586.00    0.36254   0.37270  288.538
 3587.00    0.36899   0.36971  273.715
 3588.00    0.38974   0.38549  259.104
 3589.00    0.40650   0.41871  246.599
 3590.00    0.43932   0.45958   -1.000
 3591.00    0.47764   0.49476   -1.000
 3592.00    0.51220   0.51278  199.472
 3593.00    0.52090   0.51574  199.163
 3594.00    0.52043   0.51936  195.816
 3595.00    0.53417   0.53534  189.508
 3596.00    0.55359   0.55974  180.233
 3597.00    0.57170   0.57977  175.014
 3598.00    0.58965   0.59154  170.431
 3599.00    0.60096   0.59924  167.660
 3600.00    0.61233   0.60013  169.755
 3601.00    0.60170   0.58420  178.059
 3602.00    0.57774   0.55428   -1.000
 3603.00    0.54693   0.52392   -1.000
 3604.00    0.52084   0.50503   -1.000
 3605.00    0.51106   0.49997  201.243
 3606.00    0.51830   0.49960   -1.000
 3607.00    0.51160   0.49251   -1.000
 3608.00    0.50644   0.47602   -1.000
 3609.00    0.48367   0.46225   -1.000
 3610.00    0.47232   0.46439  210.814
 3611.00    0.48342   0.48243  204.501
 3612.00    0.50887   0.50315  197.190
 3613.00    0.52591   0.51905  192.542
 3614.00    0.53215   0.53529  189.069
 3615.00    0.54925   0.55356  182.097
 3616.00    0.56298   0.55639  182.619
 3617.00    0.54658   0.52928   -1.000
 3618.00    0.49412   0.48378  218.243
 3619.00    0.46088   0.45349   22.243
 3620.00    0.46453   0.46127  208.979
 3621.00    0.50616   0.49858  190.404
 3622.00    0.55320   0.53962  179.621
 3623.00    0.57957   0.56721  175.407
 3624.00    0.58326   0.58569  173.276
 3625.00    0.57654   0.61038   -1.000
 3626.00    0.61929   0.64228   -1.000
 3627.00    0.65681   0.66819  157.460
 3628.00    0.65011   0.66928   -1.000
 3629.00    0.61780   0.63426   -1.000
 3630.00    0.56553   0.57108  191.126
 3631.00    0.51126   0.51297  207.021
 3632.00    0.47757   0.48911  209.239
 3633.00    0.49156   0.49900  202.610
 3634.00    0.50983   0.52210  195.404
 3635.00    0.52489   0.54163   -1.000
 3636.00    0.54765   0.55583  183.724
 3637.00    0.57267   0.57342  175.014
 3638.00    0.58910   0.59853  167.132
 3639.00    0.61445   0.62372  161.556
 3640.00    0.63411   0.63845  161.455
 3641.00    0.62863   0.63555  165.613
 3642.00    0.60775   0.61622  171.246
 3643.00    0.58683   0.58990  180.661
 3644.00    0.55479   0.56552  185.865
 3645.00    0.54129   0.54615  189.006
 3646.00    0.54127   0.53005  191.886
 3647.00    0.51906   0.51640  195.437
 3648.00    0.51618   0.51116  195.535
 3649.00    0.52144   0.51799  190.108
 3650.00    0.54510   0.53720  182.368
 3651.00    0.56784   0.56601  173.485
 3652.00    0.59712   0.59828  166.218
 3653.00    0.61845   0.62441  162.182
 3654.00    0.62699   0.64075  159.956
 3655.00    0.63828   0.65179  159.451
 3656.00    0.64514   0.66349   -1.000
 3657.00    0.65485   0.67771   -1.000
 3658.00    0.67411   0.68869  153.252
 3659.00    0.68170   0.69393  153.479
 3660.00    0.67893   0.69385  153.458
 3661.00    0.68621   0.68571  155.205
 3662.00    0.66719   0.66916  156.867
 3663.00    0.64882   0.65221  159.592
 3664.00    0.63909   0.64440  160.778
 3665.00    0.63855   0.64651  158.750
 3666.00    0.64579   0.65022  158.897
 3667.00    0.64396   0.64631  162.341
 3668.00    0.63152   0.63239  164.086
 3669.00    0.61286   0.61690  168.224
 3670.00    0.60333   0.61469  167.031
 3671.00    0.62072   0.63017  160.624
 3672.00    0.65016   0.65109  157.455
 3673.00    0.66138   0.66446  156.954
 3674.00    0.66250   0.66749  156.927
 3675.00    0.65310   0.66037  157.297
 3676.00    0.64953   0.64189  162.298
 3677.00    0.62828   0.61564  167.356
 3678.00    0.59363   0.58931  172.431
 3679.00    0.58449   0.57119  176.807
 3680.00    0.58156   0.56704  176.218
 3681.00    0.59091   0.57655  171.507
 3682.00    0.61190   0.59290   -1.000
 3683.00    0.61396   0.60612  165.053
 3684.00    0.62609   0.60627   -1.000
 3685.00    0.60767   0.58867   -1.000
 3686.00    0.57968   0.56157   -1.000
 3687.00    0.55571   0.54442  186.719
 3688.00    0.56176   0.55087  181.286
 3689.00    0.58507   0.58132  169.114
 3690.00    0.61681   0.62217  157.899
 3691.00    0.65179   0.65468  153.233
 3692.00    0.66798   0.66520  154.526
 3693.00    0.66302   0.65497  158.911
 3694.00    0.64854   0.64018  161.034
 3695.00    0.64431   0.63307  160.262
 3696.00    0.64392   0.63451  158.817
 3697.00    0.65130   0.64333  156.859
 3698.00    0.66992   0.66249  151.623
 3699.00    0.69773   0.68643  147.801
 3700.00    0.72146   0.70289  145.863
 3701.00    0.72405   0.69995   -1.000
 3702.00    0.69444   0.66992   -1.000
 3703.00    0.64412   0.61661   -1.000
 3704.00    0.57886   0.55923   -1.000
 3705.00    0.54505   0.51762   -1.000
 3706.00    0.53381   0.50095   -1.000
 3707.00    0.53429   0.50356   -1.000
 3708.00    0.54568   0.51428   -1.000
 3709.00    0.55237   0.52926   -1.000
 3710.00    0.57644   0.55001   -1.000
 3711.00    0.60153   0.57760   -1.000
 3712.00    0.64253   0.61268   -1.000
 3713.00    0.68595   0.65084   -1.000
 3714.00    0.71159   0.68079   -1.000
 3715.00    0.72409   0.69244   -1.000
 3716.00    0.71337   0.68467   -1.000
 3717.00    0.68977   0.65833   -1.000
 3718.00    0.64678   0.61021   -1.000
 3719.00    0.57638   0.54210   -1.000
 3720.00    0.50516   0.47129   -1.000
 3721.00    0.46153   0.42878   22.694
 3722.00    0.46322   0.43435   -1.000
 3723.00    0.51450   0.48019   -1.000
 3724.00    0.58142   0.54344   -1.000
 3725.00    0.62968   0.59374   -1.000
 3726.00    0.64458   0.61057   -1.000
 3727.00    0.62402   0.60368   -1.000
 3728.00    0.60750   0.59738  169.441
 3729.00    0.61157   0.60008  166.534
 3730.00    0.62262   0.60042   -1.000
 3731.00    0.59773   0.58122   -1.000
 3732.00    0.56121   0.53204   -1.000
 3733.00    0.50965   0.46652   22.279
 3734.00    0.44651   0.40774   24.991
 3735.00    0.40436   0.37440   25.908
 3736.00    0.40378   0.37767   24.589
 3737.00    0.43687   0.41680   22.260
 3738.00    0.48381   0.47805  196.647
 3739.00    0.55219   0.54458  176.911
 3740.00    0.60175   0.59619  166.752
 3741.00    0.62140   0.61691  165.960
 3742.00    0.61482   0.60356  172.671
 3743.00    0.58686   0.56890   -1.000
 3744.00    0.55301   0.52976   -1.000
 3745.00    0.51350   0.49837   -1.000
 3746.00    0.49497   0.47649   -1.000
 3747.00    0.47700   0.45296   22.595
 3748.00    0.44749   0.42404   24.071
 3749.00    0.42270   0.40522   24.318
 3750.00    0.43522   0.41565   -1.000
 3751.00    0.49553   0.46085   -1.000
 3752.00    0.56340   0.52503   -1.000
 3753.00    0.62241   0.59038   -1.000
 3754.00    0.67371   0.64466   -1.000
 3755.00    0.70130   0.67157   -1.000
 3756.00    0.69414   0.65815   -1.000
 3757.00    0.63842   0.61092   -1.000
 3758.00    0.56230   0.55679  198.302
 3759.00    0.52728   0.52829  197.101
 3760.00    0.53730   0.53357  184.256
 3761.00    0.57248   0.55468   -1.000
 3762.00    0.59612   0.57052   -1.000
 3763.00    0.60097   0.57544   -1.000
 3764.00    0.59985   0.57632   -1.000
 3765.00    0.61300   0.57475   -1.000
 3766.00    0.60865   0.56740   -1.000
 3767.00    0.59233   0.55828   -1.000
 3768.00    0.59156   0.55207   -1.000
 3769.00    0.59696   0.54805   -1.000
 3770.00    0.59572   0.54623   -1.000
 3771.00    0.60652   0.55665   -1.000
 3772.00    0.62345   0.58445   -1.000
 3773.00    0.65912   0.61786   -1.000
 3774.00    0.68005   0.64180   -1.000
 3775.00    0.68338   0.65210   -1.000
 3776.00    0.68620   0.65601   -1.000
 3777.00    0.68201   0.66246  153.493
 3778.00    0.68646   0.67618  151.304
 3779.00    0.69786   0.69566  146.131
 3780.00    0.72322   0.71576  142.758
 3781.00    0.74230   0.72985  141.849
 3782.00    0.73329   0.73603  140.987
 3783.00    0.74038   0.73711  141.091
 3784.00    0.73463   0.72848  144.440
 3785.00    0.71486   0.70141  152.287
 3786.00    0.66870   0.66171  163.897
 3787.00    0.62854   0.62345  171.988
 3788.00    0.60651   0.59659  175.056
 3789.00    0.59215   0.58709  174.857
 3790.00    0.59626   0.59258  171.654
 3791.00    0.61071   0.60210  169.926
 3792.00    0.61786   0.60331  172.658
 3793.00    0.60992   0.58884   -1.000
 3794.00    0.58402   0.56412   -1.000
 3795.00    0.55697   0.53827   -1.000
 3796.00    0.53772   0.51251   -1.000
 3797.00    0.51705   0.48377   -1.000
 3798.00    0.49217   0.46245   -1.000
 3799.00    0.50036   0.47027   -1.000
 3800.00    0.54410   0.51324   -1.000
 3801.00    0.59334   0.57306   -1.000
 3802.00    0.63020   0.62801  161.222
 3803.00    0.65666   0.66470  157.729
 3804.00    0.67765   0.68026  156.891
 3805.00    0.67964   0.67511  159.395
 3806.00    0.65508   0.65652  165.597
 3807.00    0.62721   0.64291  168.756
 3808.00    0.62822   0.64812  164.152
 3809.00    0.65230   0.66932  157.688
 3810.00    0.67086   0.69010  156.034
 3811.00    0.67370   0.69266  159.223
 3812.00    0.66416   0.66947  168.027
 3813.00    0.62242   0.62901  178.539
 3814.00    0.57903   0.58647  189.245
 3815.00    0.54401   0.55810  197.803
 3816.00    0.53143   0.55451   -1.000
 3817.00    0.55747   0.56716  186.541
 3818.00    0.57764   0.57301  189.981
 3819.00    0.54078   0.55449  203.713
 3820.00    0.49816   0.52593   -1.000
 3821.00    0.49199   0.51563   -1.000
 3822.00    0.51231   0.52677  199.301
 3823.00    0.53443   0.53581  201.574
 3824.00    0.51191   0.52149  219.674
 3825.00    0.46359   0.49203   23.361
 3826.00    0.43979   0.46833   23.857
 3827.00    0.43928   0.45821   23.635
 3828.00    0.45177   0.45940   23.248
 3829.00    0.45394   0.46614   22.865
 3830.00    0.45618   0.46898   23.167
 3831.00    0.45301   0.45794   24.249
 3832.00    0.41759   0.43321   26.228
 3833.00    0.39642   0.40307   26.999
 3834.00    0.39215   0.38255   26.434
 3835.00    0.40644   0.37972   25.346
 3836.00    0.42151   0.38945   24.804
 3837.00    0.42016   0.40061   25.362
 3838.00    0.40930   0.40629   25.981
 3839.00    0.40545   0.41241   25.490
 3840.00    0.41442   0.43108   24.005
 3841.00    0.45870   0.46999  217.602
 3842.00    0.50740   0.52186  196.638
 3843.00    0.55978   0.57131  184.295
 3844.00    0.58053   0.60421   -1.000
 3845.00    0.57806   0.61855   -1.000
 3846.00    0.58128   0.62594   -1.000
 3847.00    0.59395   0.63322   -1.000
 3848.00    0.59074   0.63318   -1.000
 3849.00    0.56605   0.62319   -1.000
 3850.00    0.55077   0.61375   -1.000
 3851.00    0.55403   0.61677   -1.000
 3852.00    0.56734   0.63094   -1.000
 3853.00    0.57193   0.64191   -1.000
 3854.00    0.57024   0.63833   -1.000
 3855.00    0.55148   0.62245   -1.000
 3856.00    0.53944   0.60353   -1.000
 3857.00    0.52264   0.58290   -1.000
 3858.00    0.50130   0.55741   22.121
 3859.00    0.47211   0.53515   23.537
 3860.00    0.45704   0.53331   22.967
 3861.00    0.48703   0.55989   -1.000
 3862.00    0.54508   0.60403   -1.000
 3863.00    0.58833   0.64003   -1.000
 3864.00    0.60491   0.65051   -1.000
 3865.00    0.59952   0.64407   -1.000
 3866.00    0.58696   0.63682   -1.000
 3867.00    0.57897   0.63395   -1.000
 3868.00    0.56411   0.63078   -1.000
 3869.00    0.54336   0.62074   -1.000
 3870.00    0.51796   0.60000   -1.000
 3871.00    0.48773   0.57497   22.406
 3872.00    0.48526   0.55762   -1.000
 3873.00    0.51263   0.56107   -1.000
 3874.00    0.55818   0.58800   -1.000
 3875.00    0.60149   0.61890  172.231
 3876.00    0.61201   0.62615  177.967
 3877.00    0.57922   0.60406   -1.000
 3878.00    0.53690   0.57670   -1.000
 3879.00    0.51643   0.56598   -1.000
 3880.00    0.52038   0.56970   -1.000
 3881.00    0.51155   0.57666   -1.000
 3882.00    0.49935   0.58010   -1.000
 3883.00    0.52430   0.58352   -1.000
 3884.00    0.58165   0.58401  177.270
 3885.00    0.59855   0.56663   -1.000
 3886.00    0.56889   0.53127   -1.000
 3887.00    0.55067   0.49427   -1.000
 3888.00    0.54915   0.47333   -1.000
 3889.00    0.55453   0.48047   -1.000
 3890.00    0.58502   0.51607   -1.000
 3891.00    0.63993   0.56953   -1.000
 3892.00    0.68523   0.61885   -1.000
 3893.00    0.70570   0.64298   -1.000
 3894.00    0.69638   0.64447   -1.000
 3895.00    0.69060   0.64371   -1.000
 3896.00    0.69806   0.65291   -1.000
 3897.00    0.71395   0.66613   -1.000
 3898.00    0.72018   0.67331   -1.000
 3899.00    0.70943   0.67348   -1.000
 3900.00    0.70600   0.67430   -1.000
 3901.00    0.71853   0.67906   -1.000
 3902.00    0.71325   0.68056   -1.000
 3903.00    0.69990   0.67274   -1.000
 3904.00    0.68886   0.65607   -1.000
 3905.00    0.65866   0.63962   -1.000
 3906.00    0.63668   0.63812  161.356
 3907.00    0.67836   0.65946   -1.000
 3908.00    0.72362   0.69519   -1.000
 3909.00    0.75270   0.72804   -1.000
 3910.00    0.77639   0.74868   -1.000
 3911.00    0.78302   0.76097   -1.000
 3912.00    0.78847   0.76817  134.872
 3913.00    0.77790   0.76815  136.541
 3914.00    0.76767   0.75920  139.423
 3915.00    0.75488   0.74601  142.726
 3916.00    0.74858   0.73477  144.491
 3917.00    0.73194   0.72396  146.428
 3918.00    0.72550   0.70814   -1.000
 3919.00    0.70014   0.68394   -1.000
 3920.00    0.65906   0.65622  165.154
 3921.00    0.62881   0.63643  168.421
 3922.00    0.62468   0.63313  166.763
 3923.00    0.63987   0.64252  163.625
 3924.00    0.64446   0.64916  165.044
 3925.00    0.62832   0.64110  173.541
 3926.00    0.59720   0.61261  190.603
 3927.00    0.54310   0.56558   -1.000
 3928.00    0.47237   0.50792   24.732
 3929.00    0.41490   0.44761   29.004
 3930.00    0.35721   0.38749   33.929
 3931.00    0.30185   0.32470   40.169
 3932.00    0.25307   0.26368   46.977
 3933.00    0.21732   0.21929   51.261
 3934.00    0.21034   0.20620   49.017
 3935.00    0.23208   0.23069   42.472
 3936.00    0.27586   0.28598   35.093
 3937.00    0.33627   0.35630   28.811
 3938.00    0.39930   0.43056   24.225
 3939.00    0.46168   0.49687   -1.000
 3940.00    0.51303   0.54716   -1.000
 3941.00    0.54154   0.57919   -1.000
 3942.00    0.55439   0.59202   -1.000
 3943.00    0.55747   0.59534   -1.000
 3944.00    0.56642   0.60549   -1.000
 3945.00    0.59895   0.63059   -1.000
 3946.00    0.65294   0.66186  153.837
 3947.00    0.68715   0.68395  152.324
 3948.00    0.69689   0.69507  151.231
 3949.00    0.71108   0.70620  145.552
 3950.00    0.74292   0.72103   -1.000
 3951.00    0.76295   0.72948   -1.000
 3952.00    0.74589   0.72946  143.709
 3953.00    0.74558   0.73324  141.050
 3954.00    0.76677   0.74187   -1.000
 3955.00    0.77852   0.74327   -1.000
 3956.00    0.74913   0.73410  144.329
 3957.00    0.73188   0.72330  146.606
 3958.00    0.73471   0.71965  143.880
 3959.00    0.73590   0.71402   -1.000
 3960.00    0.70213   0.68253   -1.000
 3961.00    0.62851   0.62673  184.954
 3962.00    0.55126   0.57133   -1.000
 3963.00    0.51140   0.52984  214.408
 3964.00    0.48129   0.49583   23.267
 3965.00    0.42920   0.44870   27.332
 3966.00    0.36426   0.38001   33.763
 3967.00    0.29363   0.30418   41.300
 3968.00    0.24079   0.24776   45.548
 3969.00    0.22963   0.23131   42.183
 3970.00    0.26481   0.25843   34.711
 3971.00    0.32572   0.31774   28.514
 3972.00    0.39138   0.39128   23.858
 3973.00    0.46053   0.46461  205.918
 3974.00    0.53213   0.53255  181.869
 3975.00    0.59910   0.59230  163.900
 3976.00    0.66247   0.64433  151.104
 3977.00    0.71448   0.69215   -1.000
 3978.00    0.75104   0.73697  134.823
 3979.00    0.80202   0.77598   -1.000
 3980.00    0.83951   0.80000   -1.000
 3981.00    0.84797   0.80541   -1.000
 3982.00    0.83302   0.79999   -1.000
 3983.00    0.81561   0.79576  128.590
 3984.00    0.83546   0.80304   -1.000
 3985.00    0.85241   0.81946   -1.000
 3986.00    0.86725   0.83765   -1.000
 3987.00    0.88666   0.85621   -1.000
 3988.00    0.90068   0.87045   -1.000
 3989.00    0.90885   0.87603   -1.000
 3990.00    0.90225   0.87807  117.631
 3991.00    0.90834   0.88465  114.834
 3992.00    0.93332   0.89710   -1.000
 3993.00    0.94434   0.90800   -1.000
 3994.00    0.94280   0.90802   -1.000
 3995.00    0.92493   0.89356   -1.000
 3996.00    0.89106   0.87184  121.256
 3997.00    0.87178   0.85824  122.237
 3998.00    0.87740   0.86345  119.366
 3999.00    0.90829   0.88618  113.770
 4000.00    0.94841   0.91412   -1.000
 4001.00    0.97376   0.93673   -1.000
 4002.00    0.99636   0.94793   -1.000
 4003.00    1.00156   0.94002   -1.000
 4004.00    0.95762   0.90784   -1.000
 4005.00    0.89116   0.86631   -1.000
 4006.00    0.85778   0.84761  121.406
 4007.00    0.89512   0.86550   -1.000
 4008.00    0.94248   0.90351   -1.000
 4009.00    0.97497   0.93633   -1.000
 4010.00    0.99302   0.95459   -1.000
 4011.00    1.00000   0.96206   -1.000
 4012.00    0.99437   0.96386   -1.000
 4013.00    0.99968   0.96588   -1.000
 4014.00    1.00186   0.97059   -1.000
 4015.00    1.00732   0.97463   -1.000
 4016.00    1.00320   0.97404  106.828
 4017.00    0.99882   0.97063  108.170
 4018.00    0.98830   0.97208  107.590
 4019.00    1.00320   0.97946  105.875
 4020.00    1.01322   0.98656  106.192
 4021.00    1.00151   0.98783  107.805
 4022.00    1.00554   0.98353  108.406
 4023.00    0.99206   0.97660  109.119
 4024.00    0.98227   0.96972  109.981
 4025.00    0.98382   0.97034  107.134
 4026.00    1.01315   0.98599  103.258
 4027.00    1.05475   1.01101   -1.000
 4028.00    1.06770   1.02322   -1.000
 4029.00    1.04440   1.00291   -1.000
 4030.00    0.97938   0.95455  114.044
 4031.00    0.92028   0.90294  118.757
 4032.00    0.89742   0.87008   -1.000
 4033.00    0.89868   0.86326   -1.000
 4034.00    0.92003   0.88064   -1.000
 4035.00    0.95347   0.91860   -1.000
 4036.00    1.00199   0.96872   -1.000
 4037.00    1.05078   1.01669   -1.000
 4038.00    1.08300   1.04461   -1.000
 4039.00    1.08068   1.04476   -1.000
 4040.00    1.04494   1.02831  104.168
 4041.00    1.02795   1.01310  105.259
 4042.00    1.03552   1.00030   -1.000
 4043.00    1.01094   0.96812   -1.000
 4044.00    0.94241   0.90437   -1.000
 4045.00    0.84493   0.83883  131.584
 4046.00    0.81155   0.81956  125.728
 4047.00    0.88217   0.86063  113.244
 4048.00    0.97757   0.93029   -1.000
 4049.00    1.02534   0.98993   -1.000
 4050.00    1.04727   1.02092  102.402
 4051.00    1.04972   1.02638  103.171
 4052.00    1.02971   1.01576  106.098
 4053.00    1.00171   0.99528  108.846
 4054.00    0.98550   0.97418  110.502
 4055.00    0.96464   0.95800  111.355
 4056.00    0.95986   0.94487  112.104
 4057.00    0.94988   0.93484  113.299
 4058.00    0.93767   0.93696  111.878
 4059.00    0.96402   0.95717  107.708
 4060.00    1.00299   0.98185  105.628
 4061.00    1.02314   0.98232   -1.000
 4062.00    0.98075   0.94191   -1.000
 4063.00    0.90301   0.88722  123.786
 4064.00    0.86265   0.85947  121.534
 4065.00    0.89030   0.86630  115.376
 4066.00    0.92604   0.89031   -1.000
 4067.00    0.95729   0.91823   -1.000
 4068.00    0.99367   0.94476   -1.000
 4069.00    1.03014   0.96053   -1.000
 4070.00    1.02228   0.95146   -1.000
 4071.00    0.96837   0.92271   -1.000
 4072.00    0.93763   0.90571   -1.000
 4073.00    0.95752   0.91698   -1.000
 4074.00    0.99866   0.93507   -1.000
 4075.00    0.98051   0.92861   -1.000
 4076.00    0.92399   0.89289   -1.000
 4077.00    0.85648   0.85688  127.334
 4078.00    0.84875   0.85055  122.869
 4079.00    0.90365   0.88378  114.257
 4080.00    0.96476   0.93941  106.367
 4081.00    1.02680   0.98475   -1.000
 4082.00    1.03471   0.99816   -1.000
 4083.00    1.00681   0.98223  108.882
 4084.00    0.97786   0.95987  110.481
 4085.00    0.96506   0.95463  108.723
 4086.00    0.99734   0.97510  104.964
 4087.00    1.04439   1.01101  100.901
 4088.00    1.08375   1.04324   -1.000
 4089.00    1.10459   1.05755   -1.000
 4090.00    1.09705   1.05144   -1.000
 4091.00    1.07031   1.03512   -1.000
 4092.00    1.04738   1.02195  103.340
 4093.00    1.04769   1.01264   -1.000
 4094.00    1.04663   0.99822   -1.000
 4095.00    1.01258   0.97272   -1.000
 4096.00    0.97107   0.94056  114.006
 4097.00    0.95254   0.91347   -1.000
 4098.00    0.93259   0.89039   -1.000
 4099.00    0.91498   0.85439   -1.000
 4100.00    0.85682   0.79814   -1.000
 4101.00    0.78110   0.74418   -1.000
 4102.00    0.75409   0.72444   -1.000
 4103.00    0.79079   0.75494   -1.000
 4104.00    0.86960   0.82024   -1.000
 4105.00    0.92759   0.88666   -1.000
 4106.00    0.98391   0.93364   -1.000
 4107.00    1.00408   0.95906   -1.000
 4108.00    1.00267   0.96633   -1.000
 4109.00    0.98509   0.96220  111.886
 4110.00    0.97310   0.95696  113.526
 4111.00    0.96141   0.95908  112.003
 4112.00    0.97184   0.97093  109.419
 4113.00    0.99963   0.98998  107.560
 4114.00    1.01913   1.01068  105.912
 4115.00    1.03177   1.02659  104.898
 4116.00    1.03843   1.03075  105.474
 4117.00    1.02673   1.01928  107.798
 4118.00    1.00381   0.99812  111.521
 4119.00    0.97005   0.97986  112.738
 4120.00    0.97575   0.97503  111.226
 4121.00    0.99075   0.98180  110.081
 4122.00    0.98957   0.99054  110.243
 4123.00    0.99136   0.99868  109.008
 4124.00    1.00381   1.00761  107.035
 4125.00    1.02440   1.01528  106.730
 4126.00    1.02953   1.01531  108.242
 4127.00    1.01454   1.00559  110.628
 4128.00    0.98530   0.99370  111.489
 4129.00    0.97734   0.98650  112.037
 4130.00    0.97260   0.97698  113.487
 4131.00    0.95152   0.95629  117.171
 4132.00    0.92954   0.93095  120.885
 4133.00    0.90955   0.91881  121.081
 4134.00    0.91082   0.93256  116.933
 4135.00    0.95311   0.96697  110.924
 4136.00    0.99835   1.00562  107.382
 4137.00    1.01883   1.03695  105.712
 4138.00    1.04143   1.05851  104.058
 4139.00    1.05788   1.06976  103.691
 4140.00    1.05594   1.06341  105.922
 4141.00    1.03050   1.02996  111.667
 4142.00    0.96258   0.97388  121.316
 4143.00    0.88690   0.92326   -1.000
 4144.00    0.86733   0.91003   -1.000
 4145.00    0.91300   0.93849   -1.000
 4146.00    0.97918   0.98333  110.827
 4147.00    1.00391   1.01368  109.781
 4148.00    0.99491   1.01919  112.003
 4149.00    0.97836   1.01118   -1.000
 4150.00    0.96132   1.00400   -1.000
 4151.00    0.95444   1.00162   -1.000
 4152.00    0.95956   0.99885   -1.000
 4153.00    0.95581   0.99040   -1.000
 4154.00    0.94314   0.97890   -1.000
 4155.00    0.93074   0.97268   -1.000
 4156.00    0.95159   0.97776   -1.000
 4157.00    1.05492   0.99342   -1.000
 4158.00    0.99183   1.01485  110.330
 4159.00    0.90760   1.03643   -1.000
 4160.00    0.93939   1.05404   -1.000
 4161.00    0.99821   1.06696   -1.000
 4162.00    1.02752   1.07676   -1.000
 4163.00    1.04911   1.08328   -1.000
 4164.00    1.03662   1.08282   -1.000
 4165.00    1.01764   1.07210   -1.000
 4166.00    0.98826   1.05225   -1.000
 4167.00    0.97437   1.03423   -1.000
 4168.00    0.97806   1.02934   -1.000
 4169.00    0.98943   1.03333   -1.000
 4170.00    0.99479   1.02853   -1.000
 4171.00    0.97390   1.00024   -1.000
 4172.00    0.91333   0.95876   -1.000
 4173.00    0.87102   0.93222   -1.000
 4174.00    0.87609   0.93575   -1.000
 4175.00    0.91726   0.95876   -1.000
 4176.00    0.94116   0.97884   -1.000
 4177.00    0.93156   0.98911   -1.000
 4178.00    0.92577   0.99862   -1.000
 4179.00    0.94046   1.01132   -1.000
 4180.00    0.96362   1.02050   -1.000
 4181.00    0.95716   1.01878   -1.000
 4182.00    0.96276   1.01214   -1.000
 4183.00    0.96045   1.01703   -1.000
 4184.00    0.99081   1.03268   -1.000
 4185.00    1.02125   1.04051  110.121
 4186.00    1.00244   1.02883   -1.000
 4187.00    0.96277   1.00729   -1.000
 4188.00    0.93771   0.99759   -1.000
 4189.00    0.96328   1.00498   -1.000
 4190.00    0.98974   1.01709   -1.000
 4191.00    0.98824   1.02902   -1.000
 4192.00    0.99990   1.04310   -1.000
 4193.00    1.02723   1.05569   -1.000
 4194.00    1.02507   1.05516   -1.000
 4195.00    0.99230   1.03175   -1.000
 4196.00    0.94390   0.99453   -1.000
 4197.00    0.92011   0.96220   -1.000
 4198.00    0.91088   0.94483   -1.000
 4199.00    0.91354   0.93972   -1.000
 4200.00    0.92844   0.94125  119.263
 4201.00    0.94062   0.94644  119.014
 4202.00    0.93655   0.95350  118.223
 4203.00    0.94145   0.96727   -1.000
 4204.00    0.95852   0.99122   -1.000
 4205.00    0.97766   1.01879   -1.000
 4206.00    0.99775   1.04355   -1.000
 4207.00    1.02358   1.06440   -1.000
 4208.00    1.04333   1.07702   -1.000
 4209.00    1.04264   1.07823   -1.000
 4210.00    1.04022   1.07421   -1.000
 4211.00    1.03582   1.07435   -1.000
 4212.00    1.04237   1.07886   -1.000
 4213.00    1.03289   1.07185   -1.000
 4214.00    0.98717   1.04413   -1.000
 4215.00    0.93969   1.01327   -1.000
 4216.00    0.93238   1.00271   -1.000
 4217.00    0.98820   1.02475   -1.000
 4218.00    1.05970   1.06581  103.299
 4219.00    1.10230   1.10201  100.497
 4220.00    1.12175   1.12162   99.489
 4221.00    1.12058   1.12084  100.482
 4222.00    1.10910   1.09518  104.801
 4223.00    1.05808   1.04186  112.341
 4224.00    0.98483   0.96282  123.671
 4225.00    0.88503   0.87373  140.616
 4226.00    0.77264   0.80832   -1.000
 4227.00    0.73621   0.80447   -1.000
 4228.00    0.82161   0.87050   -1.000
 4229.00    0.97137   0.97054  109.543
 4230.00    1.06149   1.04995  104.059
 4231.00    1.09211   1.08066  103.452
 4232.00    1.08525   1.07522  105.945
 4233.00    1.06310   1.05507  108.761
 4234.00    1.04280   1.03143  109.744
 4235.00    1.01923   1.01249  112.417
 4236.00    0.99832   1.00164  114.428
 4237.00    0.98817   0.99957  113.436
 4238.00    0.99886   1.00936  110.679
 4239.00    1.01600   1.02891  109.166
 4240.00    1.03567   1.05184  107.023
 4241.00    1.06033   1.07355  105.614
 4242.00    1.07455   1.09204  105.203
 4243.00    1.08700   1.10769  103.317
 4244.00    1.10538   1.12121  101.110
 4245.00    1.12123   1.12515  102.337
 4246.00    1.09178   1.10575  107.293
 4247.00    1.04924   1.06539  111.334
 4248.00    1.01978   1.02303  114.107
 4249.00    0.99113   0.99549  115.055
 4250.00    0.97412   0.99121  114.867
 4251.00    0.99056   1.00850  111.383
 4252.00    1.03303   1.03010  108.243
 4253.00    1.04467   1.03600  109.054
 4254.00    1.02570   1.02741  112.183
 4255.00    1.01046   1.02575  110.498
 4256.00    1.03078   1.04507  106.004
 4257.00    1.06761   1.06663  105.311
 4258.00    1.06447   1.05835  109.642
 4259.00    1.01744   1.01923  115.846
 4260.00    0.96033   0.98334  118.718
 4261.00    0.95531   0.98589   -1.000
 4262.00    1.00239   1.02969  106.613
 4263.00    1.07110   1.08808  101.644
 4264.00    1.12406   1.13150   99.389
 4265.00    1.14357   1.14648   99.251
 4266.00    1.14078   1.13934  100.979
 4267.00    1.11406   1.11931  104.446
 4268.00    1.07515   1.08641  107.601
 4269.00    1.04407   1.03971  111.804
 4270.00    1.00062   0.98338  119.398
 4271.00    0.92796   0.93149  126.761
 4272.00    0.88138   0.90215  127.764
 4273.00    0.89198   0.90305  124.681
 4274.00    0.91534   0.92759  121.532
 4275.00    0.94263   0.96677  115.953
 4276.00    0.99056   1.01837  108.275
 4277.00    1.05849   1.07114  103.340
 4278.00    1.09671   1.09927  103.521
 4279.00    1.08271   1.09139  108.441
 4280.00    1.03319   1.06331   -1.000
 4281.00    1.00694   1.04384   -1.000
 4282.00    1.01819   1.04672   -1.000
 4283.00    1.03969   1.05549  109.601
 4284.00    1.04686   1.05199  111.153
 4285.00    1.01805   1.03587  114.556
 4286.00    0.98211   1.01588   -1.000
 4287.00    0.97050   0.99662  119.014
 4288.00    0.95262   0.97098  123.780
 4289.00    0.90838   0.93714   -1.000
 4290.00    0.87367   0.91529   -1.000
 4291.00    0.88788   0.92589   -1.000
 4292.00    0.95188   0.96281  115.174
 4293.00    1.00384   0.99782  113.260
 4294.00    1.01120   1.00824  114.480
 4295.00    0.99855   0.99626  116.420
 4296.00    0.97585   0.97177  119.128
 4297.00    0.94379   0.93264  125.374
 4298.00    0.89044   0.87883  136.589
 4299.00    0.81658   0.82492  146.693
 4300.00    0.76286   0.78943   -1.000
 4301.00    0.76652   0.77996  143.323
 4302.00    0.79251   0.78922  141.268
 4303.00    0.80873   0.80446  139.116
 4304.00    0.82657   0.81686  137.456
 4305.00    0.83519   0.81887  138.172
 4306.00    0.82656   0.80400   -1.000
 4307.00    0.79076   0.77612  151.173
 4308.00    0.74776   0.75122  154.700
 4309.00    0.73589   0.74782  151.248
 4310.00    0.76714   0.77162  142.800
 4311.00    0.81528   0.81362  133.364
 4312.00    0.86391   0.86277  126.728
 4313.00    0.90856   0.91759  121.708
 4314.00    0.95370   0.98651   -1.000
 4315.00    1.02468   1.07023   -1.000
 4316.00    1.12469   1.15543   -1.000
 4317.00    1.20585   1.21974   93.344
 4318.00    1.23673   1.24635   93.517
 4319.00    1.22791   1.23999   95.070
 4320.00    1.20317   1.21624   97.271
 4321.00    1.17043   1.17902  100.647
 4322.00    1.12765   1.12215  105.719
 4323.00    1.06778   1.04529  113.726
 4324.00    0.97652   0.96542  124.131
 4325.00    0.89699   0.91866  128.784
 4326.00    0.88560   0.93580   -1.000
 4327.00    0.97603   1.01042   -1.000
 4328.00    1.09633   1.10040   99.316
 4329.00    1.17305   1.16205   97.707
 4330.00    1.17246   1.18394   98.260
 4331.00    1.16479   1.18537   97.649
 4332.00    1.16345   1.18900   -1.000
 4333.00    1.18334   1.19981   94.925
 4334.00    1.20254   1.20627   94.765
 4335.00    1.19992   1.19296   96.515
 4336.00    1.16824   1.14641  103.059
 4337.00    1.08885   1.06514  113.350
 4338.00    0.99371   0.96516  123.854
 4339.00    0.90462   0.87963  134.038
 4340.00    0.84084   0.84053  136.830
 4341.00    0.84874   0.86073  125.990
 4342.00    0.93138   0.92972  113.351
 4343.00    1.02780   1.01419  106.632
 4344.00    1.08216   1.08193  103.453
 4345.00    1.11475   1.12564  100.658
 4346.00    1.15208   1.15483   99.016
 4347.00    1.15587   1.17911   98.014
 4348.00    1.17981   1.20013   96.354
 4349.00    1.20935   1.20264   96.748
 4350.00    1.18032   1.16935  102.490
 4351.00    1.09267   1.11093  110.363
 4352.00    1.01729   1.06527   -1.000
 4353.00    1.03120   1.06481   -1.000
 4354.00    1.09513   1.10406  101.680
 4355.00    1.13855   1.15036   98.645
 4356.00    1.17215   1.18093   96.650
 4357.00    1.18839   1.19220   96.827
 4358.00    1.19098   1.18768   99.091
 4359.00    1.15699   1.17843  100.242
 4360.00    1.15083   1.18217   -1.000
 4361.00    1.18960   1.20299   95.027
 4362.00    1.22585   1.22870   94.105
 4363.00    1.23904   1.24895   93.761
 4364.00    1.24363   1.26182   92.651
 4365.00    1.25865   1.26421   92.640
 4366.00    1.24660   1.24782   95.727
 4367.00    1.19407   1.21545   99.279
 4368.00    1.15494   1.18690   -1.000
 4369.00    1.15328   1.17438   99.082
 4370.00    1.16779   1.17153   98.501
 4371.00    1.16979   1.16630   98.448
 4372.00    1.16405   1.14972   99.508
 4373.00    1.13952   1.11916  103.817
 4374.00    1.09197   1.08378  107.941
 4375.00    1.06713   1.06690  107.727
 4376.00    1.08840   1.08533  102.982
 4377.00    1.14914   1.12998   97.744
 4378.00    1.19115   1.17105   96.230
 4379.00    1.20096   1.18508   96.952
 4380.00    1.18972   1.16714   98.767
 4381.00    1.17100   1.11588   -1.000
 4382.00    1.09527   1.03201   -1.000
 4383.00    0.96841   0.94413  128.874
 4384.00    0.87826   0.90176   -1.000
 4385.00    0.90152   0.92964   -1.000
 4386.00    1.01224   1.00360  105.612
 4387.00    1.09744   1.07050  102.604
 4388.00    1.12156   1.09980  102.882
 4389.00    1.11239   1.10136  104.077
 4390.00    1.09708   1.09939  104.348
 4391.00    1.10484   1.10744  102.162
 4392.00    1.14080   1.12295   99.838
 4393.00    1.16132   1.13460  100.726
 4394.00    1.14346   1.13576  103.086
 4395.00    1.12427   1.13920  102.509
 4396.00    1.14824   1.16046   97.510
 4397.00    1.20323   1.18946   94.800
 4398.00    1.22119   1.20064   96.421
 4399.00    1.19304   1.18317  100.165
 4400.00    1.14313   1.15605  103.085
 4401.00    1.13106   1.14211  101.582
 4402.00    1.15050   1.13593   99.705
 4403.00    1.15535   1.11720   -1.000
 4404.00    1.09879   1.08066  109.898
 4405.00    1.04085   1.05083  110.397
 4406.00    1.06103   1.05361  106.377
 4407.00    1.09472   1.08036  104.987
 4408.00    1.09281   1.11018  104.086
 4409.00    1.10630   1.14465   -1.000
 4410.00    1.16727   1.19184   95.563
 4411.00    1.23447   1.23991   92.380
 4412.00    1.26682   1.26172   91.433
 4413.00    1.26744   1.24298   94.171
 4414.00    1.21657   1.19566   99.851
 4415.00    1.13697   1.14733  103.290
 4416.00    1.10392   1.13140   -1.000
 4417.00    1.12947   1.15899   -1.000
 4418.00    1.18225   1.20881   94.472
 4419.00    1.23021   1.25201   91.897
 4420.00    1.24784   1.26946   92.657
 4421.00    1.22663   1.25767   -1.000
 4422.00    1.19052   1.23275   -1.000
 4423.00    1.16516   1.21701   -1.000
 4424.00    1.17005   1.21634   -1.000
 4425.00    1.18469   1.22143   -1.000
 4426.00    1.17928   1.22397   -1.000
 4427.00    1.17739   1.22650   -1.000
 4428.00    1.19062   1.23099   -1.000
 4429.00    1.19869   1.23320   -1.000
 4430.00    1.18739   1.23216   -1.000
 4431.00    1.17366   1.23247   -1.000
 4432.00    1.19113   1.23250   -1.000
 4433.00    1.18820   1.21789   -1.000
 4434.00    1.14755   1.18603   -1.000
 4435.00    1.10338   1.16026   -1.000
 4436.00    1.11547   1.16995   -1.000
 4437.00    1.18420   1.21904   -1.000
 4438.00    1.25522   1.27738   89.547
 4439.00    1.29326   1.30955   89.540
 4440.00    1.28682   1.29883   92.616
 4441.00    1.23706   1.25684   97.198
 4442.00    1.17471   1.21362   -1.000
 4443.00    1.14185   1.19756   -1.000
 4444.00    1.15859   1.21813   -1.000
 4445.00    1.21856   1.26088   -1.000
 4446.00    1.26653   1.29997   -1.000
 4447.00    1.27638   1.31791   -1.000
 4448.00    1.28022   1.31950   -1.000
 4449.00    1.27693   1.31762   -1.000
 4450.00    1.26621   1.31439   -1.000
 4451.00    1.25324   1.30638   -1.000
 4452.00    1.26196   1.29112   -1.000
 4453.00    1.24737   1.26241   97.392
 4454.00    1.19358   1.21882   -1.000
 4455.00    1.14419   1.17774   -1.000
 4456.00    1.13424   1.16107   -1.000
 4457.00    1.15357   1.16783  100.053
 4458.00    1.17197   1.17941  100.250
 4459.00    1.16254   1.18257  100.799
 4460.00    1.15234   1.17902   -1.000
 4461.00    1.14194   1.17893   -1.000
 4462.00    1.14145   1.19193   -1.000
 4463.00    1.17848   1.22065   -1.000
 4464.00    1.22726   1.25322   94.289
 4465.00    1.25050   1.27350   94.296
 4466.00    1.25337   1.27703   94.368
 4467.00    1.24049   1.26923   -1.000
 4468.00    1.22696   1.25772   -1.000
 4469.00    1.21044   1.25033   -1.000
 4470.00    1.21451   1.25616   -1.000
 4471.00    1.23808   1.28127   -1.000
 4472.00    1.27791   1.31842   -1.000
 4473.00    1.32119   1.35238   -1.000
 4474.00    1.35240   1.37365   86.988
 4475.00    1.36447   1.38376   87.212
 4476.00    1.36332   1.39242   -1.000
 4477.00    1.37508   1.40079   85.892
 4478.00    1.38368   1.39394   86.761
 4479.00    1.36343   1.35959   90.169
 4480.00    1.29428   1.30771   94.334
 4481.00    1.23235   1.26717   -1.000
 4482.00    1.21912   1.26129   -1.000
 4483.00    1.25509   1.29277   -1.000
 4484.00    1.31385   1.34490   -1.000
 4485.00    1.35996   1.39047   -1.000
 4486.00    1.38162   1.40968   -1.000
 4487.00    1.38008   1.39775   88.466
 4488.00    1.33099   1.36393   -1.000
 4489.00    1.27633   1.32857   -1.000
 4490.00    1.26348   1.31414   -1.000
 4491.00    1.28242   1.32723   -1.000
 4492.00    1.32397   1.34824   88.806
 4493.00    1.33371   1.34966   90.336
 4494.00    1.29711   1.32668   -1.000
 4495.00    1.25960   1.30256   -1.000
 4496.00    1.24666   1.30043   -1.000
 4497.00    1.27742   1.32243   -1.000
 4498.00    1.32978   1.35264   88.017
 4499.00    1.36194   1.37272   87.234
 4500.00    1.35635   1.37601   88.404
 4501.00    1.32984   1.37354   -1.000
 4502.00    1.32867   1.38421   -1.000
 4503.00    1.37718   1.41197   -1.000
 4504.00    1.43411   1.44345   81.952
 4505.00    1.44967   1.46324   82.645
 4506.00    1.44280   1.46461   84.427
 4507.00    1.42725   1.45342   85.187
 4508.00    1.40889   1.44269   -1.000
 4509.00    1.40905   1.44001   -1.000
 4510.00    1.41816   1.44241   83.916
 4511.00    1.41963   1.44088   84.724
 4512.00    1.39894   1.42796   -1.000
 4513.00    1.37704   1.40735   -1.000
 4514.00    1.35475   1.38999   -1.000
 4515.00    1.34996   1.38110   -1.000
 4516.00    1.36074   1.37864   87.944
 4517.00    1.35619   1.37634   89.103
 4518.00    1.34024   1.37274   -1.000
 4519.00    1.33583   1.37662   -1.000
 4520.00    1.36899   1.39048   86.166
 4521.00    1.39176   1.40204   86.567
 4522.00    1.37790   1.39946   88.751
 4523.00    1.34513   1.38237   -1.000
 4524.00    1.32603   1.35910   -1.000
 4525.00    1.30771   1.33456   -1.000
 4526.00    1.28506   1.30540   95.766
 4527.00    1.24507   1.27023   -1.000
 4528.00    1.20970   1.23726   -1.000
 4529.00    1.20188   1.22160   98.676
 4530.00    1.21685   1.22914   96.873
 4531.00    1.23914   1.25048   95.099
 4532.00    1.26629   1.26841   94.719
 4533.00    1.26093   1.26765   97.601
 4534.00    1.21777   1.25117   -1.000
 4535.00    1.18939   1.24108   -1.000
 4536.00    1.22344   1.26182   -1.000
 4537.00    1.30928   1.31305   87.867
 4538.00    1.38316   1.36542   85.685
 4539.00    1.40199   1.39230   86.720
 4540.00    1.37857   1.39134   88.905
 4541.00    1.35419   1.38085   -1.000
 4542.00    1.35734   1.37711   87.980
 4543.00    1.35793   1.37923   87.674
 4544.00    1.37158   1.37743  129.604
 4545.00    1.28967   1.36747   -1.000
 4546.00    0.23183   1.35542   -1.000
 4547.00   -0.04821   1.34575    0.000
 4548.00    0.04169   1.33362   -1.000
 4549.00    0.99096   1.31927   -1.000
 4550.00    0.31417   1.31331   -1.000
 4551.00    0.95073   1.32160   -1.000
 4552.00    1.37695   1.33412   -1.000
 4553.00    1.30124   1.33520   -1.000
 4554.00    1.29085   1.32595   -1.000
 4555.00    1.28561   1.32188   -1.000
 4556.00    1.31417   1.33672   89.216
 4557.00    1.36752   1.37135   85.599
 4558.00    1.41174   1.40969   84.219
 4559.00    1.42854   1.43564   84.808
 4560.00    1.42758   1.44754   84.718
 4561.00    1.42634   1.44846   84.759
 4562.00    1.41700   1.43782   86.865
 4563.00    1.38087   1.41502   -1.000
 4564.00    1.34215   1.38680   -1.000
 4565.00    1.32144   1.36957   -1.000
 4566.00    1.33989   1.37595   -1.000
 4567.00    1.38650   1.40265   84.712
 4568.00    1.42481   1.43135   83.949
 4569.00    1.43206   1.44232   84.984
 4570.00    1.40590   1.43059   87.226
 4571.00    1.36133   1.40738   -1.000
 4572.00    1.34324   1.39156   -1.000
 4573.00    1.37008   1.39674   85.887
 4574.00    1.41394   1.41810   84.750
 4575.00    1.43244   1.43746   84.874
 4576.00    1.41892   1.44375   85.285
 4577.00    1.40986   1.43760   -1.000
 4578.00    1.40292   1.42054   87.321
 4579.00    1.37379   1.39295   90.021
 4580.00    1.33218   1.36144   -1.000
 4581.00    1.30723   1.33915   -1.000
 4582.00    1.31489   1.33520   90.088
 4583.00    1.33906   1.34467   89.462
 4584.00    1.34561   1.35372   89.785
 4585.00    1.33850   1.35604   90.370
 4586.00    1.33712   1.35900   89.008
 4587.00    1.35877   1.37425   86.602
 4588.00    1.39602   1.40213   84.789
 4589.00    1.41848   1.42719   84.763
 4590.00    1.42501   1.43518   86.090
 4591.00    1.41105   1.42432   87.720
 4592.00    1.37100   1.40202   -1.000
 4593.00    1.35149   1.38149   -1.000
 4594.00    1.35690   1.37267   88.439
 4595.00    1.36579   1.37226   87.749
 4596.00    1.36610   1.37444   87.543
 4597.00    1.36716   1.38012   87.360
 4598.00    1.37476   1.38767   87.163
 4599.00    1.39113   1.39145   87.992
 4600.00    1.37530   1.38910   88.784
 4601.00    1.35810   1.38425   -1.000
 4602.00    1.36524   1.38300   87.983
 4603.00    1.38139   1.38667   86.992
 4604.00    1.39408   1.39118   87.205
 4605.00    1.39520   1.39543   87.039
 4606.00    1.39807   1.40433   86.043
 4607.00    1.41752   1.42297   84.294
 4608.00    1.45528   1.44977   82.479
 4609.00    1.48588   1.47558   81.555
 4610.00    1.48875   1.48837   81.999
 4611.00    1.46507   1.48267   83.178
 4612.00    1.44406   1.46675   84.087
 4613.00    1.43062   1.45298   84.609
 4614.00    1.43793   1.44896   84.133
 4615.00    1.45068   1.45556   83.362
 4616.00    1.45264   1.46484   83.054
 4617.00    1.44773   1.46873   83.666
 4618.00    1.44275   1.46665   84.291
 4619.00    1.43858   1.46348   84.168
 4620.00    1.44535   1.46546   83.319
 4621.00    1.46197   1.47408   81.959
 4622.00    1.47087   1.48345   82.015
 4623.00    1.47092   1.48600   82.234
 4624.00    1.47833   1.48088   82.392
 4625.00    1.47022   1.47406   83.191
 4626.00    1.46025   1.46939   83.358
 4627.00    1.46804   1.46794   83.300
 4628.00    1.46808   1.46953   83.878
 4629.00    1.45161   1.47193   84.033
 4630.00    1.45051   1.47417   83.575
 4631.00    1.48175   1.47662   82.572
 4632.00    1.48884   1.47706   83.027
 4633.00    1.46501   1.47177   84.297
 4634.00    1.44727   1.46139   85.207
 4635.00    1.43628   1.45061   85.067
 4636.00    1.42957   1.44045   85.809
 4637.00    1.41092   1.42836   86.979
 4638.00    1.40006   1.41626   87.284
 4639.00    1.39449   1.40910   87.133
 4640.00    1.39108   1.41198   85.568
 4641.00    1.43116   1.42702   83.429
 4642.00    1.47321   1.44686   82.341
 4643.00    1.48341   1.45791   82.767
 4644.00    1.46773   1.45072   84.390
 4645.00    1.43357   1.42660   86.827
 4646.00    1.39881   1.39318   89.230
 4647.00    1.36589   1.36488   89.481
 4648.00    1.36170   1.35850   87.777
 4649.00    1.39066   1.37684   85.691
 4650.00    1.42398   1.40890   84.569
 4651.00    1.44253   1.43864   84.484
 4652.00    1.44848   1.45307   84.304
 4653.00    1.44951   1.44976   85.386
 4654.00    1.43040   1.43359   87.437
 4655.00    1.39523   1.41498   88.376
 4656.00    1.38320   1.40906   87.510
 4657.00    1.40063   1.42561   84.596
 4658.00    1.44295   1.46199   81.314
 4659.00    1.50902   1.50289   79.570
 4660.00    1.53482   1.52841   79.594
 4661.00    1.52844   1.52748   80.652
 4662.00    1.49147   1.50624   82.703
 4663.00    1.46047   1.47856   84.307
 4664.00    1.44353   1.45251   84.411
 4665.00    1.44194   1.42405   85.882
 4666.00    1.39678   1.38598   89.741
 4667.00    1.33367   1.34505   93.472
 4668.00    1.28969   1.32109   -1.000
 4669.00    1.30176   1.33138   -1.000
 4670.00    1.36469   1.36973   86.439
 4671.00    1.42662   1.41099   84.183
 4672.00    1.45759   1.43697   83.793
 4673.00    1.46222   1.44603   83.890
 4674.00    1.44772   1.44902   83.791
 4675.00    1.45585   1.45728   82.635
 4676.00    1.47945   1.47043   81.378
 4677.00    1.50715   1.47590   81.895
 4678.00    1.48749   1.46363   83.769
 4679.00    1.45170   1.43844   85.413
 4680.00    1.42538   1.41227   86.808
 4681.00    1.40009   1.39614   87.611
 4682.00    1.40044   1.39617   86.397
 4683.00    1.43209   1.41081   84.142
 4684.00    1.46560   1.43081   83.107
 4685.00    1.47963   1.44497   83.478
 4686.00    1.46981   1.44934   83.490
 4687.00    1.46353   1.44674   84.000
 4688.00    1.46382   1.44187   83.972
 4689.00    1.46432   1.43786   83.981
 4690.00    1.45798   1.43542   84.629
 4691.00    1.44983   1.43362   84.774
 4692.00    1.44841   1.43430   83.692
 4693.00    1.46588   1.44243   82.430
 4694.00    1.48838   1.45769   80.549
 4695.00    1.51261   1.47283   79.572
 4696.00    1.52824   1.47943   -1.000
 4697.00    1.51659   1.47081   -1.000
 4698.00    1.47567   1.44697   85.002
 4699.00    1.43113   1.41905   85.890
 4700.00    1.42408   1.39954   85.093
 4701.00    1.43097   1.38761   -1.000
 4702.00    1.41466   1.37680   87.404
 4703.00    1.38904   1.37105   87.786
 4704.00    1.39333   1.37747   85.985
 4705.00    1.43245   1.39272   84.743
 4706.00    1.44461   1.40364   86.087
 4707.00    1.41925   1.40070   87.852
 4708.00    1.39902   1.38911   88.640
 4709.00    1.38685   1.38319   88.093
 4710.00    1.39638   1.39284   85.360
 4711.00    1.43496   1.41453   83.033
 4712.00    1.48066   1.43491   -1.000
 4713.00    1.49297   1.44059   -1.000
 4714.00    1.45994   1.43216   84.826
 4715.00    1.43764   1.42758   84.723
 4716.00    1.46433   1.43956   82.934
 4717.00    1.49793   1.46481   81.345
 4718.00    1.51827   1.49259   80.910
 4719.00    1.51611   1.51352   80.635
 4720.00    1.52639   1.52395   80.359
 4721.00    1.52560   1.52415   81.109
 4722.00    1.50681   1.51727   81.677
 4723.00    1.50065   1.51166   81.130
 4724.00    1.52250   1.51402   80.223
 4725.00    1.52598   1.51639   80.413
 4726.00    1.51154   1.50437   82.492
 4727.00    1.46889   1.47235   85.717
 4728.00    1.42047   1.43062   87.548
 4729.00    1.40690   1.40093   87.083
 4730.00    1.40937   1.39508   86.159
 4731.00    1.42522   1.40733   85.496
 4732.00    1.43476   1.42695   84.439
 4733.00    1.45281   1.44697   83.726
 4734.00    1.46758   1.46244   83.266
 4735.00    1.48907   1.46876   82.802
 4736.00    1.48475   1.46631   83.785
 4737.00    1.45901   1.46260   83.837
 4738.00    1.47422   1.46562   82.673
 4739.00    1.49982   1.47574   82.785
 4740.00    1.49649   1.48418   83.295
 4741.00    1.48080   1.48485   83.379
 4742.00    1.48206   1.48429   82.660
 4743.00    1.49335   1.48826   81.742
 4744.00    1.50186   1.49356   81.977
 4745.00    1.50785   1.49933   82.041
 4746.00    1.50966   1.50750   81.383
 4747.00    1.51954   1.51771   80.544
 4748.00    1.52707   1.52845   80.417
 4749.00    1.53247   1.53691   80.558
 4750.00    1.53172   1.54168   80.606
 4751.00    1.52202   1.54227   81.230
 4752.00    1.51556   1.53622   82.175
 4753.00    1.49924   1.52291   82.848
 4754.00    1.48195   1.50686   83.409
 4755.00    1.47637   1.49471   83.216
 4756.00    1.46946   1.49072   83.573
 4757.00    1.46356   1.49509   -1.000
 4758.00    1.46576   1.50459   -1.000
 4759.00    1.47780   1.51524   -1.000
 4760.00    1.49360   1.52151   83.405
 4761.00    1.49072   1.51568   84.805
 4762.00    1.45429   1.49554   -1.000
 4763.00    1.42225   1.46833   -1.000
 4764.00    1.40981   1.44527   -1.000
 4765.00    1.40983   1.43159   87.907
 4766.00    1.40847   1.42668   87.261
 4767.00    1.42620   1.43321   86.015
 4768.00    1.45841   1.45497   84.009
 4769.00    1.48907   1.48729   82.892
 4770.00    1.50920   1.51545   83.111
 4771.00    1.50439   1.52639   83.852
 4772.00    1.48139   1.52337   -1.000
 4773.00    1.48087   1.52242   -1.000
 4774.00    1.51648   1.53413   81.669
 4775.00    1.53735   1.55288   81.187
 4776.00    1.53738   1.56621   81.287
 4777.00    1.53829   1.57064   -1.000
 4778.00    1.52657   1.57017   -1.000
 4779.00    1.51676   1.56609   -1.000
 4780.00    1.50232   1.55755   -1.000
 4781.00    1.50063   1.54634   -1.000
 4782.00    1.50372   1.53447   84.117
 4783.00    1.48339   1.52294   -1.000
 4784.00    1.47775   1.51357   -1.000
 4785.00    1.48469   1.50709   85.042
 4786.00    1.47299   1.50051   85.927
 4787.00    1.45889   1.49172   -1.000
 4788.00    1.45581   1.48589   -1.000
 4789.00    1.45736   1.48684   -1.000
 4790.00    1.46144   1.49296   -1.000
 4791.00    1.46638   1.50479   -1.000
 4792.00    1.48839   1.52425   -1.000
 4793.00    1.51240   1.55105   -1.000
 4794.00    1.54270   1.58113   -1.000
 4795.00    1.56822   1.60536   -1.000
 4796.00    1.56876   1.61427   -1.000
 4797.00    1.54868   1.60425   -1.000
 4798.00    1.51585   1.57829   -1.000
 4799.00    1.48438   1.54826   -1.000
 4800.00    1.47568   1.53185   -1.000
 4801.00    1.49762   1.53838   -1.000
 4802.00    1.53340   1.56175   80.780
 4803.00    1.55001   1.58514   -1.000
 4804.00    1.53688   1.59121   -1.000
 4805.00    1.51719   1.57789   -1.000
 4806.00    1.50050   1.55774   -1.000
 4807.00    1.49044   1.54248   -1.000
 4808.00    1.49216   1.53612   -1.000
 4809.00    1.49958   1.53900   -1.000
 4810.00    1.51037   1.54903   -1.000
 4811.00    1.51926   1.56068   -1.000
 4812.00    1.52295   1.56920   -1.000
 4813.00    1.53294   1.57337   -1.000
 4814.00    1.54130   1.57576   -1.000
 4815.00    1.54099   1.58115   -1.000
 4816.00    1.55059   1.59226   -1.000
 4817.00    1.56319   1.60661   -1.000
 4818.00    1.57408   1.61911   -1.000
 4819.00    1.57199   1.62612   -1.000
 4820.00    1.58259   1.62750   -1.000
 4821.00    1.57386   1.62161   -1.000
 4822.00    1.55040   1.60233   -1.000
 4823.00    1.51447   1.57152   -1.000
 4824.00    1.48937   1.54466   -1.000
 4825.00    1.50004   1.53724   -1.000
 4826.00    1.53840   1.55005   80.973
 4827.00    1.55440   1.56713   81.404
 4828.00    1.54211   1.57256   -1.000
 4829.00    1.51015   1.56571   -1.000
 4830.00    1.51466   1.55467   -1.000
 4831.00    1.50722   1.54332   -1.000
 4832.00    1.49868   1.53314   -1.000
 4833.00    1.50526   1.53019   82.330
 4834.00    1.52945   1.53901   81.252
 4835.00    1.53742   1.55565   80.996
 4836.00    1.55004   1.56928   81.153
 4837.00    1.54379   1.57247   81.556
 4838.00    1.53151   1.56586   -1.000
 4839.00    1.50662   1.55186   -1.000
 4840.00    1.48604   1.53537   -1.000
 4841.00    1.48110   1.52432   -1.000
 4842.00    1.49200   1.52131   83.564
 4843.00    1.50263   1.52280   82.928
 4844.00    1.50834   1.52916   82.088
 4845.00    1.53813   1.54385   80.769
 4846.00    1.55420   1.56145   80.402
 4847.00    1.55639   1.56829   82.156
 4848.00    1.52331   1.55826   -1.000
 4849.00    1.49716   1.54349   -1.000
 4850.00    1.50942   1.53983   -1.000
 4851.00    1.52719   1.54631   81.910
 4852.00    1.53780   1.55116   82.413
 4853.00    1.52430   1.54506   83.128
 4854.00    1.49596   1.52234   -1.000
 4855.00    1.45889   1.48620   -1.000
 4856.00    1.42623   1.45337   -1.000
 4857.00    1.43364   1.43633   86.880
 4858.00    1.43929   1.42258   89.444
 4859.00    1.38202   1.38005   97.478
 4860.00    1.25744   1.29016   -1.000
 4861.00    1.12600   1.18675   -1.000
 4862.00    1.09775   1.13142   -1.000
 4863.00    1.19040   1.15833   96.902
 4864.00    1.30663   1.24603   -1.000
 4865.00    1.37618   1.33999   88.189
 4866.00    1.41504   1.40804   86.380
 4867.00    1.44714   1.45017   85.642
 4868.00    1.45905   1.47424   85.294
 4869.00    1.46308   1.48139   86.091
 4870.00    1.44617   1.46649   88.618
 4871.00    1.39013   1.43193   -1.000
 4872.00    1.36544   1.39903   -1.000
 4873.00    1.38755   1.39563   87.201
 4874.00    1.43141   1.42611   85.737
 4875.00    1.45353   1.46540   85.110
 4876.00    1.46013   1.49213   -1.000
 4877.00    1.46748   1.50747   -1.000
 4878.00    1.47706   1.52359   -1.000
 4879.00    1.49869   1.54496   -1.000
 4880.00    1.51809   1.56220   -1.000
 4881.00    1.50244   1.56468   -1.000
 4882.00    1.48300   1.55269   -1.000
 4883.00    1.47672   1.53780   -1.000
 4884.00    1.48124   1.52651   -1.000
 4885.00    1.46465   1.51216   -1.000
 4886.00    1.44679   1.49294   -1.000
 4887.00    1.44247   1.47978   -1.000
 4888.00    1.44486   1.47683   -1.000
 4889.00    1.44894   1.47240   87.598
 4890.00    1.42596   1.45558   -1.000
 4891.00    1.39544   1.43445   -1.000
 4892.00    1.41073   1.43633   85.177
 4893.00    1.48359   1.47907   81.178
 4894.00    1.56714   1.54816   78.842
 4895.00    1.61029   1.61373   77.396
 4896.00    1.62793   1.65534   77.068
 4897.00    1.62934   1.66979   -1.000
 4898.00    1.61838   1.66420   -1.000
 4899.00    1.59097   1.64610   -1.000
 4900.00    1.55269   1.62362   -1.000
 4901.00    1.53918   1.60590   -1.000
 4902.00    1.54916   1.59424   -1.000
 4903.00    1.54136   1.58372   -1.000
 4904.00    1.53211   1.57737   -1.000
 4905.00    1.55589   1.58581   79.707
 4906.00    1.58308   1.60861   79.133
 4907.00    1.59303   1.62526   79.922
 4908.00    1.57460   1.61702   -1.000
 4909.00    1.52478   1.58614   -1.000
 4910.00    1.48159   1.54916   -1.000
 4911.00    1.47379   1.52576   -1.000
 4912.00    1.49407   1.52679   -1.000
 4913.00    1.52284   1.54763   81.454
 4914.00    1.54863   1.57535   80.394
 4915.00    1.58008   1.59923   79.695
 4916.00    1.59391   1.60978   80.117
 4917.00    1.57087   1.59370   83.030
 4918.00    1.50780   1.54229   -1.000
 4919.00    1.42849   1.46701   -1.000
 4920.00    1.36593   1.39927   -1.000
 4921.00    1.37098   1.37246   89.611
 4922.00    1.41515   1.39460   86.336
 4923.00    1.46714   1.43988   85.123
 4924.00    1.48822   1.47763   85.086
 4925.00    1.48542   1.50062   83.963
 4926.00    1.51524   1.52379   81.716
 4927.00    1.54396   1.55708   80.281
 4928.00    1.56926   1.59201   79.551
 4929.00    1.59699   1.62021   79.013
 4930.00    1.60831   1.63939   78.537
 4931.00    1.61220   1.64419   79.360
 4932.00    1.59530   1.62830   -1.000
 4933.00    1.54381   1.59334   -1.000
 4934.00    1.50413   1.55607   -1.000
 4935.00    1.50648   1.53788   83.116
 4936.00    1.52998   1.53711   83.114
 4937.00    1.51683   1.52944   85.673
 4938.00    1.47329   1.50259   -1.000
 4939.00    1.43546   1.47570   -1.000
 4940.00    1.46491   1.47892   84.104
 4941.00    1.52997   1.51910   81.408
 4942.00    1.58086   1.57460   79.942
 4943.00    1.60727   1.61732   79.236
 4944.00    1.61720   1.63518   79.321
 4945.00    1.61452   1.63327   79.909
 4946.00    1.59162   1.62439   -1.000
 4947.00    1.58256   1.62226   -1.000
 4948.00    1.60806   1.63244   78.361
 4949.00    1.62718   1.64959   78.150
 4950.00    1.63321   1.66326   77.815
 4951.00    1.64073   1.66749   78.250
 4952.00    1.62905   1.66297   78.793
 4953.00    1.60499   1.65321   -1.000
 4954.00    1.59979   1.63967   -1.000
 4955.00    1.59589   1.61441   82.924
 4956.00    1.55418   1.56452   87.306
 4957.00    1.46814   1.49454   90.805
 4958.00    1.41549   1.44260   88.799
 4959.00    1.46786   1.44982   83.582
 4960.00    1.56455   1.51004   -1.000
 4961.00    1.62071   1.57927   80.211
 4962.00    1.61491   1.62137   80.620
 4963.00    1.60588   1.63044   81.274
 4964.00    1.59459   1.61820   82.250
 4965.00    1.56607   1.59377   84.032
 4966.00    1.53583   1.56568   -1.000
 4967.00    1.52318   1.54627   85.085
 4968.00    1.52902   1.54027   84.828
 4969.00    1.52837   1.54271   84.187
 4970.00    1.54064   1.55127   83.276
 4971.00    1.55423   1.56661   82.382
 4972.00    1.57888   1.58763   81.392
 4973.00    1.59688   1.61026   80.630
 4974.00    1.61349   1.62735   80.316
 4975.00    1.61001   1.63338   80.906
 4976.00    1.60618   1.62788   81.770
 4977.00    1.57901   1.61222   -1.000
 4978.00    1.55072   1.58975   -1.000
 4979.00    1.52984   1.56703   -1.000
 4980.00    1.51539   1.54547   -1.000
 4981.00    1.49261   1.51786   89.413
 4982.00    1.44314   1.47778   -1.000
 4983.00    1.40060   1.43363   -1.000
 4984.00    1.40150   1.40969   90.440
 4985.00    1.43726   1.42140   87.870
 4986.00    1.48164   1.46105   85.065
 4987.00    1.53468   1.51023   82.972
 4988.00    1.56212   1.55122   83.111
 4989.00    1.55572   1.56968   84.380
 4990.00    1.53923   1.56442   85.238
 4991.00    1.52788   1.55124   85.249
 4992.00    1.53442   1.54611   84.460
 4993.00    1.55343   1.55158   84.117
 4994.00    1.55172   1.56060   84.088
 4995.00    1.54881   1.56875   83.640
 4996.00    1.56430   1.57699   83.224
 4997.00    1.56454   1.58229   83.759
 4998.00    1.55371   1.57588   84.904
 4999.00    1.53445   1.55373   86.646
 5000.00    1.49905   1.52244   87.712
 5001.00    1.48124   1.49591   87.742
 5002.00    1.49390   1.48438   86.880
 5003.00    1.51160   1.48477   86.313
 5004.00    1.51796   1.48335   87.613
 5005.00    1.49170   1.46858   89.891
 5006.00    1.45335   1.44539   90.341
 5007.00    1.44965   1.43516   88.042
 5008.00    1.49337   1.45516   85.333
 5009.00    1.53765   1.49468   -1.000
 5010.00    1.54905   1.52349   85.646
 5011.00    1.52478   1.52092   88.276
 5012.00    1.48417   1.48866   91.623
 5013.00    1.42810   1.44605   93.721
 5014.00    1.39807   1.41502   93.189
 5015.00    1.40473   1.40847   91.071
 5016.00    1.44340   1.42239   89.165
 5017.00    1.46952   1.44056   88.836
 5018.00    1.46277   1.45223   88.869
 5019.00    1.47370   1.46047   87.822
 5020.00    1.50240   1.47209   87.112
 5021.00    1.51370   1.48333   87.535
 5022.00    1.50008   1.48829   87.723
 5023.00    1.49638   1.49203   87.198
 5024.00    1.50797   1.50395   86.258
 5025.00    1.53204   1.52177   85.690
 5026.00    1.53593   1.53206   86.132
 5027.00    1.52343   1.52845   86.547
 5028.00    1.51513   1.52191   85.715
 5029.00    1.53363   1.52733   84.068
 5030.00    1.55917   1.54671   82.882
 5031.00    1.57987   1.57308   81.527
 5032.00    1.60138   1.59895   80.600
 5033.00    1.62161   1.61702   80.767
 5034.00    1.61650   1.61693   83.452
 5035.00    1.56556   1.59145   86.804
 5036.00    1.51000   1.55087   -1.000
 5037.00    1.48852   1.51885   88.450
 5038.00    1.48821   1.50138   89.573
 5039.00    1.46465   1.47826   93.194
 5040.00    1.40452   1.43527   -1.000
 5041.00    1.35009   1.38949   -1.000
 5042.00    1.35984   1.37889   92.075
 5043.00    1.44645   1.42124   86.326
 5044.00    1.53796   1.49597   -1.000
 5045.00    1.59279   1.56916   81.179
 5046.00    1.66355   1.61738   -1.000
 5047.00    1.45600   1.63068   -1.000
 5048.00    0.72789   1.60985   -1.000
 5049.00    0.06064   1.56796   -1.000
 5050.00    0.34685   1.52710   -1.000
 5051.00    1.41668   1.50553   -1.000
 5052.00    1.53538   1.50838   85.029
 5053.00    1.54963   1.53120   82.870
 5054.00    1.59235   1.56615   81.381
 5055.00    1.62872   1.60091   80.631
 5056.00    1.64213   1.62394   80.389
 5057.00    1.64489   1.63431   80.552
 5058.00    1.64405   1.63831   80.702
 5059.00    1.63342   1.64241   80.663
 5060.00    1.63602   1.65034   80.092
 5061.00    1.64009   1.66073   80.160
 5062.00    1.65187   1.66469   81.284
 5063.00    1.62924   1.64916   83.711
 5064.00    1.57540   1.61022   -1.000
 5065.00    1.52117   1.56348   -1.000
 5066.00    1.51364   1.53440   86.504
 5067.00    1.53551   1.53093   85.181
 5068.00    1.54847   1.53993   84.951
 5069.00    1.55541   1.55078   84.541
 5070.00    1.57515   1.56166   83.975
 5071.00    1.58548   1.56865   84.707
 5072.00    1.56949   1.56629   85.378
 5073.00    1.55488   1.55871   84.255
 5074.00    1.57255   1.55645   83.612
 5075.00    1.58727   1.56216   83.522
 5076.00    1.58801   1.56918   83.457
 5077.00    1.58195   1.56843   84.308
 5078.00    1.56629   1.55064   87.349
 5079.00    1.50411   1.51144   91.578
 5080.00    1.44056   1.46539   92.501
 5081.00    1.44120   1.44238   90.429
 5082.00    1.48042   1.45269   88.496
 5083.00    1.50545   1.47834   87.337
 5084.00    1.52637   1.50511   85.663
 5085.00    1.56223   1.53263   84.200
 5086.00    1.58575   1.55939   83.634
 5087.00    1.59504   1.57892   83.539
 5088.00    1.60171   1.58884   83.104
 5089.00    1.60799   1.59438   82.494
 5090.00    1.61349   1.60113   82.046
 5091.00    1.61398   1.61072   81.621
 5092.00    1.62940   1.62342   80.654
 5093.00    1.64714   1.63775   79.939
 5094.00    1.66550   1.64733   80.734
 5095.00    1.66812   1.64210   82.468
 5096.00    1.60567   1.61594   84.254
 5097.00    1.56762   1.57416   86.310
 5098.00    1.52992   1.53087   88.108
 5099.00    1.49623   1.50160   88.321
 5100.00    1.50553   1.50078   86.044
 5101.00    1.55842   1.52944   83.529
 5102.00    1.60578   1.56727   -1.000
 5103.00    1.60540   1.58991   83.413
 5104.00    1.58570   1.59033   84.544
 5105.00    1.57028   1.57808   85.612
 5106.00    1.56221   1.56075   86.659
 5107.00    1.53399   1.54011   87.750
 5108.00    1.52334   1.52059   87.559
 5109.00    1.52336   1.50844   86.979
 5110.00    1.52890   1.50858   86.351
 5111.00    1.54443   1.52351   85.078
 5112.00    1.57089   1.55022   84.045
 5113.00    1.60242   1.57890   83.020
 5114.00    1.61130   1.60063   82.283
 5115.00    1.61913   1.61580   81.857
 5116.00    1.63508   1.62917   80.970
 5117.00    1.65172   1.64240   80.301
 5118.00    1.66629   1.65264   80.582
 5119.00    1.65932   1.65369   81.679
 5120.00    1.63730   1.64096   82.917
 5121.00    1.60808   1.61591   84.294
 5122.00    1.57994   1.58301   86.508
 5123.00    1.54192   1.54648   89.143
 5124.00    1.50552   1.51400   89.664
 5125.00    1.49494   1.49542   88.799
 5126.00    1.50778   1.49324   88.385
 5127.00    1.52353   1.49954   87.851
 5128.00    1.52105   1.50493   88.011
 5129.00    1.51494   1.50830   87.920
 5130.00    1.52041   1.51434   86.720
 5131.00    1.54061   1.52719   85.221
 5132.00    1.56358   1.54619   84.567
 5133.00    1.57942   1.56590   83.753
 5134.00    1.60291   1.58215   83.018
 5135.00    1.61433   1.59299   82.830
 5136.00    1.61782   1.59430   84.413
 5137.00    1.59064   1.57966   86.500
 5138.00    1.54413   1.55020   87.843
 5139.00    1.51288   1.52195   87.901
 5140.00    1.51133   1.51000   87.064
 5141.00    1.52892   1.51144   87.789
 5142.00    1.52523   1.51306   89.264
 5143.00    1.50841   1.51106   88.642
 5144.00    1.51705   1.51450   87.097
 5145.00    1.53134   1.52490   86.857
 5146.00    1.53636   1.52866   87.730
 5147.00    1.52920   1.52091   87.913
 5148.00    1.52330   1.51484   86.764
 5149.00    1.54818   1.51958   86.308
 5150.00    1.55537   1.52687   87.462
 5151.00    1.53445   1.52384   89.091
 5152.00    1.51354   1.51139   89.623
 5153.00    1.50444   1.50181   89.114
 5154.00    1.51396   1.50362   87.344
 5155.00    1.54008   1.51938   85.094
 5156.00    1.57666   1.54835   82.930
 5157.00    1.61768   1.58332   81.407
 5158.00    1.64323   1.61263   80.854
 5159.00    1.65265   1.62939   80.871
 5160.00    1.65304   1.63372   81.157
 5161.00    1.65226   1.62741   81.634
 5162.00    1.64462   1.61202   82.582
 5163.00    1.61634   1.58910   83.884
 5164.00    1.59445   1.55439   -1.000
 5165.00    1.53806   1.49571   -1.000
 5166.00    1.40867   1.40456  104.701
 5167.00    1.26928   1.29838   -1.000
 5168.00    1.20743   1.22648  108.775
 5169.00    1.26080   1.22425   -1.000
 5170.00    1.34564   1.26707   -1.000
 5171.00    1.34730   1.28736   -1.000
 5172.00    1.24016   1.25178  115.583
 5173.00    1.16192   1.20981   -1.000
 5174.00    1.24553   1.23096   97.825
 5175.00    1.40757   1.32438   -1.000
 5176.00    1.53302   1.43769   -1.000
 5177.00    1.58761   1.51729   -1.000
 5178.00    1.60104   1.55384   -1.000
 5179.00    1.60133   1.56276   -1.000
 5180.00    1.58446   1.54889   -1.000
 5181.00    1.52479   1.49983   96.511
 5182.00    1.40182   1.40592  108.039
 5183.00    1.24316   1.29040   -1.000
 5184.00    1.15605   1.21142   -1.000
 5185.00    1.23616   1.22439   97.382
 5186.00    1.41570   1.32447   -1.000
 5187.00    1.54131   1.44283   -1.000
 5188.00    1.58032   1.52181   -1.000
 5189.00    1.59996   1.55566   -1.000
 5190.00    1.60682   1.55970   -1.000
 5191.00    1.57782   1.53957   -1.000
 5192.00    1.51283   1.50087   91.917
 5193.00    1.48954   1.46735   91.029
 5194.00    1.50530   1.46223   -1.000
 5195.00    1.53249   1.47996   -1.000
 5196.00    1.55864   1.50284   -1.000
 5197.00    1.58119   1.52721   -1.000
 5198.00    1.61252   1.55587   -1.000
 5199.00    1.63859   1.58482   -1.000
 5200.00    1.64703   1.60610   -1.000
 5201.00    1.64706   1.61425   83.641
 5202.00    1.63431   1.60588   85.213
 5203.00    1.61294   1.57947   87.191
 5204.00    1.57464   1.53690   -1.000
 5205.00    1.52350   1.48616   -1.000
 5206.00    1.48765   1.44181   -1.000
 5207.00    1.48038   1.41492   -1.000
 5208.00    1.46856   1.40504   -1.000
 5209.00    1.46582   1.40851   -1.000
 5210.00    1.48866   1.43084   -1.000
 5211.00    1.54466   1.47839   -1.000
 5212.00    1.61511   1.54074   -1.000
 5213.00    1.67172   1.59439   -1.000
 5214.00    1.68409   1.61836   -1.000
 5215.00    1.65300   1.60839   -1.000
 5216.00    1.62347   1.58178   -1.000
 5217.00    1.60794   1.56537   -1.000
 5218.00    1.62349   1.57532   -1.000
 5219.00    1.66482   1.60569   -1.000
 5220.00    1.69584   1.63919   -1.000
 5221.00    1.71184   1.66197   -1.000
 5222.00    1.71346   1.66629   -1.000
 5223.00    1.67613   1.64827   83.732
 5224.00    1.62617   1.60654   87.256
 5225.00    1.56245   1.54365   91.386
 5226.00    1.49542   1.47554   93.803
 5227.00    1.46367   1.43271   91.521
 5228.00    1.50524   1.43999   -1.000
 5229.00    1.58835   1.49487   -1.000
 5230.00    1.66030   1.56540   -1.000
 5231.00    1.68809   1.61136   -1.000
 5232.00    1.66651   1.61475   -1.000
 5233.00    1.63342   1.58826   -1.000
 5234.00    1.61834   1.56264   -1.000
 5235.00    1.62218   1.56496   -1.000
 5236.00    1.66032   1.59677   -1.000
 5237.00    1.69878   1.63984   -1.000
 5238.00    1.72416   1.67340   -1.000
 5239.00    1.72809   1.68814   79.731
 5240.00    1.72367   1.68968   79.560
 5241.00    1.72763   1.68639   79.067
 5242.00    1.72828   1.68263   -1.000
 5243.00    1.73319   1.68203   -1.000
 5244.00    1.73638   1.68610   -1.000
 5245.00    1.74119   1.68699   -1.000
 5246.00    1.71003   1.67104   83.232
 5247.00    1.64786   1.63699   85.119
 5248.00    1.61972   1.60294   85.215
 5249.00    1.62631   1.58359   -1.000
 5250.00    1.62297   1.57536   -1.000
 5251.00    1.60800   1.57342   85.476
 5252.00    1.61942   1.58074   84.236
 5253.00    1.64612   1.59384   -1.000
 5254.00    1.65034   1.60232   -1.000
 5255.00    1.64681   1.60618   82.853
 5256.00    1.66795   1.61917   -1.000
 5257.00    1.71260   1.65145   -1.000
 5258.00    1.75793   1.69106   -1.000
 5259.00    1.77124   1.71378   -1.000
 5260.00    1.74637   1.70545   -1.000
 5261.00    1.69192   1.66554   84.659
 5262.00    1.61843   1.60291   88.725
 5263.00    1.55177   1.53191   91.714
 5264.00    1.49884   1.46728   93.518
 5265.00    1.46697   1.42318   -1.000
 5266.00    1.46239   1.40873   -1.000
 5267.00    1.50315   1.41825   -1.000
 5268.00    1.53227   1.42557   -1.000
 5269.00    1.48836   1.40645   -1.000
 5270.00    1.42975   1.37756   -1.000
 5271.00    1.46677   1.38296   -1.000
 5272.00    1.57182   1.43873   -1.000
 5273.00    1.63260   1.51179   -1.000
 5274.00    1.64025   1.55728   -1.000
 5275.00    1.63427   1.57111   -1.000
 5276.00    1.64004   1.58346   -1.000
 5277.00    1.68686   1.61614   -1.000
 5278.00    1.74886   1.66284   -1.000
 5279.00    1.77710   1.69581   -1.000
 5280.00    1.75811   1.69486   -1.000
 5281.00    1.70977   1.66487   -1.000
 5282.00    1.66587   1.62543   -1.000
 5283.00    1.63552   1.59501   -1.000
 5284.00    1.63892   1.58871   -1.000
 5285.00    1.68394   1.61561   -1.000
 5286.00    1.65709   1.66684   77.516
 5287.00    1.76197   1.71628   -1.000
 5288.00    1.80433   1.74416   -1.000
 5289.00    1.78451   1.75429   77.498
 5290.00    1.79719   1.75896   77.012
 5291.00    1.80506   1.76117   -1.000
 5292.00    1.80420   1.75793   -1.000
 5293.00    1.78949   1.74911   78.122
 5294.00    1.77953   1.73665   -1.000
 5295.00    1.75700   1.71555   -1.000
 5296.00    1.70342   1.67603   84.627
 5297.00    1.64062   1.62169   86.820
 5298.00    1.59573   1.57704   86.069
 5299.00    1.60588   1.56716   83.770
 5300.00    1.65677   1.59062   -1.000
 5301.00    1.68810   1.62205   -1.000
 5302.00    1.70035   1.64649   -1.000
 5303.00    1.72954   1.67192   -1.000
 5304.00    1.77539   1.70619   -1.000
 5305.00    1.81496   1.74049   -1.000
 5306.00    1.80967   1.75758   -1.000
 5307.00    1.78150   1.75420   78.482
 5308.00    1.78497   1.74578   77.879
 5309.00    1.80167   1.74762   -1.000
 5310.00    1.81870   1.76029   -1.000
 5311.00    1.82630   1.77173   -1.000
 5312.00    1.82081   1.77246   -1.000
 5313.00    1.81364   1.76406   -1.000
 5314.00    1.80463   1.75133   -1.000
 5315.00    1.79845   1.73614   -1.000
 5316.00    1.77059   1.71949   -1.000
 5317.00    1.75443   1.70609   -1.000
 5318.00    1.76396   1.70332   -1.000
 5319.00    1.77757   1.71063   -1.000
 5320.00    1.79238   1.71809   -1.000
 5321.00    1.78089   1.71736   -1.000
 5322.00    1.76579   1.70543   -1.000
 5323.00    1.74821   1.68238   -1.000
 5324.00    1.71400   1.65498   -1.000
 5325.00    1.70051   1.63254   -1.000
 5326.00    1.68980   1.60798   -1.000
 5327.00    1.63683   1.56188   -1.000
 5328.00    1.53492   1.49847   -1.000
 5329.00    1.50306   1.45870   -1.000
 5330.00    1.58565   1.48298   -1.000
 5331.00    1.67891   1.55854   -1.000
 5332.00    1.72129   1.63081   -1.000
 5333.00    1.73326   1.67138   -1.000
 5334.00    1.74966   1.69305   -1.000
 5335.00    1.78193   1.71159   -1.000
 5336.00    1.79438   1.72665   -1.000
 5337.00    1.78202   1.72977   -1.000
 5338.00    1.76760   1.71663   -1.000
 5339.00    1.74177   1.68767   -1.000
 5340.00    1.69546   1.64917   -1.000
 5341.00    1.66892   1.62003   -1.000
 5342.00    1.69732   1.62194   -1.000
 5343.00    1.74807   1.65203   -1.000
 5344.00    1.76683   1.68258   -1.000
 5345.00    1.76183   1.69427   -1.000
 5346.00    1.75733   1.68904   -1.000
 5347.00    1.75733   1.67682   -1.000
 5348.00    1.74960   1.66367   -1.000
 5349.00    1.72887   1.65340   -1.000
 5350.00    1.72392   1.65538   -1.000
 5351.00    1.75179   1.67629   -1.000
 5352.00    1.78658   1.70707   -1.000
 5353.00    1.79446   1.73410   -1.000
 5354.00    1.80654   1.75366   -1.000
 5355.00    1.83205   1.77107   -1.000
 5356.00    1.85745   1.78937   -1.000
 5357.00    1.85468   1.80312   -1.000
 5358.00    1.86229   1.80779   -1.000
 5359.00    1.86570   1.80447   -1.000
 5360.00    1.85617   1.79416   -1.000
 5361.00    1.83264   1.77651   -1.000
 5362.00    1.80511   1.75450   -1.000
 5363.00    1.77370   1.73303   -1.000
 5364.00    1.75921   1.71450   -1.000
 5365.00    1.74749   1.69984   -1.000
 5366.00    1.73480   1.69051   -1.000
 5367.00    1.74693   1.68685   -1.000
 5368.00    1.75487   1.68173   -1.000
 5369.00    1.73219   1.66091   -1.000
 5370.00    1.69041   1.62010   -1.000
 5371.00    1.64119   1.57876   -1.000
 5372.00    1.64467   1.56845   -1.000
 5373.00    1.70726   1.60492   -1.000
 5374.00    1.79333   1.66998   -1.000
 5375.00    1.83507   1.72915   -1.000
 5376.00    1.83869   1.76119   -1.000
 5377.00    1.83594   1.76798   -1.000
 5378.00    1.83324   1.76464   -1.000
 5379.00    1.82897   1.76080   -1.000
 5380.00    1.80785   1.75566   -1.000
 5381.00    1.79923   1.74509   -1.000
 5382.00    1.78758   1.72971   -1.000
 5383.00    1.77466   1.71694   -1.000
 5384.00    1.78296   1.71472   -1.000
 5385.00    1.80040   1.72434   -1.000
 5386.00    1.82405   1.73852   -1.000
 5387.00    1.82522   1.74664   -1.000
 5388.00    1.80923   1.74266   -1.000
 5389.00    1.78818   1.72682   -1.000
 5390.00    1.76697   1.70412   -1.000
 5391.00    1.75174   1.68277   -1.000
 5392.00    1.74075   1.66837   -1.000
 5393.00    1.73842   1.66061   -1.000
 5394.00    1.73306   1.65600   -1.000
 5395.00    1.72864   1.64747   -1.000
 5396.00    1.70450   1.62816   -1.000
 5397.00    1.66480   1.60405   -1.000
 5398.00    1.66791   1.59563   -1.000
 5399.00    1.71921   1.61528   -1.000
 5400.00    1.76653   1.65118   -1.000
 5401.00    1.76790   1.68253   -1.000
 5402.00    1.76184   1.69586   -1.000
 5403.00    1.74882   1.68324   -1.000
 5404.00    1.69781   1.64285   -1.000
 5405.00    1.64449   1.58950   -1.000
 5406.00    1.62588   1.55358   -1.000
 5407.00    1.65525   1.55629   -1.000
 5408.00    1.69894   1.58448   -1.000
 5409.00    1.70062   1.60774   -1.000
 5410.00    1.68206   1.61563   -1.000
 5411.00    1.70349   1.62565   -1.000
 5412.00    1.75625   1.65501   -1.000
 5413.00    1.79963   1.69269   -1.000
 5414.00    1.80369   1.71709   -1.000
 5415.00    1.79373   1.72616   -1.000
 5416.00    1.80179   1.73440   -1.000
 5417.00    1.81705   1.74911   -1.000
 5418.00    1.82581   1.76083   -1.000
 5419.00    1.81504   1.75897   -1.000
 5420.00    1.79677   1.74729   -1.000
 5421.00    1.79272   1.73660   -1.000
 5422.00    1.80377   1.73088   -1.000
 5423.00    1.80303   1.72407   -1.000
 5424.00    1.77757   1.71262   -1.000
 5425.00    1.75754   1.70929   -1.000
 5426.00    1.77708   1.72617   -1.000
 5427.00    1.81811   1.74859   -1.000
 5428.00    1.81233   1.74600   -1.000
 5429.00    1.75404   1.70890   -1.000
 5430.00    1.70862   1.66498   -1.000
 5431.00    1.71736   1.64754   -1.000
 5432.00    1.74924   1.65535   -1.000
 5433.00    1.74381   1.66116   -1.000
 5434.00    1.71581   1.64921   -1.000
 5435.00    1.69605   1.63228   -1.000
 5436.00    1.70753   1.63432   -1.000
 5437.00    1.73974   1.66498   -1.000
 5438.00    1.79246   1.71414   -1.000
 5439.00    1.83813   1.76174   -1.000
 5440.00    1.85649   1.79413   -1.000
 5441.00    1.87576   1.81028   -1.000
 5442.00    1.87484   1.81544   -1.000
 5443.00    1.86477   1.81132   -1.000
 5444.00    1.83912   1.79027   -1.000
 5445.00    1.78269   1.74516   -1.000
 5446.00    1.70966   1.68535   85.687
 5447.00    1.67321   1.63898   84.724
 5448.00    1.69870   1.63273   -1.000
 5449.00    1.77143   1.66690   -1.000
 5450.00    1.82376   1.71609   -1.000
 5451.00    1.83425   1.75076   -1.000
 5452.00    1.83219   1.75830   -1.000
 5453.00    1.81483   1.74146   -1.000
 5454.00    1.77968   1.70486   -1.000
 5455.00    1.71214   1.65944   -1.000
 5456.00    1.69067   1.63118   -1.000
 5457.00    1.73821   1.64377   -1.000
 5458.00    1.81213   1.69143   -1.000
 5459.00    1.84812   1.74021   -1.000
 5460.00    1.85213   1.76014   -1.000
 5461.00    1.80766   1.74776   -1.000
 5462.00    1.77590   1.71760   -1.000
 5463.00    1.76321   1.69005   -1.000
 5464.00    1.76220   1.68175   -1.000
 5465.00    1.78795   1.69494   -1.000
 5466.00    1.81447   1.71685   -1.000
 5467.00    1.81862   1.73445   -1.000
 5468.00    1.82472   1.74495   -1.000
 5469.00    1.83732   1.74855   -1.000
 5470.00    1.81961   1.74417   -1.000
 5471.00    1.80706   1.73383   -1.000
 5472.00    1.80614   1.72213   -1.000
 5473.00    1.78864   1.71039   -1.000
 5474.00    1.77445   1.69532   -1.000
 5475.00    1.74667   1.67204   -1.000
 5476.00    1.71068   1.64081   -1.000
 5477.00    1.68372   1.61568   -1.000
 5478.00    1.70019   1.61913   -1.000
 5479.00    1.76536   1.65200   -1.000
 5480.00    1.79458   1.68308   -1.000
 5481.00    1.76387   1.68799   -1.000
 5482.00    1.73912   1.67684   -1.000
 5483.00    1.75191   1.67700   -1.000
 5484.00    1.78730   1.70097   -1.000
 5485.00    1.82133   1.73319   -1.000
 5486.00    1.83083   1.74978   -1.000
 5487.00    1.81508   1.74229   -1.000
 5488.00    1.78621   1.72321   -1.000
 5489.00    1.77837   1.71156   -1.000
 5490.00    1.79075   1.71493   -1.000
 5491.00    1.80564   1.72735   -1.000
 5492.00    1.81393   1.73814   -1.000
 5493.00    1.82095   1.74164   -1.000
 5494.00    1.81884   1.74003   -1.000
 5495.00    1.82238   1.73801   -1.000
 5496.00    1.82302   1.73496   -1.000
 5497.00    1.80204   1.72817   -1.000
 5498.00    1.79825   1.72389   -1.000
 5499.00    1.82369   1.72974   -1.000
 5500.00    1.83788   1.73681   -1.000
 5501.00    1.81644   1.72991   -1.000
 5502.00    1.78992   1.71117   -1.000
 5503.00    1.78317   1.69682   -1.000
 5504.00    1.80431   1.69482   -1.000
 5505.00    1.80982   1.69491   -1.000
 5506.00    1.77971   1.68671   -1.000
 5507.00    1.75716   1.67758   -1.000
 5508.00    1.78323   1.68142   -1.000
 5509.00    1.81679   1.69845   -1.000
 5510.00    1.82060   1.71240   -1.000
 5511.00    1.79794   1.70751   -1.000
 5512.00    1.76703   1.68464   -1.000
 5513.00    1.73571   1.65865   -1.000
 5514.00    1.72407   1.64672   -1.000
 5515.00    1.75303   1.65512   -1.000
 5516.00    1.78804   1.67718   -1.000
 5517.00    1.81927   1.70446   -1.000
 5518.00    1.85409   1.73237   -1.000
 5519.00    1.87444   1.75695   -1.000
 5520.00    1.87677   1.77280   -1.000
 5521.00    1.86954   1.77710   -1.000
 5522.00    1.86849   1.77428   -1.000
 5523.00    1.85953   1.77129   -1.000
 5524.00    1.84987   1.76862   -1.000
 5525.00    1.84401   1.75968   -1.000
 5526.00    1.81881   1.73735   -1.000
 5527.00    1.77492   1.70270   -1.000
 5528.00    1.72927   1.66952   -1.000
 5529.00    1.72595   1.65824   -1.000
 5530.00    1.76799   1.67781   -1.000
 5531.00    1.81836   1.71354   -1.000
 5532.00    1.83214   1.74058   -1.000
 5533.00    1.82344   1.74693   -1.000
 5534.00    1.81323   1.73869   -1.000
 5535.00    1.80713   1.72815   -1.000
 5536.00    1.80816   1.72347   -1.000
 5537.00    1.82027   1.72654   -1.000
 5538.00    1.83336   1.73472   -1.000
 5539.00    1.84068   1.74605   -1.000
 5540.00    1.87278   1.76088   -1.000
 5541.00    1.88520   1.77475   -1.000
 5542.00    1.87427   1.77842   -1.000
 5543.00    1.84930   1.76940   -1.000
 5544.00    1.83713   1.75595   -1.000
 5545.00    1.83234   1.74824   -1.000
 5546.00    1.84422   1.74897   -1.000
 5547.00    1.85354   1.75604   -1.000
 5548.00    1.86907   1.76964   -1.000
 5549.00    1.89135   1.78803   -1.000
 5550.00    1.90716   1.80323   -1.000
 5551.00    1.90778   1.80884   -1.000
 5552.00    1.88904   1.80411   -1.000
 5553.00    1.86895   1.79117   -1.000
 5554.00    1.85315   1.77581   -1.000
 5555.00    1.84996   1.76645   -1.000
 5556.00    1.85577   1.76594   -1.000
 5557.00    1.86114   1.76956   -1.000
 5558.00    1.86601   1.77235   -1.000
 5559.00    1.86540   1.77385   -1.000
 5560.00    1.86509   1.77539   -1.000
 5561.00    1.86285   1.77429   -1.000
 5562.00    1.84800   1.76646   -1.000
 5563.00    1.83303   1.75369   -1.000
 5564.00    1.81833   1.74198   -1.000
 5565.00    1.80796   1.73502   -1.000
 5566.00    1.81043   1.73160   -1.000
 5567.00    1.80955   1.72911   -1.000
 5568.00    1.81077   1.72736   -1.000
 5569.00    1.81212   1.72753   -1.000
 5570.00    1.81040   1.72976   -1.000
 5571.00    1.81116   1.73154   -1.000
 5572.00    1.81482   1.73011   -1.000
 5573.00    1.80188   1.72760   -1.000
 5574.00    1.79180   1.73035   -1.000
 5575.00    1.75983   1.74091   80.122
 5576.00    1.68971   1.75396   -1.000
 5577.00    1.79759   1.76322   77.561
 5578.00    1.91586   1.76951   -1.000
 5579.00    1.91197   1.77611   -1.000
 5580.00    1.94682   1.78178   -1.000
 5581.00    1.90540   1.78343   -1.000
 5582.00    1.86113   1.78000   -1.000
 5583.00    1.85475   1.77307   -1.000
 5584.00    1.85337   1.76444   -1.000
 5585.00    1.83840   1.74887   -1.000
 5586.00    1.79785   1.71779   -1.000
 5587.00    1.74634   1.67430   -1.000
 5588.00    1.70633   1.63558   -1.000
 5589.00    1.70461   1.61961   -1.000
 5590.00    1.72912   1.63092   -1.000
 5591.00    1.76127   1.65847   -1.000
 5592.00    1.78465   1.68479   -1.000
 5593.00    1.78496   1.69886   -1.000
 5594.00    1.77801   1.70490   -1.000
 5595.00    1.79245   1.71583   -1.000
 5596.00    1.82858   1.73586   -1.000
 5597.00    1.85224   1.75074   -1.000
 5598.00    1.82107   1.74495   -1.000
 5599.00    1.78679   1.72311   -1.000
 5600.00    1.78029   1.69990   -1.000
 5601.00    1.76741   1.68141   -1.000
 5602.00    1.75003   1.66920   -1.000
 5603.00    1.75450   1.67116   -1.000
 5604.00    1.79379   1.69676   -1.000
 5605.00    1.84675   1.74239   -1.000
 5606.00    1.88659   1.78856   -1.000
 5607.00    1.90219   1.81826   -1.000
 5608.00    1.90292   1.82982   -1.000
 5609.00    1.90906   1.83085   -1.000
 5610.00    1.90827   1.83006   -1.000
 5611.00    1.90857   1.83220   -1.000
 5612.00    1.91244   1.83302   -1.000
 5613.00    1.90264   1.81948   -1.000
 5614.00    1.85592   1.78101   -1.000
 5615.00    1.78495   1.72544   -1.000
 5616.00    1.75643   1.68327   -1.000
 5617.00    1.78206   1.67997   -1.000
 5618.00    1.82445   1.70774   -1.000
 5619.00    1.84839   1.73916   -1.000
 5620.00    1.85660   1.75875   -1.000
 5621.00    1.86310   1.77060   -1.000
 5622.00    1.87110   1.77783   -1.000
 5623.00    1.85488   1.77166   -1.000
 5624.00    1.82493   1.74855   -1.000
 5625.00    1.79310   1.72278   -1.000
 5626.00    1.79882   1.71492   -1.000
 5627.00    1.83312   1.73141   -1.000
 5628.00    1.86002   1.75895   -1.000
 5629.00    1.88749   1.78329   -1.000
 5630.00    1.89888   1.80130   -1.000
 5631.00    1.91081   1.81280   -1.000
 5632.00    1.91298   1.81610   -1.000
 5633.00    1.89728   1.81120   -1.000
 5634.00    1.88563   1.80041   -1.000
 5635.00    1.87274   1.78603   -1.000
 5636.00    1.85979   1.76980   -1.000
 5637.00    1.84365   1.75476   -1.000
 5638.00    1.84078   1.74630   -1.000
 5639.00    1.84853   1.74641   -1.000
 5640.00    1.84147   1.74900   -1.000
 5641.00    1.83992   1.74742   -1.000
 5642.00    1.82949   1.74357   -1.000
 5643.00    1.84332   1.74450   -1.000
 5644.00    1.85751   1.75216   -1.000
 5645.00    1.85909   1.76166   -1.000
 5646.00    1.86559   1.76927   -1.000
 5647.00    1.86577   1.77436   -1.000
 5648.00    1.87247   1.77544   -1.000
 5649.00    1.87769   1.77191   -1.000
 5650.00    1.87370   1.76826   -1.000
 5651.00    1.88282   1.77075   -1.000
 5652.00    1.89518   1.77903   -1.000
 5653.00    1.89526   1.78505   -1.000
 5654.00    1.87662   1.78173   -1.000
 5655.00    1.85048   1.77023   -1.000
 5656.00    1.83933   1.75328   -1.000
 5657.00    1.80879   1.72791   -1.000
 5658.00    1.75394   1.69573   -1.000
 5659.00    1.73209   1.67205   -1.000
 5660.00    1.76538   1.67251   -1.000
 5661.00    1.80957   1.69244   -1.000
 5662.00    1.81573   1.71102   -1.000
 5663.00    1.80999   1.72115   -1.000
 5664.00    1.83035   1.73503   -1.000
 5665.00    1.85448   1.75546   -1.000
 5666.00    1.86258   1.76887   -1.000
 5667.00    1.85311   1.76661   -1.000
 5668.00    1.84153   1.75537   -1.000
 5669.00    1.83224   1.74799   -1.000
 5670.00    1.84330   1.75060   -1.000
 5671.00    1.85415   1.76146   -1.000
 5672.00    1.87579   1.77773   -1.000
 5673.00    1.89065   1.79596   -1.000
 5674.00    1.90632   1.80984   -1.000
 5675.00    1.91005   1.81570   -1.000
 5676.00    1.89941   1.81646   -1.000
 5677.00    1.90660   1.81612   -1.000
 5678.00    1.90784   1.81455   -1.000
 5679.00    1.90984   1.80887   -1.000
 5680.00    1.89720   1.79822   -1.000
 5681.00    1.88408   1.78395   -1.000
 5682.00    1.86020   1.76657   -1.000
 5683.00    1.83249   1.74896   -1.000
 5684.00    1.82413   1.73967   -1.000
 5685.00    1.83943   1.74241   -1.000
 5686.00    1.84301   1.74799   -1.000
 5687.00    1.83102   1.74669   -1.000
 5688.00    1.81602   1.74114   -1.000
 5689.00    1.82220   1.74158   -1.000
 5690.00    1.84206   1.75397   -1.000
 5691.00    1.86814   1.77410   -1.000
 5692.00    1.88721   1.79310   -1.000
 5693.00    1.90098   1.80504   -1.000
 5694.00    1.90916   1.80883   -1.000
 5695.00    1.90246   1.80735   -1.000
 5696.00    1.89657   1.80359   -1.000
 5697.00    1.89471   1.79707   -1.000
 5698.00    1.87657   1.78605   -1.000
 5699.00    1.85191   1.77170   -1.000
 5700.00    1.83430   1.75763   -1.000
 5701.00    1.81590   1.74548   -1.000
 5702.00    1.80471   1.73744   -1.000
 5703.00    1.80937   1.73884   -1.000
 5704.00    1.82518   1.74824   -1.000
 5705.00    1.83193   1.75418   -1.000
 5706.00    1.81634   1.74708   -1.000
 5707.00    1.79215   1.72715   -1.000
 5708.00    1.76659   1.70246   -1.000
 5709.00    1.73826   1.68140   -1.000
 5710.00    1.72482   1.66904   -1.000
 5711.00    1.73190   1.66891   -1.000
 5712.00    1.75903   1.68267   -1.000
 5713.00    1.81075   1.71066   -1.000
 5714.00    1.85714   1.74751   -1.000
 5715.00    1.87225   1.77920   -1.000
 5716.00    1.88224   1.79735   -1.000
 5717.00    1.88478   1.80654   -1.000
 5718.00    1.88921   1.81326   -1.000
 5719.00    1.89461   1.82039   -1.000
 5720.00    1.91565   1.82910   -1.000
 5721.00    1.93082   1.83902   -1.000
 5722.00    1.93930   1.84830   -1.000
 5723.00    1.94791   1.85531   -1.000
 5724.00    1.93648   1.85839   -1.000
 5725.00    1.92803   1.85415   -1.000
 5726.00    1.91045   1.84047   -1.000
 5727.00    1.89078   1.82306   -1.000
 5728.00    1.88760   1.81328   -1.000
 5729.00    1.89474   1.81566   -1.000
 5730.00    1.90094   1.82159   -1.000
 5731.00    1.89166   1.82149   -1.000
 5732.00    1.88631   1.81859   -1.000
 5733.00    1.89159   1.82264   -1.000
 5734.00    1.91431   1.83588   -1.000
 5735.00    1.92790   1.84932   -1.000
 5736.00    1.92180   1.85326   -1.000
 5737.00    1.91519   1.84830   -1.000
 5738.00    1.91283   1.84141   -1.000
 5739.00    1.91193   1.83755   -1.000
 5740.00    1.90808   1.83682   -1.000
 5741.00    1.91005   1.83608   -1.000
 5742.00    1.89727   1.83392   -1.000
 5743.00    1.89474   1.83307   -1.000
 5744.00    1.91746   1.83775   -1.000
 5745.00    1.93042   1.84695   -1.000
 5746.00    1.92281   1.85210   -1.000
 5747.00    1.90456   1.84604   -1.000
 5748.00    1.89670   1.83390   -1.000
 5749.00    1.89592   1.82938   -1.000
 5750.00    1.90113   1.83609   -1.000
 5751.00    1.91438   1.84044   -1.000
 5752.00    1.89650   1.82791   -1.000
 5753.00    1.85596   1.80043   -1.000
 5754.00    1.83566   1.77791   -1.000
 5755.00    1.84569   1.77931   -1.000
 5756.00    1.88573   1.80469   -1.000
 5757.00    1.92146   1.83725   -1.000
 5758.00    1.94131   1.85818   -1.000
 5759.00    1.93219   1.85915   -1.000
 5760.00    1.91014   1.84281   -1.000
 5761.00    1.88633   1.81800   -1.000
 5762.00    1.86364   1.79576   -1.000
 5763.00    1.85326   1.78733   -1.000
 5764.00    1.87517   1.80035   -1.000
 5765.00    1.90607   1.83008   -1.000
 5766.00    1.92695   1.85904   -1.000
 5767.00    1.93555   1.87426   -1.000
 5768.00    1.94059   1.87774   -1.000
 5769.00    1.93931   1.87561   -1.000
 5770.00    1.93055   1.87058   -1.000
 5771.00    1.91293   1.86364   -1.000
 5772.00    1.90204   1.85558   -1.000
 5773.00    1.89832   1.84717   -1.000
 5774.00    1.88734   1.84008   -1.000
 5775.00    1.88891   1.83647   -1.000
 5776.00    1.88261   1.83769   -1.000
 5777.00    1.87768   1.84190   78.914
 5778.00    1.86229   1.84196   79.203
 5779.00    1.82260   1.82935   80.489
 5780.00    1.78513   1.80192   82.396
 5781.00    1.75992   1.76808   83.342
 5782.00    1.77109   1.74170   83.036
 5783.00    1.79232   1.73099   -1.000
 5784.00    1.80725   1.73224   -1.000
 5785.00    1.81860   1.73707   -1.000
 5786.00    1.83326   1.74700   -1.000
 5787.00    1.85498   1.76848   -1.000
 5788.00    1.87755   1.79539   -1.000
 5789.00    1.89684   1.81397   -1.000
 5790.00    1.89511   1.81889   -1.000
 5791.00    1.88493   1.81565   -1.000
 5792.00    1.88677   1.81559   -1.000
 5793.00    1.89573   1.82627   -1.000
 5794.00    1.90342   1.84465   -1.000
 5795.00    1.91113   1.86052   -1.000
 5796.00    1.90993   1.86492   -1.000
 5797.00    1.89431   1.85663   79.167
 5798.00    1.89330   1.84574   -1.000
 5799.00    1.90949   1.84660   -1.000
 5800.00    1.93443   1.86241   -1.000
 5801.00    1.95843   1.88257   -1.000
 5802.00    1.95849   1.89347   -1.000
 5803.00    1.94630   1.88864   -1.000
 5804.00    1.92967   1.87190   -1.000
 5805.00    1.91361   1.85419   -1.000
 5806.00    1.90392   1.84566   -1.000
 5807.00    1.91412   1.84793   -1.000
 5808.00    1.91707   1.85597   -1.000
 5809.00    1.92729   1.86454   -1.000
 5810.00    1.93445   1.87183   -1.000
 5811.00    1.94104   1.87773   -1.000
 5812.00    1.95955   1.88060   -1.000
 5813.00    1.95435   1.87788   -1.000
 5814.00    1.94681   1.86843   -1.000
 5815.00    1.93382   1.85400   -1.000
 5816.00    1.92351   1.84122   -1.000
 5817.00    1.92533   1.83992   -1.000
 5818.00    1.94329   1.85400   -1.000
 5819.00    1.96844   1.87455   -1.000
 5820.00    1.97616   1.88968   -1.000
 5821.00    1.97725   1.89514   -1.000
 5822.00    1.97637   1.89322   -1.000
 5823.00    1.97127   1.88842   -1.000
 5824.00    1.96263   1.88460   -1.000
 5825.00    1.96891   1.88354   -1.000
 5826.00    1.96922   1.88481   -1.000
 5827.00    1.97601   1.88739   -1.000
 5828.00    1.97904   1.89083   -1.000
 5829.00    1.97617   1.89485   -1.000
 5830.00    1.97345   1.89799   -1.000
 5831.00    1.97545   1.89837   -1.000
 5832.00    1.96909   1.89593   -1.000
 5833.00    1.96999   1.89146   -1.000
 5834.00    1.96778   1.88493   -1.000
 5835.00    1.96127   1.87849   -1.000
 5836.00    1.95649   1.87640   -1.000
 5837.00    1.96663   1.87850   -1.000
 5838.00    1.97087   1.88040   -1.000
 5839.00    1.96865   1.88231   -1.000
 5840.00    1.97372   1.88810   -1.000
 5841.00    1.97613   1.89713   -1.000
 5842.00    1.97354   1.90441   -1.000
 5843.00    1.97515   1.90602   -1.000
 5844.00    1.97381   1.90115   -1.000
 5845.00    1.97066   1.89109   -1.000
 5846.00    1.95756   1.87779   -1.000
 5847.00    1.94461   1.86449   -1.000
 5848.00    1.93774   1.85585   -1.000
 5849.00    1.93945   1.85439   -1.000
 5850.00    1.94839   1.85596   -1.000
 5851.00    1.94530   1.85205   -1.000
 5852.00    1.92294   1.83835   -1.000
 5853.00    1.90080   1.82088   -1.000
 5854.00    1.89306   1.80932   -1.000
 5855.00    1.89616   1.80492   -1.000
 5856.00    1.89051   1.79789   -1.000
 5857.00    1.86912   1.78067   -1.000
 5858.00    1.85479   1.76292   -1.000
 5859.00    1.86442   1.76181   -1.000
 5860.00    1.89698   1.78004   -1.000
 5861.00    1.91674   1.80413   -1.000
 5862.00    1.91801   1.82084   -1.000
 5863.00    1.91588   1.82898   -1.000
 5864.00    1.92769   1.83316   -1.000
 5865.00    1.93458   1.83420   -1.000
 5866.00    1.92289   1.82988   -1.000
 5867.00    1.90835   1.82349   -1.000
 5868.00    1.91724   1.82453   -1.000
 5869.00    1.93759   1.83732   -1.000
 5870.00    1.96172   1.85397   -1.000
 5871.00    1.96445   1.86409   -1.000
 5872.00    1.96206   1.86507   -1.000
 5873.00    1.96546   1.86116   -1.000
 5874.00    1.96313   1.85790   -1.000
 5875.00    1.96317   1.85684   -1.000
 5876.00    1.94999   1.85581   -1.000
 5877.00    1.94596   1.85120   -1.000
 5878.00    1.94506   1.84110   -1.000
 5879.00    1.92887   1.82724   -1.000
 5880.00    1.91413   1.81390   -1.000
 5881.00    1.91164   1.80555   -1.000
 5882.00    1.92067   1.80331   -1.000
 5883.00    1.92575   1.80309   -1.000
 5884.00    1.91447   1.80036   -1.000
 5885.00    1.89249   1.79624   -1.000
 5886.00    1.86918   1.78851   -1.000
 5887.00    1.79414   1.75960   -1.000
 5888.00    1.62270   1.68896   -1.000
 5889.00    1.44053   1.58264   -1.000
 5890.00    1.37790   1.48651   -1.000
 5891.00    1.44778   1.45492   94.256
 5892.00    1.60101   1.49503   -1.000
 5893.00    1.66941   1.55795   -1.000
 5894.00    1.62663   1.58701   -1.000
 5895.00    1.53687   1.56646   93.041
 5896.00    1.50286   1.52938   92.248
 5897.00    1.59325   1.52635   -1.000
 5898.00    1.72168   1.57611   -1.000
 5899.00    1.81219   1.64706   -1.000
 5900.00    1.86104   1.70453   -1.000
 5901.00    1.89639   1.74415   -1.000
 5902.00    1.91836   1.77176   -1.000
 5903.00    1.92197   1.78894   -1.000
 5904.00    1.92254   1.79726   -1.000
 5905.00    1.91666   1.80016   -1.000
 5906.00    1.91484   1.80179   -1.000
 5907.00    1.92048   1.80602   -1.000
 5908.00    1.92395   1.81350   -1.000
 5909.00    1.92410   1.82102   -1.000
 5910.00    1.92329   1.82592   -1.000
 5911.00    1.92800   1.82783   -1.000
 5912.00    1.92325   1.82406   -1.000
 5913.00    1.89907   1.81105   -1.000
 5914.00    1.87626   1.79113   -1.000
 5915.00    1.86057   1.77392   -1.000
 5916.00    1.86491   1.76869   -1.000
 5917.00    1.88654   1.77675   -1.000
 5918.00    1.89267   1.79219   -1.000
 5919.00    1.89968   1.80784   -1.000
 5920.00    1.91225   1.81817   -1.000
 5921.00    1.90987   1.82165   -1.000
 5922.00    1.90882   1.82067   -1.000
 5923.00    1.91643   1.81997   -1.000
 5924.00    1.92073   1.82286   -1.000
 5925.00    1.92858   1.82873   -1.000
 5926.00    1.93199   1.83475   -1.000
 5927.00    1.93527   1.83697   -1.000
 5928.00    1.91810   1.83172   -1.000
 5929.00    1.90539   1.81963   -1.000
 5930.00    1.89919   1.80862   -1.000
 5931.00    1.90165   1.80832   -1.000
 5932.00    1.91827   1.81795   -1.000
 5933.00    1.91991   1.82488   -1.000
 5934.00    1.91743   1.82108   -1.000
 5935.00    1.91098   1.81367   -1.000
 5936.00    1.91128   1.81403   -1.000
 5937.00    1.92080   1.82459   -1.000
 5938.00    1.92216   1.83730   -1.000
 5939.00    1.92460   1.84265   -1.000
 5940.00    1.92243   1.83713   -1.000
 5941.00    1.90875   1.82394   -1.000
 5942.00    1.89894   1.81189   -1.000
 5943.00    1.90468   1.80963   -1.000
 5944.00    1.91687   1.81827   -1.000
 5945.00    1.92696   1.83061   -1.000
 5946.00    1.92091   1.83795   -1.000
 5947.00    1.91898   1.83490   -1.000
 5948.00    1.90559   1.82259   -1.000
 5949.00    1.88331   1.81046   -1.000
 5950.00    1.89295   1.80787   -1.000
 5951.00    1.90838   1.81235   -1.000
 5952.00    1.89822   1.81347   -1.000
 5953.00    1.89533   1.81007   -1.000
 5954.00    1.89424   1.80952   -1.000
 5955.00    1.89592   1.81261   -1.000
 5956.00    1.89855   1.81270   -1.000
 5957.00    1.88971   1.80858   -1.000
 5958.00    1.89004   1.80769   -1.000
 5959.00    1.90894   1.81653   -1.000
 5960.00    1.92680   1.83229   -1.000
 5961.00    1.94155   1.84725   -1.000
 5962.00    1.95581   1.85646   -1.000
 5963.00    1.94989   1.85877   -1.000
 5964.00    1.93710   1.85543   -1.000
 5965.00    1.92632   1.84852   -1.000
 5966.00    1.91707   1.84197   -1.000
 5967.00    1.91934   1.84078   -1.000
 5968.00    1.93118   1.84608   -1.000
 5969.00    1.93943   1.85351   -1.000
 5970.00    1.94675   1.85987   -1.000
 5971.00    1.95225   1.86509   -1.000
 5972.00    1.94667   1.86798   -1.000
 5973.00    1.94147   1.86640   -1.000
 5974.00    1.94033   1.85886   -1.000
 5975.00    1.93011   1.84471   -1.000
 5976.00    1.90003   1.82663   -1.000
 5977.00    1.87815   1.81218   -1.000
 5978.00    1.88378   1.80865   -1.000
 5979.00    1.89881   1.81695   -1.000
 5980.00    1.91241   1.83132   -1.000
 5981.00    1.92585   1.84196   -1.000
 5982.00    1.92600   1.84007   -1.000
 5983.00    1.90229   1.82431   -1.000
 5984.00    1.87455   1.80401   -1.000
 5985.00    1.86906   1.79319   -1.000
 5986.00    1.88399   1.79862   -1.000
 5987.00    1.90693   1.81440   -1.000
 5988.00    1.91890   1.82976   -1.000
 5989.00    1.92200   1.83996   -1.000
 5990.00    1.92924   1.84439   -1.000
 5991.00    1.91465   1.84404   -1.000
 5992.00    1.91324   1.84446   -1.000
 5993.00    1.92592   1.85209   -1.000
 5994.00    1.94124   1.86378   -1.000
 5995.00    1.93534   1.86875   -1.000
 5996.00    1.93077   1.86187   -1.000
 5997.00    1.91377   1.84807   -1.000
 5998.00    1.89654   1.83718   -1.000
 5999.00    1.90296   1.83530   -1.000
 6000.00    1.91381   1.84007   -1.000
 6001.00    1.91989   1.84395   -1.000
 6002.00    1.90566   1.84168   -1.000
 6003.00    1.89074   1.83547   -1.000
 6004.00    1.88710   1.83171   -1.000
 6005.00    1.89763   1.83172   -1.000
 6006.00    1.89814   1.82731   -1.000
 6007.00    1.86732   1.81332   -1.000
 6008.00    1.84890   1.79879   -1.000
 6009.00    1.85529   1.79850   -1.000
 6010.00    1.87818   1.81514   -1.000
 6011.00    1.90351   1.83367   -1.000
 6012.00    1.90169   1.83817   -1.000
 6013.00    1.88668   1.83071   -1.000
 6014.00    1.88908   1.82321   -1.000
 6015.00    1.89416   1.82125   -1.000
 6016.00    1.89040   1.82186   -1.000
 6017.00    1.88681   1.82080   -1.000
 6018.00    1.88668   1.81880   -1.000
 6019.00    1.88012   1.81574   -1.000
 6020.00    1.87000   1.80945   -1.000
 6021.00    1.85705   1.80341   -1.000
 6022.00    1.86825   1.80392   -1.000
 6023.00    1.87080   1.81091   -1.000
 6024.00    1.87598   1.82057   -1.000
 6025.00    1.88655   1.83190   -1.000
 6026.00    1.89572   1.84412   -1.000
 6027.00    1.91149   1.85445   -1.000
 6028.00    1.91626   1.86258   -1.000
 6029.00    1.91776   1.87068   -1.000
 6030.00    1.92919   1.87742   -1.000
 6031.00    1.93729   1.88111   -1.000
 6032.00    1.93110   1.88438   -1.000
 6033.00    1.94162   1.88908   -1.000
 6034.00    1.94877   1.89365   -1.000
 6035.00    1.93879   1.89654   -1.000
 6036.00    1.93825   1.89778   -1.000
 6037.00    1.93916   1.89689   -1.000
 6038.00    1.93694   1.89311   -1.000
 6039.00    1.93248   1.88682   -1.000
 6040.00    1.92470   1.88011   -1.000
 6041.00    1.91872   1.87612   -1.000
 6042.00    1.91641   1.87651   -1.000
 6043.00    1.92166   1.88114   -1.000
 6044.00    1.93448   1.88943   -1.000
 6045.00    1.94111   1.89882   -1.000
 6046.00    1.94360   1.90563   -1.000
 6047.00    1.94580   1.90925   -1.000
 6048.00    1.94204   1.91152   78.879
 6049.00    1.93972   1.91311   79.185
 6050.00    1.93818   1.91359   79.339
 6051.00    1.94630   1.91211   79.397
 6052.00    1.94648   1.90721   -1.000
 6053.00    1.94308   1.89870   -1.000
 6054.00    1.93380   1.88837   -1.000
 6055.00    1.92130   1.87819   -1.000
 6056.00    1.90999   1.87007   -1.000
 6057.00    1.91101   1.86715   -1.000
 6058.00    1.91380   1.87133   -1.000
 6059.00    1.92498   1.88013   -1.000
 6060.00    1.92533   1.88845   -1.000
 6061.00    1.98128   1.89150   -1.000
 6062.00    1.66126   1.88534   -1.000
 6063.00    0.96572   1.86902   -1.000
 6064.00    1.92919   1.84703   -1.000
 6065.00    1.82767   1.83037  139.875
 6066.00    1.20710   1.83085   -1.000
 6067.00    0.46983   1.85099   -1.000
 6068.00    1.36669   1.87965   -1.000
 6069.00    1.91645   1.90282   80.095
 6070.00    1.92765   1.91536   77.642
 6071.00    1.91812   1.92055   76.812
 6072.00    1.82983   1.92080   -1.000
 6073.00    1.93373   1.91696   79.184
 6074.00    1.95451   1.91365   -1.000
 6075.00    1.93994   1.91379   79.532
 6076.00    1.93214   1.90984   79.964
 6077.00    1.92166   1.89731   80.426
 6078.00    1.91414   1.88112   81.080
 6079.00    1.89117   1.86855   81.548
 6080.00    1.88508   1.86219   81.525
 6081.00    1.89353   1.85759   -1.000
 6082.00    1.88098   1.85199   81.874
 6083.00    1.87744   1.84885   81.826
 6084.00    1.87458   1.85005   81.764
 6085.00    1.88422   1.85303   81.673
 6086.00    1.88273   1.85684   81.412
 6087.00    1.88807   1.86221   81.072
 6088.00    1.88781   1.86654   81.311
 6089.00    1.88873   1.86488   81.847
 6090.00    1.87351   1.85664   82.164
 6091.00    1.85798   1.84800   82.066
 6092.00    1.86172   1.84563   81.470
 6093.00    1.87472   1.85101   81.093
 6094.00    1.88157   1.86163   80.620
 6095.00    1.90087   1.87322   80.289
 6096.00    1.90744   1.88115   80.374
 6097.00    1.90524   1.88491   80.595
 6098.00    1.90867   1.88802   80.620
 6099.00    1.90287   1.89050   80.623
 6100.00    1.89589   1.88380   81.739
 6101.00    1.87527   1.85836   83.893
 6102.00    1.82720   1.81905   85.109
 6103.00    1.79958   1.78930   84.218
 6104.00    1.82450   1.79077   -1.000
 6105.00    1.86136   1.81758   -1.000
 6106.00    1.88601   1.84695   -1.000
 6107.00    1.89154   1.86464   81.551
 6108.00    1.88032   1.87260   81.724
 6109.00    1.88067   1.87834   81.659
 6110.00    1.88624   1.88323   81.464
 6111.00    1.88557   1.88466   81.079
 6112.00    1.88926   1.88483   81.119
 6113.00    1.89142   1.88845   80.615
 6114.00    1.89672   1.89450   80.467
 6115.00    1.90033   1.89708   80.849
 6116.00    1.88813   1.89409   81.411
 6117.00    1.88023   1.88976   81.455
 6118.00    1.88445   1.88474   81.904
 6119.00    1.87789   1.87159   83.210
 6120.00    1.84918   1.84659   84.254
 6121.00    1.81867   1.81662   85.019
 6122.00    1.80179   1.79496   84.982
 6123.00    1.80007   1.79415   83.404
 6124.00    1.83237   1.81371   82.401
 6125.00    1.86468   1.83751   82.519
 6126.00    1.85478   1.85062   83.058
 6127.00    1.84950   1.85239   82.855
 6128.00    1.85045   1.85132   82.677
 6129.00    1.85276   1.85570   81.926
 6130.00    1.86206   1.86810   81.147
 6131.00    1.88015   1.88387   81.068
 6132.00    1.89220   1.89543   81.260
 6133.00    1.87572   1.89533   82.120
 6134.00    1.86556   1.87611   84.137
 6135.00    1.82766   1.83334   86.708
 6136.00    1.77048   1.77702   88.820
 6137.00    1.72168   1.73569   88.799
 6138.00    1.72628   1.73514   86.251
 6139.00    1.77774   1.77013   83.809
 6140.00    1.82391   1.80933   83.094
 6141.00    1.83741   1.82897   83.369
 6142.00    1.82880   1.83431   83.485
 6143.00    1.83268   1.84461   82.497
 6144.00    1.86238   1.86366   81.504
 6145.00    1.87304   1.88023   81.509
 6146.00    1.87166   1.88604   81.943
 6147.00    1.86249   1.88151   82.479
 6148.00    1.85797   1.87088   83.087
 6149.00    1.84339   1.85882   83.552
 6150.00    1.83141   1.85013   83.489
 6151.00    1.83550   1.84848   83.144
 6152.00    1.83626   1.85358   82.525
 6153.00    1.85205   1.85905   82.503
 6154.00    1.84836   1.85773   83.318
 6155.00    1.83902   1.84974   83.686
 6156.00    1.83108   1.84196   83.698
 6157.00    1.83212   1.83821   84.099
 6158.00    1.82967   1.83396   85.072
 6159.00    1.80707   1.81896   86.800
 6160.00    1.77309   1.78343   89.582
 6161.00    1.72852   1.73019   92.143
 6162.00    1.67580   1.68089   92.766
 6163.00    1.66036   1.66113   91.090
 6164.00    1.69227   1.67837   88.432
 6165.00    1.73008   1.71591   87.266
 6166.00    1.76093   1.75097   87.010
 6167.00    1.76479   1.76838   87.313
 6168.00    1.75855   1.76418   88.590
 6169.00    1.72849   1.74596   89.424
 6170.00    1.71000   1.73360   88.535
 6171.00    1.73196   1.74330   86.682
 6172.00    1.77489   1.76997   85.566
 6173.00    1.79038   1.79547   85.834
 6174.00    1.79330   1.80963   85.870
 6175.00    1.79679   1.81555   85.619
 6176.00    1.79738   1.81828   85.471
 6177.00    1.80000   1.82122   85.225
 6178.00    1.80900   1.82680   84.774
 6179.00    1.81590   1.83392   84.490
 6180.00    1.81592   1.84010   84.223
 6181.00    1.82075   1.84624   83.809
 6182.00    1.82685   1.85390   83.630
 6183.00    1.83266   1.85983   83.855
 6184.00    1.84261   1.85963   84.162
 6185.00    1.83257   1.85206   84.897
 6186.00    1.81818   1.83825   85.862
 6187.00    1.80538   1.82181   86.734
 6188.00    1.79098   1.80648   87.550
 6189.00    1.77383   1.79060   88.150
 6190.00    1.76161   1.76983   89.406
 6191.00    1.73442   1.74932   89.858
 6192.00    1.72412   1.74453   88.620
 6193.00    1.74980   1.76369   86.248
 6194.00    1.78583   1.79603   84.992
 6195.00    1.80682   1.82497   84.586
 6196.00    1.82141   1.84201   84.507
 6197.00    1.83063   1.84616   85.167
 6198.00    1.81313   1.83767   86.219
 6199.00    1.78738   1.82101   -1.000
 6200.00    1.76672   1.80828   -1.000
 6201.00    1.76009   1.81069   -1.000
 6202.00    1.77995   1.82635   -1.000
 6203.00    1.80575   1.84426   -1.000
 6204.00    1.81477   1.85638   -1.000
 6205.00    1.81952   1.86170   -1.000
 6206.00    1.83790   1.86428   84.352
 6207.00    1.83636   1.86699   84.733
 6208.00    1.83137   1.86886   -1.000
 6209.00    1.83345   1.86685   -1.000
 6210.00    1.82236   1.85883   -1.000
 6211.00    1.80798   1.84377   -1.000
 6212.00    1.79367   1.82089   87.477
 6213.00    1.76720   1.79220   88.894
 6214.00    1.73596   1.76633   -1.000
 6215.00    1.72938   1.75333   89.833
 6216.00    1.73919   1.75486   88.430
 6217.00    1.75872   1.76374   88.171
 6218.00    1.76903   1.76928   89.005
 6219.00    1.75557   1.76691   88.474
 6220.00    1.73759   1.76211   87.797
 6221.00    1.74713   1.76416   88.553
 6222.00    1.80265   1.77428   96.266
 6223.00    1.61942   1.78538   -1.000
 6224.00    1.54314   1.79278   -1.000
 6225.00    1.80600   1.79725   87.497
 6226.00    1.78939   1.79998   87.490
 6227.00    1.79101   1.79808   88.071
 6228.00    1.77668   1.78557   89.382
 6229.00    1.75051   1.75954   90.898
 6230.00    1.70813   1.72778   91.994
 6231.00    1.68930   1.70758   91.357
 6232.00    1.70406   1.71185   89.930
 6233.00    1.73586   1.73752   88.175
 6234.00    1.76504   1.77176   86.789
 6235.00    1.78847   1.80020   86.545
 6236.00    1.79800   1.81318   87.263
 6237.00    1.78499   1.80859   88.176
 6238.00    1.76411   1.79289   -1.000
 6239.00    1.74848   1.77468   90.028
 6240.00    1.73206   1.76002   -1.000
 6241.00    1.73221   1.75094   90.220
 6242.00    1.72722   1.74422   91.006
 6243.00    1.70575   1.73534   -1.000
 6244.00    1.69356   1.72593   -1.000
 6245.00    1.70185   1.72209   90.763
 6246.00    1.71444   1.72836   89.821
 6247.00    1.73299   1.74608   88.641
 6248.00    1.75744   1.77064   87.755
 6249.00    1.76745   1.79042   87.790
 6250.00    1.75546   1.79493   -1.000
 6251.00    1.74060   1.78068   -1.000
 6252.00    1.71916   1.75435   -1.000
 6253.00    1.68794   1.72962   -1.000
 6254.00    1.67688   1.71653   -1.000
 6255.00    1.67656   1.71248   -1.000
 6256.00    1.67025   1.70881   -1.000
 6257.00    1.65633   1.70175   -1.000
 6258.00    1.65741   1.69724   -1.000
 6259.00    1.66708   1.70434   -1.000
 6260.00    1.69687   1.72493   -1.000
 6261.00    1.71846   1.75319   -1.000
 6262.00    1.73964   1.78059   -1.000
 6263.00    1.75551   1.79949   -1.000
 6264.00    1.75948   1.80566   -1.000
 6265.00    1.74383   1.80289   -1.000
 6266.00    1.74017   1.80085   -1.000
 6267.00    1.73941   1.80430   -1.000
 6268.00    1.74314   1.80867   -1.000
 6269.00    1.74086   1.80821   -1.000
 6270.00    1.72874   1.80549   -1.000
 6271.00    1.73576   1.80656   -1.000
 6272.00    1.74936   1.81193   -1.000
 6273.00    1.75561   1.81638   -1.000
 6274.00    1.74396   1.81439   -1.000
 6275.00    1.72490   1.80485   -1.000
 6276.00    1.69824   1.79015   -1.000
 6277.00    1.67115   1.77243   -1.000
 6278.00    1.65157   1.75302   -1.000
 6279.00    1.62718   1.73492   -1.000
 6280.00    1.61345   1.72310   -1.000
 6281.00    1.60088   1.72404   -1.000
 6282.00    1.60162   1.73907   -1.000
 6283.00    1.62311   1.76295   -1.000
 6284.00    1.64920   1.78776   -1.000
 6285.00    1.67867   1.80806   -1.000
 6286.00    1.70715   1.82348   -1.000
 6287.00    1.73693   1.83533   -1.000
 6288.00    1.74905   1.84244   -1.000
 6289.00    1.75925   1.84198   -1.000
 6290.00    1.75990   1.83318   -1.000
 6291.00    1.75000   1.82073   -1.000
 6292.00    1.73742   1.81049   -1.000
 6293.00    1.73211   1.80530   -1.000
 6294.00    1.73667   1.80277   -1.000
 6295.00    1.73060   1.79732   -1.000
 6296.00    1.72197   1.78582   -1.000
 6297.00    1.71469   1.77274   -1.000
 6298.00    1.70641   1.76587   -1.000
 6299.00    1.70490   1.76562   -1.000
 6300.00    1.70977   1.76483   -1.000
 6301.00    1.70326   1.75968   -1.000
 6302.00    1.69608   1.75608   -1.000
 6303.00    1.70100   1.76276   -1.000
 6304.00    1.71961   1.77972   -1.000
 6305.00    1.73685   1.79970   -1.000
 6306.00    1.74532   1.81803   -1.000
 6307.00    1.75361   1.83347   -1.000
 6308.00    1.76593   1.84384   -1.000
 6309.00    1.76906   1.84575   -1.000
 6310.00    1.75447   1.84010   -1.000
 6311.00    1.73785   1.83163   -1.000
 6312.00    1.73333   1.82396   -1.000
 6313.00    1.73411   1.81629   -1.000
 6314.00    1.72019   1.80585   -1.000
 6315.00    1.70395   1.79314   -1.000
 6316.00    1.69339   1.78257   -1.000
 6317.00    1.68685   1.77643   -1.000
 6318.00    1.69720   1.77430   -1.000
 6319.00    1.69739   1.77953   -1.000
 6320.00    1.71740   1.79406   -1.000
 6321.00    1.73494   1.81177   -1.000
 6322.00    1.74438   1.82590   -1.000
 6323.00    1.74863   1.83757   -1.000
 6324.00    1.75272   1.84912   -1.000
 6325.00    1.77086   1.85860   -1.000
 6326.00    1.78802   1.86328   -1.000
 6327.00    1.78309   1.86390   -1.000
 6328.00    1.77519   1.86339   -1.000
 6329.00    1.77609   1.86351   -1.000
 6330.00    1.77810   1.86419   -1.000
 6331.00    1.78408   1.86693   -1.000
 6332.00    1.78598   1.87165   -1.000
 6333.00    1.79024   1.87107   -1.000
 6334.00    1.78700   1.85719   -1.000
 6335.00    1.59232   1.83291   -1.000
 6336.00    1.64131   1.81180   -1.000
 6337.00    1.73553   1.80630   -1.000
 6338.00    1.73552   1.81702   -1.000
 6339.00    1.75301   1.83543   -1.000
 6340.00    1.77111   1.85363   -1.000
 6341.00    1.78223   1.86527   -1.000
 6342.00    1.78605   1.86570   -1.000
 6343.00    1.77493   1.85661   -1.000
 6344.00    1.76678   1.84718   -1.000
 6345.00    1.76586   1.84673   -1.000
 6346.00    1.77661   1.85689   -1.000
 6347.00    1.78554   1.87184   -1.000
 6348.00    1.79289   1.88573   -1.000
 6349.00    1.79949   1.89629   -1.000
 6350.00    1.81370   1.90264   -1.000
 6351.00    1.81914   1.90392   -1.000
 6352.00    1.79995   1.89922   -1.000
 6353.00    1.79471   1.88782   -1.000
 6354.00    1.78284   1.87209   -1.000
 6355.00    1.76328   1.85783   -1.000
 6356.00    1.76129   1.84892   -1.000
 6357.00    1.75174   1.84120   -1.000
 6358.00    1.74227   1.82953   -1.000
 6359.00    1.73032   1.81629   -1.000
 6360.00    1.72151   1.80642   -1.000
 6361.00    1.72736   1.80024   -1.000
 6362.00    1.72783   1.79696   -1.000
 6363.00    1.73191   1.79872   -1.000
 6364.00    1.74304   1.80731   -1.000
 6365.00    1.75562   1.82169   -1.000
 6366.00    1.75765   1.83886   -1.000
 6367.00    1.76189   1.85581   -1.000
 6368.00    1.77337   1.86930   -1.000
 6369.00    1.78565   1.87731   -1.000
 6370.00    1.79126   1.88097   -1.000
 6371.00    1.79078   1.88493   -1.000
 6372.00    1.79383   1.89164   -1.000
 6373.00    1.79970   1.89932   -1.000
 6374.00    1.80139   1.90452   -1.000
 6375.00    1.79546   1.90521   -1.000
 6376.00    1.78812   1.90195   -1.000
 6377.00    1.77554   1.89563   -1.000
 6378.00    1.76297   1.88695   -1.000
 6379.00    1.75752   1.87807   -1.000
 6380.00    1.75527   1.87201   -1.000
 6381.00    1.75592   1.86998   -1.000
 6382.00    1.75371   1.87173   -1.000
 6383.00    1.75536   1.87515   -1.000
 6384.00    1.76404   1.87810   -1.000
 6385.00    1.76107   1.88101   -1.000
 6386.00    1.74985   1.88525   -1.000
 6387.00    1.75206   1.88995   -1.000
 6388.00    1.75254   1.89279   -1.000
 6389.00    1.74303   1.89262   -1.000
 6390.00    1.73132   1.88775   -1.000
 6391.00    1.71717   1.87466   -1.000
 6392.00    1.69518   1.85323   -1.000
 6393.00    1.66605   1.83269   -1.000
 6394.00    1.65153   1.82763   -1.000
 6395.00    1.66305   1.84340   -1.000
 6396.00    1.68376   1.86808   -1.000
 6397.00    1.68287   1.88186   -1.000
 6398.00    1.65981   1.87440   -1.000
 6399.00    1.62916   1.85018   -1.000
 6400.00    1.60506   1.82862   -1.000
 6401.00    1.59615   1.82958   -1.000
 6402.00    1.61707   1.85469   -1.000
 6403.00    1.64032   1.88687   -1.000
 6404.00    1.64607   1.90775   -1.000
 6405.00    1.64015   1.91151   -1.000
 6406.00    1.61815   1.90077   -1.000
 6407.00    1.60479   1.88422   -1.000
 6408.00    1.58597   1.87246   -1.000
 6409.00    1.56067   1.87010   -1.000
 6410.00    1.56108   1.87089   -1.000
 6411.00    1.55399   1.86861   -1.000
 6412.00    1.53103   1.86619   -1.000
 6413.00    1.52328   1.86853   -1.000
 6414.00    1.52269   1.87491   -1.000
 6415.00    1.52248   1.88217   -1.000
 6416.00    1.51919   1.88734   -1.000
 6417.00    1.51020   1.88740   -1.000
 6418.00    1.49812   1.87933   -1.000
 6419.00    1.47461   1.86297   -1.000
 6420.00    1.44340   1.84490   -1.000
 6421.00    1.41873   1.83752   -1.000
 6422.00    1.40951   1.84853   -1.000
 6423.00    1.41714   1.87306   -1.000
 6424.00    1.42798   1.89714   -1.000
 6425.00    1.42679   1.91297   -1.000
 6426.00    1.42088   1.92184   -1.000
 6427.00    1.40794   1.92464   -1.000
 6428.00    1.39197   1.91727   -1.000
