###################################################################
## OUTPUT of StarlightChains_v04.for    [Cid@UFSC - 01/Apr/2007] ##
###################################################################

## Some input info
NGC6528_b_2.cxt                          [arq_obs]
Base.BC03.S                              [arq_base]
NGC6528_b_2.msk                          [arq_masks]
StCv04.C11.config                        [arq_config]
  150                                    [N_base]
    0                                    [N_YAV_components = # of components with extra extinction!]
    0                                    [i_FitPowerLaw (1/0 = Yes/No)]
-9.99                                    [alpha_PowerLaw]
CCM                                      [red_law_option]
 1.458241                                [q_norm = A(l_norm)/A(V)]

## (Re)Sampling Parameters
 3359.00                                 [l_ini (A)]
 6428.00                                 [l_fin (A)]
    1.00                                 [dl    (A)]     (OBS: dl_cushion =    50.00 A)

## Normalization info
 4020.00                                 [l_norm (A) - for base]
 4010.00                                 [llow_norm (A) - window for f_obs]
 4060.00                                 [lupp_norm (A) - window for f_obs]
4.330667E-15                             [fobs_norm (in input units)]

## S/N
 4730.00                                 [llow_SN (A) - window for S/N]
 4780.00                                 [lupp_SN (A) - window for S/N]
  27.791                                 [S/N in S/N window]
  14.946                                 [S/N in norm. window]
 304.113                                 [S/N_err in S/N window]
 163.548                                 [S/N_err in norm. window]
  1.0000                                 [fscale_chi2]

## etc...
  2147483603                             [idum_orig]
  3069                                   [NOl_eff]
   810                                   [Nl_eff]
  2259    NSIGMA                         [Ntot_cliped & clip_method]
  2735180                                [Nglobal_steps]
   7                                     [N_chains]
  38                                     [NEX0s_base = N_base in EX0s-fits]
 0   0   1      139   2.0   3.771E+02    [Clip-Bug, RC-Crash & Burn-In warning-flags, n_censored_weights, wei_nsig_threshold & wei_limit]
    90     90.835     90.827      0.008  [idt_all, wdt_TotTime, wdt_UsrTime & wdt_SysTime (sec)]

## Synthesis Results - Best model ##

 3.14423E+00                             [chi2/Nl_eff]
     2.39860                             [adev (%)]

    96.82224                             [sum-of-x (%)]
 3.43329E-14                             [Flux_tot (units of input spectrum!)]
 2.35793E-09                             [Mini_tot (???)]
 1.18565E-09                             [Mcor_tot (???)]

  -7.34                                  [v0_min  (km/s)]
  60.39                                  [vd_min  (km/s)]
 1.5656                                  [AV_min  (mag)]
 0.0000                                  [YAV_min (mag)]

# j     x_j(%)      Mini_j(%)     Mcor_j(%)     age_j(yr)     Z_j      (L/M)_j    YAV?  Mstars   component_j        a/Fe...       SSP_chi2r SSP_adev(%)   SSP_AV   SSP_x(%)
  1      1.3569     2.5007E-03    4.9732E-03    1.000000E+06  0.00010  8.160E-03    0   1.0000   age020_m22            0.0000     4.7738E+03    47.8735   4.0000    98.0164
  2      3.2933     1.0407E-03    2.0697E-03    3.160000E+06  0.00010  4.759E-02    0   1.0000   age045_m22            0.0000     3.9964E+02    10.5733   3.8876    95.2211
  3      3.7411     2.9120E-03    5.5492E-03    5.010000E+06  0.00010  1.932E-02    0   0.9582   age055_m22            0.0000     7.4796E+02    17.7525   4.0000    88.7522
  4      0.0000     0.0000E+00    0.0000E+00    6.610000E+06  0.00010  9.973E-03    0   0.9297   age061_m22            0.0000     4.8245E+03    47.2048   4.0000   101.0199
  5      0.0000     0.0000E+00    0.0000E+00    8.710000E+06  0.00010  7.690E-03    0   0.9030   age067_m22            0.0000     4.7194E+03    46.8218   4.0000   101.5146
  6      1.3730     3.2389E-03    5.7340E-03    1.000000E+07  0.00010  6.375E-03    0   0.8902   age070_m22            0.0000     4.7079E+03    46.8026   4.0000   101.7576
  7      0.0000     0.0000E+00    0.0000E+00    1.445000E+07  0.00010  4.874E-03    0   0.8589   age078_m22            0.0000     3.7266E+03    42.4738   4.0000   104.3316
  8      0.8466     3.1030E-03    5.0442E-03    2.512000E+07  0.00010  4.103E-03    0   0.8174   age090_m22            0.0000     2.0917E+03    32.4784   4.0000   108.0811
  9      1.0090     4.1528E-03    6.4667E-03    4.000000E+07  0.00010  3.654E-03    0   0.7830   age104_m22            0.0000     1.3340E+03    24.6821   4.0000   109.1931
 10      0.5246     2.5506E-03    3.8536E-03    5.500000E+07  0.00010  3.093E-03    0   0.7597   age110_m22            0.0000     1.1450E+03    22.0367   4.0000   109.0791
 11      0.0000     0.0000E+00    0.0000E+00    1.015200E+08  0.00010  2.431E-03    0   0.7138   age116_m22            0.0000     8.1160E+02    15.8569   4.0000   106.2066
 12      0.0000     0.0000E+00    0.0000E+00    1.609000E+08  0.00010  1.319E-03    0   0.6775   age120_m22            0.0000     6.2324E+02    11.8876   4.0000    99.4365
 13      0.0000     0.0000E+00    0.0000E+00    2.861200E+08  0.00010  1.075E-03    0   0.6412   age125_m22            0.0000     9.4294E+02    14.6170   4.0000   102.7338
 14      0.0000     0.0000E+00    0.0000E+00    5.088000E+08  0.00010  7.183E-04    0   0.6083   age130_m22            0.0000     1.0437E+03    15.4601   3.7693   103.9295
 15      0.0000     0.0000E+00    0.0000E+00    9.047900E+08  0.00010  4.524E-04    0   0.5785   age135_m22            0.0000     1.0358E+03    15.5342   3.5610   105.1142
 16      0.0000     0.0000E+00    0.0000E+00    1.278050E+09  0.00010  3.018E-04    0   0.5588   age138_m22            0.0000     6.6798E+02    12.2780   3.0729   103.3047
 17      0.0000     0.0000E+00    0.0000E+00    1.434000E+09  0.00010  2.691E-04    0   0.5532   age139_m22            0.0000     5.9817E+02    11.6553   2.9238   102.7245
 18      0.0000     0.0000E+00    0.0000E+00    2.500000E+09  0.00010  1.582E-04    0   0.5296   age150_m22            0.0000     5.6841E+02    11.4402   2.8247   103.5591
 19      0.0009     1.2707E-04    1.2913E-04    4.250000E+09  0.00010  1.007E-04    0   0.5110   age158_m22            0.0000     4.4008E+02    10.0956   2.6726   102.1775
 20      0.0000     0.0000E+00    0.0000E+00    6.250000E+09  0.00010  6.869E-05    0   0.4985   age166_m22            0.0000     3.4901E+02     9.0362   2.6223    99.6044
 21      0.0000     0.0000E+00    0.0000E+00    7.500000E+09  0.00010  5.873E-05    0   0.4931   age171_m22            0.0000     3.4495E+02     9.0791   2.6215    99.0781
 22      0.0000     0.0000E+00    0.0000E+00    1.000000E+10  0.00010  4.481E-05    0   0.4854   age181_m22            0.0000     3.3742E+02     8.9907   2.5839    98.6866
 23      0.0000     0.0000E+00    0.0000E+00    1.300000E+10  0.00010  3.489E-05    0   0.4791   age193_m22            0.0000     3.1969E+02     8.7662   2.5255    98.1440
 24      0.0000     0.0000E+00    0.0000E+00    1.500000E+10  0.00010  3.035E-05    0   0.4766   age201_m22            0.0000     3.0845E+02     8.6459   2.4857    97.9995
 25      0.0000     0.0000E+00    0.0000E+00    1.800000E+10  0.00010  2.510E-05    0   0.4735   age213_m22            0.0000     2.8565E+02     8.3899   2.4177    97.4534
 26      0.4419     7.8575E-04    1.5626E-03    1.000000E+06  0.00040  8.458E-03    0   1.0000   age020_m32            0.0000     4.8696E+03    48.0415   4.0000    98.7835
 27      0.0000     0.0000E+00    0.0000E+00    3.160000E+06  0.00040  3.973E-02    0   1.0000   age045_m32            0.0000     1.8914E+03    30.6583   4.0000   107.0524
 28      0.6686     5.1962E-04    9.8503E-04    5.010000E+06  0.00040  1.935E-02    0   0.9532   age055_m32            0.0000     3.0119E+03    37.8191   4.0000   103.0410
 29      0.3278     4.0945E-04    7.5263E-04    6.610000E+06  0.00040  1.204E-02    0   0.9243   age061_m32            0.0000     4.0875E+03    44.0386   4.0000   102.8289
 30      0.0000     0.0000E+00    0.0000E+00    8.710000E+06  0.00040  9.433E-03    0   0.9001   age067_m32            0.0000     3.8748E+03    43.1092   4.0000   103.7491
 31      0.3954     7.3837E-04    1.3035E-03    1.000000E+07  0.00040  8.053E-03    0   0.8877   age070_m32            0.0000     3.7070E+03    42.2836   4.0000   104.0754
 32      0.2769     5.9251E-04    1.0108E-03    1.445000E+07  0.00040  7.027E-03    0   0.8578   age078_m32            0.0000     1.9481E+03    30.7238   4.0000   105.3830
 33      0.0000     0.0000E+00    0.0000E+00    2.512000E+07  0.00040  4.707E-03    0   0.8166   age090_m32            0.0000     1.2220E+03    23.4874   4.0000   105.4790
 34      0.1092     4.4234E-04    6.8853E-04    4.000000E+07  0.00040  3.714E-03    0   0.7827   age104_m32            0.0000     8.8393E+02    18.3498   4.0000   105.4080
 35      0.0000     0.0000E+00    0.0000E+00    5.500000E+07  0.00040  2.982E-03    0   0.7593   age110_m32            0.0000     8.1940E+02    16.8980   4.0000   105.3244
 36      0.0000     0.0000E+00    0.0000E+00    1.015200E+08  0.00040  2.188E-03    0   0.7143   age116_m32            0.0000     7.4686E+02    13.7673   4.0000   103.8450
 37      0.0000     0.0000E+00    0.0000E+00    1.609000E+08  0.00040  1.690E-03    0   0.6856   age120_m32            0.0000     8.3255E+02    13.8479   4.0000   102.1374
 38      0.0000     0.0000E+00    0.0000E+00    2.861200E+08  0.00040  1.152E-03    0   0.6509   age125_m32            0.0000     9.5569E+02    14.7632   3.7597   103.5562
 39      0.0000     0.0000E+00    0.0000E+00    5.088000E+08  0.00040  7.331E-04    0   0.6182   age130_m32            0.0000     9.8526E+02    15.1234   3.5839   104.1587
 40      0.0000     0.0000E+00    0.0000E+00    9.047900E+08  0.00040  3.960E-04    0   0.5890   age135_m32            0.0000     6.7785E+02    12.5438   3.1303   102.7871
 41      0.0000     0.0000E+00    0.0000E+00    1.278050E+09  0.00040  2.854E-04    0   0.5687   age138_m32            0.0000     5.9876E+02    11.7604   2.8626   104.7743
 42      0.0000     0.0000E+00    0.0000E+00    1.434000E+09  0.00040  2.531E-04    0   0.5632   age139_m32            0.0000     5.8732E+02    11.6749   2.8115   104.6458
 43      0.0000     0.0000E+00    0.0000E+00    2.500000E+09  0.00040  1.488E-04    0   0.5386   age150_m32            0.0000     4.7704E+02    10.6771   2.5616   102.8432
 44      0.0000     0.0000E+00    0.0000E+00    4.250000E+09  0.00040  9.082E-05    0   0.5199   age158_m32            0.0000     3.1422E+02     8.6514   2.4752    99.7831
 45      0.0000     0.0000E+00    0.0000E+00    6.250000E+09  0.00040  6.362E-05    0   0.5076   age166_m32            0.0000     2.4172E+02     7.7666   2.4538    96.6893
 46      0.0000     0.0000E+00    0.0000E+00    7.500000E+09  0.00040  5.289E-05    0   0.5027   age171_m32            0.0000     2.2456E+02     7.5132   2.4168    95.4493
 47      0.0000     4.1606E-06    4.0941E-06    1.000000E+10  0.00040  3.972E-05    0   0.4948   age181_m32            0.0000     2.0719E+02     7.2374   2.3496    94.0825
 48      0.0004     1.7437E-04    1.6888E-04    1.300000E+10  0.00040  3.283E-05    0   0.4870   age193_m32            0.0000     2.2820E+02     7.4401   2.2985    96.6759
 49      0.0000     0.0000E+00    0.0000E+00    1.500000E+10  0.00040  2.925E-05    0   0.4854   age201_m32            0.0000     2.4874E+02     7.7341   2.2765    98.1940
 50      0.0000     0.0000E+00    0.0000E+00    1.800000E+10  0.00040  2.469E-05    0   0.4819   age213_m32            0.0000     2.5288E+02     7.8203   2.2364    98.6706
 51      0.0153     2.0613E-05    4.0994E-05    1.000000E+06  0.00400  1.114E-02    0   1.0000   age020_m42            0.0000     4.5210E+03    46.5650   4.0000    99.0543
 52      0.9456     3.4914E-04    6.9427E-04    3.160000E+06  0.00400  4.073E-02    0   0.9999   age045_m42            0.0000     1.1428E+03    23.3095   4.0000   105.6181
 53      0.0000     0.0000E+00    0.0000E+00    5.010000E+06  0.00400  2.534E-02    0   0.9488   age055_m42            0.0000     2.2775E+03    33.8197   4.0000   104.1573
 54      1.3400     7.8016E-04    1.4305E-03    6.610000E+06  0.00400  2.583E-02    0   0.9220   age061_m42            0.0000     8.7886E+02    19.4167   4.0000   103.6585
 55      1.4331     1.2633E-03    2.2568E-03    8.710000E+06  0.00400  1.706E-02    0   0.8983   age067_m42            0.0000     7.7262E+02    17.4324   4.0000    99.9712
 56      0.3093     3.6594E-04    6.4494E-04    1.000000E+07  0.00400  1.271E-02    0   0.8862   age070_m42            0.0000     8.5125E+02    18.3069   4.0000    98.9813
 57      0.0000     0.0000E+00    0.0000E+00    1.445000E+07  0.00400  7.666E-03    0   0.8571   age078_m42            0.0000     1.5427E+03    26.9355   4.0000   100.9700
 58      0.0000     0.0000E+00    0.0000E+00    2.512000E+07  0.00400  5.070E-03    0   0.8174   age090_m42            0.0000     6.6238E+02    16.0742   4.0000    98.4500
 59      0.0000     0.0000E+00    0.0000E+00    4.000000E+07  0.00400  3.505E-03    0   0.7851   age104_m42            0.0000     3.9335E+02    12.2800   4.0000    95.2507
 60      0.0000     0.0000E+00    0.0000E+00    5.500000E+07  0.00400  3.059E-03    0   0.7629   age110_m42            0.0000     4.6504E+02    10.7011   4.0000    99.2558
 61      0.0000     0.0000E+00    0.0000E+00    1.015200E+08  0.00400  2.268E-03    0   0.7207   age116_m42            0.0000     7.1419E+02    12.7937   3.9210   102.6146
 62      0.0000     0.0000E+00    0.0000E+00    1.609000E+08  0.00400  1.720E-03    0   0.6930   age120_m42            0.0000     7.4126E+02    13.1446   3.7501   104.3738
 63      0.0000     0.0000E+00    0.0000E+00    2.861200E+08  0.00400  1.079E-03    0   0.6613   age125_m42            0.0000     7.3737E+02    12.7900   3.4153   104.5359
 64      0.0000     0.0000E+00    0.0000E+00    5.088000E+08  0.00400  6.261E-04    0   0.6313   age130_m42            0.0000     7.8816E+02    13.4034   3.2165   107.4158
 65      0.0000     0.0000E+00    0.0000E+00    9.047900E+08  0.00400  3.535E-04    0   0.6024   age135_m42            0.0000     5.3552E+02    11.1200   2.8197   107.7104
 66      0.1222     6.8633E-03    7.9671E-03    1.278050E+09  0.00400  2.677E-04    0   0.5837   age138_m42            0.0000     2.0499E+02     7.5684   2.1509   104.3369
 67      0.0000     0.0000E+00    0.0000E+00    1.434000E+09  0.00400  1.910E-04    0   0.5716   age139_m42            0.0000     2.7595E+02     8.4429   2.2994   105.5406
 68      0.0000     0.0000E+00    0.0000E+00    2.500000E+09  0.00400  9.818E-05    0   0.5463   age150_m42            0.0000     1.0644E+02     5.6388   2.0289   100.6375
 69      0.0000     0.0000E+00    0.0000E+00    4.250000E+09  0.00400  5.491E-05    0   0.5269   age158_m42            0.0000     5.8092E+01     4.3513   1.9276    97.7364
 70      0.0000     0.0000E+00    0.0000E+00    6.250000E+09  0.00400  3.857E-05    0   0.5151   age166_m42            0.0000     3.9833E+01     4.0299   1.7937    96.3547
 71      0.0000     0.0000E+00    0.0000E+00    7.500000E+09  0.00400  3.243E-05    0   0.5110   age171_m42            0.0000     3.4965E+01     3.9816   1.7147    95.6933
 72      0.0114     7.0633E-03    7.0629E-03    1.000000E+10  0.00400  2.424E-05    0   0.5028   age181_m42            0.0000     3.2237E+01     4.0296   1.6365    94.9209
 73      1.9987     1.5963E+00    1.5641E+00    1.300000E+10  0.00400  1.883E-05    0   0.4927   age193_m42            0.0000     3.2053E+01     4.1073   1.6032    94.4934
 74      2.3125     2.0639E+00    2.0190E+00    1.500000E+10  0.00400  1.685E-05    0   0.4919   age201_m42            0.0000     3.1626E+01     3.9988   1.6119    94.5161
 75      1.3081     1.3548E+00    1.3132E+00    1.800000E+10  0.00400  1.452E-05    0   0.4874   age213_m42            0.0000     3.1137E+01     3.8438   1.6343    94.7832
 76      0.0000     0.0000E+00    0.0000E+00    1.000000E+06  0.00800  1.286E-02    0   1.0000   age020_m52            0.0000     4.3226E+03    45.6569   4.0000   100.9935
 77      0.0000     0.0000E+00    0.0000E+00    3.160000E+06  0.00800  3.147E-02    0   0.9966   age045_m52            0.0000     4.0166E+03    44.0470   4.0000   102.4232
 78      0.0000     0.0000E+00    0.0000E+00    5.010000E+06  0.00800  2.664E-02    0   0.9443   age055_m52            0.0000     2.6756E+03    36.7322   4.0000   104.1880
 79      0.0000     0.0000E+00    0.0000E+00    6.610000E+06  0.00800  2.151E-02    0   0.9177   age061_m52            0.0000     4.2098E+02    13.3180   4.0000    93.2579
 80      0.0000     0.0000E+00    0.0000E+00    8.710000E+06  0.00800  1.628E-02    0   0.8948   age067_m52            0.0000     7.5006E+02    17.1632   4.0000    99.9973
 81      0.0000     0.0000E+00    0.0000E+00    1.000000E+07  0.00800  1.215E-02    0   0.8827   age070_m52            0.0000     1.2938E+03    24.5134   4.0000   103.2233
 82      0.0000     0.0000E+00    0.0000E+00    1.445000E+07  0.00800  8.739E-03    0   0.8552   age078_m52            0.0000     1.3018E+03    24.7177   4.0000   104.9400
 83      0.0000     0.0000E+00    0.0000E+00    2.512000E+07  0.00800  5.676E-03    0   0.8162   age090_m52            0.0000     7.4661E+02    15.9497   4.0000   103.6348
 84      0.0000     0.0000E+00    0.0000E+00    4.000000E+07  0.00800  3.939E-03    0   0.7841   age104_m52            0.0000     6.1652E+02    12.8400   4.0000   102.5913
 85      0.0000     0.0000E+00    0.0000E+00    5.500000E+07  0.00800  3.155E-03    0   0.7627   age110_m52            0.0000     6.1984E+02    12.0900   4.0000   103.0938
 86      0.0000     0.0000E+00    0.0000E+00    1.015200E+08  0.00800  2.206E-03    0   0.7226   age116_m52            0.0000     6.4542E+02    11.9216   3.9785   102.6522
 87      0.0000     0.0000E+00    0.0000E+00    1.609000E+08  0.00800  1.596E-03    0   0.6963   age120_m52            0.0000     6.8519E+02    12.3356   3.7428   104.4413
 88      0.0000     0.0000E+00    0.0000E+00    2.861200E+08  0.00800  1.002E-03    0   0.6665   age125_m52            0.0000     8.0550E+02    13.8631   3.4258   106.8144
 89      0.0000     0.0000E+00    0.0000E+00    5.088000E+08  0.00800  5.759E-04    0   0.6377   age130_m52            0.0000     7.7708E+02    14.0770   3.0499   110.6617
 90      0.0000     0.0000E+00    0.0000E+00    9.047900E+08  0.00800  2.972E-04    0   0.6086   age135_m52            0.0000     4.5855E+02    11.2097   2.5077   108.8528
 91      0.0000     0.0000E+00    0.0000E+00    1.278050E+09  0.00800  2.242E-04    0   0.5907   age138_m52            0.0000     1.6908E+02     7.5607   1.9417   106.7448
 92      0.0000     0.0000E+00    0.0000E+00    1.434000E+09  0.00800  1.645E-04    0   0.5787   age139_m52            0.0000     1.6704E+02     7.2770   2.0879   106.4334
 93      0.0000     0.0000E+00    0.0000E+00    2.500000E+09  0.00800  7.723E-05    0   0.5519   age150_m52            0.0000     6.2142E+01     5.5036   1.7449   102.6523
 94      1.1967     4.3356E-01    4.5871E-01    4.250000E+09  0.00800  4.151E-05    0   0.5320   age158_m52            0.0000     4.2592E+01     4.8885   1.6772   100.1861
 95      6.6646     3.3298E+00    3.4415E+00    6.250000E+09  0.00800  3.010E-05    0   0.5197   age166_m52            0.0000     2.7495E+01     4.7947   1.4767    98.6369
 96      3.3663     2.0521E+00    2.0972E+00    7.500000E+09  0.00800  2.467E-05    0   0.5139   age171_m52            0.0000     2.6895E+01     4.9282   1.4329    98.1810
 97     14.9196     1.2050E+01    1.2111E+01    1.000000E+10  0.00800  1.862E-05    0   0.5054   age181_m52            0.0000     3.0431E+01     5.6030   1.2912    97.6703
 98      0.6991     7.3372E-01    7.2783E-01    1.300000E+10  0.00800  1.433E-05    0   0.4988   age193_m52            0.0000     3.8111E+01     6.4082   1.1857    98.1996
 99      0.0000     0.0000E+00    0.0000E+00    1.500000E+10  0.00800  1.244E-05    0   0.4936   age201_m52            0.0000     4.3210E+01     6.7311   1.1569    98.5748
100      0.0000     0.0000E+00    0.0000E+00    1.800000E+10  0.00800  1.070E-05    0   0.4888   age213_m52            0.0000     4.8343E+01     7.0127   1.1210    98.3923
101      0.0000     0.0000E+00    0.0000E+00    1.000000E+06  0.02000  1.989E-02    0   1.0000   age020_m62            0.0000     4.3967E+03    45.6553   4.0000    99.7562
102      0.0000     0.0000E+00    0.0000E+00    3.160000E+06  0.02000  3.772E-02    0   0.9858   age045_m62            0.0000     3.8132E+03    42.9929   4.0000   101.7784
103      0.0000     0.0000E+00    0.0000E+00    5.010000E+06  0.02000  3.227E-02    0   0.9342   age055_m62            0.0000     1.7749E+03    29.9756   4.0000   105.8482
104      0.0000     0.0000E+00    0.0000E+00    6.610000E+06  0.02000  2.387E-02    0   0.9090   age061_m62            0.0000     1.5171E+03    26.5130   4.0000   102.9440
105      0.0000     0.0000E+00    0.0000E+00    8.710000E+06  0.02000  1.102E-02    0   0.8861   age067_m62            0.0000     1.5050E+03    24.7864   4.0000    95.9314
106      0.0000     0.0000E+00    0.0000E+00    1.000000E+07  0.02000  1.011E-02    0   0.8751   age070_m62            0.0000     1.2402E+03    22.3085   4.0000    97.6418
107      0.0000     0.0000E+00    0.0000E+00    1.445000E+07  0.02000  7.331E-03    0   0.8472   age078_m62            0.0000     1.0549E+03    20.6908   4.0000    98.3566
108      0.0000     0.0000E+00    0.0000E+00    2.512000E+07  0.02000  4.206E-03    0   0.8099   age090_m62            0.0000     9.3976E+02    19.6476   4.0000    96.4786
109      0.0000     0.0000E+00    0.0000E+00    4.000000E+07  0.02000  3.373E-03    0   0.7799   age104_m62            0.0000     5.5686E+02    13.4436   4.0000   100.3480
110      0.0000     0.0000E+00    0.0000E+00    5.500000E+07  0.02000  2.747E-03    0   0.7595   age110_m62            0.0000     5.6239E+02    11.7721   4.0000   101.7607
111      0.0000     0.0000E+00    0.0000E+00    1.015200E+08  0.02000  1.878E-03    0   0.7221   age116_m62            0.0000     7.0579E+02    12.3957   3.9881   102.9032
112      0.0000     0.0000E+00    0.0000E+00    1.609000E+08  0.02000  1.378E-03    0   0.6978   age120_m62            0.0000     8.3127E+02    13.4597   3.8027   105.4373
113      0.0000     0.0000E+00    0.0000E+00    2.861200E+08  0.02000  8.869E-04    0   0.6700   age125_m62            0.0000     1.0094E+03    15.2116   3.4080   109.4554
114      0.0000     0.0000E+00    0.0000E+00    5.088000E+08  0.02000  4.834E-04    0   0.6430   age130_m62            0.0000     8.2935E+02    14.4569   2.9179   111.9316
115      0.0000     0.0000E+00    0.0000E+00    9.047900E+08  0.02000  2.312E-04    0   0.6152   age135_m62            0.0000     3.9874E+02    10.6018   2.3200   110.7241
116      0.0000     0.0000E+00    0.0000E+00    1.278050E+09  0.02000  1.387E-04    0   0.5927   age138_m62            0.0000     1.7386E+02     7.4401   1.9609   106.0494
117      0.0000     0.0000E+00    0.0000E+00    1.434000E+09  0.02000  1.168E-04    0   0.5865   age139_m62            0.0000     1.4020E+02     6.8324   1.9335   104.4587
118      0.0000     0.0000E+00    0.0000E+00    2.500000E+09  0.02000  5.505E-05    0   0.5610   age150_m62            0.0000     5.2007E+01     5.6158   1.5566   101.2739
119      0.0000     0.0000E+00    0.0000E+00    4.250000E+09  0.02000  3.070E-05    0   0.5407   age158_m62            0.0000     5.0164E+01     6.7043   1.2478   100.7518
120      0.0000     0.0000E+00    0.0000E+00    6.250000E+09  0.02000  2.104E-05    0   0.5277   age166_m62            0.0000     6.1709E+01     7.5652   1.1114   100.9711
121      0.0000     0.0000E+00    0.0000E+00    7.500000E+09  0.02000  1.770E-05    0   0.5223   age171_m62            0.0000     7.2819E+01     8.0816   1.0180   101.2662
122      9.2859     1.0767E+01    1.0965E+01    1.000000E+10  0.02000  1.297E-05    0   0.5121   age181_m62            0.0000     1.0135E+02     9.1363   0.8514   101.5990
123     11.8164     1.8337E+01    1.8405E+01    1.300000E+10  0.02000  9.691E-06    0   0.5047   age193_m62            0.0000     1.2687E+02     9.8137   0.7681   101.8221
124     14.8822     2.6771E+01    2.6615E+01    1.500000E+10  0.02000  8.360E-06    0   0.4999   age201_m62            0.0000     1.5036E+02    10.4507   0.6910   102.0214
125      8.6210     1.8759E+01    1.8452E+01    1.800000E+10  0.02000  6.911E-06    0   0.4946   age213_m62            0.0000     1.8159E+02    11.2742   0.6047   102.2963
126      0.0000     0.0000E+00    0.0000E+00    1.000000E+06  0.05000  2.651E-02    0   0.9998   age020_m72            0.0000     4.2603E+03    45.2318   4.0000   100.8725
127      0.0000     0.0000E+00    0.0000E+00    3.160000E+06  0.05000  4.817E-02    0   0.9577   age045_m72            0.0000     2.9930E+03    38.9171   4.0000   104.7402
128      0.0000     0.0000E+00    0.0000E+00    5.010000E+06  0.05000  3.101E-02    0   0.9147   age055_m72            0.0000     2.0447E+03    31.7634   4.0000   104.6406
129      0.0000     0.0000E+00    0.0000E+00    6.610000E+06  0.05000  1.472E-02    0   0.8877   age061_m72            0.0000     1.6538E+03    25.9774   4.0000    99.1072
130      0.0000     0.0000E+00    0.0000E+00    8.710000E+06  0.05000  1.050E-02    0   0.8638   age067_m72            0.0000     2.1856E+03    31.9566   4.0000   103.0234
131      0.0000     0.0000E+00    0.0000E+00    1.000000E+07  0.05000  8.954E-03    0   0.8524   age070_m72            0.0000     2.5836E+03    36.0521   4.0000   105.2446
132      0.0000     0.0000E+00    0.0000E+00    1.445000E+07  0.05000  6.392E-03    0   0.8262   age078_m72            0.0000     2.3194E+03    34.4134   4.0000   105.8505
133      0.0000     0.0000E+00    0.0000E+00    2.512000E+07  0.05000  4.207E-03    0   0.7902   age090_m72            0.0000     1.3143E+03    25.4490   4.0000   106.3047
134      0.0000     0.0000E+00    0.0000E+00    4.000000E+07  0.05000  3.198E-03    0   0.7618   age104_m72            0.0000     6.8817E+02    13.8559   4.0000   105.6977
135      0.0000     0.0000E+00    0.0000E+00    5.500000E+07  0.05000  2.593E-03    0   0.7432   age110_m72            0.0000     7.0594E+02    13.1080   4.0000   105.8788
136      0.0000     0.0000E+00    0.0000E+00    1.015200E+08  0.05000  1.716E-03    0   0.7092   age116_m72            0.0000     7.8912E+02    13.0644   4.0000   104.4225
137      0.0000     0.0000E+00    0.0000E+00    1.609000E+08  0.05000  1.218E-03    0   0.6876   age120_m72            0.0000     8.9833E+02    14.0825   3.7583   105.9057
138      0.0000     0.0000E+00    0.0000E+00    2.861200E+08  0.05000  7.047E-04    0   0.6618   age125_m72            0.0000     9.2600E+02    15.0341   3.1781   109.7394
139      0.0000     0.0000E+00    0.0000E+00    5.088000E+08  0.05000  3.590E-04    0   0.6356   age130_m72            0.0000     6.5379E+02    13.4044   2.5647   112.2981
140      0.0000     0.0000E+00    0.0000E+00    9.047900E+08  0.05000  1.484E-04    0   0.6088   age135_m72            0.0000     1.9092E+02     8.4754   1.8449   105.2186
141      0.0000     0.0000E+00    0.0000E+00    1.278050E+09  0.05000  9.435E-05    0   0.5924   age138_m72            0.0000     9.5158E+01     7.6563   1.4174   102.1538
142      0.0000     0.0000E+00    0.0000E+00    1.434000E+09  0.05000  7.827E-05    0   0.5847   age139_m72            0.0000     7.8624E+01     7.1654   1.4383   101.5375
143      0.0000     0.0000E+00    0.0000E+00    2.500000E+09  0.05000  3.759E-05    0   0.5583   age150_m72            0.0000     6.6437E+01     7.6647   1.1094   100.5228
144      0.0000     0.0000E+00    0.0000E+00    4.250000E+09  0.05000  1.842E-05    0   0.5374   age158_m72            0.0000     1.1346E+02     8.8114   0.8313    99.3686
145      0.6417     7.9953E-01    8.3351E-01    6.250000E+09  0.05000  1.207E-05    0   0.5242   age166_m72            0.0000     1.7205E+02    10.3398   0.5753    98.9410
146      0.4610     6.9374E-01    7.1508E-01    7.500000E+09  0.05000  9.993E-06    0   0.5183   age171_m72            0.0000     1.8485E+02    10.5452   0.5304    98.8651
147      0.1059     2.1853E-01    2.2082E-01    1.000000E+10  0.05000  7.291E-06    0   0.5081   age181_m72            0.0000     2.4252E+02    11.7616   0.3876    98.7663
148      0.0000     0.0000E+00    0.0000E+00    1.300000E+10  0.05000  5.316E-06    0   0.5018   age193_m72            0.0000     3.4029E+02    13.5481   0.1693    98.8011
149      0.0000     0.0000E+00    0.0000E+00    1.500000E+10  0.05000  4.497E-06    0   0.4972   age201_m72            0.0000     3.9492E+02    14.4515   0.0772    99.1533
150      0.0000     0.0000E+00    0.0000E+00    1.800000E+10  0.05000  3.739E-06    0   0.4924   age213_m72            0.0000     4.6145E+02    15.5994  -0.0608    99.5690


## Synthesis Results - Average & Chains ##

# j      x_j: min, <> & last-chain-values for 1 ...  7 chains
  1      1.3569      1.6568      1.6986      1.7156      1.6595      1.6380      1.8488      1.5752      1.6376
  2      3.2933      2.2541      2.3445      2.5182      2.3192      2.3992      2.1875      2.1960      2.2133
  3      3.7411      2.5602      2.8753      2.5245      2.4908      2.7535      2.7070      2.5808      2.4378
  4      0.0000      0.0631      0.0403      0.0074      0.0000      0.0969      0.0000      0.0000      0.0000
  5      0.0000      0.1755      0.0173      0.1351      0.1375      0.1204      0.0000      0.4212      0.3181
  6      1.3730      1.2200      1.3620      1.3459      1.2255      1.1923      1.0940      1.1508      1.1704
  7      0.0000      0.0605      0.0000      0.0000      0.0000      0.0213      0.0000      0.1694      0.0000
  8      0.8466      0.7120      0.7552      0.6914      0.7838      0.6976      0.7166      0.8210      0.8445
  9      1.0090      0.7112      0.8529      0.8095      0.9553      0.8901      0.9754      0.6941      0.5958
 10      0.5246      0.3145      0.2484      0.2823      0.2981      0.3654      0.3912      0.2612      0.2654
 11      0.0000      0.0663      0.2388      0.0000      0.0000      0.0000      0.1862      0.0000      0.0000
 12      0.0000      0.0168      0.0000      0.0000      0.0000      0.0000      0.0000      0.0000      0.0940
 13      0.0000      0.0179      0.1258      0.0000      0.0314      0.0242      0.0000      0.0000      0.0000
 14      0.0000      0.0163      0.0000      0.0000      0.0061      0.0000      0.0000      0.0000      0.0000
 15      0.0000      0.0150      0.0000      0.0000      0.0378      0.0000      0.0000      0.0000      0.0000
 16      0.0000      0.0181      0.0000      0.0000      0.1612      0.0000      0.0000      0.0000      0.0000
 17      0.0000      0.0269      0.0000      0.0000      0.0000      0.0000      0.0000      0.0000      0.0000
 18      0.0000      0.0370      0.1903      0.0000      0.0825      0.0000      0.0000      0.0000      0.0000
 19      0.0009      0.0441      0.0000      0.0000      0.1757      0.0289      0.0948      0.0000      0.0637
 20      0.0000      0.0594      0.0000      0.0000      0.0000      0.0000      0.0345      0.2583      0.0000
 21      0.0000      0.0623      0.3031      0.0000      0.0252      0.0000      0.0000      0.0936      0.0000
 22      0.0000      0.0584      0.0000      0.2175      0.0000      0.1020      0.0060      0.0000      0.0000
 23      0.0000      0.0999      0.2790      0.0611      0.0000      0.0000      0.0029      0.5189      0.0000
 24      0.0000      0.0548      0.0163      0.0000      0.0000      0.0766      0.0533      0.1473      0.0000
 25      0.0000      0.1038      0.0000      0.0000      0.0000      0.0000      0.0000      0.0000      0.1641
 26      0.4419      0.5664      0.5625      0.5175      0.6279      0.5556      0.5325      0.6278      0.6024
 27      0.0000      0.0932      0.1407      0.0948      0.1206      0.1266      0.0225      0.1988      0.1337
 28      0.6686      0.4271      0.6006      0.5747      0.5041      0.3684      0.4566      0.3090      0.3610
 29      0.3278      0.2881      0.3189      0.2176      0.3591      0.2555      0.3089      0.3381      0.1323
 30      0.0000      0.0574      0.0000      0.0000      0.0000      0.0000      0.0000      0.0000      0.0000
 31      0.3954      0.2856      0.2452      0.3283      0.3263      0.4889      0.2946      0.5107      0.3415
 32      0.2769      0.3207      0.1763      0.3159      0.2765      0.2802      0.4226      0.0000      0.2943
 33      0.0000      0.0687      0.0342      0.2000      0.0000      0.0000      0.1337      0.0539      0.0274
 34      0.1092      0.0737      0.0000      0.1492      0.2400      0.0000      0.0000      0.1839      0.0000
 35      0.0000      0.0470      0.0000      0.1081      0.0393      0.0000      0.1059      0.0000      0.0000
 36      0.0000      0.0266      0.0000      0.1180      0.0000      0.0000      0.0000      0.2121      0.0000
 37      0.0000      0.0427      0.1604      0.1235      0.0000      0.0000      0.0427      0.0000      0.1932
 38      0.0000      0.0078      0.0881      0.0000      0.0000      0.0000      0.0000      0.0000      0.1174
 39      0.0000      0.0086      0.0000      0.0284      0.0000      0.0000      0.0000      0.0000      0.0000
 40      0.0000      0.0144      0.0000      0.0000      0.0000      0.0000      0.0000      0.0000      0.0000
 41      0.0000      0.0225      0.0000      0.0089      0.0000      0.0108      0.0000      0.0000      0.0000
 42      0.0000      0.0258      0.1584      0.0000      0.0000      0.0000      0.0000      0.0000      0.0000
 43      0.0000      0.0453      0.0000      0.1059      0.0000      0.0000      0.0000      0.0280      0.1814
 44      0.0000      0.0891      0.0313      0.0285      0.0199      0.6403      0.0000      0.2081      0.2277
 45      0.0000      0.0765      0.1412      0.0000      0.1149      0.0000      0.0000      0.0000      0.0000
 46      0.0000      0.0926      0.0000      0.3261      0.0766      0.2415      0.0000      0.0000      0.1089
 47      0.0000      0.1206      0.0000      0.0667      0.5765      0.0000      0.0000      0.0387      0.0000
 48      0.0004      0.0790      0.0000      0.0000      0.4006      0.0000      0.0000      0.0000      0.0000
 49      0.0000      0.0774      0.0000      0.0238      0.0000      0.0000      0.4637      0.1968      0.1947
 50      0.0000      0.0918      0.1258      0.2407      0.0000      0.0000      0.0763      0.0544      0.0313
 51      0.0153      0.4107      0.4323      0.5265      0.3912      0.5246      0.3828      0.2363      0.5028
 52      0.9456      0.6930      0.6708      0.7394      0.6689      1.0168      0.6835      0.7827      0.5158
 53      0.0000      0.0137      0.0000      0.0000      0.0331      0.0000      0.0000      0.0000      0.0000
 54      1.3400      0.9362      0.9963      0.8730      1.0498      0.8099      1.1554      0.9888      1.0227
 55      1.4331      1.6543      1.6112      1.8617      1.6576      1.6905      1.7705      1.9172      1.5778
 56      0.3093      0.3880      0.3523      0.2767      0.4857      0.3323      0.3202      0.3517      0.4893
 57      0.0000      0.0879      0.0000      0.0000      0.0000      0.0703      0.1651      0.0000      0.4342
 58      0.0000      0.0311      0.0408      0.0000      0.0447      0.1301      0.0000      0.0000      0.0000
 59      0.0000      0.0210      0.0000      0.0000      0.0000      0.0000      0.2441      0.0000      0.0000
 60      0.0000      0.0422      0.0174      0.0000      0.0000      0.0000      0.0000      0.0000      0.0000
 61      0.0000      0.0120      0.0000      0.0000      0.0000      0.1874      0.0000      0.0000      0.1220
 62      0.0000      0.0139      0.0175      0.0000      0.0000      0.0000      0.1241      0.0000      0.0821
 63      0.0000      0.0158      0.0000      0.0090      0.0000      0.0000      0.0000      0.0000      0.0000
 64      0.0000      0.0230      0.0000      0.0000      0.0175      0.0000      0.0000      0.0000      0.0000
 65      0.0000      0.0367      0.1137      0.0000      0.0000      0.0000      0.0000      0.0000      0.0000
 66      0.1222      0.0787      0.0441      0.0523      0.1622      0.0000      0.0000      0.0000      0.0000
 67      0.0000      0.0374      0.0000      0.0000      0.0085      0.0000      0.0000      0.0000      0.0000
 68      0.0000      0.0809      0.0000      0.0352      0.0000      0.0000      0.0972      0.0000      0.2879
 69      0.0000      0.1592      0.0000      0.2100      0.0000      0.2140      0.3271      0.5017      0.2443
 70      0.0000      0.1318      0.0069      0.0000      0.0000      0.0000      0.2340      0.2658      0.0000
 71      0.0000      0.2480      0.0000      0.0000      0.0000      0.3106      0.0711      0.0554      0.0504
 72      0.0114      0.4017      0.3623      0.0000      1.2086      0.2627      0.7272      0.4745      0.5141
 73      1.9987      1.0212      0.3382      1.6496      0.9497      0.2198      0.9765      1.1395      0.9861
 74      2.3125      1.0104      2.5524      1.2309      1.5687      1.3091      1.0767      0.5664      1.2803
 75      1.3081      0.6735      1.0843      0.9519      0.6235      0.7420      1.1028      1.0177      0.9361
 76      0.0000      0.0189      0.0720      0.0000      0.0000      0.0000      0.0000      0.0153      0.0000
 77      0.0000      0.1139      0.0000      0.0000      0.0000      0.0170      0.2471      0.0000      0.1630
 78      0.0000      0.0134      0.0000      0.0000      0.0000      0.0000      0.0000      0.0790      0.0000
 79      0.0000      0.0211      0.0000      0.0000      0.0000      0.0000      0.0000      0.0000      0.0000
 80      0.0000      0.0190      0.0000      0.0000      0.0000      0.0196      0.0151      0.0000      0.0000
 81      0.0000      0.0145      0.0000      0.0000      0.0000      0.0000      0.0000      0.1559      0.0000
 82      0.0000      0.0194      0.0102      0.0000      0.0000      0.0000      0.0000      0.0000      0.0000
 83      0.0000      0.0154      0.0470      0.0000      0.0229      0.0523      0.0000      0.0000      0.0000
 84      0.0000      0.0238      0.0000      0.0698      0.1268      0.0000      0.0655      0.0000      0.0000
 85      0.0000      0.0259      0.2369      0.0000      0.0000      0.0000      0.0000      0.0000      0.2006
 86      0.0000      0.0166      0.0000      0.0000      0.0176      0.0000      0.0000      0.0000      0.0000
 87      0.0000      0.0147      0.0000      0.0000      0.0000      0.0000      0.0000      0.0133      0.0000
 88      0.0000      0.0103      0.0000      0.0000      0.0000      0.0140      0.0000      0.0012      0.0099
 89      0.0000      0.0134      0.0546      0.0000      0.0000      0.0000      0.0000      0.0000      0.0000
 90      0.0000      0.0147      0.0000      0.1806      0.0000      0.0000      0.0095      0.0000      0.0000
 91      0.0000      0.0565      0.0000      0.0434      0.0711      0.0000      0.0000      0.0000      0.0000
 92      0.0000      0.0459      0.0000      0.0000      0.0000      0.2553      0.2858      0.0729      0.0000
 93      0.0000      0.0864      0.0000      0.0000      0.0000      0.0368      0.4823      0.0000      0.0000
 94      1.1967      0.4067      1.0266      0.3066      0.4013      0.0378      0.3563      0.6265      1.1000
 95      6.6646      4.4945      3.5817      4.9233      4.6570      6.0838      4.7883      5.4564      6.3093
 96      3.3663      3.3751      3.5172      2.7448      3.7287      3.4046      3.3355      2.7562      2.8792
 97     14.9196     14.5748     14.6995     15.1764     14.7781     16.0037     14.8649     14.9326     14.4088
 98      0.6991      5.2636      4.6180      5.2977      4.7284      4.6958      3.6720      4.9453      3.5234
 99      0.0000      0.2059      0.0000      0.0967      0.0000      0.0000      0.2454      0.0000      0.4498
100      0.0000      0.1355      0.4730      0.0433      0.1189      0.0931      0.0000      0.1873      0.0000
101      0.0000      0.0124      0.0000      0.0028      0.0000      0.0000      0.0000      0.0000      0.0058
102      0.0000      0.0153      0.0000      0.0000      0.0000      0.0000      0.0000      0.0000      0.0000
103      0.0000      0.0680      0.0379      0.1725      0.0000      0.0000      0.0258      0.0000      0.1005
104      0.0000      0.0337      0.0362      0.0000      0.0000      0.0000      0.0000      0.0000      0.0000
105      0.0000      0.0180      0.0000      0.0000      0.0000      0.0000      0.0000      0.0000      0.2063
106      0.0000      0.0280      0.0538      0.0000      0.0000      0.0613      0.0000      0.0375      0.0558
107      0.0000      0.0212      0.0000      0.0040      0.0707      0.0000      0.0000      0.0000      0.0343
108      0.0000      0.0168      0.0070      0.0848      0.0743      0.0000      0.0000      0.0000      0.0000
109      0.0000      0.0166      0.0000      0.0000      0.0000      0.1125      0.0000      0.0000      0.0000
110      0.0000      0.0191      0.0000      0.0000      0.0000      0.0000      0.0000      0.2140      0.0000
111      0.0000      0.0086      0.0000      0.0000      0.0000      0.0000      0.0000      0.0000      0.0000
112      0.0000      0.0272      0.0000      0.0000      0.0000      0.0000      0.0000      0.0000      0.0000
113      0.0000      0.0101      0.0000      0.0897      0.0000      0.0398      0.0000      0.0000      0.0000
114      0.0000      0.0203      0.0000      0.0000      0.0000      0.0000      0.0000      0.0000      0.0000
115      0.0000      0.0321      0.0000      0.0000      0.0080      0.1185      0.0000      0.0000      0.0000
116      0.0000      0.0459      0.0000      0.0000      0.0000      0.0000      0.0000      0.0000      0.0000
117      0.0000      0.0451      0.0000      0.0000      0.0000      0.0000      0.0287      0.0000      0.0463
118      0.0000      0.0840      0.0390      0.0000      0.0000      0.0000      0.0000      0.0000      0.0406
119      0.0000      0.1042      0.0000      0.0000      0.0000      0.0000      0.0107      0.0000      0.0420
120      0.0000      0.1971      0.3193      0.2657      0.0762      0.4534      0.0570      0.0000      0.0000
121      0.0000      0.1795      0.1183      0.0729      0.0000      0.2197      0.0000      0.0000      0.0000
122      9.2859     10.1058     10.2623     10.5033      9.7719      9.1981     10.3336      9.8708      9.8481
123     11.8164     11.1076     10.9407     10.9732     11.9455     10.8115     11.1520     11.1708     11.4021
124     14.8822     13.7263     13.7487     13.7182     13.4328     13.5497     14.7932     13.9151     13.3838
125      8.6210      8.2592      8.4664      8.3014      8.2563      8.2078      8.2568      8.6710      8.3178
126      0.0000      0.0179      0.0000      0.0000      0.0000      0.0000      0.0000      0.0000      0.0000
127      0.0000      0.0126      0.0000      0.0000      0.1306      0.0129      0.0000      0.0644      0.0036
128      0.0000      0.0215      0.0048      0.0000      0.0000      0.0000      0.0000      0.0000      0.0419
129      0.0000      0.0153      0.0000      0.0104      0.0000      0.0000      0.0000      0.0000      0.0660
130      0.0000      0.0230      0.0143      0.0000      0.0000      0.0000      0.0000      0.0000      0.0000
131      0.0000      0.0224      0.0945      0.0000      0.0000      0.0000      0.0000      0.0000      0.0038
132      0.0000      0.0119      0.0000      0.0000      0.0000      0.0000      0.0056      0.0000      0.0000
133      0.0000      0.0126      0.0000      0.0000      0.0000      0.0000      0.0000      0.0000      0.0000
134      0.0000      0.0107      0.0000      0.0000      0.0000      0.0000      0.0340      0.0000      0.0000
135      0.0000      0.0133      0.0000      0.0661      0.0000      0.0000      0.0000      0.0000      0.0000
136      0.0000      0.0147      0.0000      0.1206      0.0088      0.0000      0.0000      0.0000      0.0000
137      0.0000      0.0150      0.0000      0.0000      0.0000      0.0000      0.0000      0.0000      0.0026
138      0.0000      0.0127      0.0000      0.0000      0.0000      0.0000      0.0000      0.0000      0.0000
139      0.0000      0.0127      0.0000      0.0056      0.0000      0.0000      0.0000      0.0000      0.0000
140      0.0000      0.0474      0.0671      0.0000      0.0000      0.0520      0.0000      0.0000      0.0000
141      0.0000      0.0477      0.0000      0.0000      0.0000      0.0000      0.0298      0.0000      0.0000
142      0.0000      0.0511      0.0000      0.0000      0.0134      0.0000      0.0000      0.0000      0.0000
143      0.0000      0.0629      0.2770      0.0429      0.0000      0.0187      0.0000      0.0000      0.0318
144      0.0000      0.2310      0.0506      0.1999      0.1480      0.2205      0.0000      0.1441      0.0924
145      0.6417      0.3428      0.3195      0.3380      0.4299      0.9785      0.2958      0.4893      0.7824
146      0.4610      0.2423      0.3825      0.0802      0.3800      0.0000      0.3675      0.3087      0.6062
147      0.1059      0.5553      0.5640      0.6731      0.5077      0.8613      0.3839      0.3553      0.5919
148      0.0000      0.0663      0.0000      0.0000      0.0000      0.0000      0.0100      0.0000      0.1757
149      0.0000      0.1495      0.0000      0.0000      0.0000      0.0000      0.1894      0.3006      0.1314
150      0.0000      0.0410      0.0000      0.0000      0.0000      0.0471      0.0000      0.0000      0.0000

# j      m_j: min, <> & last-chain-values for 1 ...  7 chains
  1  4.9732E-03  6.0353E-03  6.1874E-03  6.2605E-03  6.0674E-03  6.0303E-03  6.7060E-03  5.6962E-03  5.9778E-03
  2  2.0697E-03  1.4080E-03  1.4644E-03  1.5756E-03  1.4539E-03  1.5145E-03  1.3605E-03  1.3617E-03  1.3853E-03
  3  5.5492E-03  3.7744E-03  4.2389E-03  3.7282E-03  3.6854E-03  4.1027E-03  3.9739E-03  3.7771E-03  3.6015E-03
  4  0.0000E+00  1.7488E-04  1.1158E-04  2.0448E-05  0.0000E+00  2.7145E-04  0.0000E+00  0.0000E+00  0.0000E+00
  5  0.0000E+00  6.1264E-04  6.0439E-05  4.7234E-04  4.8178E-04  4.2477E-04  0.0000E+00  1.4594E-03  1.1125E-03
  6  5.7340E-03  5.0642E-03  5.6532E-03  5.5962E-03  5.1053E-03  5.0019E-03  4.5217E-03  4.7418E-03  4.8682E-03
  7  0.0000E+00  3.1696E-04  0.0000E+00  0.0000E+00  0.0000E+00  1.1251E-04  0.0000E+00  8.8070E-04  0.0000E+00
  8  5.0442E-03  4.2166E-03  4.4720E-03  4.1013E-03  4.6584E-03  4.1751E-03  4.2253E-03  4.8266E-03  5.0112E-03
  9  6.4667E-03  4.5302E-03  5.4326E-03  5.1655E-03  6.1068E-03  5.7301E-03  6.1864E-03  4.3892E-03  3.8028E-03
 10  3.8536E-03  2.2960E-03  1.8137E-03  2.0648E-03  2.1847E-03  2.6966E-03  2.8438E-03  1.8934E-03  1.9417E-03
 11  0.0000E+00  5.7842E-04  2.0840E-03  0.0000E+00  0.0000E+00  0.0000E+00  1.6179E-03  0.0000E+00  0.0000E+00
 12  0.0000E+00  2.5602E-04  0.0000E+00  0.0000E+00  0.0000E+00  0.0000E+00  0.0000E+00  0.0000E+00  1.4376E-03
 13  0.0000E+00  3.1807E-04  2.2309E-03  0.0000E+00  5.5935E-04  4.3407E-04  0.0000E+00  0.0000E+00  0.0000E+00
 14  0.0000E+00  4.0997E-04  0.0000E+00  0.0000E+00  1.5420E-04  0.0000E+00  0.0000E+00  0.0000E+00  0.0000E+00
 15  0.0000E+00  5.6986E-04  0.0000E+00  0.0000E+00  1.4427E-03  0.0000E+00  0.0000E+00  0.0000E+00  0.0000E+00
 16  0.0000E+00  9.9710E-04  0.0000E+00  0.0000E+00  8.9023E-03  0.0000E+00  0.0000E+00  0.0000E+00  0.0000E+00
 17  0.0000E+00  1.6443E-03  0.0000E+00  0.0000E+00  0.0000E+00  0.0000E+00  0.0000E+00  0.0000E+00  0.0000E+00
 18  0.0000E+00  3.6820E-03  1.8933E-02  0.0000E+00  8.2392E-03  0.0000E+00  0.0000E+00  0.0000E+00  0.0000E+00
 19  1.2913E-04  6.6588E-03  0.0000E+00  0.0000E+00  2.6593E-02  4.4064E-03  1.4236E-02  0.0000E+00  9.6215E-03
 20  0.0000E+00  1.2804E-02  0.0000E+00  0.0000E+00  0.0000E+00  0.0000E+00  7.4102E-03  5.5323E-02  0.0000E+00
 21  0.0000E+00  1.5555E-02  7.5638E-02  0.0000E+00  6.3148E-03  0.0000E+00  0.0000E+00  2.3191E-02  0.0000E+00
 22  0.0000E+00  1.8804E-02  0.0000E+00  7.0171E-02  0.0000E+00  3.3184E-02  1.9386E-03  0.0000E+00  0.0000E+00
 23  0.0000E+00  4.0773E-02  1.1390E-01  2.4992E-02  0.0000E+00  0.0000E+00  1.1717E-03  2.1024E-01  0.0000E+00
 24  0.0000E+00  2.5591E-02  7.6290E-03  0.0000E+00  0.0000E+00  3.6154E-02  2.4761E-02  6.8268E-02  0.0000E+00
 25  0.0000E+00  5.8220E-02  0.0000E+00  0.0000E+00  0.0000E+00  0.0000E+00  0.0000E+00  0.0000E+00  9.2206E-02
 26  1.5626E-03  1.9907E-03  1.9768E-03  1.8219E-03  2.2146E-03  1.9734E-03  1.8634E-03  2.1901E-03  2.1216E-03
 27  0.0000E+00  6.9765E-05  1.0525E-04  7.1073E-05  9.0578E-05  9.5732E-05  1.6725E-05  1.4763E-04  1.0026E-04
 28  9.8503E-04  6.2541E-04  8.7938E-04  8.4294E-04  7.4078E-04  5.4520E-04  6.6578E-04  4.4914E-04  5.2974E-04
 29  7.5263E-04  6.5755E-04  7.2768E-04  4.9749E-04  8.2251E-04  5.8937E-04  7.0180E-04  7.6589E-04  3.0262E-04
 30  0.0000E+00  1.6292E-04  0.0000E+00  0.0000E+00  0.0000E+00  0.0000E+00  0.0000E+00  0.0000E+00  0.0000E+00
 31  1.3035E-03  9.3590E-04  8.0329E-04  1.0778E-03  1.0732E-03  1.6189E-03  9.6120E-04  1.6613E-03  1.1212E-03
 32  1.0108E-03  1.1637E-03  6.3988E-04  1.1484E-03  1.0071E-03  1.0274E-03  1.5269E-03  0.0000E+00  1.0702E-03
 33  0.0000E+00  3.5448E-04  1.7631E-04  1.0332E-03  0.0000E+00  0.0000E+00  6.8647E-04  2.7594E-04  1.4146E-04
 34  6.8853E-04  4.6176E-04  0.0000E+00  9.3604E-04  1.5088E-03  0.0000E+00  0.0000E+00  1.1435E-03  0.0000E+00
 35  0.0000E+00  3.5550E-04  0.0000E+00  8.1956E-04  2.9865E-04  0.0000E+00  7.9844E-04  0.0000E+00  0.0000E+00
 36  0.0000E+00  2.5849E-04  0.0000E+00  1.1467E-03  0.0000E+00  0.0000E+00  0.0000E+00  2.0435E-03  0.0000E+00
 37  0.0000E+00  5.1460E-04  1.9344E-03  1.4914E-03  0.0000E+00  0.0000E+00  5.1270E-04  0.0000E+00  2.3349E-03
 38  0.0000E+00  1.3069E-04  1.4801E-03  0.0000E+00  0.0000E+00  0.0000E+00  0.0000E+00  0.0000E+00  1.9761E-03
 39  0.0000E+00  2.1466E-04  0.0000E+00  7.1345E-04  0.0000E+00  0.0000E+00  0.0000E+00  0.0000E+00  0.0000E+00
 40  0.0000E+00  6.3513E-04  0.0000E+00  0.0000E+00  0.0000E+00  0.0000E+00  0.0000E+00  0.0000E+00  0.0000E+00
 41  0.0000E+00  1.3334E-03  0.0000E+00  5.2554E-04  0.0000E+00  6.4870E-04  0.0000E+00  0.0000E+00  0.0000E+00
 42  0.0000E+00  1.7034E-03  1.0479E-02  0.0000E+00  0.0000E+00  0.0000E+00  0.0000E+00  0.0000E+00  0.0000E+00
 43  0.0000E+00  4.8687E-03  0.0000E+00  1.1416E-02  0.0000E+00  0.0000E+00  0.0000E+00  2.9911E-03  1.9559E-02
 44  0.0000E+00  1.5168E-02  5.3321E-03  4.8526E-03  3.3953E-03  1.1011E-01  0.0000E+00  3.5149E-02  3.8822E-02
 45  0.0000E+00  1.8155E-02  3.3479E-02  0.0000E+00  2.7361E-02  0.0000E+00  0.0000E+00  0.0000E+00  0.0000E+00
 46  0.0000E+00  2.6170E-02  0.0000E+00  9.2301E-02  2.1717E-02  6.8963E-02  0.0000E+00  0.0000E+00  3.0836E-02
 47  4.0941E-06  4.4650E-02  0.0000E+00  2.4760E-02  2.1425E-01  0.0000E+00  0.0000E+00  1.4222E-02  0.0000E+00
 48  1.6888E-04  3.4834E-02  0.0000E+00  0.0000E+00  1.7726E-01  0.0000E+00  0.0000E+00  0.0000E+00  0.0000E+00
 49  0.0000E+00  3.8169E-02  0.0000E+00  1.1771E-02  0.0000E+00  0.0000E+00  2.2775E-01  9.6377E-02  9.6239E-02
 50  0.0000E+00  5.3254E-02  7.2995E-02  1.3987E-01  0.0000E+00  0.0000E+00  4.4087E-02  3.1329E-02  1.8184E-02
 51  4.0994E-05  1.0958E-03  1.1535E-03  1.4072E-03  1.0477E-03  1.4147E-03  1.0170E-03  6.2605E-04  1.3445E-03
 52  6.9427E-04  5.0574E-04  4.8952E-04  5.4053E-04  4.8992E-04  7.4989E-04  4.9666E-04  5.6703E-04  3.7716E-04
 53  0.0000E+00  1.5252E-05  0.0000E+00  0.0000E+00  3.6944E-05  0.0000E+00  0.0000E+00  0.0000E+00  0.0000E+00
 54  1.4305E-03  9.9338E-04  1.0571E-03  9.2785E-04  1.1179E-03  8.6848E-04  1.2207E-03  1.0415E-03  1.0874E-03
 55  2.2568E-03  2.5893E-03  2.5218E-03  2.9190E-03  2.6039E-03  2.6741E-03  2.7594E-03  2.9790E-03  2.4746E-03
 56  6.4494E-04  8.0421E-04  7.3006E-04  5.7447E-04  1.0103E-03  6.9598E-04  6.6087E-04  7.2353E-04  1.0163E-03
 57  0.0000E+00  2.9217E-04  0.0000E+00  0.0000E+00  0.0000E+00  2.3611E-04  5.4624E-04  0.0000E+00  1.4461E-03
 58  0.0000E+00  1.4918E-04  1.9556E-04  0.0000E+00  2.1477E-04  6.2998E-04  0.0000E+00  0.0000E+00  0.0000E+00
 59  0.0000E+00  1.3995E-04  0.0000E+00  0.0000E+00  0.0000E+00  0.0000E+00  1.6183E-03  0.0000E+00  0.0000E+00
 60  0.0000E+00  3.1257E-04  1.2886E-04  0.0000E+00  0.0000E+00  0.0000E+00  0.0000E+00  0.0000E+00  0.0000E+00
 61  0.0000E+00  1.1311E-04  0.0000E+00  0.0000E+00  0.0000E+00  1.7887E-03  0.0000E+00  0.0000E+00  1.1552E-03
 62  0.0000E+00  1.6663E-04  2.0986E-04  0.0000E+00  0.0000E+00  0.0000E+00  1.4796E-03  0.0000E+00  9.8518E-04
 63  0.0000E+00  2.8785E-04  0.0000E+00  1.6355E-04  0.0000E+00  0.0000E+00  0.0000E+00  0.0000E+00  0.0000E+00
 64  0.0000E+00  6.8950E-04  0.0000E+00  0.0000E+00  5.2612E-04  0.0000E+00  0.0000E+00  0.0000E+00  0.0000E+00
 65  0.0000E+00  1.8580E-03  5.7600E-03  0.0000E+00  0.0000E+00  0.0000E+00  0.0000E+00  0.0000E+00  0.0000E+00
 66  7.9671E-03  5.1020E-03  2.8609E-03  3.3957E-03  1.0548E-02  0.0000E+00  0.0000E+00  0.0000E+00  0.0000E+00
 67  0.0000E+00  3.3312E-03  0.0000E+00  0.0000E+00  7.6077E-04  0.0000E+00  0.0000E+00  0.0000E+00  0.0000E+00
 68  0.0000E+00  1.3374E-02  0.0000E+00  5.8362E-03  0.0000E+00  0.0000E+00  1.6001E-02  0.0000E+00  4.7710E-02
 69  0.0000E+00  4.5420E-02  0.0000E+00  5.9997E-02  0.0000E+00  6.1687E-02  9.2888E-02  1.4205E-01  6.9837E-02
 70  0.0000E+00  5.2332E-02  2.7317E-03  0.0000E+00  0.0000E+00  0.0000E+00  9.2504E-02  1.0476E-01  0.0000E+00
 71  0.0000E+00  1.1618E-01  0.0000E+00  0.0000E+00  0.0000E+00  1.4704E-01  3.3165E-02  2.5750E-02  2.3660E-02
 72  7.0629E-03  2.4766E-01  2.2336E-01  0.0000E+00  7.4791E-01  1.6373E-01  4.4647E-01  2.9044E-01  3.1765E-01
 73  1.5641E+00  7.9427E-01  2.6302E-01  1.2853E+00  7.4134E-01  1.7279E-01  7.5627E-01  8.7979E-01  7.6860E-01
 74  2.0190E+00  8.7678E-01  2.2149E+00  1.0700E+00  1.3662E+00  1.1481E+00  9.3033E-01  4.8794E-01  1.1133E+00
 75  1.3132E+00  6.7202E-01  1.0819E+00  9.5148E-01  6.2441E-01  7.4825E-01  1.0957E+00  1.0081E+00  9.3602E-01
 76  0.0000E+00  4.3792E-05  1.6649E-04  0.0000E+00  0.0000E+00  0.0000E+00  0.0000E+00  3.5218E-05  0.0000E+00
 77  0.0000E+00  1.0718E-04  0.0000E+00  0.0000E+00  0.0000E+00  1.6180E-05  2.3164E-04  0.0000E+00  1.5372E-04
 78  0.0000E+00  1.4106E-05  0.0000E+00  0.0000E+00  0.0000E+00  0.0000E+00  0.0000E+00  8.2645E-05  0.0000E+00
 79  0.0000E+00  2.6712E-05  0.0000E+00  0.0000E+00  0.0000E+00  0.0000E+00  0.0000E+00  0.0000E+00  0.0000E+00
 80  0.0000E+00  3.1054E-05  0.0000E+00  0.0000E+00  0.0000E+00  3.2437E-05  2.4493E-05  0.0000E+00  0.0000E+00
 81  0.0000E+00  3.1211E-05  0.0000E+00  0.0000E+00  0.0000E+00  0.0000E+00  0.0000E+00  3.3432E-04  0.0000E+00
 82  0.0000E+00  5.6422E-05  2.9635E-05  0.0000E+00  0.0000E+00  0.0000E+00  0.0000E+00  0.0000E+00  0.0000E+00
 83  0.0000E+00  6.6017E-05  2.0071E-04  0.0000E+00  9.8414E-05  2.2584E-04  0.0000E+00  0.0000E+00  0.0000E+00
 84  0.0000E+00  1.4068E-04  0.0000E+00  4.1390E-04  7.5293E-04  0.0000E+00  3.8570E-04  0.0000E+00  0.0000E+00
 85  0.0000E+00  1.8607E-04  1.7021E-03  0.0000E+00  0.0000E+00  0.0000E+00  0.0000E+00  0.0000E+00  1.4445E-03
 86  0.0000E+00  1.6128E-04  0.0000E+00  0.0000E+00  1.7244E-04  0.0000E+00  0.0000E+00  0.0000E+00  0.0000E+00
 87  0.0000E+00  1.9038E-04  0.0000E+00  0.0000E+00  0.0000E+00  0.0000E+00  0.0000E+00  1.7124E-04  0.0000E+00
 88  0.0000E+00  2.0268E-04  0.0000E+00  0.0000E+00  0.0000E+00  2.7977E-04  0.0000E+00  2.4077E-05  1.9674E-04
 89  0.0000E+00  4.4174E-04  1.7964E-03  0.0000E+00  0.0000E+00  0.0000E+00  0.0000E+00  0.0000E+00  0.0000E+00
 90  0.0000E+00  8.9216E-04  0.0000E+00  1.1012E-02  0.0000E+00  0.0000E+00  5.7416E-04  0.0000E+00  0.0000E+00
 91  0.0000E+00  4.4221E-03  0.0000E+00  3.4082E-03  5.5915E-03  0.0000E+00  0.0000E+00  0.0000E+00  0.0000E+00
 92  0.0000E+00  4.8036E-03  0.0000E+00  0.0000E+00  0.0000E+00  2.6983E-02  2.9754E-02  7.5688E-03  0.0000E+00
 93  0.0000E+00  1.8360E-02  0.0000E+00  0.0000E+00  0.0000E+00  7.8964E-03  1.0201E-01  0.0000E+00  0.0000E+00
 94  4.5871E-01  1.5494E-01  3.9109E-01  1.1702E-01  1.5346E-01  1.4572E-02  1.3518E-01  2.3694E-01  4.1992E-01
 95  3.4415E+00  2.3067E+00  1.8382E+00  2.5312E+00  2.3988E+00  3.1557E+00  2.4470E+00  2.7800E+00  3.2448E+00
 96  2.0972E+00  2.0899E+00  2.1778E+00  1.7026E+00  2.3172E+00  2.1306E+00  2.0565E+00  1.6942E+00  1.7865E+00
 97  1.2111E+01  1.1759E+01  1.1860E+01  1.2266E+01  1.1967E+01  1.3050E+01  1.1942E+01  1.1960E+01  1.1650E+01
 98  7.2783E-01  5.4462E+00  4.7780E+00  5.4910E+00  4.9102E+00  4.9104E+00  3.7831E+00  5.0794E+00  3.6532E+00
 99  0.0000E+00  2.4286E-01  0.0000E+00  1.1425E-01  0.0000E+00  0.0000E+00  2.8817E-01  0.0000E+00  5.3162E-01
100  0.0000E+00  1.8400E-01  6.4222E-01  5.8883E-02  1.6201E-01  1.2779E-01  0.0000E+00  2.5243E-01  0.0000E+00
101  0.0000E+00  1.8473E-05  0.0000E+00  4.2525E-06  0.0000E+00  0.0000E+00  0.0000E+00  0.0000E+00  8.7486E-06
102  0.0000E+00  1.1865E-05  0.0000E+00  0.0000E+00  0.0000E+00  0.0000E+00  0.0000E+00  0.0000E+00  0.0000E+00
103  0.0000E+00  5.8523E-05  3.2617E-05  1.4874E-04  0.0000E+00  0.0000E+00  2.2076E-05  0.0000E+00  8.6688E-05
104  0.0000E+00  3.8117E-05  4.0993E-05  0.0000E+00  0.0000E+00  0.0000E+00  0.0000E+00  0.0000E+00  0.0000E+00
105  0.0000E+00  4.3103E-05  0.0000E+00  0.0000E+00  0.0000E+00  0.0000E+00  0.0000E+00  0.0000E+00  4.9408E-04
106  0.0000E+00  7.1949E-05  1.3831E-04  0.0000E+00  0.0000E+00  1.5951E-04  0.0000E+00  9.5864E-05  1.4379E-04
107  0.0000E+00  7.2889E-05  0.0000E+00  1.3851E-05  2.4391E-04  0.0000E+00  0.0000E+00  0.0000E+00  1.1803E-04
108  0.0000E+00  9.5905E-05  3.9847E-05  4.8602E-04  4.2703E-04  0.0000E+00  0.0000E+00  0.0000E+00  0.0000E+00
109  0.0000E+00  1.1430E-04  0.0000E+00  0.0000E+00  0.0000E+00  7.8147E-04  0.0000E+00  0.0000E+00  0.0000E+00
110  0.0000E+00  1.5714E-04  0.0000E+00  0.0000E+00  0.0000E+00  0.0000E+00  0.0000E+00  1.7457E-03  0.0000E+00
111  0.0000E+00  9.8302E-05  0.0000E+00  0.0000E+00  0.0000E+00  0.0000E+00  0.0000E+00  0.0000E+00  0.0000E+00
112  0.0000E+00  4.0897E-04  0.0000E+00  0.0000E+00  0.0000E+00  0.0000E+00  0.0000E+00  0.0000E+00  0.0000E+00
113  0.0000E+00  2.2684E-04  0.0000E+00  2.0186E-03  0.0000E+00  9.0229E-04  0.0000E+00  0.0000E+00  0.0000E+00
114  0.0000E+00  8.0281E-04  0.0000E+00  0.0000E+00  0.0000E+00  0.0000E+00  0.0000E+00  0.0000E+00  0.0000E+00
115  0.0000E+00  2.5352E-03  0.0000E+00  0.0000E+00  6.3614E-04  9.4725E-03  0.0000E+00  0.0000E+00  0.0000E+00
116  0.0000E+00  5.8277E-03  0.0000E+00  0.0000E+00  0.0000E+00  0.0000E+00  0.0000E+00  0.0000E+00  0.0000E+00
117  0.0000E+00  6.7385E-03  0.0000E+00  0.0000E+00  0.0000E+00  0.0000E+00  4.2724E-03  0.0000E+00  6.9278E-03
118  0.0000E+00  2.5439E-02  1.1803E-02  0.0000E+00  0.0000E+00  0.0000E+00  0.0000E+00  0.0000E+00  1.2331E-02
119  0.0000E+00  5.4558E-02  0.0000E+00  0.0000E+00  0.0000E+00  0.0000E+00  5.5537E-03  0.0000E+00  2.2012E-02
120  0.0000E+00  1.4697E-01  2.3801E-01  1.9844E-01  5.7008E-02  3.4163E-01  4.2303E-02  0.0000E+00  0.0000E+00
121  0.0000E+00  1.5746E-01  1.0376E-01  6.4065E-02  0.0000E+00  1.9474E-01  0.0000E+00  0.0000E+00  0.0000E+00
122  1.0965E+01  1.1861E+01  1.2044E+01  1.2349E+01  1.1511E+01  1.0910E+01  1.2076E+01  1.1500E+01  1.1582E+01
123  1.8405E+01  1.7196E+01  1.6937E+01  1.7017E+01  1.8560E+01  1.6915E+01  1.7190E+01  1.7167E+01  1.7688E+01
124  2.6615E+01  2.4398E+01  2.4437E+01  2.4426E+01  2.3963E+01  2.4341E+01  2.6182E+01  2.4553E+01  2.3839E+01
125  1.8452E+01  1.7570E+01  1.8010E+01  1.7691E+01  1.7628E+01  1.7647E+01  1.7490E+01  1.8312E+01  1.7732E+01
126  0.0000E+00  2.0093E-05  0.0000E+00  0.0000E+00  0.0000E+00  0.0000E+00  0.0000E+00  0.0000E+00  0.0000E+00
127  0.0000E+00  7.4506E-06  0.0000E+00  0.0000E+00  7.7458E-05  7.6911E-06  0.0000E+00  3.7811E-05  2.1613E-06
128  0.0000E+00  1.8871E-05  4.2038E-06  0.0000E+00  0.0000E+00  0.0000E+00  0.0000E+00  0.0000E+00  3.6796E-05
129  0.0000E+00  2.7417E-05  0.0000E+00  1.8641E-05  0.0000E+00  0.0000E+00  0.0000E+00  0.0000E+00  1.1862E-04
130  0.0000E+00  5.6125E-05  3.4918E-05  0.0000E+00  0.0000E+00  0.0000E+00  0.0000E+00  0.0000E+00  0.0000E+00
131  0.0000E+00  6.3478E-05  2.6748E-04  0.0000E+00  0.0000E+00  0.0000E+00  0.0000E+00  0.0000E+00  1.0694E-05
132  0.0000E+00  4.5742E-05  0.0000E+00  0.0000E+00  0.0000E+00  0.0000E+00  2.1410E-05  0.0000E+00  0.0000E+00
133  0.0000E+00  7.0351E-05  0.0000E+00  0.0000E+00  0.0000E+00  0.0000E+00  0.0000E+00  0.0000E+00  0.0000E+00
134  0.0000E+00  7.5854E-05  0.0000E+00  0.0000E+00  0.0000E+00  0.0000E+00  2.3966E-04  0.0000E+00  0.0000E+00
135  0.0000E+00  1.1359E-04  0.0000E+00  5.6412E-04  0.0000E+00  0.0000E+00  0.0000E+00  0.0000E+00  0.0000E+00
136  0.0000E+00  1.8034E-04  0.0000E+00  1.4837E-03  1.0789E-04  0.0000E+00  0.0000E+00  0.0000E+00  0.0000E+00
137  0.0000E+00  2.5089E-04  0.0000E+00  0.0000E+00  0.0000E+00  0.0000E+00  0.0000E+00  0.0000E+00  4.3613E-05
138  0.0000E+00  3.5567E-04  0.0000E+00  0.0000E+00  0.0000E+00  0.0000E+00  0.0000E+00  0.0000E+00  0.0000E+00
139  0.0000E+00  6.7053E-04  0.0000E+00  2.9560E-04  0.0000E+00  0.0000E+00  0.0000E+00  0.0000E+00  0.0000E+00
140  0.0000E+00  5.7821E-03  8.1834E-03  0.0000E+00  0.0000E+00  6.4139E-03  0.0000E+00  0.0000E+00  0.0000E+00
141  0.0000E+00  8.9033E-03  0.0000E+00  0.0000E+00  0.0000E+00  0.0000E+00  5.5346E-03  0.0000E+00  0.0000E+00
142  0.0000E+00  1.1346E-02  0.0000E+00  0.0000E+00  2.9963E-03  0.0000E+00  0.0000E+00  0.0000E+00  0.0000E+00
143  0.0000E+00  2.7764E-02  1.2229E-01  1.8952E-02  0.0000E+00  8.3409E-03  0.0000E+00  0.0000E+00  1.4069E-02
144  0.0000E+00  2.0032E-01  4.3847E-02  1.7364E-01  1.2885E-01  1.9325E-01  0.0000E+00  1.2403E-01  8.0341E-02
145  8.3351E-01  4.4255E-01  4.1248E-01  4.3716E-01  5.5705E-01  1.2766E+00  3.8027E-01  6.2712E-01  1.0121E+00
146  7.1508E-01  3.7362E-01  5.8976E-01  1.2385E-01  5.8793E-01  0.0000E+00  5.6419E-01  4.7248E-01  9.3651E-01
147  2.2082E-01  1.1503E+00  1.1684E+00  1.3968E+00  1.0556E+00  1.8032E+00  7.9181E-01  7.3069E-01  1.2287E+00
148  0.0000E+00  1.8592E-01  0.0000E+00  0.0000E+00  0.0000E+00  0.0000E+00  2.7916E-02  0.0000E+00  4.9393E-01
149  0.0000E+00  4.9127E-01  0.0000E+00  0.0000E+00  0.0000E+00  0.0000E+00  6.1981E-01  9.8068E-01  4.3271E-01
150  0.0000E+00  1.6059E-01  0.0000E+00  0.0000E+00  0.0000E+00  1.8650E-01  0.0000E+00  0.0000E+00  0.0000E+00

# AV, chi2 & Mass for <> & i_chain = 1 ...  7 solutions
AV       1.5656      1.5504      1.5592      1.5567      1.5553      1.5524      1.5518      1.5468      1.5512
chi2 3.1442E+00  3.2397E+00  3.2164E+00  3.2149E+00  3.2094E+00  3.2131E+00  3.2259E+00  3.2264E+00  3.2221E+00
Mass 1.1856E-09  1.1689E-09  1.1829E-09  1.1767E-09  1.1723E-09  1.1596E-09  1.1761E-09  1.1717E-09  1.1677E-09
  -7.34                                  [v0_min (km/s) before EX0s...]
  60.39                                  [vd_min (km/s) before EX0s...]


## Synthetic spectrum (Best Model) ##l_obs f_obs f_syn wei
 3070    [Nl_obs]
 3359.00    0.23214   0.36890   -1.000
 3360.00    0.22166   0.34625   -1.000
 3361.00    0.25036   0.34889   -1.000
 3362.00    0.25547   0.37437   -1.000
 3363.00    0.24920   0.40784   -1.000
 3364.00    0.26283   0.43113   -1.000
 3365.00    0.28177   0.43326   -1.000
 3366.00    0.30534   0.41672   -1.000
 3367.00    0.28968   0.39405   -1.000
 3368.00    0.31082   0.37443   -1.000
 3369.00    0.31727   0.36277   -1.000
 3370.00    0.27558   0.35710   -1.000
 3371.00    0.26882   0.35570   -1.000
 3372.00    0.26772   0.36215   -1.000
 3373.00    0.26515   0.38023   -1.000
 3374.00    0.28518   0.40737   -1.000
 3375.00    0.30189   0.43564   -1.000
 3376.00    0.32154   0.45267   -1.000
 3377.00    0.32365   0.44884   -1.000
 3378.00    0.30544   0.42828   -1.000
 3379.00    0.29965   0.40597   -1.000
 3380.00    0.29311   0.39525   -1.000
 3381.00    0.30870   0.40125   -1.000
 3382.00    0.31024   0.41622   -1.000
 3383.00    0.30634   0.43115   -1.000
 3384.00    0.31709   0.44257   -1.000
 3385.00    0.31183   0.45141   -1.000
 3386.00    0.32668   0.45550   -1.000
 3387.00    0.33769   0.45552   -1.000
 3388.00    0.32517   0.45429   -1.000
 3389.00    0.35513   0.45246   -1.000
 3390.00    0.34803   0.44619   -1.000
 3391.00    0.34521   0.43263   -1.000
 3392.00    0.34708   0.41896   -1.000
 3393.00    0.33287   0.41589   -1.000
 3394.00    0.34903   0.42712   -1.000
 3395.00    0.35904   0.44731   -1.000
 3396.00    0.36295   0.46696   -1.000
 3397.00    0.36829   0.48398   -1.000
 3398.00    0.39072   0.49659   -1.000
 3399.00    0.39058   0.50109   -1.000
 3400.00    0.37579   0.49767   -1.000
 3401.00    0.38656   0.48781   -1.000
 3402.00    0.37923   0.47370   -1.000
 3403.00    0.39542   0.46110   -1.000
 3404.00    0.37978   0.45212   -1.000
 3405.00    0.39295   0.44476   50.981
 3406.00    0.40366   0.43748   51.798
 3407.00    0.41447   0.43221   52.084
 3408.00    0.40103   0.43244   51.763
 3409.00    0.38954   0.43829   50.194
 3410.00    0.39670   0.44512   49.797
 3411.00    0.40477   0.44310   51.956
 3412.00    0.40777   0.43003   52.917
 3413.00    0.40564   0.41357   52.800
 3414.00    0.39128   0.40453   51.485
 3415.00    0.40589   0.41059   49.269
 3416.00    0.38312   0.42827   46.936
 3417.00    0.38054   0.45152   -1.000
 3418.00    0.40194   0.47381   -1.000
 3419.00    0.44485   0.49129   44.069
 3420.00    0.44553   0.49721   44.340
 3421.00    0.42332   0.48827   45.648
 3422.00    0.43914   0.47076   46.681
 3423.00    0.45207   0.45909   45.339
 3424.00    0.44384   0.45686   44.143
 3425.00    0.41589   0.45989   43.907
 3426.00    0.40483   0.46487   -1.000
 3427.00    0.43956   0.47370   -1.000
 3428.00    0.45552   0.48998   -1.000
 3429.00    0.44777   0.50631   -1.000
 3430.00    0.47203   0.50731   -1.000
 3431.00    0.44603   0.49223   44.596
 3432.00    0.44118   0.47208   43.783
 3433.00    0.43796   0.46229   -1.000
 3434.00    0.42961   0.46673   -1.000
 3435.00    0.40632   0.47346   44.176
 3436.00    0.41697   0.47158   45.825
 3437.00    0.41880   0.45765   48.591
 3438.00    0.42671   0.43293   52.477
 3439.00    0.41322   0.40130   54.586
 3440.00    0.37383   0.37189   54.668
 3441.00    0.35777   0.35325   54.433
 3442.00    0.33597   0.35146   52.257
 3443.00    0.34866   0.36245   49.388
 3444.00    0.38041   0.37837   46.651
 3445.00    0.39621   0.39502   45.035
 3446.00    0.38669   0.41354   -1.000
 3447.00    0.40599   0.43428   -1.000
 3448.00    0.45813   0.45684  377.136
 3449.00    0.47428   0.47459  377.136
 3450.00    0.45771   0.47753   -1.000
 3451.00    0.45516   0.46646   -1.000
 3452.00    0.43772   0.45486   -1.000
 3453.00    0.44847   0.45288  377.136
 3454.00    0.47215   0.46067   -1.000
 3455.00    0.46681   0.46650  377.136
 3456.00    0.42495   0.46080   -1.000
 3457.00    0.44163   0.44426   43.902
 3458.00    0.43778   0.42399   44.499
 3459.00    0.41502   0.40906   44.358
 3460.00    0.43478   0.40222   -1.000
 3461.00    0.44050   0.40713   -1.000
 3462.00    0.42279   0.42494  377.136
 3463.00    0.42314   0.44554   -1.000
 3464.00    0.45434   0.45276  377.136
 3465.00    0.47852   0.44983   -1.000
 3466.00    0.45420   0.44824   -1.000
 3467.00    0.42907   0.45554   -1.000
 3468.00    0.46239   0.47065  371.043
 3469.00    0.49396   0.48405   -1.000
 3470.00    0.49062   0.48734  377.136
 3471.00    0.48645   0.47641   -1.000
 3472.00    0.48117   0.45488   -1.000
 3473.00    0.44392   0.42843   44.285
 3474.00    0.44934   0.40379   45.935
 3475.00    0.43598   0.38839   45.442
 3476.00    0.43855   0.39040   -1.000
 3477.00    0.44643   0.40741   -1.000
 3478.00    0.42781   0.43024  376.375
 3479.00    0.46933   0.44910   -1.000
 3480.00    0.48107   0.45892   -1.000
 3481.00    0.47174   0.45798   -1.000
 3482.00    0.45680   0.44883   -1.000
 3483.00    0.45208   0.43968   -1.000
 3484.00    0.47269   0.44079   -1.000
 3485.00    0.47823   0.45509   -1.000
 3486.00    0.49505   0.47211   -1.000
 3487.00    0.48288   0.47783  377.136
 3488.00    0.47660   0.46434   -1.000
 3489.00    0.47286   0.43950   -1.000
 3490.00    0.44425   0.41869   -1.000
 3491.00    0.43635   0.41280   -1.000
 3492.00    0.45608   0.42057   -1.000
 3493.00    0.45553   0.43238   -1.000
 3494.00    0.44095   0.43836  377.136
 3495.00    0.43041   0.43374  377.136
 3496.00    0.42752   0.42715  377.136
 3497.00    0.42935   0.43281  368.143
 3498.00    0.42401   0.45564   -1.000
 3499.00    0.44948   0.48221   -1.000
 3500.00    0.47823   0.49745   -1.000
 3501.00    0.49041   0.50553   -1.000
 3502.00    0.51406   0.51294  350.048
 3503.00    0.54367   0.51616   -1.000
 3504.00    0.53300   0.51062   -1.000
 3505.00    0.51239   0.49879   -1.000
 3506.00    0.52084   0.48921   -1.000
 3507.00    0.51170   0.48608   -1.000
 3508.00    0.50492   0.48260   -1.000
 3509.00    0.49036   0.47316   -1.000
 3510.00    0.47203   0.46094   -1.000
 3511.00    0.46860   0.44825   -1.000
 3512.00    0.48682   0.43542   -1.000
 3513.00    0.47678   0.42454   -1.000
 3514.00    0.45363   0.42444   -1.000
 3515.00    0.43885   0.44423  352.315
 3516.00    0.44173   0.47722   -1.000
 3517.00    0.47092   0.50473   -1.000
 3518.00    0.50191   0.51318   -1.000
 3519.00    0.50230   0.50024  377.136
 3520.00    0.48831   0.47566   -1.000
 3521.00    0.46468   0.44927   -1.000
 3522.00    0.44456   0.42739   43.944
 3523.00    0.43174   0.40781   45.463
 3524.00    0.41478   0.39183   46.906
 3525.00    0.39412   0.38779   -1.000
 3526.00    0.38708   0.40234   -1.000
 3527.00    0.40183   0.43218   -1.000
 3528.00    0.44392   0.46585   -1.000
 3529.00    0.47502   0.48834   -1.000
 3530.00    0.49956   0.49370  374.462
 3531.00    0.49166   0.48796  370.117
 3532.00    0.47098   0.48556   -1.000
 3533.00    0.47899   0.49222   -1.000
 3534.00    0.51004   0.50343  351.020
 3535.00    0.52134   0.51139   -1.000
 3536.00    0.51746   0.51396  348.885
 3537.00    0.50565   0.51817   -1.000
 3538.00    0.51705   0.52622   -1.000
 3539.00    0.53181   0.53054  354.569
 3540.00    0.51865   0.52633  357.290
 3541.00    0.52846   0.51806   -1.000
 3542.00    0.51248   0.51656  349.551
 3543.00    0.49989   0.52406   -1.000
 3544.00    0.50568   0.53238   -1.000
 3545.00    0.50110   0.53424   -1.000
 3546.00    0.47497   0.52875   -1.000
 3547.00    0.47590   0.52311   -1.000
 3548.00    0.50241   0.52208   -1.000
 3549.00    0.49639   0.52341   -1.000
 3550.00    0.48528   0.52144   -1.000
 3551.00    0.48493   0.51234   -1.000
 3552.00    0.48338   0.49799   -1.000
 3553.00    0.46193   0.48521   -1.000
 3554.00    0.46258   0.48149   -1.000
 3555.00    0.44952   0.48581   -1.000
 3556.00    0.45632   0.49019   -1.000
 3557.00    0.46502   0.48985   -1.000
 3558.00    0.45643   0.48596   -1.000
 3559.00    0.44524   0.48592   -1.000
 3560.00    0.43134   0.49400   -1.000
 3561.00    0.46143   0.50608   -1.000
 3562.00    0.46713   0.51048   -1.000
 3563.00    0.47244   0.49424   44.443
 3564.00    0.43904   0.45951   46.119
 3565.00    0.43017   0.42464   45.579
 3566.00    0.38751   0.40906   45.446
 3567.00    0.38501   0.40807   46.978
 3568.00    0.41197   0.40511   47.671
 3569.00    0.40519   0.39548   46.103
 3570.00    0.39296   0.38806   47.053
 3571.00    0.39225   0.39338  377.136
 3572.00    0.38712   0.41007   -1.000
 3573.00    0.42312   0.42639  377.136
 3574.00    0.45186   0.43749   -1.000
 3575.00    0.44495   0.44312  377.136
 3576.00    0.42939   0.44206   -1.000
 3577.00    0.42571   0.43159   46.064
 3578.00    0.43388   0.41108   49.681
 3579.00    0.40956   0.38386   52.217
 3580.00    0.37112   0.36020   52.519
 3581.00    0.35414   0.34846   52.817
 3582.00    0.35405   0.35033   54.200
 3583.00    0.34094   0.35600   55.921
 3584.00    0.34685   0.35551   56.405
 3585.00    0.34173   0.34941   53.496
 3586.00    0.34309   0.34703   50.661
 3587.00    0.35811   0.35563   48.034
 3588.00    0.38140   0.37602   47.364
 3589.00    0.38049   0.40562   -1.000
 3590.00    0.39293   0.43699   -1.000
 3591.00    0.42066   0.46068   -1.000
 3592.00    0.45610   0.47032   -1.000
 3593.00    0.45763   0.47352   -1.000
 3594.00    0.45971   0.48176   -1.000
 3595.00    0.46876   0.49942   -1.000
 3596.00    0.49569   0.52015   -1.000
 3597.00    0.48713   0.53541   -1.000
 3598.00    0.50614   0.54681   -1.000
 3599.00    0.52866   0.55454   -1.000
 3600.00    0.52849   0.55053   -1.000
 3601.00    0.52759   0.53061  377.136
 3602.00    0.51948   0.50144   -1.000
 3603.00    0.48513   0.47360   -1.000
 3604.00    0.46424   0.45658   -1.000
 3605.00    0.44815   0.45046  377.136
 3606.00    0.46324   0.44655   -1.000
 3607.00    0.44376   0.43642   -1.000
 3608.00    0.41570   0.42320  377.136
 3609.00    0.41909   0.41888  377.136
 3610.00    0.43020   0.43036  377.136
 3611.00    0.46054   0.45145   -1.000
 3612.00    0.49783   0.46931   -1.000
 3613.00    0.48937   0.48359  357.540
 3614.00    0.48662   0.49748   -1.000
 3615.00    0.50153   0.50480  377.136
 3616.00    0.49862   0.49315  233.222
 3617.00    0.47079   0.45965   47.744
 3618.00    0.43805   0.42361   -1.000
 3619.00    0.42303   0.41415   -1.000
 3620.00    0.43024   0.43537  351.764
 3621.00    0.45049   0.47316   -1.000
 3622.00    0.48952   0.50716   -1.000
 3623.00    0.51851   0.53025   -1.000
 3624.00    0.53533   0.55117   -1.000
 3625.00    0.55737   0.57786   -1.000
 3626.00    0.55342   0.60394   -1.000
 3627.00    0.57736   0.61512   -1.000
 3628.00    0.57753   0.59933   -1.000
 3629.00    0.57048   0.55482   -1.000
 3630.00    0.52806   0.49825   -1.000
 3631.00    0.47807   0.45862   -1.000
 3632.00    0.44053   0.44789  377.136
 3633.00    0.45198   0.46160   -1.000
 3634.00    0.45778   0.48407   -1.000
 3635.00    0.47162   0.50376   -1.000
 3636.00    0.51174   0.51915  326.868
 3637.00    0.53143   0.53804  317.103
 3638.00    0.56838   0.56156  317.785
 3639.00    0.57133   0.58134   -1.000
 3640.00    0.58423   0.58864  338.063
 3641.00    0.58224   0.57913  355.715
 3642.00    0.54796   0.55765   -1.000
 3643.00    0.51457   0.53332   -1.000
 3644.00    0.49628   0.51120   -1.000
 3645.00    0.49578   0.49228  377.136
 3646.00    0.48986   0.47494   -1.000
 3647.00    0.46823   0.46195  371.393
 3648.00    0.48340   0.46167   -1.000
 3649.00    0.48492   0.47735  338.852
 3650.00    0.51623   0.50652   -1.000
 3651.00    0.53793   0.54114  317.844
 3652.00    0.54458   0.57188   -1.000
 3653.00    0.56286   0.59033   -1.000
 3654.00    0.56881   0.60040   -1.000
 3655.00    0.57825   0.60929   -1.000
 3656.00    0.59793   0.62190   -1.000
 3657.00    0.61107   0.63647   -1.000
 3658.00    0.61611   0.64651   -1.000
 3659.00    0.63553   0.64991   -1.000
 3660.00    0.63501   0.64597   -1.000
 3661.00    0.61016   0.63443   -1.000
 3662.00    0.60387   0.61876   -1.000
 3663.00    0.59814   0.60683   -1.000
 3664.00    0.58808   0.60216   -1.000
 3665.00    0.58882   0.60261   -1.000
 3666.00    0.59196   0.60091   -1.000
 3667.00    0.60126   0.59174  329.920
 3668.00    0.61164   0.57806   -1.000
 3669.00    0.59481   0.57060   -1.000
 3670.00    0.57678   0.57913  308.950
 3671.00    0.58141   0.59812   -1.000
 3672.00    0.59875   0.61450   -1.000
 3673.00    0.61725   0.62173  309.987
 3674.00    0.62056   0.61939  319.823
 3675.00    0.60675   0.60764  329.763
 3676.00    0.59365   0.58683  339.560
 3677.00    0.56940   0.56056  346.909
 3678.00    0.55539   0.53561   -1.000
 3679.00    0.52901   0.52093  335.340
 3680.00    0.53374   0.52301   -1.000
 3681.00    0.53370   0.53848  325.046
 3682.00    0.54700   0.55602   -1.000
 3683.00    0.56467   0.56409  347.813
 3684.00    0.54652   0.55478  361.055
 3685.00    0.53548   0.52997  365.044
 3686.00    0.51499   0.50342   -1.000
 3687.00    0.49681   0.49474  328.779
 3688.00    0.50961   0.51182  308.660
 3689.00    0.53164   0.54934   -1.000
 3690.00    0.58013   0.59034   -1.000
 3691.00    0.62994   0.61615   -1.000
 3692.00    0.62296   0.61692  315.887
 3693.00    0.61594   0.60273   -1.000
 3694.00    0.59771   0.58989  311.203
 3695.00    0.57593   0.58549   -1.000
 3696.00    0.57292   0.59146   -1.000
 3697.00    0.60457   0.60796  289.578
 3698.00    0.62641   0.63110  287.121
 3699.00    0.64710   0.65018  293.910
 3700.00    0.66548   0.65575  309.611
 3701.00    0.65586   0.64050   -1.000
 3702.00    0.63207   0.60151   -1.000
 3703.00    0.59073   0.54701   -1.000
 3704.00    0.54674   0.49615   -1.000
 3705.00    0.51179   0.46343   -1.000
 3706.00    0.48636   0.45489   -1.000
 3707.00    0.49577   0.46112   -1.000
 3708.00    0.49874   0.47410   -1.000
 3709.00    0.52201   0.49538   -1.000
 3710.00    0.55181   0.52664   -1.000
 3711.00    0.59565   0.56361   -1.000
 3712.00    0.63338   0.60149   -1.000
 3713.00    0.64713   0.63149   -1.000
 3714.00    0.65738   0.64450   -1.000
 3715.00    0.66060   0.63814   -1.000
 3716.00    0.63581   0.61419   -1.000
 3717.00    0.61697   0.57253   -1.000
 3718.00    0.55879   0.51582   -1.000
 3719.00    0.49185   0.45372   51.677
 3720.00    0.43790   0.40575   -1.000
 3721.00    0.42046   0.39307   -1.000
 3722.00    0.43478   0.41719   -1.000
 3723.00    0.47540   0.46486   -1.000
 3724.00    0.53445   0.51554   -1.000
 3725.00    0.56472   0.54682   -1.000
 3726.00    0.56405   0.55034   -1.000
 3727.00    0.54298   0.54231  327.461
 3728.00    0.52775   0.54078   -1.000
 3729.00    0.53656   0.54246  351.531
 3730.00    0.56158   0.53303   -1.000
 3731.00    0.54422   0.50063   44.512
 3732.00    0.48546   0.44869   49.338
 3733.00    0.44385   0.39533   50.416
 3734.00    0.41047   0.35541   47.456
 3735.00    0.38055   0.34131   51.121
 3736.00    0.38460   0.35753   -1.000
 3737.00    0.41540   0.39918   -1.000
 3738.00    0.44400   0.45483  327.065
 3739.00    0.49591   0.50984   -1.000
 3740.00    0.53922   0.54463  342.390
 3741.00    0.55274   0.54910  364.166
 3742.00    0.53127   0.52669  377.136
 3743.00    0.50867   0.49167   -1.000
 3744.00    0.49039   0.45774   -1.000
 3745.00    0.46354   0.43331   44.819
 3746.00    0.43080   0.41243   47.331
 3747.00    0.41202   0.38963   56.288
 3748.00    0.40337   0.37096   -1.000
 3749.00    0.38950   0.37059   -1.000
 3750.00    0.41290   0.39983   -1.000
 3751.00    0.46698   0.45224   -1.000
 3752.00    0.50776   0.50941  295.684
 3753.00    0.54820   0.56080   -1.000
 3754.00    0.59431   0.59640  314.602
 3755.00    0.60568   0.60039  355.977
 3756.00    0.58094   0.56977   -1.000
 3757.00    0.54882   0.52086   -1.000
 3758.00    0.50817   0.48269   -1.000
 3759.00    0.48560   0.47419   -1.000
 3760.00    0.48947   0.48709  337.732
 3761.00    0.51738   0.50290   -1.000
 3762.00    0.53686   0.50957   -1.000
 3763.00    0.52755   0.50962   -1.000
 3764.00    0.52572   0.50823   -1.000
 3765.00    0.52741   0.50395   -1.000
 3766.00    0.52364   0.49799   -1.000
 3767.00    0.52675   0.49690   -1.000
 3768.00    0.52746   0.50196   -1.000
 3769.00    0.54465   0.50960   -1.000
 3770.00    0.56927   0.52054   -1.000
 3771.00    0.57830   0.53880   -1.000
 3772.00    0.60538   0.56247   -1.000
 3773.00    0.63764   0.58307   -1.000
 3774.00    0.63587   0.59400   -1.000
 3775.00    0.62500   0.59897   -1.000
 3776.00    0.60962   0.60438  295.042
 3777.00    0.61909   0.61355  285.575
 3778.00    0.61531   0.62686   -1.000
 3779.00    0.62252   0.64197   -1.000
 3780.00    0.62434   0.65581   -1.000
 3781.00    0.64728   0.66540   -1.000
 3782.00    0.66576   0.67034  286.344
 3783.00    0.66931   0.66773  303.044
 3784.00    0.65909   0.65006   -1.000
 3785.00    0.62516   0.61614   -1.000
 3786.00    0.59405   0.57613   -1.000
 3787.00    0.54362   0.54218  341.996
 3788.00    0.53356   0.52325   -1.000
 3789.00    0.54011   0.52236   -1.000
 3790.00    0.52104   0.53235   -1.000
 3791.00    0.53377   0.54050  354.285
 3792.00    0.54426   0.53637   -1.000
 3793.00    0.52587   0.51854   -1.000
 3794.00    0.50414   0.49614   -1.000
 3795.00    0.49475   0.47457   -1.000
 3796.00    0.47930   0.45243   -1.000
 3797.00    0.45987   0.43088   -1.000
 3798.00    0.44703   0.42272   -1.000
 3799.00    0.45399   0.44199   -1.000
 3800.00    0.48478   0.48534  315.062
 3801.00    0.50710   0.53513   -1.000
 3802.00    0.53310   0.57739   -1.000
 3803.00    0.56641   0.60288   -1.000
 3804.00    0.57708   0.60874   -1.000
 3805.00    0.56415   0.59731   -1.000
 3806.00    0.53937   0.58071   -1.000
 3807.00    0.52889   0.57467   -1.000
 3808.00    0.54595   0.58591   -1.000
 3809.00    0.56245   0.60473   -1.000
 3810.00    0.56620   0.61456   -1.000
 3811.00    0.56386   0.60359   -1.000
 3812.00    0.54579   0.57261   -1.000
 3813.00    0.51904   0.53350   -1.000
 3814.00    0.48339   0.49934   -1.000
 3815.00    0.44708   0.48206   -1.000
 3816.00    0.44603   0.48223   -1.000
 3817.00    0.45958   0.48660   -1.000
 3818.00    0.47457   0.47817  377.136
 3819.00    0.45036   0.45707  377.136
 3820.00    0.42184   0.44144   -1.000
 3821.00    0.42323   0.44341   -1.000
 3822.00    0.42557   0.45428   -1.000
 3823.00    0.42253   0.45244   46.062
 3824.00    0.40709   0.43307   46.735
 3825.00    0.39026   0.41139   46.227
 3826.00    0.38983   0.39982   45.469
 3827.00    0.38836   0.40089   45.010
 3828.00    0.38955   0.40929   45.922
 3829.00    0.40723   0.41669   48.397
 3830.00    0.41704   0.41463   51.808
 3831.00    0.40725   0.40025   52.750
 3832.00    0.38522   0.37832   51.403
 3833.00    0.36901   0.35919   49.514
 3834.00    0.36158   0.35171   48.926
 3835.00    0.37928   0.35536   50.049
 3836.00    0.37512   0.36322   50.781
 3837.00    0.37738   0.36799   49.355
 3838.00    0.38103   0.37051   58.824
 3839.00    0.36963   0.37904  377.136
 3840.00    0.37633   0.40239   -1.000
 3841.00    0.41165   0.44065   -1.000
 3842.00    0.44403   0.48306   -1.000
 3843.00    0.46624   0.51806   -1.000
 3844.00    0.48920   0.53794   -1.000
 3845.00    0.49776   0.54645   -1.000
 3846.00    0.49088   0.55015   -1.000
 3847.00    0.47963   0.54922   -1.000
 3848.00    0.46465   0.54118   -1.000
 3849.00    0.45621   0.53072   -1.000
 3850.00    0.45909   0.52791   -1.000
 3851.00    0.47446   0.53558   -1.000
 3852.00    0.47430   0.54393   -1.000
 3853.00    0.46535   0.54296   -1.000
 3854.00    0.46450   0.53113   -1.000
 3855.00    0.44412   0.51475   -1.000
 3856.00    0.43613   0.49828   44.041
 3857.00    0.44122   0.47980   45.934
 3858.00    0.43339   0.46115   56.985
 3859.00    0.41290   0.45339   -1.000
 3860.00    0.40139   0.46639   -1.000
 3861.00    0.41847   0.49821   -1.000
 3862.00    0.46642   0.53150   -1.000
 3863.00    0.50812   0.54954   -1.000
 3864.00    0.51839   0.54967   -1.000
 3865.00    0.51141   0.54250   -1.000
 3866.00    0.50294   0.53757   -1.000
 3867.00    0.48315   0.53470   -1.000
 3868.00    0.47303   0.52847   -1.000
 3869.00    0.45444   0.51414   56.139
 3870.00    0.43505   0.49398   -1.000
 3871.00    0.42810   0.47966   -1.000
 3872.00    0.43033   0.48221   -1.000
 3873.00    0.46333   0.50492   -1.000
 3874.00    0.50839   0.53581   -1.000
 3875.00    0.52957   0.55394   -1.000
 3876.00    0.52577   0.54514   -1.000
 3877.00    0.50187   0.52096   -1.000
 3878.00    0.46939   0.50357   -1.000
 3879.00    0.46994   0.49985   -1.000
 3880.00    0.47326   0.50358   -1.000
 3881.00    0.46644   0.50792   -1.000
 3882.00    0.47034   0.51370   -1.000
 3883.00    0.49230   0.52120   -1.000
 3884.00    0.51336   0.51774  375.871
 3885.00    0.51728   0.49486   -1.000
 3886.00    0.49388   0.46345   -1.000
 3887.00    0.49683   0.44134   -1.000
 3888.00    0.51293   0.44217   -1.000
 3889.00    0.52724   0.46909   -1.000
 3890.00    0.56875   0.51473   -1.000
 3891.00    0.61743   0.56411   -1.000
 3892.00    0.63197   0.59932   -1.000
 3893.00    0.62489   0.61075   -1.000
 3894.00    0.61680   0.60833  290.520
 3895.00    0.62568   0.60751   -1.000
 3896.00    0.63194   0.61281   -1.000
 3897.00    0.63446   0.61825   -1.000
 3898.00    0.64999   0.61773   -1.000
 3899.00    0.64453   0.61511   -1.000
 3900.00    0.63722   0.61736   -1.000
 3901.00    0.64945   0.62126   -1.000
 3902.00    0.66173   0.61892   -1.000
 3903.00    0.63947   0.60753   -1.000
 3904.00    0.61012   0.59246   -1.000
 3905.00    0.59091   0.58559  292.114
 3906.00    0.60479   0.59602  275.813
 3907.00    0.64720   0.62384   -1.000
 3908.00    0.68532   0.65744   -1.000
 3909.00    0.70676   0.68389   -1.000
 3910.00    0.72083   0.69928   -1.000
 3911.00    0.72760   0.70767   -1.000
 3912.00    0.73674   0.71040   -1.000
 3913.00    0.72151   0.70657   -1.000
 3914.00    0.70641   0.69740  284.635
 3915.00    0.71536   0.68599   -1.000
 3916.00    0.70111   0.67334   -1.000
 3917.00    0.67333   0.65750   -1.000
 3918.00    0.65193   0.63475   -1.000
 3919.00    0.62944   0.60659   -1.000
 3920.00    0.61383   0.58178   -1.000
 3921.00    0.58841   0.56889   -1.000
 3922.00    0.58155   0.57080   -1.000
 3923.00    0.59340   0.57854   -1.000
 3924.00    0.59712   0.57917   -1.000
 3925.00    0.59076   0.56417   -1.000
 3926.00    0.56321   0.53230   50.592
 3927.00    0.51867   0.49024   59.299
 3928.00    0.46021   0.44538   69.579
 3929.00    0.37793   0.40397   82.136
 3930.00    0.32171   0.36586   -1.000
 3931.00    0.28911   0.32893   -1.000
 3932.00    0.28041   0.29530   92.267
 3933.00    0.28483   0.27462   78.757
 3934.00    0.28973   0.27850   64.934
 3935.00    0.31353   0.30660   53.709
 3936.00    0.34834   0.34897   63.282
 3937.00    0.39234   0.39777  377.136
 3938.00    0.43281   0.44744   -1.000
 3939.00    0.48227   0.48989  374.636
 3940.00    0.53947   0.52017   -1.000
 3941.00    0.56495   0.53503   -1.000
 3942.00    0.54679   0.53795   -1.000
 3943.00    0.52000   0.54112   -1.000
 3944.00    0.53309   0.55701   -1.000
 3945.00    0.57445   0.58440   -1.000
 3946.00    0.61675   0.61132  293.580
 3947.00    0.64331   0.63039   -1.000
 3948.00    0.66436   0.64509   -1.000
 3949.00    0.69388   0.66224   -1.000
 3950.00    0.72685   0.67778   -1.000
 3951.00    0.73704   0.68326   -1.000
 3952.00    0.72024   0.68476   -1.000
 3953.00    0.71909   0.68999   -1.000
 3954.00    0.74157   0.69437   -1.000
 3955.00    0.74567   0.69078   -1.000
 3956.00    0.72433   0.68053   -1.000
 3957.00    0.70519   0.67217   -1.000
 3958.00    0.70910   0.66573   -1.000
 3959.00    0.70467   0.64441   -1.000
 3960.00    0.63971   0.59967   -1.000
 3961.00    0.56379   0.54666  123.032
 3962.00    0.50830   0.50240   47.771
 3963.00    0.46801   0.47240   56.856
 3964.00    0.43915   0.44408   70.065
 3965.00    0.40069   0.40369   83.378
 3966.00    0.35005   0.35143   87.334
 3967.00    0.32077   0.30003   77.805
 3968.00    0.30264   0.26879   63.980
 3969.00    0.30271   0.26868   52.882
 3970.00    0.33160   0.29831   63.724
 3971.00    0.37785   0.34833   -1.000
 3972.00    0.43063   0.40777   -1.000
 3973.00    0.48933   0.46833   -1.000
 3974.00    0.54273   0.52690   -1.000
 3975.00    0.59567   0.58029   -1.000
 3976.00    0.64359   0.62903   -1.000
 3977.00    0.68934   0.67460   -1.000
 3978.00    0.74355   0.71621   -1.000
 3979.00    0.78761   0.74923   -1.000
 3980.00    0.79637   0.76527   -1.000
 3981.00    0.79401   0.76528   -1.000
 3982.00    0.79454   0.75846   -1.000
 3983.00    0.80425   0.75749   -1.000
 3984.00    0.81474   0.76765   -1.000
 3985.00    0.82155   0.78432   -1.000
 3986.00    0.83214   0.80284   -1.000
 3987.00    0.84728   0.81992   -1.000
 3988.00    0.87723   0.83061   -1.000
 3989.00    0.88451   0.83443   -1.000
 3990.00    0.86980   0.83828   -1.000
 3991.00    0.86895   0.84747   -1.000
 3992.00    0.89527   0.85914   -1.000
 3993.00    0.90386   0.86415   -1.000
 3994.00    0.90328   0.85631   -1.000
 3995.00    0.89183   0.83869   -1.000
 3996.00    0.86053   0.82270   -1.000
 3997.00    0.84102   0.82162   -1.000
 3998.00    0.85028   0.83913  214.769
 3999.00    0.89002   0.86727   -1.000
 4000.00    0.93675   0.89341   -1.000
 4001.00    0.95270   0.91005   -1.000
 4002.00    0.97036   0.91020   -1.000
 4003.00    0.97593   0.88686   -1.000
 4004.00    0.93254   0.84576   -1.000
 4005.00    0.87097   0.81318   -1.000
 4006.00    0.85863   0.81240   -1.000
 4007.00    0.87460   0.84246   -1.000
 4008.00    0.91498   0.88117   -1.000
 4009.00    0.94156   0.90767   -1.000
 4010.00    0.95053   0.92065   -1.000
 4011.00    0.97239   0.92642   -1.000
 4012.00    1.01051   0.93036   -1.000
 4013.00    1.00311   0.93604   -1.000
 4014.00    1.00549   0.94250   -1.000
 4015.00    1.00864   0.94499   -1.000
 4016.00    1.00139   0.94289   -1.000
 4017.00    1.00355   0.94301   -1.000
 4018.00    1.00934   0.94974   -1.000
 4019.00    1.01428   0.95877   -1.000
 4020.00    1.02369   0.96284   -1.000
 4021.00    1.01919   0.95849   -1.000
 4022.00    1.00741   0.94879   -1.000
 4023.00    1.00228   0.93785   -1.000
 4024.00    0.99175   0.93133   -1.000
 4025.00    0.99837   0.93731   -1.000
 4026.00    1.02847   0.95749   -1.000
 4027.00    1.05152   0.97692   -1.000
 4028.00    1.04833   0.97236   -1.000
 4029.00    1.01096   0.93326   -1.000
 4030.00    0.94254   0.87528   -1.000
 4031.00    0.87524   0.82656   -1.000
 4032.00    0.82790   0.80206   -1.000
 4033.00    0.82323   0.80584  209.809
 4034.00    0.84367   0.83721  200.500
 4035.00    0.89156   0.88955  195.691
 4036.00    0.97322   0.94773   -1.000
 4037.00    1.04336   0.99335   -1.000
 4038.00    1.07792   1.01052   -1.000
 4039.00    1.06098   1.00236   -1.000
 4040.00    1.03074   0.98594   -1.000
 4041.00    1.01539   0.97055   -1.000
 4042.00    1.00455   0.94242   -1.000
 4043.00    0.97342   0.88518   -1.000
 4044.00    0.88770   0.81047   -1.000
 4045.00    0.78121   0.76069   -1.000
 4046.00    0.76546   0.77364  207.005
 4047.00    0.84363   0.83871  202.473
 4048.00    0.92930   0.91315  201.526
 4049.00    1.00000   0.96752   -1.000
 4050.00    1.04743   0.99156   -1.000
 4051.00    1.03820   0.99090   -1.000
 4052.00    1.00828   0.97457   -1.000
 4053.00    0.97542   0.95147   -1.000
 4054.00    0.94801   0.92940   -1.000
 4055.00    0.93074   0.91104   -1.000
 4056.00    0.91970   0.89532   -1.000
 4057.00    0.91259   0.88773   -1.000
 4058.00    0.90397   0.89779  208.669
 4059.00    0.93254   0.91946  216.541
 4060.00    0.95622   0.92846   -1.000
 4061.00    0.96250   0.90278   -1.000
 4062.00    0.91669   0.85082   -1.000
 4063.00    0.83160   0.80962   -1.000
 4064.00    0.81497   0.80113  218.976
 4065.00    0.86084   0.82129   -1.000
 4066.00    0.90852   0.85564   -1.000
 4067.00    0.93887   0.88992   -1.000
 4068.00    0.96127   0.91363   -1.000
 4069.00    0.97396   0.91521   -1.000
 4070.00    0.95121   0.89076   -1.000
 4071.00    0.91412   0.86354   -1.000
 4072.00    0.90926   0.86243   -1.000
 4073.00    0.93756   0.88280   -1.000
 4074.00    0.95242   0.89381   -1.000
 4075.00    0.93138   0.87234   -1.000
 4076.00    0.88158   0.83400   -1.000
 4077.00    0.84764   0.81616   -1.000
 4078.00    0.85737   0.83895   -1.000
 4079.00    0.90268   0.89426  204.055
 4080.00    0.97791   0.95145   -1.000
 4081.00    1.03468   0.98303   -1.000
 4082.00    1.03181   0.98026   -1.000
 4083.00    0.99571   0.95902   -1.000
 4084.00    0.97341   0.94514   -1.000
 4085.00    0.98591   0.95560   -1.000
 4086.00    1.01564   0.98846   -1.000
 4087.00    1.06653   1.02652   -1.000
 4088.00    1.10872   1.05234   -1.000
 4089.00    1.11154   1.05569   -1.000
 4090.00    1.08389   1.04088   -1.000
 4091.00    1.05857   1.02188   -1.000
 4092.00    1.04719   1.00811   -1.000
 4093.00    1.03801   0.99415   -1.000
 4094.00    1.01922   0.97090   -1.000
 4095.00    0.97743   0.93797   -1.000
 4096.00    0.93426   0.90535   -1.000
 4097.00    0.91052   0.88054   -1.000
 4098.00    0.91260   0.85485   -1.000
 4099.00    0.89379   0.81508   -1.000
 4100.00    0.84011   0.76697   -1.000
 4101.00    0.79203   0.73583   -1.000
 4102.00    0.78294   0.74389   -1.000
 4103.00    0.82589   0.79107   -1.000
 4104.00    0.89555   0.85460   -1.000
 4105.00    0.94731   0.91097   -1.000
 4106.00    0.97624   0.94720   -1.000
 4107.00    0.97981   0.96239   -1.000
 4108.00    0.97537   0.96066  221.700
 4109.00    0.96452   0.95030  217.898
 4110.00    0.94468   0.94240  213.378
 4111.00    0.93851   0.94562  209.886
 4112.00    0.96055   0.96095  207.133
 4113.00    0.98716   0.98350  206.339
 4114.00    1.00953   1.00516  208.763
 4115.00    1.02987   1.01684  214.347
 4116.00    1.02968   1.01165   -1.000
 4117.00    1.01360   0.99182   -1.000
 4118.00    0.98840   0.96903   -1.000
 4119.00    0.96971   0.95649  216.205
 4120.00    0.96864   0.95795  215.455
 4121.00    0.97986   0.96561  212.457
 4122.00    0.97821   0.97338  209.870
 4123.00    0.98378   0.98248  210.648
 4124.00    1.00842   0.99286   -1.000
 4125.00    1.01789   0.99794   -1.000
 4126.00    1.00550   0.99151   -1.000
 4127.00    0.97953   0.97691  221.025
 4128.00    0.95734   0.96245  225.544
 4129.00    0.94995   0.94778  232.800
 4130.00    0.94586   0.92630   -1.000
 4131.00    0.92128   0.89886   -1.000
 4132.00    0.87812   0.87881  224.741
 4133.00    0.87372   0.88390  214.940
 4134.00    0.90383   0.91604  209.478
 4135.00    0.94624   0.96017   -1.000
 4136.00    0.98948   1.00009  203.974
 4137.00    1.02055   1.02757  205.253
 4138.00    1.02929   1.04219  212.259
 4139.00    1.03651   1.04234  226.352
 4140.00    1.02609   1.01867  242.904
 4141.00    0.98292   0.96654   -1.000
 4142.00    0.90155   0.90396  234.419
 4143.00    0.82384   0.86640   -1.000
 4144.00    0.81846   0.87375   -1.000
 4145.00    0.87253   0.91520   -1.000
 4146.00    0.92804   0.95925   -1.000
 4147.00    0.95612   0.97992   -1.000
 4148.00    0.95091   0.97715   -1.000
 4149.00    0.93609   0.96585   -1.000
 4150.00    0.91847   0.95813   -1.000
 4151.00    0.91694   0.95457   -1.000
 4152.00    0.91302   0.94976   -1.000
 4153.00    0.89820   0.94131   -1.000
 4154.00    0.91531   0.93349   -1.000
 4155.00    1.04384   0.93374   -1.000
 4156.00    1.12589   0.94597   -1.000
 4157.00    0.89775   0.96836   -1.000
 4158.00    0.74944   0.99615   -1.000
 4159.00    0.91856   1.02191   -1.000
 4160.00    1.01683   1.04103   -1.000
 4161.00    1.01975   1.05499   -1.000
 4162.00    1.03295   1.06408   -1.000
 4163.00    1.03874   1.06496   -1.000
 4164.00    1.02040   1.05398   -1.000
 4165.00    0.98919   1.03258   -1.000
 4166.00    0.95596   1.01018   -1.000
 4167.00    0.93370   0.99948   -1.000
 4168.00    0.94214   1.00173   -1.000
 4169.00    0.96738   1.00383   -1.000
 4170.00    0.97437   0.98738   -1.000
 4171.00    0.94108   0.95053  245.986
 4172.00    0.88777   0.91454   -1.000
 4173.00    0.86104   0.90077   -1.000
 4174.00    0.87823   0.91248   -1.000
 4175.00    0.89880   0.93348   -1.000
 4176.00    0.90844   0.94844   -1.000
 4177.00    0.90837   0.95833   -1.000
 4178.00    0.90591   0.96914   -1.000
 4179.00    0.91850   0.97891   -1.000
 4180.00    0.93268   0.98202   -1.000
 4181.00    0.93842   0.97992   -1.000
 4182.00    0.93440   0.98499   -1.000
 4183.00    0.94804   1.00245   -1.000
 4184.00    0.98211   1.01805   -1.000
 4185.00    0.98971   1.01576   -1.000
 4186.00    0.96357   0.99584   -1.000
 4187.00    0.94028   0.97806   -1.000
 4188.00    0.95080   0.97889   -1.000
 4189.00    0.96526   0.99361   -1.000
 4190.00    0.96964   1.01042   -1.000
 4191.00    0.97498   1.02547   -1.000
 4192.00    0.99938   1.03873   -1.000
 4193.00    1.02464   1.04230   -1.000
 4194.00    1.01917   1.02351  238.110
 4195.00    0.97387   0.98394  240.572
 4196.00    0.91996   0.94239   -1.000
 4197.00    0.88986   0.91398   -1.000
 4198.00    0.88183   0.90240   -1.000
 4199.00    0.89533   0.90233  232.943
 4200.00    0.91202   0.90818  230.416
 4201.00    0.91288   0.91751  227.624
 4202.00    0.91880   0.93355   -1.000
 4203.00    0.94398   0.96060   -1.000
 4204.00    0.98272   0.99571   -1.000
 4205.00    1.01082   1.03002   -1.000
 4206.00    1.02831   1.05777   -1.000
 4207.00    1.03805   1.07570   -1.000
 4208.00    1.05507   1.08036   -1.000
 4209.00    1.05654   1.07602   -1.000
 4210.00    1.04134   1.07264   -1.000
 4211.00    1.04234   1.07391   -1.000
 4212.00    1.04060   1.06891   -1.000
 4213.00    1.02094   1.04380   -1.000
 4214.00    0.97317   1.00741   -1.000
 4215.00    0.92573   0.98839   -1.000
 4216.00    0.94549   1.00798   -1.000
 4217.00    1.02728   1.05919   -1.000
 4218.00    1.11344   1.11192  196.150
 4219.00    1.16327   1.14493  200.918
 4220.00    1.18781   1.14985   -1.000
 4221.00    1.18080   1.12524   -1.000
 4222.00    1.12788   1.07031   -1.000
 4223.00    1.04204   0.98612   -1.000
 4224.00    0.93866   0.88459   -1.000
 4225.00    0.81895   0.79628   -1.000
 4226.00    0.72427   0.75803   -1.000
 4227.00    0.73011   0.79440   -1.000
 4228.00    0.83937   0.89114   -1.000
 4229.00    0.97241   0.99877   -1.000
 4230.00    1.06575   1.06718  210.416
 4231.00    1.10284   1.08620  214.357
 4232.00    1.09607   1.07165   -1.000
 4233.00    1.07182   1.04379   -1.000
 4234.00    1.04770   1.01825   -1.000
 4235.00    1.03183   1.00354   -1.000
 4236.00    1.00907   1.00061  215.897
 4237.00    1.00865   1.01010  212.355
 4238.00    1.03603   1.03108  208.812
 4239.00    1.05562   1.05805  206.945
 4240.00    1.08144   1.08574  204.802
 4241.00    1.11682   1.11214  200.801
 4242.00    1.13457   1.13719  199.566
 4243.00    1.15103   1.16234   -1.000
 4244.00    1.18801   1.18021  214.178
 4245.00    1.21328   1.17441   -1.000
 4246.00    1.17981   1.13894   -1.000
 4247.00    1.11630   1.08626   -1.000
 4248.00    1.06427   1.03676   -1.000
 4249.00    1.01738   1.00849  215.750
 4250.00    0.99052   1.00666   -1.000
 4251.00    0.99692   1.02196   -1.000
 4252.00    1.03579   1.03318  218.665
 4253.00    1.05372   1.02955   -1.000
 4254.00    1.02894   1.02490  207.445
 4255.00    1.02674   1.04056   -1.000
 4256.00    1.07439   1.07086  220.726
 4257.00    1.11133   1.08069   -1.000
 4258.00    1.08524   1.05170   -1.000
 4259.00    1.01723   1.00715  216.651
 4260.00    0.96771   0.98911   -1.000
 4261.00    0.98602   1.02183   -1.000
 4262.00    1.06586   1.09118   -1.000
 4263.00    1.15744   1.16139  196.402
 4264.00    1.20973   1.20268  201.355
 4265.00    1.21579   1.21050  207.890
 4266.00    1.20146   1.19254  215.027
 4267.00    1.16893   1.15322   -1.000
 4268.00    1.12367   1.09546   -1.000
 4269.00    1.06209   1.02475   -1.000
 4270.00    0.97376   0.95266   -1.000
 4271.00    0.89135   0.90054  241.768
 4272.00    0.85789   0.88227   -1.000
 4273.00    0.86871   0.89815   -1.000
 4274.00    0.89887   0.93975   -1.000
 4275.00    0.94135   0.99967   -1.000
 4276.00    1.01525   1.06843   -1.000
 4277.00    1.10749   1.12441   -1.000
 4278.00    1.15620   1.14325  220.262
 4279.00    1.14470   1.12704   -1.000
 4280.00    1.10169   1.10181  216.130
 4281.00    1.07982   1.09224  216.591
 4282.00    1.08987   1.09722  221.345
 4283.00    1.09917   1.09932  227.533
 4284.00    1.09450   1.08964  231.978
 4285.00    1.07470   1.07216  238.038
 4286.00    1.05225   1.05220  248.801
 4287.00    1.02814   1.02532  255.302
 4288.00    0.98969   0.98661  248.497
 4289.00    0.93942   0.94907  233.873
 4290.00    0.91161   0.93944   -1.000
 4291.00    0.94180   0.96806   -1.000
 4292.00    1.00113   1.01271  226.552
 4293.00    1.04900   1.04071  231.084
 4294.00    1.06139   1.04188   -1.000
 4295.00    1.03587   1.02387   -1.000
 4296.00    1.00090   0.99027   -1.000
 4297.00    0.96607   0.93922   -1.000
 4298.00    0.90837   0.87829   -1.000
 4299.00    0.82928   0.82711  279.342
 4300.00    0.78453   0.80426   -1.000
 4301.00    0.79810   0.80881  271.466
 4302.00    0.82156   0.82537  270.507
 4303.00    0.83932   0.83982  276.028
 4304.00    0.85936   0.84449   -1.000
 4305.00    0.85396   0.83212   -1.000
 4306.00    0.81429   0.80169   -1.000
 4307.00    0.76377   0.76826  288.442
 4308.00    0.73080   0.75503   -1.000
 4309.00    0.74231   0.77520   -1.000
 4310.00    0.79918   0.82431   -1.000
 4311.00    0.87014   0.88801   -1.000
 4312.00    0.93982   0.95532   -1.000
 4313.00    1.00118   1.03003   -1.000
 4314.00    1.07204   1.11825   -1.000
 4315.00    1.17923   1.21434   -1.000
 4316.00    1.29350   1.30009  185.080
 4317.00    1.36333   1.34976  188.756
 4318.00    1.38072   1.35636   -1.000
 4319.00    1.36031   1.33367   -1.000
 4320.00    1.32001   1.29433   -1.000
 4321.00    1.27622   1.23699   -1.000
 4322.00    1.21434   1.15603   -1.000
 4323.00    1.11128   1.05784   -1.000
 4324.00    0.98379   0.97588  221.503
 4325.00    0.90330   0.95418   -1.000
 4326.00    0.92520   1.01066   -1.000
 4327.00    1.05012   1.11859   -1.000
 4328.00    1.19972   1.22380   -1.000
 4329.00    1.27870   1.28357  189.876
 4330.00    1.29382   1.30134  187.226
 4331.00    1.29616   1.30580  186.173
 4332.00    1.30506   1.31725  187.753
 4333.00    1.32668   1.33261  195.789
 4334.00    1.34571   1.33321  212.134
 4335.00    1.34301   1.29889   -1.000
 4336.00    1.28622   1.22095   -1.000
 4337.00    1.17531   1.11187   -1.000
 4338.00    1.06239   1.00643   -1.000
 4339.00    0.98730   0.94515   -1.000
 4340.00    0.97289   0.94517   -1.000
 4341.00    1.01094   0.99960  206.053
 4342.00    1.08560   1.08266  200.205
 4343.00    1.16953   1.16156  195.910
 4344.00    1.22821   1.21876  193.341
 4345.00    1.27182   1.25899  190.698
 4346.00    1.29780   1.29165  189.536
 4347.00    1.30998   1.32071  195.592
 4348.00    1.33845   1.33557  208.909
 4349.00    1.35475   1.31401   -1.000
 4350.00    1.31033   1.25262   -1.000
 4351.00    1.20088   1.18409   -1.000
 4352.00    1.11832   1.15209   -1.000
 4353.00    1.13875   1.17322   -1.000
 4354.00    1.19991   1.22465   -1.000
 4355.00    1.25406   1.27350   -1.000
 4356.00    1.30139   1.30129  195.685
 4357.00    1.31419   1.30632  194.545
 4358.00    1.29428   1.29817  189.357
 4359.00    1.27535   1.29638   -1.000
 4360.00    1.29244   1.31440   -1.000
 4361.00    1.34369   1.34604  182.894
 4362.00    1.37437   1.37693  181.857
 4363.00    1.38825   1.39934  184.992
 4364.00    1.41235   1.41086  191.526
 4365.00    1.42419   1.40319   -1.000
 4366.00    1.38909   1.37044   -1.000
 4367.00    1.33137   1.32764  193.885
 4368.00    1.29812   1.29875  193.296
 4369.00    1.28151   1.28906  194.347
 4370.00    1.27636   1.28594  199.732
 4371.00    1.28550   1.27339  208.016
 4372.00    1.29034   1.24323   -1.000
 4373.00    1.25161   1.20054   -1.000
 4374.00    1.18594   1.16613   -1.000
 4375.00    1.16582   1.16597  190.266
 4376.00    1.20192   1.20501  189.649
 4377.00    1.26525   1.25746  192.200
 4378.00    1.32122   1.28760   -1.000
 4379.00    1.33424   1.27727   -1.000
 4380.00    1.29715   1.22231   -1.000
 4381.00    1.22467   1.12602   -1.000
 4382.00    1.10164   1.01354   -1.000
 4383.00    0.95201   0.93446   -1.000
 4384.00    0.88376   0.92990   -1.000
 4385.00    0.95690   0.99908   -1.000
 4386.00    1.10120   1.09322  203.213
 4387.00    1.20272   1.15751   -1.000
 4388.00    1.22542   1.17916   -1.000
 4389.00    1.20039   1.18013   -1.000
 4390.00    1.18929   1.18463  196.919
 4391.00    1.21361   1.20007  200.212
 4392.00    1.23930   1.21834   -1.000
 4393.00    1.25610   1.22985   -1.000
 4394.00    1.25389   1.23951  188.468
 4395.00    1.26823   1.26353  187.810
 4396.00    1.33110   1.30219   -1.000
 4397.00    1.39159   1.33006   -1.000
 4398.00    1.39385   1.32447   -1.000
 4399.00    1.34035   1.29318   -1.000
 4400.00    1.27892   1.26330   -1.000
 4401.00    1.25958   1.24323   -1.000
 4402.00    1.26337   1.21518   -1.000
 4403.00    1.21290   1.16480   -1.000
 4404.00    1.11391   1.11139  207.299
 4405.00    1.06902   1.09205   -1.000
 4406.00    1.10954   1.11593  199.661
 4407.00    1.16031   1.16155  191.278
 4408.00    1.19873   1.21463   -1.000
 4409.00    1.25591   1.27686   -1.000
 4410.00    1.33538   1.34417  182.419
 4411.00    1.39850   1.39008  190.885
 4412.00    1.42056   1.38648   -1.000
 4413.00    1.38713   1.33656   -1.000
 4414.00    1.29020   1.27207   -1.000
 4415.00    1.20842   1.23322   -1.000
 4416.00    1.20641   1.24729   -1.000
 4417.00    1.26856   1.30556   -1.000
 4418.00    1.34709   1.37181   -1.000
 4419.00    1.39658   1.41079  188.792
 4420.00    1.39759   1.40919  189.459
 4421.00    1.34878   1.37802   -1.000
 4422.00    1.29319   1.34471   -1.000
 4423.00    1.27123   1.33109   -1.000
 4424.00    1.27222   1.33686   -1.000
 4425.00    1.28286   1.34782   -1.000
 4426.00    1.29219   1.35597   -1.000
 4427.00    1.29706   1.36225   -1.000
 4428.00    1.32234   1.36476   -1.000
 4429.00    1.34380   1.36069   -1.000
 4430.00    1.32513   1.35414   -1.000
 4431.00    1.31687   1.35043   -1.000
 4432.00    1.32966   1.34122  203.719
 4433.00    1.30455   1.31318  199.314
 4434.00    1.24580   1.27852   -1.000
 4435.00    1.21978   1.27209   -1.000
 4436.00    1.26166   1.31509   -1.000
 4437.00    1.34379   1.38887   -1.000
 4438.00    1.43718   1.44779  186.831
 4439.00    1.48552   1.45954   -1.000
 4440.00    1.45410   1.42354   -1.000
 4441.00    1.38979   1.36848   -1.000
 4442.00    1.32252   1.33308  186.115
 4443.00    1.31107   1.34307   -1.000
 4444.00    1.36663   1.39245   -1.000
 4445.00    1.43008   1.44970   -1.000
 4446.00    1.47768   1.48695  181.430
 4447.00    1.50101   1.49880  183.366
 4448.00    1.50644   1.49757  183.179
 4449.00    1.51393   1.49245   -1.000
 4450.00    1.50541   1.48214   -1.000
 4451.00    1.47920   1.46271   -1.000
 4452.00    1.45498   1.42892   -1.000
 4453.00    1.40879   1.37721   -1.000
 4454.00    1.33984   1.32005   -1.000
 4455.00    1.28866   1.28367  196.623
 4456.00    1.28440   1.27710  197.409
 4457.00    1.30613   1.28556   -1.000
 4458.00    1.30378   1.28981  201.041
 4459.00    1.28953   1.28448  199.189
 4460.00    1.27803   1.28008  192.589
 4461.00    1.26256   1.29103   -1.000
 4462.00    1.27562   1.32390   -1.000
 4463.00    1.33076   1.36978   -1.000
 4464.00    1.40030   1.40881  186.560
 4465.00    1.43044   1.42703  189.687
 4466.00    1.43549   1.42578  191.817
 4467.00    1.44283   1.41516   -1.000
 4468.00    1.42875   1.40482   -1.000
 4469.00    1.39925   1.40433  179.261
 4470.00    1.40537   1.42429   -1.000
 4471.00    1.44488   1.46457   -1.000
 4472.00    1.50981   1.51040  171.011
 4473.00    1.56684   1.54766   -1.000
 4474.00    1.58128   1.57212  168.987
 4475.00    1.59587   1.59069  169.606
 4476.00    1.62669   1.60764  174.209
 4477.00    1.64988   1.60964   -1.000
 4478.00    1.63821   1.57822   -1.000
 4479.00    1.57075   1.51519   -1.000
 4480.00    1.47621   1.45059   -1.000
 4481.00    1.40869   1.42261  175.148
 4482.00    1.40903   1.44814   -1.000
 4483.00    1.48124   1.51197   -1.000
 4484.00    1.56485   1.57980   -1.000
 4485.00    1.63046   1.62174  177.714
 4486.00    1.65911   1.62160   -1.000
 4487.00    1.62822   1.58194   -1.000
 4488.00    1.55129   1.52694   -1.000
 4489.00    1.48540   1.49124  175.379
 4490.00    1.46383   1.49175   -1.000
 4491.00    1.49134   1.51446   -1.000
 4492.00    1.52330   1.52681  185.268
 4493.00    1.50492   1.50967  185.322
 4494.00    1.45538   1.47841   -1.000
 4495.00    1.42623   1.46437   -1.000
 4496.00    1.43391   1.48480   -1.000
 4497.00    1.48048   1.52825   -1.000
 4498.00    1.53028   1.56832   -1.000
 4499.00    1.55931   1.58801   -1.000
 4500.00    1.57505   1.59124  165.846
 4501.00    1.58089   1.59764  161.913
 4502.00    1.61642   1.62204  161.691
 4503.00    1.68833   1.66130   -1.000
 4504.00    1.74310   1.69844   -1.000
 4505.00    1.75576   1.71491   -1.000
 4506.00    1.73525   1.70715   -1.000
 4507.00    1.69930   1.68988  165.166
 4508.00    1.68355   1.67971  165.688
 4509.00    1.69927   1.68022   -1.000
 4510.00    1.72181   1.68192   -1.000
 4511.00    1.70807   1.67200   -1.000
 4512.00    1.65344   1.64711  173.079
 4513.00    1.60585   1.61730  172.655
 4514.00    1.57679   1.59563   -1.000
 4515.00    1.57436   1.58707  175.479
 4516.00    1.59481   1.58683  173.817
 4517.00    1.60141   1.58845  170.443
 4518.00    1.59788   1.59462  169.623
 4519.00    1.62002   1.61132  172.550
 4520.00    1.66705   1.63251   -1.000
 4521.00    1.68623   1.64215   -1.000
 4522.00    1.66009   1.63001   -1.000
 4523.00    1.61718   1.60012   -1.000
 4524.00    1.57980   1.56198   -1.000
 4525.00    1.52868   1.51778  194.560
 4526.00    1.46777   1.46601  194.322
 4527.00    1.41188   1.41434  191.477
 4528.00    1.37211   1.37953  187.971
 4529.00    1.36410   1.37422  186.208
 4530.00    1.38941   1.39552  189.417
 4531.00    1.43420   1.42626  195.656
 4532.00    1.48088   1.44613   -1.000
 4533.00    1.47955   1.44608   -1.000
 4534.00    1.43349   1.43839  176.372
 4535.00    1.40855   1.44999   -1.000
 4536.00    1.48006   1.49646   -1.000
 4537.00    1.60419   1.56148   -1.000
 4538.00    1.66582   1.60975   -1.000
 4539.00    1.64164   1.62074   -1.000
 4540.00    1.59213   1.60535  172.320
 4541.00    1.57554   1.59024  216.230
 4542.00    1.61503   1.58921  104.353
 4543.00    1.47421   1.59435   -1.000
 4544.00    0.66133   1.59252   -1.000
 4545.00    0.08155   1.58173   -1.000
 4546.00    0.15198   1.56928   -1.000
 4547.00    0.78771   1.55801   -1.000
 4548.00    0.69856   1.54535   -1.000
 4549.00    0.97705   1.53549   -1.000
 4550.00    1.47529   1.53761   -1.000
 4551.00    1.59297   1.54963   -1.000
 4552.00    1.57791   1.55583   -1.000
 4553.00    1.54651   1.54790  177.563
 4554.00    1.52892   1.53838  170.530
 4555.00    1.54924   1.54800  166.285
 4556.00    1.61404   1.58568   -1.000
 4557.00    1.68254   1.63935   -1.000
 4558.00    1.72014   1.68610   -1.000
 4559.00    1.74990   1.71282   -1.000
 4560.00    1.76090   1.72086   -1.000
 4561.00    1.74022   1.71371   -1.000
 4562.00    1.70551   1.69060   -1.000
 4563.00    1.66660   1.65386  172.432
 4564.00    1.62142   1.61879  167.872
 4565.00    1.59671   1.60697  165.315
 4566.00    1.63784   1.62782  166.091
 4567.00    1.70981   1.66817   -1.000
 4568.00    1.75050   1.70049   -1.000
 4569.00    1.75073   1.70465   -1.000
 4570.00    1.70356   1.68348   -1.000
 4571.00    1.64460   1.65821  167.139
 4572.00    1.64173   1.65205  166.517
 4573.00    1.69295   1.67119   -1.000
 4574.00    1.73945   1.69893   -1.000
 4575.00    1.75553   1.71492   -1.000
 4576.00    1.75025   1.71274   -1.000
 4577.00    1.71184   1.69448   -1.000
 4578.00    1.66261   1.66134  179.756
 4579.00    1.61494   1.61898  177.752
 4580.00    1.56610   1.58303  176.032
 4581.00    1.56561   1.56875  176.022
 4582.00    1.60337   1.57575   -1.000
 4583.00    1.62845   1.58897   -1.000
 4584.00    1.62244   1.59513   -1.000
 4585.00    1.60266   1.59676  167.641
 4586.00    1.61072   1.60917  166.402
 4587.00    1.65498   1.64060  168.087
 4588.00    1.71316   1.67917   -1.000
 4589.00    1.75569   1.70365   -1.000
 4590.00    1.74475   1.70188   -1.000
 4591.00    1.69023   1.67785  174.140
 4592.00    1.64984   1.64694  172.703
 4593.00    1.63466   1.62388  171.977
 4594.00    1.61794   1.61273  171.604
 4595.00    1.60825   1.60982  171.226
 4596.00    1.61278   1.61289  172.170
 4597.00    1.62486   1.62156  173.750
 4598.00    1.65654   1.63199   -1.000
 4599.00    1.67524   1.63832   -1.000
 4600.00    1.65220   1.63910  171.406
 4601.00    1.64174   1.63830  171.038
 4602.00    1.65585   1.63967   -1.000
 4603.00    1.67212   1.64215   -1.000
 4604.00    1.67597   1.64467   -1.000
 4605.00    1.66966   1.65328   -1.000
 4606.00    1.68554   1.67740  160.685
 4607.00    1.75587   1.71846   -1.000
 4608.00    1.82955   1.76459   -1.000
 4609.00    1.86056   1.79627   -1.000
 4610.00    1.85092   1.80037   -1.000
 4611.00    1.81659   1.78195   -1.000
 4612.00    1.78712   1.75876   -1.000
 4613.00    1.78778   1.74660   -1.000
 4614.00    1.78954   1.75067   -1.000
 4615.00    1.79693   1.76462   -1.000
 4616.00    1.80862   1.77758   -1.000
 4617.00    1.82021   1.78350   -1.000
 4618.00    1.82094   1.78335   -1.000
 4619.00    1.80743   1.78236   -1.000
 4620.00    1.83625   1.78601   -1.000
 4621.00    1.85208   1.79434   -1.000
 4622.00    1.83845   1.80064   -1.000
 4623.00    1.83358   1.79919   -1.000
 4624.00    1.84009   1.79193   -1.000
 4625.00    1.82854   1.78399   -1.000
 4626.00    1.80475   1.77798   -1.000
 4627.00    1.81053   1.77538   -1.000
 4628.00    1.82554   1.77679   -1.000
 4629.00    1.82974   1.78137   -1.000
 4630.00    1.82145   1.78802   -1.000
 4631.00    1.82802   1.79261   -1.000
 4632.00    1.82471   1.78772   -1.000
 4633.00    1.79153   1.77137   -1.000
 4634.00    1.76518   1.75138  170.003
 4635.00    1.75992   1.73468   -1.000
 4636.00    1.74062   1.71868   -1.000
 4637.00    1.70728   1.69949  168.916
 4638.00    1.68113   1.68129  165.059
 4639.00    1.66312   1.67338  162.292
 4640.00    1.67476   1.68198  162.205
 4641.00    1.72408   1.70344   -1.000
 4642.00    1.77072   1.72301   -1.000
 4643.00    1.77170   1.72348   -1.000
 4644.00    1.73640   1.69779   -1.000
 4645.00    1.67623   1.65355   -1.000
 4646.00    1.61214   1.60868  169.449
 4647.00    1.57806   1.58512  166.677
 4648.00    1.59385   1.59620  165.888
 4649.00    1.65746   1.63645   -1.000
 4650.00    1.73008   1.68686   -1.000
 4651.00    1.77720   1.72704   -1.000
 4652.00    1.78920   1.74472   -1.000
 4653.00    1.77764   1.73849   -1.000
 4654.00    1.74697   1.71748   -1.000
 4655.00    1.70461   1.70064  161.518
 4656.00    1.69936   1.70767  157.212
 4657.00    1.74089   1.74547  156.224
 4658.00    1.82519   1.80191   -1.000
 4659.00    1.89558   1.85093   -1.000
 4660.00    1.91802   1.86913   -1.000
 4661.00    1.87864   1.85146   -1.000
 4662.00    1.82094   1.81087  167.705
 4663.00    1.77473   1.76399  173.823
 4664.00    1.73474   1.71686   -1.000
 4665.00    1.69785   1.66424   -1.000
 4666.00    1.61650   1.60643  178.962
 4667.00    1.52461   1.56185   -1.000
 4668.00    1.50638   1.55543   -1.000
 4669.00    1.57512   1.59410  164.705
 4670.00    1.68088   1.65644   -1.000
 4671.00    1.74961   1.71055   -1.000
 4672.00    1.78309   1.73959   -1.000
 4673.00    1.77790   1.74909   -1.000
 4674.00    1.76908   1.75581  160.457
 4675.00    1.78708   1.76877   -1.000
 4676.00    1.81909   1.78039   -1.000
 4677.00    1.82637   1.77594   -1.000
 4678.00    1.78282   1.75095   -1.000
 4679.00    1.73426   1.71603   -1.000
 4680.00    1.69925   1.68716  166.421
 4681.00    1.68427   1.67635  163.713
 4682.00    1.69731   1.68667  163.651
 4683.00    1.75268   1.71074   -1.000
 4684.00    1.78884   1.73440   -1.000
 4685.00    1.79676   1.74659   -1.000
 4686.00    1.78762   1.74621   -1.000
 4687.00    1.77899   1.73932   -1.000
 4688.00    1.76614   1.73283   -1.000
 4689.00    1.75531   1.72938   -1.000
 4690.00    1.76064   1.72777   -1.000
 4691.00    1.76195   1.72784   -1.000
 4692.00    1.76283   1.73364   -1.000
 4693.00    1.78460   1.74890   -1.000
 4694.00    1.81731   1.77051   -1.000
 4695.00    1.85305   1.78832   -1.000
 4696.00    1.85384   1.78976   -1.000
 4697.00    1.80752   1.76800   -1.000
 4698.00    1.75241   1.73036   -1.000
 4699.00    1.71820   1.69426   -1.000
 4700.00    1.70802   1.67037   -1.000
 4701.00    1.70597   1.65657   -1.000
 4702.00    1.69021   1.65067   -1.000
 4703.00    1.67137   1.65679   -1.000
 4704.00    1.69148   1.67509   -1.000
 4705.00    1.74100   1.69337   -1.000
 4706.00    1.75143   1.69715   -1.000
 4707.00    1.71730   1.68629   -1.000
 4708.00    1.69576   1.67597   -1.000
 4709.00    1.71695   1.68159   -1.000
 4710.00    1.76409   1.70470   -1.000
 4711.00    1.80789   1.73207   -1.000
 4712.00    1.80344   1.74687   -1.000
 4713.00    1.77502   1.74381   -1.000
 4714.00    1.75278   1.73684   -1.000
 4715.00    1.75044   1.74647  159.050
 4716.00    1.80908   1.77880   -1.000
 4717.00    1.88627   1.82224   -1.000
 4718.00    1.91495   1.86121   -1.000
 4719.00    1.92814   1.88720   -1.000
 4720.00    1.95089   1.89815   -1.000
 4721.00    1.93793   1.89556   -1.000
 4722.00    1.90638   1.88741   -1.000
 4723.00    1.87987   1.88486  160.828
 4724.00    1.90304   1.88691   -1.000
 4725.00    1.92865   1.87647   -1.000
 4726.00    1.88626   1.83836   -1.000
 4727.00    1.80225   1.77734   -1.000
 4728.00    1.72431   1.71859  168.161
 4729.00    1.69669   1.68804  166.285
 4730.00    1.71319   1.69249   -1.000
 4731.00    1.74507   1.72061   -1.000
 4732.00    1.77409   1.75576   -1.000
 4733.00    1.80807   1.78505   -1.000
 4734.00    1.83580   1.80121   -1.000
 4735.00    1.84803   1.80465   -1.000
 4736.00    1.84059   1.80375   -1.000
 4737.00    1.84698   1.80845   -1.000
 4738.00    1.86998   1.82226   -1.000
 4739.00    1.89848   1.83803   -1.000
 4740.00    1.89767   1.84594   -1.000
 4741.00    1.87082   1.84706   -1.000
 4742.00    1.85924   1.84975  161.009
 4743.00    1.88598   1.85639   -1.000
 4744.00    1.90661   1.86540   -1.000
 4745.00    1.91205   1.87800   -1.000
 4746.00    1.91668   1.89477   -1.000
 4747.00    1.92029   1.91232  158.201
 4748.00    1.93161   1.92614  159.141
 4749.00    1.94413   1.93416  160.839
 4750.00    1.94341   1.93519  162.296
 4751.00    1.92313   1.92642  163.452
 4752.00    1.89436   1.90683  163.440
 4753.00    1.86645   1.88114  163.875
 4754.00    1.84468   1.85837  164.995
 4755.00    1.83574   1.84654  165.391
 4756.00    1.84200   1.84796  164.303
 4757.00    1.84426   1.85971  163.774
 4758.00    1.83264   1.87676   -1.000
 4759.00    1.83818   1.89134   -1.000
 4760.00    1.86322   1.89254   -1.000
 4761.00    1.84775   1.87283   -1.000
 4762.00    1.80419   1.83615   -1.000
 4763.00    1.76478   1.79662   -1.000
 4764.00    1.73481   1.76645   -1.000
 4765.00    1.71033   1.74806   -1.000
 4766.00    1.70828   1.74372   -1.000
 4767.00    1.75477   1.76275  163.039
 4768.00    1.82017   1.80691  164.247
 4769.00    1.87632   1.85769   -1.000
 4770.00    1.88560   1.88996  164.425
 4771.00    1.86325   1.89621   -1.000
 4772.00    1.84348   1.89407   -1.000
 4773.00    1.87283   1.90563   -1.000
 4774.00    1.92850   1.93383  159.937
 4775.00    1.95228   1.96427  160.880
 4776.00    1.95079   1.98360   -1.000
 4777.00    1.94600   1.99058   -1.000
 4778.00    1.94987   1.98871   -1.000
 4779.00    1.94364   1.97830   -1.000
 4780.00    1.92204   1.96046   -1.000
 4781.00    1.91925   1.93830   -1.000
 4782.00    1.90207   1.91374  166.792
 4783.00    1.85889   1.89059   -1.000
 4784.00    1.85475   1.87537   -1.000
 4785.00    1.84959   1.86860   -1.000
 4786.00    1.83926   1.86406   -1.000
 4787.00    1.83428   1.85971   -1.000
 4788.00    1.83299   1.85899   -1.000
 4789.00    1.83463   1.86350   -1.000
 4790.00    1.84216   1.87446   -1.000
 4791.00    1.86678   1.89703   -1.000
 4792.00    1.89774   1.93537   -1.000
 4793.00    1.95611   1.98523   -1.000
 4794.00    1.99934   2.03314   -1.000
 4795.00    2.02963   2.06206   -1.000
 4796.00    2.03002   2.06036   -1.000
 4797.00    1.98414   2.02944   -1.000
 4798.00    1.91871   1.98481   -1.000
 4799.00    1.87724   1.94915   -1.000
 4800.00    1.87962   1.94073   -1.000
 4801.00    1.93525   1.96264   -1.000
 4802.00    1.99674   1.99926  162.800
 4803.00    2.01138   2.02441  164.386
 4804.00    1.97947   2.02086   -1.000
 4805.00    1.94498   1.99382   -1.000
 4806.00    1.92367   1.96219   -1.000
 4807.00    1.90443   1.94125   -1.000
 4808.00    1.90744   1.93659   -1.000
 4809.00    1.91470   1.94721   -1.000
 4810.00    1.93316   1.96674   -1.000
 4811.00    1.95717   1.98501   -1.000
 4812.00    1.96253   1.99521   -1.000
 4813.00    1.96610   1.99971   -1.000
 4814.00    1.97024   2.00611   -1.000
 4815.00    1.98189   2.01938   -1.000
 4816.00    2.00921   2.03903   -1.000
 4817.00    2.02893   2.06111   -1.000
 4818.00    2.04669   2.08072   -1.000
 4819.00    2.06334   2.09257   -1.000
 4820.00    2.04692   2.09028   -1.000
 4821.00    2.00830   2.06767   -1.000
 4822.00    1.96595   2.02548   -1.000
 4823.00    1.90850   1.97851   -1.000
 4824.00    1.87860   1.95058   -1.000
 4825.00    1.92401   1.95566   -1.000
 4826.00    1.98997   1.98128  162.513
 4827.00    1.98838   1.99999  162.625
 4828.00    1.95019   1.99928   -1.000
 4829.00    1.94786   1.98697   -1.000
 4830.00    1.95155   1.97178  162.168
 4831.00    1.91930   1.95580   -1.000
 4832.00    1.89861   1.94472   -1.000
 4833.00    1.91283   1.94902   -1.000
 4834.00    1.95833   1.97064  159.931
 4835.00    2.00015   1.99723  161.910
 4836.00    1.99958   2.01302  164.729
 4837.00    1.98046   2.01129   -1.000
 4838.00    1.95027   1.99392   -1.000
 4839.00    1.91594   1.96812   -1.000
 4840.00    1.89635   1.94568   -1.000
 4841.00    1.90049   1.93499   -1.000
 4842.00    1.90294   1.93502   -1.000
 4843.00    1.89862   1.94340   -1.000
 4844.00    1.93599   1.96309   -1.000
 4845.00    1.98768   1.99200  163.161
 4846.00    2.00669   2.01442  163.502
 4847.00    1.97598   2.01437   -1.000
 4848.00    1.95209   1.99604   -1.000
 4849.00    1.94493   1.98157   -1.000
 4850.00    1.96742   1.98464  162.906
 4851.00    1.98079   1.99644  167.273
 4852.00    1.96689   1.99759   -1.000
 4853.00    1.94947   1.97410   -1.000
 4854.00    1.91074   1.92693  170.880
 4855.00    1.82821   1.87510   -1.000
 4856.00    1.80195   1.84168   -1.000
 4857.00    1.83859   1.82605   -1.000
 4858.00    1.83513   1.79621   -1.000
 4859.00    1.73864   1.71814   -1.000
 4860.00    1.57680   1.60221   -1.000
 4861.00    1.47281   1.50894   -1.000
 4862.00    1.49537   1.49600  174.205
 4863.00    1.60745   1.56691   -1.000
 4864.00    1.71711   1.67513   -1.000
 4865.00    1.80033   1.77292   -1.000
 4866.00    1.84894   1.84270  168.705
 4867.00    1.85326   1.88504   -1.000
 4868.00    1.85216   1.90041   -1.000
 4869.00    1.84870   1.88514   -1.000
 4870.00    1.77519   1.83995   -1.000
 4871.00    1.68853   1.78412   -1.000
 4872.00    1.68518   1.75519   -1.000
 4873.00    1.75222   1.77786   -1.000
 4874.00    1.80320   1.83485   -1.000
 4875.00    1.82881   1.88972   -1.000
 4876.00    1.84658   1.92781   -1.000
 4877.00    1.87218   1.95802   -1.000
 4878.00    1.90917   1.98966   -1.000
 4879.00    1.94744   2.01808   -1.000
 4880.00    1.95783   2.02982   -1.000
 4881.00    1.91909   2.01869   -1.000
 4882.00    1.88937   1.99523   -1.000
 4883.00    1.91099   1.97354   -1.000
 4884.00    1.90111   1.95161   -1.000
 4885.00    1.84188   1.92143   -1.000
 4886.00    1.80417   1.89124   -1.000
 4887.00    1.81649   1.87497   -1.000
 4888.00    1.82632   1.86726   -1.000
 4889.00    1.80913   1.84946   -1.000
 4890.00    1.75555   1.81899   -1.000
 4891.00    1.74697   1.80444   -1.000
 4892.00    1.81621   1.84188   -1.000
 4893.00    1.96044   1.93596   -1.000
 4894.00    2.07267   2.05132   -1.000
 4895.00    2.11654   2.14224   -1.000
 4896.00    2.14824   2.18760   -1.000
 4897.00    2.15168   2.19355   -1.000
 4898.00    2.13569   2.17421   -1.000
 4899.00    2.08648   2.14249   -1.000
 4900.00    2.03827   2.11116   -1.000
 4901.00    2.03141   2.08786   -1.000
 4902.00    2.00859   2.07110   -1.000
 4903.00    1.99518   2.06061   -1.000
 4904.00    2.02056   2.06585   -1.000
 4905.00    2.07123   2.09313   -1.000
 4906.00    2.11357   2.12483  164.731
 4907.00    2.10957   2.12873  167.176
 4908.00    2.05283   2.09210   -1.000
 4909.00    1.97608   2.03291   -1.000
 4910.00    1.92786   1.98334   -1.000
 4911.00    1.92594   1.96852   -1.000
 4912.00    1.98403   1.99239  156.647
 4913.00    2.03811   2.03865  157.137
 4914.00    2.08549   2.08546  162.079
 4915.00    2.12768   2.11474   -1.000
 4916.00    2.11121   2.10745  178.989
 4917.00    2.04322   2.04513  181.843
 4918.00    1.89492   1.93284   -1.000
 4919.00    1.76188   1.81086   -1.000
 4920.00    1.69887   1.73403   -1.000
 4921.00    1.75061   1.73406   -1.000
 4922.00    1.85198   1.79486   -1.000
 4923.00    1.92234   1.86970   -1.000
 4924.00    1.94029   1.92619   -1.000
 4925.00    1.97102   1.96947  156.362
 4926.00    2.02124   2.01899  155.250
 4927.00    2.08725   2.07681  154.299
 4928.00    2.15029   2.13144   -1.000
 4929.00    2.18749   2.17349   -1.000
 4930.00    2.19411   2.19413  165.182
 4931.00    2.16281   2.18358  166.247
 4932.00    2.12542   2.14190  163.594
 4933.00    2.05134   2.08717   -1.000
 4934.00    2.01243   2.04696   -1.000
 4935.00    2.02004   2.03140  172.142
 4936.00    2.04116   2.01905   -1.000
 4937.00    1.97958   1.98426  165.910
 4938.00    1.89624   1.93602   -1.000
 4939.00    1.87515   1.91608   -1.000
 4940.00    1.97024   1.95321   -1.000
 4941.00    2.08206   2.03247   -1.000
 4942.00    2.14490   2.11289   -1.000
 4943.00    2.17743   2.16405   -1.000
 4944.00    2.20176   2.18181   -1.000
 4945.00    2.18214   2.17904  154.068
 4946.00    2.16661   2.17335  153.459
 4947.00    2.18493   2.17900  152.834
 4948.00    2.21374   2.19818   -1.000
 4949.00    2.24000   2.22049   -1.000
 4950.00    2.24973   2.23471   -1.000
 4951.00    2.25003   2.23689   -1.000
 4952.00    2.22417   2.22756  162.191
 4953.00    2.17865   2.20702   -1.000
 4954.00    2.13662   2.16888   -1.000
 4955.00    2.08143   2.09950  174.808
 4956.00    1.96773   1.99667   -1.000
 4957.00    1.83634   1.89789   -1.000
 4958.00    1.81959   1.86658   -1.000
 4959.00    1.95765   1.92599   -1.000
 4960.00    2.09484   2.03238   -1.000
 4961.00    2.14959   2.12152   -1.000
 4962.00    2.15627   2.16076  164.500
 4963.00    2.14992   2.15553  166.782
 4964.00    2.11286   2.12236  167.021
 4965.00    2.03960   2.07613   -1.000
 4966.00    1.98957   2.03537   -1.000
 4967.00    1.99616   2.01489  163.683
 4968.00    2.01032   2.01549  161.923
 4969.00    2.01976   2.03094  160.002
 4970.00    2.04255   2.05728  158.452
 4971.00    2.08121   2.09231  157.729
 4972.00    2.11231   2.13100  158.674
 4973.00    2.15408   2.16332  160.306
 4974.00    2.17441   2.18017  162.446
 4975.00    2.16374   2.17861  165.067
 4976.00    2.13497   2.15935   -1.000
 4977.00    2.08759   2.12578   -1.000
 4978.00    2.04444   2.08600   -1.000
 4979.00    2.00492   2.04700   -1.000
 4980.00    1.98236   2.00517   -1.000
 4981.00    1.93200   1.95008  177.924
 4982.00    1.83515   1.88355   -1.000
 4983.00    1.79324   1.83168   -1.000
 4984.00    1.83209   1.82463  163.324
 4985.00    1.90400   1.86872   -1.000
 4986.00    1.97294   1.94403   -1.000
 4987.00    2.04703   2.02018   -1.000
 4988.00    2.10023   2.07029   -1.000
 4989.00    2.07986   2.08331  165.960
 4990.00    2.05024   2.07244  165.189
 4991.00    2.05419   2.06182  165.065
 4992.00    2.08482   2.06374   -1.000
 4993.00    2.07683   2.07382  163.450
 4994.00    2.05972   2.08415   -1.000
 4995.00    2.07165   2.09461   -1.000
 4996.00    2.10209   2.10488  169.710
 4997.00    2.09484   2.10318  171.950
 4998.00    2.05061   2.07712   -1.000
 4999.00    2.01624   2.02946  170.715
 5000.00    1.98495   1.97912  169.542
 5001.00    1.96467   1.94675   -1.000
 5002.00    1.96111   1.93656   -1.000
 5003.00    1.96200   1.93309   -1.000
 5004.00    1.95341   1.91661   -1.000
 5005.00    1.91570   1.88504   -1.000
 5006.00    1.88829   1.86176   -1.000
 5007.00    1.91070   1.87637   -1.000
 5008.00    1.98221   1.93011   -1.000
 5009.00    2.04394   1.98798   -1.000
 5010.00    2.04551   2.01037   -1.000
 5011.00    1.99786   1.98346   -1.000
 5012.00    1.92043   1.92344  179.159
 5013.00    1.83834   1.86283   -1.000
 5014.00    1.80091   1.83149   -1.000
 5015.00    1.84229   1.83734  174.437
 5016.00    1.90594   1.86331   -1.000
 5017.00    1.93678   1.88761   -1.000
 5018.00    1.93039   1.90429   -1.000
 5019.00    1.95048   1.92056   -1.000
 5020.00    1.98101   1.93721   -1.000
 5021.00    1.97673   1.94659   -1.000
 5022.00    1.93428   1.95138  168.304
 5023.00    1.96691   1.96585  168.993
 5024.00    2.02997   1.99467   -1.000
 5025.00    2.04647   2.02246   -1.000
 5026.00    2.02485   2.03043  165.303
 5027.00    1.98766   2.02113   -1.000
 5028.00    1.98762   2.01757   -1.000
 5029.00    2.04263   2.03803  158.369
 5030.00    2.08625   2.08103  158.512
 5031.00    2.12753   2.13226  163.344
 5032.00    2.17814   2.17566  169.811
 5033.00    2.21906   2.19434   -1.000
 5034.00    2.20233   2.17428   -1.000
 5035.00    2.09872   2.12035  175.639
 5036.00    2.01053   2.06016   -1.000
 5037.00    1.99457   2.01530   -1.000
 5038.00    1.99566   1.97565   -1.000
 5039.00    1.90739   1.91819  181.473
 5040.00    1.77585   1.84733   -1.000
 5041.00    1.74661   1.80631   -1.000
 5042.00    1.83919   1.83771  159.606
 5043.00    1.98715   1.93994   -1.000
 5044.00    2.14046   2.06802   -1.000
 5045.00    1.28147   2.16967   -1.000
 5046.00    0.19357   2.21450   -1.000
 5047.00    0.05352   2.19829   -1.000
 5048.00    0.61180   2.13769   -1.000
 5049.00    1.63299   2.06551   -1.000
 5050.00    1.95801   2.01551   -1.000
 5051.00    2.00677   2.00284  159.959
 5052.00    2.06237   2.02446   -1.000
 5053.00    2.11835   2.07091   -1.000
 5054.00    2.16629   2.12688   -1.000
 5055.00    2.19594   2.17385   -1.000
 5056.00    2.21569   2.20330  158.342
 5057.00    2.22757   2.22014  157.294
 5058.00    2.23948   2.23434  157.340
 5059.00    2.25751   2.25290  159.400
 5060.00    2.27447   2.27482  163.980
 5061.00    2.29955   2.28891  169.823
 5062.00    2.30264   2.27668   -1.000
 5063.00    2.22292   2.22682  169.951
 5064.00    2.11633   2.15232   -1.000
 5065.00    2.03485   2.08691   -1.000
 5066.00    2.04714   2.05570  166.000
 5067.00    2.08425   2.05614   -1.000
 5068.00    2.07132   2.07205  166.182
 5069.00    2.10368   2.09250  167.507
 5070.00    2.14396   2.11007   -1.000
 5071.00    2.13988   2.11575   -1.000
 5072.00    2.11017   2.10855  163.960
 5073.00    2.12137   2.10154   -1.000
 5074.00    2.16589   2.10613   -1.000
 5075.00    2.16850   2.11807   -1.000
 5076.00    2.14501   2.12363   -1.000
 5077.00    2.14567   2.10800   -1.000
 5078.00    2.10208   2.06087   -1.000
 5079.00    1.98212   1.99081  173.927
 5080.00    1.91218   1.93331  171.566
 5081.00    1.94593   1.92031   -1.000
 5082.00    2.00587   1.94789   -1.000
 5083.00    2.04038   1.99187   -1.000
 5084.00    2.06583   2.03751   -1.000
 5085.00    2.11247   2.08110   -1.000
 5086.00    2.15640   2.11914   -1.000
 5087.00    2.16919   2.14708   -1.000
 5088.00    2.17418   2.16531  160.261
 5089.00    2.18245   2.17908  158.417
 5090.00    2.20855   2.19411   -1.000
 5091.00    2.24792   2.21484   -1.000
 5092.00    2.27111   2.24118   -1.000
 5093.00    2.30185   2.26326   -1.000
 5094.00    2.29267   2.26361   -1.000
 5095.00    2.24149   2.23082  172.775
 5096.00    2.17050   2.16947  173.348
 5097.00    2.09300   2.09725  169.107
 5098.00    2.00997   2.03720   -1.000
 5099.00    1.99508   2.01373  162.732
 5100.00    2.04060   2.03842  163.686
 5101.00    2.12936   2.09514   -1.000
 5102.00    2.18317   2.14755   -1.000
 5103.00    2.15976   2.16841  170.014
 5104.00    2.12569   2.15852   -1.000
 5105.00    2.12117   2.13328  171.890
 5106.00    2.10478   2.10338  170.781
 5107.00    2.05112   2.07366   -1.000
 5108.00    2.03033   2.04943  167.104
 5109.00    2.03153   2.03923  165.057
 5110.00    2.05286   2.05073  163.043
 5111.00    2.11630   2.08403   -1.000
 5112.00    2.17099   2.12825   -1.000
 5113.00    2.19037   2.16874   -1.000
 5114.00    2.23073   2.20047   -1.000
 5115.00    2.26590   2.22829   -1.000
 5116.00    2.26758   2.25562  160.250
 5117.00    2.29584   2.27832   -1.000
 5118.00    2.31408   2.28731   -1.000
 5119.00    2.30705   2.27520   -1.000
 5120.00    2.24885   2.24122  174.801
 5121.00    2.18915   2.19019  175.970
 5122.00    2.12911   2.12926  174.363
 5123.00    2.03705   2.06926   -1.000
 5124.00    2.00068   2.02578   -1.000
 5125.00    2.01863   2.00967  172.749
 5126.00    2.03663   2.01569   -1.000
 5127.00    2.04410   2.02785   -1.000
 5128.00    2.04262   2.03728  167.368
 5129.00    2.05726   2.04830  166.037
 5130.00    2.08552   2.06902   -1.000
 5131.00    2.13458   2.09993   -1.000
 5132.00    2.19307   2.13314   -1.000
 5133.00    2.21511   2.16155   -1.000
 5134.00    2.23327   2.18322   -1.000
 5135.00    2.24795   2.19442   -1.000
 5136.00    2.23271   2.18375   -1.000
 5137.00    2.16204   2.14482   -1.000
 5138.00    2.09322   2.09539  172.290
 5139.00    2.07672   2.06384   -1.000
 5140.00    2.10146   2.05802   -1.000
 5141.00    2.11757   2.06234   -1.000
 5142.00    2.07481   2.06308   -1.000
 5143.00    2.06283   2.06488  172.171
 5144.00    2.10923   2.07422   -1.000
 5145.00    2.10336   2.07939   -1.000
 5146.00    2.06463   2.06941  169.435
 5147.00    2.06297   2.05567  171.640
 5148.00    2.09204   2.05555   -1.000
 5149.00    2.09204   2.06749   -1.000
 5150.00    2.08970   2.07389   -1.000
 5151.00    2.07883   2.06519   -1.000
 5152.00    2.03892   2.05029  167.102
 5153.00    2.02168   2.04459   -1.000
 5154.00    2.05177   2.05916  159.839
 5155.00    2.12129   2.09784   -1.000
 5156.00    2.19152   2.15361   -1.000
 5157.00    2.27588   2.20929   -1.000
 5158.00    2.31091   2.24889   -1.000
 5159.00    2.30949   2.26676   -1.000
 5160.00    2.32426   2.26447   -1.000
 5161.00    2.29767   2.24348   -1.000
 5162.00    2.24141   2.20285   -1.000
 5163.00    2.18857   2.14078   -1.000
 5164.00    2.09755   2.05244   -1.000
 5165.00    1.93891   1.92822   -1.000
 5166.00    1.72293   1.77416   -1.000
 5167.00    1.54342   1.64072   -1.000
 5168.00    1.54488   1.58895   -1.000
 5169.00    1.66868   1.61977   -1.000
 5170.00    1.73975   1.66031   -1.000
 5171.00    1.64682   1.64108  192.130
 5172.00    1.47816   1.58417   -1.000
 5173.00    1.48871   1.57744   -1.000
 5174.00    1.69816   1.67429   -1.000
 5175.00    1.95230   1.83788   -1.000
 5176.00    2.10478   1.98682   -1.000
 5177.00    2.15129   2.07579   -1.000
 5178.00    2.17346   2.10943   -1.000
 5179.00    2.14699   2.10005   -1.000
 5180.00    2.06915   2.04071   -1.000
 5181.00    1.90652   1.91687  216.083
 5182.00    1.67311   1.74852   -1.000
 5183.00    1.46016   1.60637   -1.000
 5184.00    1.46167   1.57530   -1.000
 5185.00    1.71675   1.68072   -1.000
 5186.00    1.99097   1.85939   -1.000
 5187.00    2.14295   2.02015   -1.000
 5188.00    2.20708   2.11709   -1.000
 5189.00    2.24247   2.15234   -1.000
 5190.00    2.25758   2.13755   -1.000
 5191.00    2.16369   2.08377   -1.000
 5192.00    2.02842   2.02140  172.925
 5193.00    2.01524   1.99167   -1.000
 5194.00    2.09275   2.00481   -1.000
 5195.00    2.13357   2.04024   -1.000
 5196.00    2.18563   2.08311   -1.000
 5197.00    2.23147   2.13229   -1.000
 5198.00    2.28327   2.18441   -1.000
 5199.00    2.32465   2.22816   -1.000
 5200.00    2.33930   2.25148   -1.000
 5201.00    2.31269   2.24722   -1.000
 5202.00    2.26686   2.21315   -1.000
 5203.00    2.22520   2.14915   -1.000
 5204.00    2.12653   2.06262   -1.000
 5205.00    2.01758   1.97414   -1.000
 5206.00    1.97004   1.90845   -1.000
 5207.00    1.95578   1.87733   -1.000
 5208.00    1.93712   1.87845   -1.000
 5209.00    1.96348   1.91197   -1.000
 5210.00    2.06260   1.98338   -1.000
 5211.00    2.19189   2.08341   -1.000
 5212.00    2.33051   2.18221   -1.000
 5213.00    2.38998   2.24442   -1.000
 5214.00    2.36498   2.25251   -1.000
 5215.00    2.31417   2.22110   -1.000
 5216.00    2.26389   2.18941   -1.000
 5217.00    2.28496   2.19264   -1.000
 5218.00    2.36328   2.23502   15.714
 5219.00    2.43657   2.29325   15.941
 5220.00    2.46924   2.33960   16.452
 5221.00    2.46501   2.35636   17.147
 5222.00    2.43736   2.33487   17.950
 5223.00    2.35682   2.27276   18.401
 5224.00    2.24445   2.17557   17.936
 5225.00    2.10782   2.06403   16.906
 5226.00    2.01536   1.97848   16.243
 5227.00    2.02177   1.96205   15.984
 5228.00    2.15459   2.02715   15.986
 5229.00    2.32082   2.13939   -1.000
 5230.00    2.40666   2.23492   -1.000
 5231.00    2.42498   2.26804   16.540
 5232.00    2.34828   2.24232   16.138
 5233.00    2.29100   2.20077   15.759
 5234.00    2.29217   2.19065   15.601
 5235.00    2.32932   2.22838   15.599
 5236.00    2.42138   2.29610   15.650
 5237.00    2.50529   2.36186   15.614
 5238.00    2.52321   2.40248   15.522
 5239.00    2.51392   2.41535   15.551
 5240.00    2.51121   2.41188   15.515
 5241.00    2.51007   2.40456   15.504
 5242.00    2.51594   2.40219   15.846
 5243.00    2.52234   2.40775   16.351
 5244.00    2.53314   2.41171   16.709
 5245.00    2.51688   2.39425   16.728
 5246.00    2.42416   2.34627   16.763
 5247.00    2.33836   2.28575   16.868
 5248.00    2.31973   2.23957   16.769
 5249.00    2.31809   2.21676   16.528
 5250.00    2.31284   2.21209   16.377
 5251.00    2.31299   2.22285   16.385
 5252.00    2.34795   2.24407   16.246
 5253.00    2.38504   2.26260   15.846
 5254.00    2.37934   2.27273   15.427
 5255.00    2.37506   2.29009   15.323
 5256.00    2.43433   2.33627   15.498
 5257.00    2.54718   2.40439   15.955
 5258.00    2.61333   2.45909   16.653
 5259.00    2.59115   2.46782   17.443
 5260.00    2.54542   2.42019   18.019
 5261.00    2.44469   2.32515   18.358
 5262.00    2.28917   2.20429   18.367
 5263.00    2.15695   2.08341   18.023
 5264.00    2.06547   1.98774   17.739
 5265.00    2.01334   1.93532   18.193
 5266.00    2.02577   1.92661   18.894
 5267.00    2.09425   1.93414   -1.000
 5268.00    2.07172   1.91947   17.321
 5269.00    1.93151   1.88203   16.632
 5270.00    1.91146   1.87130   16.508
 5271.00    2.09255   1.93433   16.524
 5272.00    2.27845   2.05170   -1.000
 5273.00    2.35388   2.15337   -1.000
 5274.00    2.36014   2.20480   15.562
 5275.00    2.35087   2.23436   15.312
 5276.00    2.40308   2.28368   15.447
 5277.00    2.52331   2.35838   15.841
 5278.00    2.62435   2.42461   -1.000
 5279.00    2.62145   2.44584   -1.000
 5280.00    2.54708   2.41455   16.563
 5281.00    2.48810   2.35199   16.188
 5282.00    2.40776   2.29012   15.681
 5283.00    2.35202   2.26149   15.211
 5284.00    2.31640   2.28877   15.134
 5285.00    2.49236   2.36878   15.221
 5286.00    2.67114   2.46381   -1.000
 5287.00    2.71654   2.53110   -1.000
 5288.00    2.71673   2.56066   15.096
 5289.00    2.70619   2.57115   15.197
 5290.00    2.73621   2.57904   15.348
 5291.00    2.74758   2.58272   15.571
 5292.00    2.70319   2.57398   16.022
 5293.00    2.66932   2.55218   16.640
 5294.00    2.66524   2.51641   17.032
 5295.00    2.59340   2.45583   16.864
 5296.00    2.46633   2.36821   16.423
 5297.00    2.32475   2.27990   16.141
 5298.00    2.28517   2.23389   16.044
 5299.00    2.37817   2.24863   15.820
 5300.00    2.46667   2.29947   15.388
 5301.00    2.50753   2.35356   15.134
 5302.00    2.55266   2.40521   15.125
 5303.00    2.63714   2.46578   15.284
 5304.00    2.73238   2.53251   -1.000
 5305.00    2.79040   2.58107   -1.000
 5306.00    2.76647   2.59543   15.116
 5307.00    2.72682   2.58859   15.033
 5308.00    2.74505   2.58657   15.061
 5309.00    2.78789   2.60077   -1.000
 5310.00    2.80623   2.61905   -1.000
 5311.00    2.78601   2.62396   15.334
 5312.00    2.75762   2.61170   15.487
 5313.00    2.75723   2.58946   15.613
 5314.00    2.73617   2.56392   15.598
 5315.00    2.72499   2.53779   -1.000
 5316.00    2.69197   2.51501   15.427
 5317.00    2.67588   2.50383   15.497
 5318.00    2.67622   2.50693   15.616
 5319.00    2.68780   2.51547   -1.000
 5320.00    2.69998   2.51756   -1.000
 5321.00    2.67245   2.50511   -1.000
 5322.00    2.63227   2.47310   16.233
 5323.00    2.58861   2.42360   -1.000
 5324.00    2.52381   2.36651   -1.000
 5325.00    2.49733   2.30392   -1.000
 5326.00    2.46134   2.22193   -1.000
 5327.00    2.28830   2.12324   16.407
 5328.00    2.12122   2.05208   15.946
 5329.00    2.17016   2.06725   15.801
 5330.00    2.37109   2.17274   -1.000
 5331.00    2.53884   2.30611   -1.000
 5332.00    2.59425   2.40663   -1.000
 5333.00    2.62982   2.46590   15.541
 5334.00    2.69710   2.50763   -1.000
 5335.00    2.75660   2.54321   -1.000
 5336.00    2.77017   2.56150   -1.000
 5337.00    2.73292   2.54937   -1.000
 5338.00    2.68769   2.50361   -1.000
 5339.00    2.59650   2.43446   15.843
 5340.00    2.50142   2.37064   15.599
 5341.00    2.48968   2.35062   15.628
 5342.00    2.56326   2.38400   -1.000
 5343.00    2.66493   2.43871   -1.000
 5344.00    2.70080   2.47522   -1.000
 5345.00    2.66484   2.48024   -1.000
 5346.00    2.63223   2.46459   16.055
 5347.00    2.62495   2.44241   -1.000
 5348.00    2.60430   2.42324   -1.000
 5349.00    2.58994   2.42058   15.252
 5350.00    2.64818   2.44752   -1.000
 5351.00    2.71962   2.49983   -1.000
 5352.00    2.77191   2.55832   -1.000
 5353.00    2.81797   2.60743   -1.000
 5354.00    2.84931   2.64701   -1.000
 5355.00    2.89721   2.68193   -1.000
 5356.00    2.92464   2.70859   -1.000
 5357.00    2.90947   2.72064   -1.000
 5358.00    2.88767   2.71782   15.358
 5359.00    2.87185   2.70205   15.567
 5360.00    2.84537   2.67348   15.666
 5361.00    2.77645   2.63572   15.756
 5362.00    2.74353   2.59646   15.835
 5363.00    2.72456   2.56143   15.781
 5364.00    2.71149   2.53196   -1.000
 5365.00    2.67160   2.50813   16.003
 5366.00    2.67482   2.49170   -1.000
 5367.00    2.67494   2.47756   -1.000
 5368.00    2.62675   2.44646   -1.000
 5369.00    2.54030   2.38497   16.136
 5370.00    2.43836   2.31112   15.425
 5371.00    2.39095   2.27192   15.105
 5372.00    2.48777   2.30591   15.029
 5373.00    2.64866   2.40323   -1.000
 5374.00    2.78918   2.51454   -1.000
 5375.00    2.84841   2.59204   -1.000
 5376.00    2.84625   2.62284   -1.000
 5377.00    2.81235   2.62568   -1.000
 5378.00    2.80689   2.62319   -1.000
 5379.00    2.82021   2.62095   -1.000
 5380.00    2.81173   2.61081   -1.000
 5381.00    2.78416   2.58900   -1.000
 5382.00    2.77402   2.56473   -1.000
 5383.00    2.75565   2.55269   -1.000
 5384.00    2.76117   2.56020   -1.000
 5385.00    2.80859   2.58089   -1.000
 5386.00    2.83424   2.59833   -1.000
 5387.00    2.81078   2.59644   -1.000
 5388.00    2.74558   2.57036   -1.000
 5389.00    2.69180   2.52793   16.015
 5390.00    2.65276   2.48445   -1.000
 5391.00    2.62505   2.45301   -1.000
 5392.00    2.61491   2.43752   -1.000
 5393.00    2.62870   2.43175   -1.000
 5394.00    2.62591   2.42233   -1.000
 5395.00    2.59393   2.39688   -1.000
 5396.00    2.52327   2.35875   15.724
 5397.00    2.48333   2.33413   15.676
 5398.00    2.55297   2.34947   -1.000
 5399.00    2.63832   2.40213   -1.000
 5400.00    2.68368   2.46165   -1.000
 5401.00    2.69362   2.49715   -1.000
 5402.00    2.69384   2.49092   -1.000
 5403.00    2.62301   2.43758   -1.000
 5404.00    2.49220   2.34981   16.508
 5405.00    2.41209   2.26940   16.425
 5406.00    2.40378   2.24317   16.559
 5407.00    2.46842   2.27339   -1.000
 5408.00    2.53144   2.32012   -1.000
 5409.00    2.52413   2.34987   15.616
 5410.00    2.52872   2.37196   15.495
 5411.00    2.59880   2.41546   -1.000
 5412.00    2.69570   2.47960   -1.000
 5413.00    2.77138   2.53612   -1.000
 5414.00    2.76469   2.56946   -1.000
 5415.00    2.76790   2.59172   15.398
 5416.00    2.79781   2.61860   -1.000
 5417.00    2.85333   2.64413   -1.000
 5418.00    2.86440   2.65041   -1.000
 5419.00    2.82097   2.63443   -1.000
 5420.00    2.77433   2.61090   15.749
 5421.00    2.77869   2.59364   -1.000
 5422.00    2.79903   2.58114   -1.000
 5423.00    2.76706   2.56645   -1.000
 5424.00    2.72365   2.55991   15.537
 5425.00    2.75684   2.57928   -1.000
 5426.00    2.82388   2.61569   -1.000
 5427.00    2.84060   2.62864   -1.000
 5428.00    2.75521   2.58595   -1.000
 5429.00    2.63031   2.50917   16.171
 5430.00    2.59169   2.45277   16.414
 5431.00    2.64333   2.44210   -1.000
 5432.00    2.67589   2.45141   -1.000
 5433.00    2.63749   2.44380   -1.000
 5434.00    2.59281   2.41973   15.628
 5435.00    2.58068   2.41241   15.328
 5436.00    2.63111   2.44859   -1.000
 5437.00    2.72295   2.52528   -1.000
 5438.00    2.81408   2.61606   -1.000
 5439.00    2.89903   2.69266   -1.000
 5440.00    2.93933   2.74080   -1.000
 5441.00    2.95258   2.76236   -1.000
 5442.00    2.93654   2.76244   -1.000
 5443.00    2.91501   2.73559   -1.000
 5444.00    2.82776   2.67079   -1.000
 5445.00    2.68532   2.57190   15.988
 5446.00    2.55334   2.47529   15.600
 5447.00    2.53542   2.43048   15.500
 5448.00    2.61873   2.45918   15.536
 5449.00    2.74297   2.53533   -1.000
 5450.00    2.81248   2.60609   -1.000
 5451.00    2.84451   2.63578   -1.000
 5452.00    2.81298   2.61957   -1.000
 5453.00    2.73935   2.56623   -1.000
 5454.00    2.66140   2.49227   15.887
 5455.00    2.58212   2.43280   15.526
 5456.00    2.60122   2.42874   15.513
 5457.00    2.70958   2.49158   -1.000
 5458.00    2.82527   2.58063   -1.000
 5459.00    2.88513   2.63819   -1.000
 5460.00    2.83983   2.63843   -1.000
 5461.00    2.76453   2.59628   16.015
 5462.00    2.69802   2.54594   15.852
 5463.00    2.68101   2.51896   15.767
 5464.00    2.72208   2.52792   -1.000
 5465.00    2.78981   2.56075   -1.000
 5466.00    2.81066   2.59591   -1.000
 5467.00    2.81237   2.62022   -1.000
 5468.00    2.82706   2.62990   -1.000
 5469.00    2.81637   2.62482   -1.000
 5470.00    2.78174   2.60856   -1.000
 5471.00    2.75562   2.58781   -1.000
 5472.00    2.74348   2.56700   -1.000
 5473.00    2.72224   2.54270   -1.000
 5474.00    2.69770   2.50588   -1.000
 5475.00    2.64621   2.45533   -1.000
 5476.00    2.56784   2.40913   16.038
 5477.00    2.54520   2.40036   16.211
 5478.00    2.62785   2.43939   -1.000
 5479.00    2.71431   2.49166   -1.000
 5480.00    2.72141   2.51466   -1.000
 5481.00    2.66254   2.50543   15.662
 5482.00    2.62568   2.50186   15.598
 5483.00    2.66777   2.53529   15.788
 5484.00    2.75242   2.59352   15.994
 5485.00    2.82258   2.63689   -1.000
 5486.00    2.83196   2.63910   -1.000
 5487.00    2.77726   2.61012   -1.000
 5488.00    2.75319   2.58152   -1.000
 5489.00    2.76712   2.57745   -1.000
 5490.00    2.79137   2.59640   -1.000
 5491.00    2.82740   2.61921   -1.000
 5492.00    2.84145   2.63060   -1.000
 5493.00    2.82934   2.63025   -1.000
 5494.00    2.81737   2.62667   -1.000
 5495.00    2.83100   2.62341   -1.000
 5496.00    2.82808   2.61765   -1.000
 5497.00    2.80382   2.61362   -1.000
 5498.00    2.82282   2.62084   -1.000
 5499.00    2.86188   2.63355   -1.000
 5500.00    2.86766   2.63201   -1.000
 5501.00    2.81424   2.60773   -1.000
 5502.00    2.77137   2.57684   -1.000
 5503.00    2.74557   2.55972   -1.000
 5504.00    2.75913   2.55398   -1.000
 5505.00    2.74126   2.54467   -1.000
 5506.00    2.71159   2.53285   -1.000
 5507.00    2.72168   2.53602   -1.000
 5508.00    2.77807   2.56183   -1.000
 5509.00    2.81420   2.59011   -1.000
 5510.00    2.81370   2.59121   -1.000
 5511.00    2.76956   2.55803   -1.000
 5512.00    2.69725   2.51143   -1.000
 5513.00    2.65756   2.48084   -1.000
 5514.00    2.67316   2.48162   -1.000
 5515.00    2.72766   2.51020   -1.000
 5516.00    2.79324   2.55517   -1.000
 5517.00    2.85007   2.60770   -1.000
 5518.00    2.90163   2.66035   -1.000
 5519.00    2.94585   2.70212   -1.000
 5520.00    2.95032   2.72291   -1.000
 5521.00    2.93831   2.72501   -1.000
 5522.00    2.93887   2.72021   -1.000
 5523.00    2.94539   2.71480   -1.000
 5524.00    2.92710   2.70219   -1.000
 5525.00    2.88358   2.66955   -1.000
 5526.00    2.81874   2.61326   -1.000
 5527.00    2.72811   2.54899   -1.000
 5528.00    2.66875   2.51023   15.721
 5529.00    2.69236   2.52244   15.799
 5530.00    2.78759   2.57611   -1.000
 5531.00    2.85723   2.63357   -1.000
 5532.00    2.86866   2.66354   -1.000
 5533.00    2.85690   2.66334   -1.000
 5534.00    2.85013   2.64942   -1.000
 5535.00    2.84441   2.63771   -1.000
 5536.00    2.84022   2.63616   -1.000
 5537.00    2.86067   2.64642   -1.000
 5538.00    2.88602   2.66662   -1.000
 5539.00    2.93155   2.69394   -1.000
 5540.00    2.97531   2.72125   -1.000
 5541.00    2.99955   2.73601   -1.000
 5542.00    2.97264   2.73026   -1.000
 5543.00    2.91281   2.71098   -1.000
 5544.00    2.89960   2.69386   -1.000
 5545.00    2.92223   2.68892   -1.000
 5546.00    2.93374   2.69765   -1.000
 5547.00    2.94199   2.71969   -1.000
 5548.00    2.99258   2.75168   -1.000
 5549.00    3.03629   2.78282   -1.000
 5550.00    3.04544   2.80052   -1.000
 5551.00    3.05482   2.79861   -1.000
 5552.00    3.04012   2.77873   -1.000
 5553.00    3.00240   2.74992   -1.000
 5554.00    2.96343   2.72609   -1.000
 5555.00    2.95601   2.71653   -1.000
 5556.00    2.97520   2.71894   -1.000
 5557.00    2.98826   2.72403   -1.000
 5558.00    2.99322   2.72670   -1.000
 5559.00    2.99841   2.72751   -1.000
 5560.00    2.99004   2.72435   -1.000
 5561.00    2.96532   2.71198   -1.000
 5562.00    2.93549   2.69193   -1.000
 5563.00    2.90713   2.67283   -1.000
 5564.00    2.88704   2.66035   -1.000
 5565.00    2.88448   2.65203   -1.000
 5566.00    2.88239   2.64369   -1.000
 5567.00    2.86946   2.63641   -1.000
 5568.00    2.87920   2.63444   -1.000
 5569.00    2.91394   2.63913   -1.000
 5570.00    2.98588   2.64670   -1.000
 5571.00    3.20144   2.65100   -1.000
 5572.00    3.55479   2.64974   -1.000
 5573.00    3.69812   2.64963   -1.000
 5574.00    3.35262   2.66187   -1.000
 5575.00    2.71711   2.68627   15.674
 5576.00    2.37320   2.70921   -1.000
 5577.00    2.68471   2.72344   16.193
 5578.00    2.98301   2.73445   -1.000
 5579.00    3.01612   2.74530   -1.000
 5580.00    3.01840   2.75147   -1.000
 5581.00    3.00448   2.74827   -1.000
 5582.00    2.97830   2.73635   -1.000
 5583.00    2.96401   2.71802   -1.000
 5584.00    2.94540   2.68711   -1.000
 5585.00    2.87772   2.63264   -1.000
 5586.00    2.77345   2.55713   -1.000
 5587.00    2.69200   2.48439   -1.000
 5588.00    2.66040   2.44488   -1.000
 5589.00    2.69586   2.45149   -1.000
 5590.00    2.75407   2.49203   -1.000
 5591.00    2.80143   2.54030   -1.000
 5592.00    2.82162   2.57601   -1.000
 5593.00    2.82169   2.59869   -1.000
 5594.00    2.84523   2.62309   -1.000
 5595.00    2.89588   2.65790   -1.000
 5596.00    2.94176   2.68903   -1.000
 5597.00    2.93229   2.69263   -1.000
 5598.00    2.87045   2.66260   -1.000
 5599.00    2.82162   2.61590   -1.000
 5600.00    2.79528   2.57323   -1.000
 5601.00    2.77048   2.54625   -1.000
 5602.00    2.75515   2.54480   -1.000
 5603.00    2.80263   2.58111   -1.000
 5604.00    2.90406   2.65388   -1.000
 5605.00    2.99996   2.73835   -1.000
 5606.00    3.06139   2.80454   -1.000
 5607.00    3.07862   2.83937   -1.000
 5608.00    3.08271   2.84914   -1.000
 5609.00    3.09043   2.84905   -1.000
 5610.00    3.10041   2.85162   -1.000
 5611.00    3.11440   2.85544   -1.000
 5612.00    3.10518   2.84150   -1.000
 5613.00    3.03999   2.78715   -1.000
 5614.00    2.90715   2.69386   -1.000
 5615.00    2.78947   2.60175   -1.000
 5616.00    2.77782   2.56029   -1.000
 5617.00    2.84666   2.58274   -1.000
 5618.00    2.91019   2.63620   -1.000
 5619.00    2.94399   2.68230   -1.000
 5620.00    2.95039   2.71230   -1.000
 5621.00    2.97184   2.73067   -1.000
 5622.00    2.97438   2.72778   -1.000
 5623.00    2.92439   2.69394   -1.000
 5624.00    2.83824   2.64454   -1.000
 5625.00    2.80184   2.61560   -1.000
 5626.00    2.85901   2.63034   -1.000
 5627.00    2.93666   2.67835   -1.000
 5628.00    3.00676   2.73410   -1.000
 5629.00    3.04220   2.78159   -1.000
 5630.00    3.07122   2.81390   -1.000
 5631.00    3.08889   2.82693   -1.000
 5632.00    3.08427   2.82105   -1.000
 5633.00    3.04203   2.80113   -1.000
 5634.00    2.99663   2.77280   -1.000
 5635.00    2.98434   2.74130   -1.000
 5636.00    2.95587   2.71307   -1.000
 5637.00    2.93406   2.69561   -1.000
 5638.00    2.93271   2.69180   -1.000
 5639.00    2.93364   2.69501   -1.000
 5640.00    2.92670   2.69435   -1.000
 5641.00    2.92303   2.68739   -1.000
 5642.00    2.93099   2.68404   -1.000
 5643.00    2.94770   2.69309   -1.000
 5644.00    2.96281   2.71132   -1.000
 5645.00    2.98667   2.73051   -1.000
 5646.00    2.99659   2.74551   -1.000
 5647.00    3.00213   2.75289   -1.000
 5648.00    3.00074   2.75148   -1.000
 5649.00    2.99327   2.74687   -1.000
 5650.00    3.00114   2.74931   -1.000
 5651.00    3.04810   2.76260   -1.000
 5652.00    3.08894   2.77578   -1.000
 5653.00    3.06444   2.77383   -1.000
 5654.00    3.01315   2.75526   -1.000
 5655.00    2.98589   2.72752   -1.000
 5656.00    2.95792   2.69107   -1.000
 5657.00    2.88053   2.64315   -1.000
 5658.00    2.80256   2.59589   -1.000
 5659.00    2.80431   2.57618   -1.000
 5660.00    2.87127   2.59429   -1.000
 5661.00    2.90936   2.62711   -1.000
 5662.00    2.90940   2.65295   -1.000
 5663.00    2.93484   2.67813   -1.000
 5664.00    2.99482   2.71131   -1.000
 5665.00    3.02171   2.74079   -1.000
 5666.00    3.00441   2.75035   -1.000
 5667.00    2.97522   2.74079   -1.000
 5668.00    2.95837   2.72869   -1.000
 5669.00    2.96383   2.72857   -1.000
 5670.00    3.00069   2.74378   -1.000
 5671.00    3.04272   2.77227   -1.000
 5672.00    3.08979   2.80876   -1.000
 5673.00    3.12504   2.84191   -1.000
 5674.00    3.13817   2.86124   -1.000
 5675.00    3.15059   2.86670   -1.000
 5676.00    3.16036   2.86609   -1.000
 5677.00    3.15489   2.86366   -1.000
 5678.00    3.15805   2.85543   -1.000
 5679.00    3.11782   2.83731   -1.000
 5680.00    3.07914   2.81071   -1.000
 5681.00    3.05733   2.77855   -1.000
 5682.00    3.02289   2.74658   -1.000
 5683.00    2.99637   2.72744   -1.000
 5684.00    3.02711   2.72779   -1.000
 5685.00    3.04859   2.73541   -1.000
 5686.00    3.00651   2.73413   -1.000
 5687.00    2.95582   2.72497   -1.000
 5688.00    2.95055   2.72390   -1.000
 5689.00    2.99718   2.74340   -1.000
 5690.00    3.06850   2.78036   -1.000
 5691.00    3.13253   2.82060   -1.000
 5692.00    3.15957   2.85083   -1.000
 5693.00    3.15690   2.86514   -1.000
 5694.00    3.14479   2.86545   -1.000
 5695.00    3.13282   2.85749   -1.000
 5696.00    3.10625   2.84374   -1.000
 5697.00    3.07248   2.82220   -1.000
 5698.00    3.03239   2.79310   -1.000
 5699.00    2.97797   2.76147   -1.000
 5700.00    2.93540   2.73267   -1.000
 5701.00    2.90518   2.71306   -1.000
 5702.00    2.89854   2.71128   -1.000
 5703.00    2.95153   2.72639   -1.000
 5704.00    3.00997   2.74086   -1.000
 5705.00    2.99939   2.73447   -1.000
 5706.00    2.93913   2.70207   -1.000
 5707.00    2.87546   2.65664   -1.000
 5708.00    2.82617   2.61616   -1.000
 5709.00    2.80807   2.59152   -1.000
 5710.00    2.82664   2.58802   -1.000
 5711.00    2.86270   2.60911   -1.000
 5712.00    2.92485   2.65510   -1.000
 5713.00    3.00666   2.71789   -1.000
 5714.00    3.06694   2.77932   -1.000
 5715.00    3.09101   2.82419   -1.000
 5716.00    3.13045   2.85186   -1.000
 5717.00    3.16439   2.86976   -1.000
 5718.00    3.17363   2.88481   -1.000
 5719.00    3.20163   2.90200   -1.000
 5720.00    3.21310   2.92295   -1.000
 5721.00    3.22091   2.94509   -1.000
 5722.00    3.25270   2.96370   -1.000
 5723.00    3.27082   2.97324   -1.000
 5724.00    3.25773   2.96755   -1.000
 5725.00    3.22406   2.94428   -1.000
 5726.00    3.17907   2.91208   -1.000
 5727.00    3.14141   2.88926   -1.000
 5728.00    3.14732   2.88735   -1.000
 5729.00    3.17744   2.89676   -1.000
 5730.00    3.18444   2.89918   -1.000
 5731.00    3.16689   2.89276   -1.000
 5732.00    3.16351   2.89377   -1.000
 5733.00    3.19061   2.91331   -1.000
 5734.00    3.22793   2.94081   -1.000
 5735.00    3.25094   2.95626   -1.000
 5736.00    3.23241   2.95302   -1.000
 5737.00    3.20339   2.94083   -1.000
 5738.00    3.18900   2.93206   -1.000
 5739.00    3.18258   2.93002   -1.000
 5740.00    3.18337   2.92960   -1.000
 5741.00    3.17229   2.92678   -1.000
 5742.00    3.16792   2.92508   -1.000
 5743.00    3.17615   2.93232   -1.000
 5744.00    3.20684   2.94924   -1.000
 5745.00    3.24576   2.96325   -1.000
 5746.00    3.23978   2.95941   -1.000
 5747.00    3.19664   2.93937   -1.000
 5748.00    3.16106   2.92331   -1.000
 5749.00    3.19025   2.92542   -1.000
 5750.00    3.23596   2.93318   -1.000
 5751.00    3.19860   2.92058   -1.000
 5752.00    3.12078   2.87990   -1.000
 5753.00    3.06571   2.83608   -1.000
 5754.00    3.06653   2.82498   -1.000
 5755.00    3.14225   2.85954   -1.000
 5756.00    3.23057   2.91892   -1.000
 5757.00    3.27098   2.96701   -1.000
 5758.00    3.26650   2.97980   -1.000
 5759.00    3.23262   2.95489   -1.000
 5760.00    3.16081   2.90614   -1.000
 5761.00    3.09176   2.85674   -1.000
 5762.00    3.06239   2.83219   -1.000
 5763.00    3.09582   2.84921   -1.000
 5764.00    3.17351   2.90235   -1.000
 5765.00    3.25598   2.96393   -1.000
 5766.00    3.28364   3.00699   -1.000
 5767.00    3.26874   3.02519   -1.000
 5768.00    3.26734   3.02598   -1.000
 5769.00    3.24789   3.01716   -1.000
 5770.00    3.22498   3.00349   -1.000
 5771.00    3.19755   2.98752   -1.000
 5772.00    3.15556   2.97088   -1.000
 5773.00    3.10200   2.95659   15.493
 5774.00    3.04837   2.94934   15.510
 5775.00    2.97955   2.95240   15.633
 5776.00    2.92892   2.96217   15.927
 5777.00    2.95261   2.96505   16.238
 5778.00    3.01973   2.94424   16.339
 5779.00    3.04139   2.89307   16.277
 5780.00    3.01438   2.82298   -1.000
 5781.00    2.97620   2.75896   -1.000
 5782.00    2.94878   2.72187   -1.000
 5783.00    2.93917   2.71255   -1.000
 5784.00    2.93669   2.71806   -1.000
 5785.00    2.95336   2.73528   -1.000
 5786.00    3.01760   2.77244   -1.000
 5787.00    3.10934   2.82573   -1.000
 5788.00    3.17832   2.87437   -1.000
 5789.00    3.18984   2.90082   -1.000
 5790.00    3.16125   2.90604   -1.000
 5791.00    3.12621   2.90745   -1.000
 5792.00    3.13277   2.92348   -1.000
 5793.00    3.17463   2.95708   -1.000
 5794.00    3.22592   2.99268   -1.000
 5795.00    3.27532   3.00963   -1.000
 5796.00    3.27949   3.00051   -1.000
 5797.00    3.25426   2.98012   -1.000
 5798.00    3.25493   2.97534   -1.000
 5799.00    3.30000   3.00048   -1.000
 5800.00    3.36890   3.04323   -1.000
 5801.00    3.39517   3.07589   -1.000
 5802.00    3.36375   3.07891   -1.000
 5803.00    3.31126   3.05331   -1.000
 5804.00    3.25481   3.01665   -1.000
 5805.00    3.21968   2.98985   -1.000
 5806.00    3.22017   2.98300   -1.000
 5807.00    3.24245   2.99223   -1.000
 5808.00    3.27545   3.00838   -1.000
 5809.00    3.30895   3.02532   -1.000
 5810.00    3.33680   3.03997   -1.000
 5811.00    3.35745   3.04850   -1.000
 5812.00    3.36188   3.04602   -1.000
 5813.00    3.32866   3.02956   -1.000
 5814.00    3.27927   3.00157   -1.000
 5815.00    3.25499   2.97361   -1.000
 5816.00    3.25203   2.96399   -1.000
 5817.00    3.28552   2.98402   -1.000
 5818.00    3.34221   3.02499   -1.000
 5819.00    3.37762   3.06448   -1.000
 5820.00    3.39524   3.08502   -1.000
 5821.00    3.39545   3.08515   -1.000
 5822.00    3.37969   3.07523   -1.000
 5823.00    3.38189   3.06710   -1.000
 5824.00    3.39339   3.06636   -1.000
 5825.00    3.39091   3.07115   -1.000
 5826.00    3.39006   3.07747   -1.000
 5827.00    3.39723   3.08367   -1.000
 5828.00    3.40748   3.09028   -1.000
 5829.00    3.41501   3.09660   -1.000
 5830.00    3.41000   3.09958   -1.000
 5831.00    3.41016   3.09663   -1.000
 5832.00    3.39480   3.08746   -1.000
 5833.00    3.36975   3.07383   -1.000
 5834.00    3.34924   3.06035   -1.000
 5835.00    3.34803   3.05296   -1.000
 5836.00    3.35699   3.05274   -1.000
 5837.00    3.35958   3.05533   -1.000
 5838.00    3.33945   3.05995   -1.000
 5839.00    3.33495   3.07164   -1.000
 5840.00    3.36648   3.09163   -1.000
 5841.00    3.39921   3.11226   -1.000
 5842.00    3.41264   3.12305   -1.000
 5843.00    3.41848   3.11847   -1.000
 5844.00    3.41217   3.09958   -1.000
 5845.00    3.38909   3.07154   -1.000
 5846.00    3.34441   3.04208   -1.000
 5847.00    3.31005   3.02013   -1.000
 5848.00    3.31412   3.01102   -1.000
 5849.00    3.32894   3.01052   -1.000
 5850.00    3.32659   3.00582   -1.000
 5851.00    3.29663   2.98743   -1.000
 5852.00    3.24751   2.95990   -1.000
 5853.00    3.20885   2.93650   -1.000
 5854.00    3.20841   2.92249   -1.000
 5855.00    3.21372   2.90708   -1.000
 5856.00    3.18206   2.87858   -1.000
 5857.00    3.13926   2.84587   -1.000
 5858.00    3.13604   2.83428   -1.000
 5859.00    3.18895   2.85762   -1.000
 5860.00    3.24635   2.90175   -1.000
 5861.00    3.25770   2.94050   -1.000
 5862.00    3.25193   2.96166   -1.000
 5863.00    3.24520   2.96976   -1.000
 5864.00    3.23232   2.97119   -1.000
 5865.00    3.22862   2.96613   -1.000
 5866.00    3.23344   2.95735   -1.000
 5867.00    3.25290   2.95774   -1.000
 5868.00    3.29307   2.97721   -1.000
 5869.00    3.33301   3.00794   -1.000
 5870.00    3.34735   3.03249   -1.000
 5871.00    3.34937   3.04103   -1.000
 5872.00    3.34500   3.03685   -1.000
 5873.00    3.34965   3.02989   -1.000
 5874.00    3.36017   3.02638   -1.000
 5875.00    3.34537   3.02361   -1.000
 5876.00    3.31088   3.01390   -1.000
 5877.00    3.27109   2.99342   -1.000
 5878.00    3.22813   2.96589   -1.000
 5879.00    3.20038   2.93978   -1.000
 5880.00    3.17258   2.92374   -1.000
 5881.00    3.12723   2.92061   -1.000
 5882.00    3.02295   2.92334   15.850
 5883.00    2.80829   2.92198   16.227
 5884.00    2.52337   2.91395   -1.000
 5885.00    2.25680   2.89405   -1.000
 5886.00    2.10631   2.83689   -1.000
 5887.00    2.13179   2.70894   -1.000
 5888.00    2.14641   2.50984   -1.000
 5889.00    2.02814   2.30197   -1.000
 5890.00    1.92176   2.18092   -1.000
 5891.00    1.89979   2.19627   -1.000
 5892.00    1.97867   2.30104   -1.000
 5893.00    2.16341   2.39180   -1.000
 5894.00    2.35084   2.40298   17.259
 5895.00    2.42002   2.35894   16.693
 5896.00    2.46934   2.34367   16.281
 5897.00    2.62585   2.41422   -1.000
 5898.00    2.85108   2.54755   -1.000
 5899.00    3.02831   2.68383   -1.000
 5900.00    3.13358   2.78861   -1.000
 5901.00    3.19249   2.85881   -1.000
 5902.00    3.21184   2.90097   -1.000
 5903.00    3.20854   2.92222   -1.000
 5904.00    3.20134   2.92993   -1.000
 5905.00    3.19317   2.93200   -1.000
 5906.00    3.19945   2.93667   -1.000
 5907.00    3.22554   2.94841   -1.000
 5908.00    3.24657   2.96442   -1.000
 5909.00    3.25665   2.97931   -1.000
 5910.00    3.26839   2.98897   -1.000
 5911.00    3.27475   2.98756   -1.000
 5912.00    3.25085   2.96821   -1.000
 5913.00    3.20233   2.93207   -1.000
 5914.00    3.17309   2.89406   -1.000
 5915.00    3.16384   2.87438   -1.000
 5916.00    3.16907   2.88178   -1.000
 5917.00    3.20427   2.90938   -1.000
 5918.00    3.24901   2.94315   -1.000
 5919.00    3.27062   2.97009   -1.000
 5920.00    3.26554   2.98333   -1.000
 5921.00    3.25396   2.98419   -1.000
 5922.00    3.25406   2.98099   -1.000
 5923.00    3.27068   2.98360   -1.000
 5924.00    3.30058   2.99546   -1.000
 5925.00    3.32454   3.01039   -1.000
 5926.00    3.32379   3.01717   -1.000
 5927.00    3.30257   3.00759   -1.000
 5928.00    3.25870   2.98392   -1.000
 5929.00    3.21676   2.96057   -1.000
 5930.00    3.22376   2.95412   -1.000
 5931.00    3.26321   2.96692   -1.000
 5932.00    3.29012   2.98260   -1.000
 5933.00    3.28638   2.98473   -1.000
 5934.00    3.26070   2.97658   -1.000
 5935.00    3.24900   2.97608   -1.000
 5936.00    3.27361   2.99297   -1.000
 5937.00    3.29919   3.01688   -1.000
 5938.00    3.32463   3.03042   -1.000
 5939.00    3.32062   3.02507   -1.000
 5940.00    3.29250   3.00407   -1.000
 5941.00    3.27216   2.98025   -1.000
 5942.00    3.26034   2.96994   -1.000
 5943.00    3.28262   2.98049   -1.000
 5944.00    3.32943   3.00374   -1.000
 5945.00    3.34710   3.02309   -1.000
 5946.00    3.34106   3.02510   -1.000
 5947.00    3.31311   3.00823   -1.000
 5948.00    3.27618   2.98556   -1.000
 5949.00    3.25298   2.97407   -1.000
 5950.00    3.25568   2.97662   -1.000
 5951.00    3.26707   2.98069   -1.000
 5952.00    3.26382   2.97804   -1.000
 5953.00    3.24485   2.97439   -1.000
 5954.00    3.23899   2.97637   -1.000
 5955.00    3.25912   2.97898   -1.000
 5956.00    3.26610   2.97507   -1.000
 5957.00    3.25411   2.97105   -1.000
 5958.00    3.27722   2.98079   -1.000
 5959.00    3.32167   3.00760   -1.000
 5960.00    3.34089   3.04099   -1.000
 5961.00    3.36055   3.06723   -1.000
 5962.00    3.37527   3.07849   -1.000
 5963.00    3.37305   3.07469   -1.000
 5964.00    3.34492   3.06121   -1.000
 5965.00    3.30276   3.04736   -1.000
 5966.00    3.30705   3.04348   -1.000
 5967.00    3.35073   3.05341   -1.000
 5968.00    3.38452   3.07135   -1.000
 5969.00    3.40205   3.08948   -1.000
 5970.00    3.41831   3.10389   -1.000
 5971.00    3.41762   3.11227   -1.000
 5972.00    3.40208   3.11150   -1.000
 5973.00    3.38847   3.09839   -1.000
 5974.00    3.36004   3.07153   -1.000
 5975.00    3.31455   3.03527   -1.000
 5976.00    3.27909   3.00181   -1.000
 5977.00    3.26810   2.98512   -1.000
 5978.00    3.28324   2.99136   -1.000
 5979.00    3.31758   3.01447   -1.000
 5980.00    3.34208   3.03786   -1.000
 5981.00    3.34313   3.04215   -1.000
 5982.00    3.32046   3.01891   -1.000
 5983.00    3.26000   2.98040   -1.000
 5984.00    3.20916   2.95265   -1.000
 5985.00    3.22009   2.95433   -1.000
 5986.00    3.26314   2.98109   -1.000
 5987.00    3.30859   3.01418   -1.000
 5988.00    3.34332   3.04036   -1.000
 5989.00    3.36540   3.05624   -1.000
 5990.00    3.37193   3.06346   -1.000
 5991.00    3.35870   3.06903   -1.000
 5992.00    3.36034   3.08204   -1.000
 5993.00    3.39423   3.10199   -1.000
 5994.00    3.41630   3.11496   -1.000
 5995.00    3.40146   3.10701   -1.000
 5996.00    3.36281   3.07973   -1.000
 5997.00    3.31385   3.04997   -1.000
 5998.00    3.29700   3.03524   -1.000
 5999.00    3.31301   3.03932   -1.000
 6000.00    3.32572   3.05064   -1.000
 6001.00    3.32067   3.05542   -1.000
 6002.00    3.29422   3.05097   -1.000
 6003.00    3.27311   3.04527   -1.000
 6004.00    3.26927   3.04256   -1.000
 6005.00    3.25694   3.03366   -1.000
 6006.00    3.22624   3.01004   -1.000
 6007.00    3.20273   2.98242   -1.000
 6008.00    3.21346   2.97473   -1.000
 6009.00    3.26782   2.99738   -1.000
 6010.00    3.33289   3.03111   -1.000
 6011.00    3.35718   3.04674   -1.000
 6012.00    3.33182   3.03736   -1.000
 6013.00    3.29543   3.01999   -1.000
 6014.00    3.28947   3.01143   -1.000
 6015.00    3.30383   3.01168   -1.000
 6016.00    3.30132   3.01253   -1.000
 6017.00    3.28537   3.01129   -1.000
 6018.00    3.28240   3.00736   -1.000
 6019.00    3.27740   2.99822   -1.000
 6020.00    3.26323   2.98785   -1.000
 6021.00    3.26420   2.98658   -1.000
 6022.00    3.28634   2.99899   -1.000
 6023.00    3.31023   3.02107   -1.000
 6024.00    3.32660   3.04692   -1.000
 6025.00    3.36212   3.07227   -1.000
 6026.00    3.41249   3.09469   -1.000
 6027.00    3.43699   3.11464   -1.000
 6028.00    3.44241   3.13386   -1.000
 6029.00    3.45432   3.15102   -1.000
 6030.00    3.45140   3.16373   -1.000
 6031.00    3.43657   3.17393   -1.000
 6032.00    3.43936   3.18634   -1.000
 6033.00    3.45169   3.20311   -1.000
 6034.00    3.45916   3.22087   -1.000
 6035.00    3.47086   3.23194   -1.000
 6036.00    3.48555   3.23076   -1.000
 6037.00    3.47608   3.21836   -1.000
 6038.00    3.45251   3.20028   -1.000
 6039.00    3.43806   3.18319   -1.000
 6040.00    3.42482   3.17320   -1.000
 6041.00    3.42346   3.17392   -1.000
 6042.00    3.44732   3.18479   -1.000
 6043.00    3.46944   3.20174   -1.000
 6044.00    3.48775   3.21879   -1.000
 6045.00    3.51948   3.23142   -1.000
 6046.00    3.53416   3.23921   -1.000
 6047.00    3.52073   3.24381   -1.000
 6048.00    3.51680   3.24655   -1.000
 6049.00    3.53602   3.24772   -1.000
 6050.00    3.55074   3.24535   -1.000
 6051.00    3.54286   3.23558   -1.000
 6052.00    3.51658   3.21658   -1.000
 6053.00    3.48838   3.19150   -1.000
 6054.00    3.46560   3.16613   -1.000
 6055.00    3.44494   3.14629   -1.000
 6056.00    3.43215   3.13817   -1.000
 6057.00    3.43481   3.14542   -1.000
 6058.00    3.45852   3.16394   -1.000
 6059.00    3.48250   3.18295   -1.000
 6060.00    3.50053   3.19111   -1.000
 6061.00    3.53235   3.18176   -1.000
 6062.00    3.24032   3.15503    7.826
 6063.00    2.51245   3.11911   -1.000
 6064.00    2.37154   3.09036   -1.000
 6065.00    2.90213   3.08752   15.709
 6066.00    3.25501   3.11811   15.471
 6067.00    3.38156   3.16943   -1.000
 6068.00    3.00478   3.21821   15.285
 6069.00    1.85104   3.25031   -1.000
 6070.00    2.24329   3.26713   -1.000
 6071.00    3.43919   3.27477   -1.000
 6072.00    3.58622   3.27574   -1.000
 6073.00    3.58752   3.27157   -1.000
 6074.00    3.58270   3.26324   -1.000
 6075.00    3.55716   3.24769   -1.000
 6076.00    3.52060   3.22196   -1.000
 6077.00    3.47584   3.19000   -1.000
 6078.00    3.43482   3.16106   -1.000
 6079.00    3.41557   3.14126   -1.000
 6080.00    3.41842   3.12841   -1.000
 6081.00    3.41734   3.11836   -1.000
 6082.00    3.40424   3.11248   -1.000
 6083.00    3.41387   3.11383   -1.000
 6084.00    3.42741   3.12124   -1.000
 6085.00    3.42810   3.13193   -1.000
 6086.00    3.41968   3.14365   -1.000
 6087.00    3.42009   3.15153   -1.000
 6088.00    3.43178   3.14874   -1.000
 6089.00    3.41747   3.13393   -1.000
 6090.00    3.38827   3.11600   -1.000
 6091.00    3.36801   3.10787   -1.000
 6092.00    3.37641   3.11607   -1.000
 6093.00    3.41493   3.13773   -1.000
 6094.00    3.45111   3.16378   -1.000
 6095.00    3.47687   3.18440   -1.000
 6096.00    3.48247   3.19602   -1.000
 6097.00    3.48492   3.20286   -1.000
 6098.00    3.48836   3.20617   -1.000
 6099.00    3.47122   3.19446   -1.000
 6100.00    3.43579   3.15333   -1.000
 6101.00    3.37070   3.08769   -1.000
 6102.00    3.28630   3.03038   -1.000
 6103.00    3.25802   3.01797   -1.000
 6104.00    3.31112   3.05477   -1.000
 6105.00    3.39303   3.11126   -1.000
 6106.00    3.45111   3.15676   -1.000
 6107.00    3.45408   3.18356   -1.000
 6108.00    3.43639   3.19953   -1.000
 6109.00    3.44502   3.20956   -1.000
 6110.00    3.46059   3.21352   -1.000
 6111.00    3.44815   3.21564   -1.000
 6112.00    3.45313   3.22301   -1.000
 6113.00    3.50484   3.23507   -1.000
 6114.00    3.53120   3.24244   -1.000
 6115.00    3.50553   3.23860   -1.000
 6116.00    3.47305   3.22687   -1.000
 6117.00    3.46143   3.21111   -1.000
 6118.00    3.44071   3.18589   -1.000
 6119.00    3.39369   3.14336   -1.000
 6120.00    3.34554   3.08815   -1.000
 6121.00    3.29830   3.04195   -1.000
 6122.00    3.28143   3.03015   -1.000
 6123.00    3.32551   3.05896   -1.000
 6124.00    3.39081   3.10607   -1.000
 6125.00    3.42378   3.14096   -1.000
 6126.00    3.41917   3.15243   -1.000
 6127.00    3.40616   3.15175   -1.000
 6128.00    3.41047   3.15713   -1.000
 6129.00    3.44438   3.17854   -1.000
 6130.00    3.48559   3.21085   -1.000
 6131.00    3.50362   3.23765   -1.000
 6132.00    3.49207   3.23987   -1.000
 6133.00    3.44599   3.20230   -1.000
 6134.00    3.36480   3.12163   -1.000
 6135.00    3.26015   3.01829   -1.000
 6136.00    3.15002   2.93748   -1.000
 6137.00    3.10486   2.92178   -1.000
 6138.00    3.18588   2.97394   -1.000
 6139.00    3.33268   3.05266   -1.000
 6140.00    3.41454   3.11208   -1.000
 6141.00    3.40330   3.14264   -1.000
 6142.00    3.40741   3.16571   -1.000
 6143.00    3.44816   3.19609   -1.000
 6144.00    3.47451   3.22584   -1.000
 6145.00    3.48191   3.23986   -1.000
 6146.00    3.46970   3.23265   -1.000
 6147.00    3.43997   3.20972   -1.000
 6148.00    3.39891   3.18178   -1.000
 6149.00    3.35948   3.16015   -1.000
 6150.00    3.35604   3.15274   -1.000
 6151.00    3.38284   3.15886   -1.000
 6152.00    3.41823   3.16765   -1.000
 6153.00    3.41012   3.16648   -1.000
 6154.00    3.36660   3.15301   -1.000
 6155.00    3.33414   3.13614   -1.000
 6156.00    3.31986   3.12281   -1.000
 6157.00    3.29897   3.10660   -1.000
 6158.00    3.25572   3.07042   -1.000
 6159.00    3.18012   3.00002   -1.000
 6160.00    3.06565   2.90111   -1.000
 6161.00    2.93356   2.80661   17.228
 6162.00    2.86340   2.75909   17.101
 6163.00    2.89900   2.77736   17.113
 6164.00    3.00623   2.84267   -1.000
 6165.00    3.09036   2.91577   -1.000
 6166.00    3.11786   2.96229   -1.000
 6167.00    3.11997   2.96775   -1.000
 6168.00    3.09322   2.94317   -1.000
 6169.00    3.05290   2.91992   16.826
 6170.00    3.05025   2.92765   16.853
 6171.00    3.10234   2.96880   16.827
 6172.00    3.17666   3.01936   -1.000
 6173.00    3.21192   3.05596   -1.000
 6174.00    3.21116   3.07390   16.678
 6175.00    3.21621   3.08081   16.608
 6176.00    3.22369   3.08602   16.554
 6177.00    3.23734   3.09590   16.485
 6178.00    3.26798   3.11084   -1.000
 6179.00    3.29204   3.12712   -1.000
 6180.00    3.30859   3.14305   -1.000
 6181.00    3.31260   3.15836   -1.000
 6182.00    3.31017   3.16851   16.774
 6183.00    3.31296   3.16635   -1.000
 6184.00    3.30675   3.14893   -1.000
 6185.00    3.28173   3.11946   -1.000
 6186.00    3.23856   3.08498   -1.000
 6187.00    3.18669   3.05168   17.602
 6188.00    3.14718   3.01950   17.496
 6189.00    3.12374   2.98472   17.120
 6190.00    3.08639   2.95286   16.785
 6191.00    3.05374   2.94295   16.637
 6192.00    3.08731   2.96956   16.595
 6193.00    3.17172   3.02463   16.664
 6194.00    3.24260   3.08338   -1.000
 6195.00    3.27449   3.12443   -1.000
 6196.00    3.26266   3.13928   17.026
 6197.00    3.22235   3.12913   16.894
 6198.00    3.16144   3.10401   16.687
 6199.00    3.11261   3.08361   16.589
 6200.00    3.11193   3.08605   16.585
 6201.00    3.16969   3.11214   16.566
 6202.00    3.25447   3.14675   16.556
 6203.00    3.31861   3.17455   16.602
 6204.00    3.34026   3.19083   -1.000
 6205.00    3.34741   3.19953   -1.000
 6206.00    3.35721   3.20487   -1.000
 6207.00    3.35592   3.20663   -1.000
 6208.00    3.33962   3.20118   17.101
 6209.00    3.31842   3.18489   17.336
 6210.00    3.28984   3.15538   17.543
 6211.00    3.25138   3.11118   -1.000
 6212.00    3.19439   3.05502   -1.000
 6213.00    3.13456   2.99888   17.328
 6214.00    3.09721   2.96057   17.405
 6215.00    3.08786   2.95079   17.408
 6216.00    3.10133   2.96333   17.287
 6217.00    3.14336   2.97948   -1.000
 6218.00    3.17394   2.98440   -1.000
 6219.00    3.15182   2.98011   -1.000
 6220.00    3.15234   2.98060   -1.000
 6221.00    3.18370   2.99387   -1.000
 6222.00    3.19375   3.01442   -1.000
 6223.00    3.20914   3.03279   -1.000
 6224.00    3.22344   3.04546   -1.000
 6225.00    3.22644   3.05283   -1.000
 6226.00    3.22722   3.05131   -1.000
 6227.00    3.22580   3.03202   -1.000
 6228.00    3.19484   2.98972   -1.000
 6229.00    3.11347   2.93398   -1.000
 6230.00    3.02034   2.89005   17.141
 6231.00    2.99055   2.88318   17.007
 6232.00    3.04143   2.92008   17.074
 6233.00    3.12280   2.98501   17.238
 6234.00    3.21901   3.05019   -1.000
 6235.00    3.28556   3.09022   -1.000
 6236.00    3.27463   3.09411   -1.000
 6237.00    3.22876   3.06847   -1.000
 6238.00    3.17713   3.03001   -1.000
 6239.00    3.13457   2.99440   -1.000
 6240.00    3.11038   2.96860   -1.000
 6241.00    3.09645   2.94994   -1.000
 6242.00    3.07767   2.93322   -1.000
 6243.00    3.05936   2.91964   -1.000
 6244.00    3.06284   2.91692   -1.000
 6245.00    3.10458   2.93204   -1.000
 6246.00    3.16032   2.96603   -1.000
 6247.00    3.21451   3.01090   -1.000
 6248.00    3.24099   3.04970   -1.000
 6249.00    3.23200   3.06422   -1.000
 6250.00    3.20398   3.04647   -1.000
 6251.00    3.15256   3.00438   -1.000
 6252.00    3.09574   2.95765   -1.000
 6253.00    3.05253   2.92367   18.389
 6254.00    3.02499   2.90467   18.377
 6255.00    3.01600   2.89045   18.145
 6256.00    3.00672   2.87442   17.865
 6257.00    2.98781   2.86441   17.616
 6258.00    2.99558   2.87545   17.353
 6259.00    3.03581   2.91401   17.214
 6260.00    3.10550   2.97179   17.297
 6261.00    3.18736   3.03161   -1.000
 6262.00    3.22248   3.07667   -1.000
 6263.00    3.23008   3.09790   17.279
 6264.00    3.21484   3.09891   17.287
 6265.00    3.18723   3.09369   17.375
 6266.00    3.19015   3.09394   17.383
 6267.00    3.21165   3.09878   17.329
 6268.00    3.22274   3.10116   17.282
 6269.00    3.21029   3.10097   17.305
 6270.00    3.18540   3.10482   17.412
 6271.00    3.16505   3.11529   17.552
 6272.00    3.11652   3.12602   17.796
 6273.00    3.06123   3.12727   18.208
 6274.00    3.03766   3.11409   18.581
 6275.00    3.01500   3.08893   18.751
 6276.00    2.97924   3.05757   18.723
 6277.00    2.93212   3.02481   18.482
 6278.00    2.88484   2.99481   18.162
 6279.00    2.82345   2.97373   17.873
 6280.00    2.80547   2.97011   17.642
 6281.00    2.87131   2.98946   17.481
 6282.00    2.97919   3.02789   17.328
 6283.00    3.07686   3.07335   17.196
 6284.00    3.14861   3.11447   17.140
 6285.00    3.21656   3.14745   17.201
 6286.00    3.26835   3.17393   17.337
 6287.00    3.30015   3.19336   17.473
 6288.00    3.34170   3.19996   -1.000
 6289.00    3.35339   3.18905   -1.000
 6290.00    3.33328   3.16476   -1.000
 6291.00    3.29831   3.13893   -1.000
 6292.00    3.27576   3.12164   -1.000
 6293.00    3.28600   3.11274   -1.000
 6294.00    3.29945   3.10290   -1.000
 6295.00    3.26728   3.08413   -1.000
 6296.00    3.24303   3.06010   -1.000
 6297.00    3.22686   3.04295   -1.000
 6298.00    3.21159   3.03798   -1.000
 6299.00    3.21119   3.03734   -1.000
 6300.00    3.20757   3.03222   -1.000
 6301.00    3.18004   3.02647   -1.000
 6302.00    3.15690   3.03213   17.274
 6303.00    3.17106   3.05455   17.121
 6304.00    3.21291   3.08847   17.060
 6305.00    3.26008   3.12618   17.113
 6306.00    3.30204   3.16251   -1.000
 6307.00    3.36189   3.19163   -1.000
 6308.00    3.39052   3.20557   -1.000
 6309.00    3.37070   3.20070   -1.000
 6310.00    3.33649   3.18265   -1.000
 6311.00    3.30522   3.16118   -1.000
 6312.00    3.29351   3.14105   -1.000
 6313.00    3.27613   3.12012   -1.000
 6314.00    3.24532   3.09607   -1.000
 6315.00    3.22248   3.07167   -1.000
 6316.00    3.22484   3.05165   -1.000
 6317.00    3.21941   3.04079   -1.000
 6318.00    3.22699   3.04613   -1.000
 6319.00    3.25377   3.07146   -1.000
 6320.00    3.30600   3.10911   -1.000
 6321.00    3.34968   3.14634   -1.000
 6322.00    3.38014   3.17784   -1.000
 6323.00    3.39568   3.20498   -1.000
 6324.00    3.40547   3.22743   -1.000
 6325.00    3.43243   3.24205   -1.000
 6326.00    3.44274   3.24854   -1.000
 6327.00    3.43683   3.25072   -1.000
 6328.00    3.43745   3.25191   -1.000
 6329.00    3.45124   3.25345   -1.000
 6330.00    3.46068   3.25725   -1.000
 6331.00    3.46492   3.26268   -1.000
 6332.00    3.48935   3.26049   -1.000
 6333.00    3.47973   3.23832   -1.000
 6334.00    3.42362   3.19628   -1.000
 6335.00    3.35362   3.15291   -1.000
 6336.00    3.33044   3.13138   -1.000
 6337.00    3.37472   3.14045   -1.000
 6338.00    3.42228   3.17104   -1.000
 6339.00    3.44258   3.20652   -1.000
 6340.00    3.44649   3.23087   -1.000
 6341.00    3.44287   3.23387   -1.000
 6342.00    3.41931   3.21751   -1.000
 6343.00    3.40474   3.19716   -1.000
 6344.00    3.40039   3.19133   -1.000
 6345.00    3.40590   3.20740   -1.000
 6346.00    3.42931   3.23832   -1.000
 6347.00    3.46979   3.27195   -1.000
 6348.00    3.51154   3.29988   -1.000
 6349.00    3.52614   3.31843   -1.000
 6350.00    3.53372   3.32600   -1.000
 6351.00    3.53570   3.32081   -1.000
 6352.00    3.51365   3.30165   -1.000
 6353.00    3.46843   3.27180   -1.000
 6354.00    3.42137   3.24031   -1.000
 6355.00    3.39239   3.21437   -1.000
 6356.00    3.38867   3.19146   -1.000
 6357.00    3.36534   3.16421   -1.000
 6358.00    3.31494   3.13184   -1.000
 6359.00    3.28123   3.10115   -1.000
 6360.00    3.28025   3.07856   -1.000
 6361.00    3.28397   3.06755   -1.000
 6362.00    3.28391   3.07153   -1.000
 6363.00    3.31503   3.09295   -1.000
 6364.00    3.36440   3.12939   -1.000
 6365.00    3.41576   3.17389   -1.000
 6366.00    3.45464   3.21879   -1.000
 6367.00    3.48224   3.25727   -1.000
 6368.00    3.52112   3.28434   -1.000
 6369.00    3.54197   3.30047   -1.000
 6370.00    3.54352   3.31246   -1.000
 6371.00    3.55196   3.32708   -1.000
 6372.00    3.56628   3.34396   -1.000
 6373.00    3.56638   3.35698   -1.000
 6374.00    3.55385   3.36171   -1.000
 6375.00    3.55313   3.35811   -1.000
 6376.00    3.55904   3.34711   -1.000
 6377.00    3.54880   3.32998   -1.000
 6378.00    3.52057   3.31119   -1.000
 6379.00    3.51297   3.29748   -1.000
 6380.00    3.51147   3.29320   -1.000
 6381.00    3.49628   3.29756   -1.000
 6382.00    3.48893   3.30579   -1.000
 6383.00    3.49617   3.31360   -1.000
 6384.00    3.49477   3.32100   -1.000
 6385.00    3.49979   3.33044   -1.000
 6386.00    3.51848   3.34163   -1.000
 6387.00    3.52985   3.35081   -1.000
 6388.00    3.52150   3.35392   -1.000
 6389.00    3.50515   3.34660   -1.000
 6390.00    3.47686   3.32336   -1.000
 6391.00    3.42692   3.28394   -1.000
 6392.00    3.36343   3.24196   17.557
 6393.00    3.30087   3.22113   17.642
 6394.00    3.29064   3.23563   17.878
 6395.00    3.33563   3.27386   18.263
 6396.00    3.38130   3.30512   18.466
 6397.00    3.38631   3.30358   18.339
 6398.00    3.33372   3.26909   18.060
 6399.00    3.25630   3.22983   17.925
 6400.00    3.22385   3.22151   17.949
 6401.00    3.25569   3.25645   18.040
 6402.00    3.29893   3.31386   18.267
 6403.00    3.32686   3.36119   18.551
 6404.00    3.33818   3.37840   18.761
 6405.00    3.32089   3.36496   18.864
 6406.00    3.27092   3.33520   18.956
 6407.00    3.20149   3.30856   19.099
 6408.00    3.15720   3.29641   19.217
 6409.00    3.15144   3.29478   19.260
 6410.00    3.14152   3.29319   19.278
 6411.00    3.09918   3.28917   19.364
 6412.00    3.08664   3.28935   -1.000
 6413.00    3.09659   3.29866   -1.000
 6414.00    3.06896   3.31446   -1.000
 6415.00    3.06129   3.32954   -1.000
 6416.00    3.07385   3.33520   -1.000
 6417.00    3.04786   3.32403   -1.000
 6418.00    2.99778   3.29583   -1.000
 6419.00    2.92954   3.26269   -1.000
 6420.00    2.85725   3.24536   -1.000
 6421.00    2.84386   3.25872   -1.000
 6422.00    2.88078   3.29845   -1.000
 6423.00    2.90349   3.34512   -1.000
 6424.00    2.89114   3.38219   -1.000
 6425.00    2.87749   3.40530   -1.000
 6426.00    2.86029   3.41434   -1.000
 6427.00    0.79176   3.40449   -1.000
 6428.00    0.00000   3.37136   -2.000
