###################################################################
## OUTPUT of StarlightChains_v04.for    [Cid@UFSC - 01/Apr/2007] ##
###################################################################

## Some input info
NGC6171_b_1.cxt                          [arq_obs]
Base.BC03.S                              [arq_base]
NGC6171_b_1.msk                          [arq_masks]
StCv04.C11.config                        [arq_config]
  150                                    [N_base]
    0                                    [N_YAV_components = # of components with extra extinction!]
    0                                    [i_FitPowerLaw (1/0 = Yes/No)]
-9.99                                    [alpha_PowerLaw]
CCM                                      [red_law_option]
 1.458241                                [q_norm = A(l_norm)/A(V)]

## (Re)Sampling Parameters
 3359.00                                 [l_ini (A)]
 6428.00                                 [l_fin (A)]
    1.00                                 [dl    (A)]     (OBS: dl_cushion =    50.00 A)

## Normalization info
 4020.00                                 [l_norm (A) - for base]
 4010.00                                 [llow_norm (A) - window for f_obs]
 4060.00                                 [lupp_norm (A) - window for f_obs]
4.350830E-15                             [fobs_norm (in input units)]

## S/N
 4730.00                                 [llow_SN (A) - window for S/N]
 4780.00                                 [lupp_SN (A) - window for S/N]
  48.767                                 [S/N in S/N window]
  32.704                                 [S/N in norm. window]
 245.356                                 [S/N_err in S/N window]
 164.540                                 [S/N_err in norm. window]
  1.0000                                 [fscale_chi2]

## etc...
  2147483626                             [idum_orig]
  3069                                   [NOl_eff]
   851                                   [Nl_eff]
  2218    NSIGMA                         [Ntot_cliped & clip_method]
  2296630                                [Nglobal_steps]
   7                                     [N_chains]
  28                                     [NEX0s_base = N_base in EX0s-fits]
 0   0   1      192   2.0   3.636E+02    [Clip-Bug, RC-Crash & Burn-In warning-flags, n_censored_weights, wei_nsig_threshold & wei_limit]
    87     87.134     87.130      0.004  [idt_all, wdt_TotTime, wdt_UsrTime & wdt_SysTime (sec)]

## Synthesis Results - Best model ##

 2.94787E+00                             [chi2/Nl_eff]
     1.15246                             [adev (%)]

    99.25977                             [sum-of-x (%)]
 2.47428E-14                             [Flux_tot (units of input spectrum!)]
 1.03382E-09                             [Mini_tot (???)]
 5.13855E-10                             [Mcor_tot (???)]

 -18.10                                  [v0_min  (km/s)]
  28.65                                  [vd_min  (km/s)]
 1.2997                                  [AV_min  (mag)]
 0.0000                                  [YAV_min (mag)]

# j     x_j(%)      Mini_j(%)     Mcor_j(%)     age_j(yr)     Z_j      (L/M)_j    YAV?  Mstars   component_j        a/Fe...       SSP_chi2r SSP_adev(%)   SSP_AV   SSP_x(%)
  1      2.4604     7.2702E-03    1.4627E-02    1.000000E+06  0.00010  8.160E-03    0   1.0000   age020_m22            0.0000     2.4438E+03    24.8823   4.0000   100.4890
  2      0.0000     0.0000E+00    0.0000E+00    3.160000E+06  0.00010  4.759E-02    0   1.0000   age045_m22            0.0000     1.6299E+02     4.8632   2.9467    98.7204
  3      7.0206     8.7620E-03    1.6891E-02    5.010000E+06  0.00010  1.932E-02    0   0.9582   age055_m22            0.0000     3.8855E+02    10.4838   3.1332    88.7054
  4      1.4864     3.5937E-03    6.7219E-03    6.610000E+06  0.00010  9.973E-03    0   0.9297   age061_m22            0.0000     2.2953E+03    24.0584   4.0000   103.0662
  5      0.0000     0.0000E+00    0.0000E+00    8.710000E+06  0.00010  7.690E-03    0   0.9030   age067_m22            0.0000     2.2424E+03    23.7342   4.0000   103.4051
  6      1.6652     6.2981E-03    1.1280E-02    1.000000E+07  0.00010  6.375E-03    0   0.8902   age070_m22            0.0000     2.2890E+03    23.8203   4.0000   103.8161
  7      0.0000     0.0000E+00    0.0000E+00    1.445000E+07  0.00010  4.874E-03    0   0.8589   age078_m22            0.0000     1.5005E+03    19.4641   4.0000   103.4587
  8      0.0000     0.0000E+00    0.0000E+00    2.512000E+07  0.00010  4.103E-03    0   0.8174   age090_m22            0.0000     4.8395E+02    10.5246   4.0000   100.7126
  9      0.0000     0.0000E+00    0.0000E+00    4.000000E+07  0.00010  3.654E-03    0   0.7830   age104_m22            0.0000     3.2828E+02     7.1893   4.0000    97.5018
 10      0.0000     0.0000E+00    0.0000E+00    5.500000E+07  0.00010  3.093E-03    0   0.7597   age110_m22            0.0000     3.4937E+02     7.5359   3.9616    97.2843
 11      0.0000     0.0000E+00    0.0000E+00    1.015200E+08  0.00010  2.431E-03    0   0.7138   age116_m22            0.0000     4.2532E+02     8.4300   3.6411    99.5336
 12      0.0000     0.0000E+00    0.0000E+00    1.609000E+08  0.00010  1.319E-03    0   0.6775   age120_m22            0.0000     4.1170E+02     8.0670   3.1675   101.8480
 13      0.0000     0.0000E+00    0.0000E+00    2.861200E+08  0.00010  1.075E-03    0   0.6412   age125_m22            0.0000     7.8180E+02    11.3437   3.2920   103.5675
 14      0.0000     0.0000E+00    0.0000E+00    5.088000E+08  0.00010  7.183E-04    0   0.6083   age130_m22            0.0000     9.0699E+02    12.3701   3.0747   104.9320
 15      0.0000     0.0000E+00    0.0000E+00    9.047900E+08  0.00010  4.524E-04    0   0.5785   age135_m22            0.0000     9.1791E+02    12.5445   2.8772   106.1022
 16      0.0000     0.0000E+00    0.0000E+00    1.278050E+09  0.00010  3.018E-04    0   0.5588   age138_m22            0.0000     5.3813E+02     9.5836   2.3112   105.4894
 17      0.0000     0.0000E+00    0.0000E+00    1.434000E+09  0.00010  2.691E-04    0   0.5532   age139_m22            0.0000     4.7042E+02     8.9604   2.1478   105.1894
 18      0.0000     0.0000E+00    0.0000E+00    2.500000E+09  0.00010  1.582E-04    0   0.5296   age150_m22            0.0000     4.2345E+02     8.6007   2.0221   106.2761
 19      0.0000     0.0000E+00    0.0000E+00    4.250000E+09  0.00010  1.007E-04    0   0.5110   age158_m22            0.0000     2.8922E+02     7.1615   1.8508   105.1389
 20      0.0000     0.0000E+00    0.0000E+00    6.250000E+09  0.00010  6.869E-05    0   0.4985   age166_m22            0.0000     1.8569E+02     5.6844   1.7686   103.0593
 21      0.0000     0.0000E+00    0.0000E+00    7.500000E+09  0.00010  5.873E-05    0   0.4931   age171_m22            0.0000     1.7170E+02     5.4915   1.7503   102.6917
 22      0.0000     0.0000E+00    0.0000E+00    1.000000E+10  0.00010  4.481E-05    0   0.4854   age181_m22            0.0000     1.6597E+02     5.4008   1.7116   102.3491
 23      0.0000     0.0000E+00    0.0000E+00    1.300000E+10  0.00010  3.489E-05    0   0.4791   age193_m22            0.0000     1.5378E+02     5.1826   1.6540   101.8349
 24      0.0000     0.0000E+00    0.0000E+00    1.500000E+10  0.00010  3.035E-05    0   0.4766   age201_m22            0.0000     1.4546E+02     5.0424   1.6142   101.6794
 25      0.0000     0.0000E+00    0.0000E+00    1.800000E+10  0.00010  2.510E-05    0   0.4735   age213_m22            0.0000     1.2707E+02     4.7030   1.5416   101.2062
 26      1.0370     2.9561E-03    5.9474E-03    1.000000E+06  0.00040  8.458E-03    0   1.0000   age020_m32            0.0000     2.5130E+03    25.0787   4.0000   101.5143
 27      0.0000     0.0000E+00    0.0000E+00    3.160000E+06  0.00040  3.973E-02    0   1.0000   age045_m32            0.0000     3.4579E+02     9.0157   4.0000    97.9192
 28      0.0000     0.0000E+00    0.0000E+00    5.010000E+06  0.00040  1.935E-02    0   0.9532   age055_m32            0.0000     7.4211E+02    14.5491   4.0000    97.5626
 29      0.0000     0.0000E+00    0.0000E+00    6.610000E+06  0.00040  1.204E-02    0   0.9243   age061_m32            0.0000     1.6728E+03    20.7802   4.0000   102.5394
 30      0.0000     0.0000E+00    0.0000E+00    8.710000E+06  0.00040  9.433E-03    0   0.9001   age067_m32            0.0000     1.5528E+03    19.9494   4.0000   102.9460
 31      0.0000     0.0000E+00    0.0000E+00    1.000000E+07  0.00040  8.053E-03    0   0.8877   age070_m32            0.0000     1.4184E+03    19.1269   4.0000   102.7030
 32      0.0000     0.0000E+00    0.0000E+00    1.445000E+07  0.00040  7.027E-03    0   0.8578   age078_m32            0.0000     3.3186E+02     9.2172   4.0000    95.5146
 33      0.0000     0.0000E+00    0.0000E+00    2.512000E+07  0.00040  4.707E-03    0   0.8166   age090_m32            0.0000     2.5952E+02     6.8646   3.8566    95.4335
 34      0.0000     0.0000E+00    0.0000E+00    4.000000E+07  0.00040  3.714E-03    0   0.7827   age104_m32            0.0000     2.9274E+02     6.8234   3.6938    97.7202
 35      0.0000     0.0000E+00    0.0000E+00    5.500000E+07  0.00040  2.982E-03    0   0.7593   age110_m32            0.0000     3.2458E+02     7.2047   3.6470    98.5045
 36      0.0000     0.0000E+00    0.0000E+00    1.015200E+08  0.00040  2.188E-03    0   0.7143   age116_m32            0.0000     5.2024E+02     9.2430   3.4391   101.1889
 37      0.0000     0.0000E+00    0.0000E+00    1.609000E+08  0.00040  1.690E-03    0   0.6856   age120_m32            0.0000     6.6230E+02    10.4468   3.2572   103.1545
 38      0.0000     0.0000E+00    0.0000E+00    2.861200E+08  0.00040  1.152E-03    0   0.6509   age125_m32            0.0000     8.0392E+02    11.6056   3.0499   104.5383
 39      0.0000     0.0000E+00    0.0000E+00    5.088000E+08  0.00040  7.331E-04    0   0.6182   age130_m32            0.0000     8.5919E+02    12.0864   2.8950   105.0730
 40      0.0000     0.0000E+00    0.0000E+00    9.047900E+08  0.00040  3.960E-04    0   0.5890   age135_m32            0.0000     5.6910E+02     9.9105   2.4081   104.6663
 41      0.0000     0.0000E+00    0.0000E+00    1.278050E+09  0.00040  2.854E-04    0   0.5687   age138_m32            0.0000     4.6941E+02     9.1311   2.0998   106.8965
 42      0.0000     0.0000E+00    0.0000E+00    1.434000E+09  0.00040  2.531E-04    0   0.5632   age139_m32            0.0000     4.5643E+02     9.0086   2.0363   106.9324
 43      0.0000     0.0000E+00    0.0000E+00    2.500000E+09  0.00040  1.488E-04    0   0.5386   age150_m32            0.0000     3.5336E+02     7.9687   1.7695   105.4027
 44      0.0000     0.0000E+00    0.0000E+00    4.250000E+09  0.00040  9.082E-05    0   0.5199   age158_m32            0.0000     1.7634E+02     5.5810   1.6365   103.1101
 45     12.3772     4.6910E+00    4.7906E+00    6.250000E+09  0.00040  6.362E-05    0   0.5076   age166_m32            0.0000     8.3450E+01     3.8021   1.5603   100.7379
 46     17.8158     8.1220E+00    8.2144E+00    7.500000E+09  0.00040  5.289E-05    0   0.5027   age171_m32            0.0000     6.9130E+01     3.4440   1.5188    99.6433
 47     18.8475     1.1441E+01    1.1390E+01    1.000000E+10  0.00040  3.972E-05    0   0.4948   age181_m32            0.0000     6.1184E+01     3.2162   1.4552    98.3633
 48      6.4441     4.7328E+00    4.6372E+00    1.300000E+10  0.00040  3.283E-05    0   0.4870   age193_m32            0.0000     9.1111E+01     3.9955   1.4301   100.6135
 49      1.0375     8.5525E-01    8.3521E-01    1.500000E+10  0.00040  2.925E-05    0   0.4854   age201_m32            0.0000     1.1720E+02     4.5952   1.4233   101.8952
 50      1.6043     1.5668E+00    1.5190E+00    1.800000E+10  0.00040  2.469E-05    0   0.4819   age213_m32            0.0000     1.2652E+02     4.8037   1.3872   102.3176
 51      0.0000     0.0000E+00    0.0000E+00    1.000000E+06  0.00400  1.114E-02    0   1.0000   age020_m42            0.0000     2.1650E+03    23.4594   4.0000   100.7928
 52      0.0000     0.0000E+00    0.0000E+00    3.160000E+06  0.00400  4.073E-02    0   0.9999   age045_m42            0.0000     1.9982E+02     5.9526   3.9068    94.9503
 53      0.0000     0.0000E+00    0.0000E+00    5.010000E+06  0.00400  2.534E-02    0   0.9488   age055_m42            0.0000     4.6034E+02    11.3982   4.0000    96.9490
 54      0.0000     0.0000E+00    0.0000E+00    6.610000E+06  0.00400  2.583E-02    0   0.9220   age061_m42            0.0000     2.2339E+02     6.1130   3.7392    95.5308
 55      0.0000     0.0000E+00    0.0000E+00    8.710000E+06  0.00400  1.706E-02    0   0.8983   age067_m42            0.0000     2.1235E+02     6.6868   3.5300    94.8039
 56      0.0000     0.0000E+00    0.0000E+00    1.000000E+07  0.00400  1.271E-02    0   0.8862   age070_m42            0.0000     2.5588E+02     7.9866   3.4930    94.0557
 57      0.0000     0.0000E+00    0.0000E+00    1.445000E+07  0.00400  7.666E-03    0   0.8571   age078_m42            0.0000     2.9056E+02     9.1253   3.8670    91.4367
 58      0.0000     0.0000E+00    0.0000E+00    2.512000E+07  0.00400  5.070E-03    0   0.8174   age090_m42            0.0000     2.1411E+02     7.3415   3.3637    95.7987
 59      0.0000     0.0000E+00    0.0000E+00    4.000000E+07  0.00400  3.505E-03    0   0.7851   age104_m42            0.0000     1.4837E+02     5.7492   3.0700    98.2855
 60      0.0000     0.0000E+00    0.0000E+00    5.500000E+07  0.00400  3.059E-03    0   0.7629   age110_m42            0.0000     2.3936E+02     5.7860   3.1906   101.0108
 61      0.0000     0.0000E+00    0.0000E+00    1.015200E+08  0.00400  2.268E-03    0   0.7207   age116_m42            0.0000     5.7517E+02     9.6178   3.1716   104.0244
 62      0.0000     0.0000E+00    0.0000E+00    1.609000E+08  0.00400  1.720E-03    0   0.6930   age120_m42            0.0000     6.2588E+02    10.1406   3.0422   105.1893
 63      0.0000     0.0000E+00    0.0000E+00    2.861200E+08  0.00400  1.079E-03    0   0.6613   age125_m42            0.0000     6.1085E+02    10.1750   2.6858   105.8160
 64      0.0000     0.0000E+00    0.0000E+00    5.088000E+08  0.00400  6.261E-04    0   0.6313   age130_m42            0.0000     6.8052E+02    10.8629   2.4958   108.5760
 65      0.0000     0.0000E+00    0.0000E+00    9.047900E+08  0.00400  3.535E-04    0   0.6024   age135_m42            0.0000     4.5406E+02     9.0303   2.0783   109.4286
 66      0.0000     0.0000E+00    0.0000E+00    1.278050E+09  0.00400  2.677E-04    0   0.5837   age138_m42            0.0000     2.3310E+02     7.2490   1.3821   107.5373
 67      0.0000     0.0000E+00    0.0000E+00    1.434000E+09  0.00400  1.910E-04    0   0.5716   age139_m42            0.0000     2.7462E+02     7.4766   1.5557   108.1536
 68      0.0000     0.0000E+00    0.0000E+00    2.500000E+09  0.00400  9.818E-05    0   0.5463   age150_m42            0.0000     1.3558E+02     5.6395   1.2602   104.1294
 69      0.0000     0.0000E+00    0.0000E+00    4.250000E+09  0.00400  5.491E-05    0   0.5269   age158_m42            0.0000     9.8060E+01     4.8742   1.1185   101.9001
 70      0.0000     0.0000E+00    0.0000E+00    6.250000E+09  0.00400  3.857E-05    0   0.5151   age166_m42            0.0000     1.1840E+02     5.2149   0.9939   100.5712
 71      0.8276     6.1530E-01    6.3257E-01    7.500000E+09  0.00400  3.243E-05    0   0.5110   age171_m42            0.0000     1.4163E+02     5.5855   0.9180    99.9875
 72      1.9439     1.9337E+00    1.9561E+00    1.000000E+10  0.00400  2.424E-05    0   0.5028   age181_m42            0.0000     1.7767E+02     6.1058   0.8409    99.3373
 73      3.2556     4.1688E+00    4.1324E+00    1.300000E+10  0.00400  1.883E-05    0   0.4927   age193_m42            0.0000     2.0777E+02     6.4738   0.8006    99.0774
 74      2.4006     3.4351E+00    3.3996E+00    1.500000E+10  0.00400  1.685E-05    0   0.4919   age201_m42            0.0000     1.9856E+02     6.3220   0.8037    99.1301
 75      0.8569     1.4229E+00    1.3953E+00    1.800000E+10  0.00400  1.452E-05    0   0.4874   age213_m42            0.0000     1.8260E+02     6.0648   0.8167    99.4550
 76      0.0000     0.0000E+00    0.0000E+00    1.000000E+06  0.00800  1.286E-02    0   1.0000   age020_m52            0.0000     2.0452E+03    22.6233   4.0000   102.3073
 77      0.0000     0.0000E+00    0.0000E+00    3.160000E+06  0.00800  3.147E-02    0   0.9966   age045_m52            0.0000     1.7034E+03    20.9067   4.0000   102.4160
 78      0.0000     0.0000E+00    0.0000E+00    5.010000E+06  0.00800  2.664E-02    0   0.9443   age055_m52            0.0000     6.9770E+02    13.9398   4.0000    98.9149
 79      0.0000     0.0000E+00    0.0000E+00    6.610000E+06  0.00800  2.151E-02    0   0.9177   age061_m52            0.0000     1.6079E+02     6.7826   3.0853    95.9103
 80      0.0000     0.0000E+00    0.0000E+00    8.710000E+06  0.00800  1.628E-02    0   0.8948   age067_m52            0.0000     2.1546E+02     7.1887   3.4715    95.8015
 81      0.0000     0.0000E+00    0.0000E+00    1.000000E+07  0.00800  1.215E-02    0   0.8827   age070_m52            0.0000     2.5815E+02     8.0971   3.8027    94.0831
 82      0.0000     0.0000E+00    0.0000E+00    1.445000E+07  0.00800  8.739E-03    0   0.8552   age078_m52            0.0000     2.5903E+02     7.5000   3.8604    94.8453
 83      0.0000     0.0000E+00    0.0000E+00    2.512000E+07  0.00800  5.676E-03    0   0.8162   age090_m52            0.0000     2.7068E+02     6.6262   3.5012    98.6127
 84      0.0000     0.0000E+00    0.0000E+00    4.000000E+07  0.00800  3.939E-03    0   0.7841   age104_m52            0.0000     2.8752E+02     6.4250   3.3673   100.3060
 85      0.0000     0.0000E+00    0.0000E+00    5.500000E+07  0.00800  3.155E-03    0   0.7627   age110_m52            0.0000     3.4403E+02     7.1205   3.3555   101.5367
 86      0.0000     0.0000E+00    0.0000E+00    1.015200E+08  0.00800  2.206E-03    0   0.7226   age116_m52            0.0000     4.8310E+02     8.7469   3.2107   104.3668
 87      0.0000     0.0000E+00    0.0000E+00    1.609000E+08  0.00800  1.596E-03    0   0.6963   age120_m52            0.0000     5.4508E+02     9.4260   3.0079   105.7492
 88      0.0000     0.0000E+00    0.0000E+00    2.861200E+08  0.00800  1.002E-03    0   0.6665   age125_m52            0.0000     7.3110E+02    11.2937   2.7466   107.7079
 89      0.0000     0.0000E+00    0.0000E+00    5.088000E+08  0.00800  5.759E-04    0   0.6377   age130_m52            0.0000     7.8436E+02    11.9898   2.4131   111.3276
 90      0.0000     0.0000E+00    0.0000E+00    9.047900E+08  0.00800  2.972E-04    0   0.6086   age135_m52            0.0000     5.3438E+02    10.2106   1.8677   110.4889
 91      0.0000     0.0000E+00    0.0000E+00    1.278050E+09  0.00800  2.242E-04    0   0.5907   age138_m52            0.0000     2.7890E+02     7.8044   1.2187   110.4438
 92      0.0000     0.0000E+00    0.0000E+00    1.434000E+09  0.00800  1.645E-04    0   0.5787   age139_m52            0.0000     2.4021E+02     7.1864   1.3579   110.0165
 93      0.0000     0.0000E+00    0.0000E+00    2.500000E+09  0.00800  7.723E-05    0   0.5519   age150_m52            0.0000     1.8545E+02     6.5550   1.0030   106.7863
 94      0.0000     0.0000E+00    0.0000E+00    4.250000E+09  0.00800  4.151E-05    0   0.5320   age158_m52            0.0000     1.7096E+02     6.3417   0.9268   104.3350
 95      0.0000     0.0000E+00    0.0000E+00    6.250000E+09  0.00800  3.010E-05    0   0.5197   age166_m52            0.0000     2.2619E+02     7.0541   0.7354   102.9880
 96      0.3087     3.0172E-01    3.1195E-01    7.500000E+09  0.00800  2.467E-05    0   0.5139   age171_m52            0.0000     2.4586E+02     7.3107   0.6959   102.5641
 97      0.1313     1.7007E-01    1.7293E-01    1.000000E+10  0.00800  1.862E-05    0   0.5054   age181_m52            0.0000     3.1707E+02     8.1498   0.5736   102.0742
 98      0.8287     1.3944E+00    1.3994E+00    1.300000E+10  0.00800  1.433E-05    0   0.4988   age193_m52            0.0000     3.9723E+02     8.9211   0.4827   102.7014
 99      0.7270     1.4092E+00    1.3994E+00    1.500000E+10  0.00800  1.244E-05    0   0.4936   age201_m52            0.0000     4.3006E+02     9.1862   0.4544   103.1930
100      1.0283     2.3172E+00    2.2787E+00    1.800000E+10  0.00800  1.070E-05    0   0.4888   age213_m52            0.0000     4.5637E+02     9.4194   0.4225   102.9986
101      0.0000     0.0000E+00    0.0000E+00    1.000000E+06  0.02000  1.989E-02    0   1.0000   age020_m62            0.0000     1.9818E+03    22.4268   4.0000   101.1039
102      0.0000     0.0000E+00    0.0000E+00    3.160000E+06  0.02000  3.772E-02    0   0.9858   age045_m62            0.0000     1.4556E+03    19.7015   4.0000   100.8401
103      0.0000     0.0000E+00    0.0000E+00    5.010000E+06  0.02000  3.227E-02    0   0.9342   age055_m62            0.0000     3.1959E+02     8.7498   4.0000    96.3589
104      0.0000     0.0000E+00    0.0000E+00    6.610000E+06  0.02000  2.387E-02    0   0.9090   age061_m62            0.0000     3.0780E+02     8.9739   3.8622    92.9307
105      0.0000     0.0000E+00    0.0000E+00    8.710000E+06  0.02000  1.102E-02    0   0.8861   age067_m62            0.0000     7.7547E+02    14.9817   3.4295    90.3775
106      0.0000     0.0000E+00    0.0000E+00    1.000000E+07  0.02000  1.011E-02    0   0.8751   age070_m62            0.0000     4.9706E+02    12.2057   3.4701    92.2253
107      0.0000     0.0000E+00    0.0000E+00    1.445000E+07  0.02000  7.331E-03    0   0.8472   age078_m62            0.0000     3.3022E+02    10.0291   3.5012    93.1842
108      0.0000     0.0000E+00    0.0000E+00    2.512000E+07  0.02000  4.206E-03    0   0.8099   age090_m62            0.0000     3.4058E+02    10.2908   3.4103    92.8363
109      0.0000     0.0000E+00    0.0000E+00    4.000000E+07  0.02000  3.373E-03    0   0.7799   age104_m62            0.0000     2.0967E+02     6.0849   3.2897    99.6014
110      0.0000     0.0000E+00    0.0000E+00    5.500000E+07  0.02000  2.747E-03    0   0.7595   age110_m62            0.0000     2.8502E+02     6.2927   3.2623   102.0132
111      0.0000     0.0000E+00    0.0000E+00    1.015200E+08  0.02000  1.878E-03    0   0.7221   age116_m62            0.0000     5.1531E+02     8.9246   3.1763   105.3545
112      0.0000     0.0000E+00    0.0000E+00    1.609000E+08  0.02000  1.378E-03    0   0.6978   age120_m62            0.0000     6.7475E+02    10.3711   3.0481   107.1860
113      0.0000     0.0000E+00    0.0000E+00    2.861200E+08  0.02000  8.869E-04    0   0.6700   age125_m62            0.0000     9.1998E+02    12.3751   2.7082   110.7168
114      0.0000     0.0000E+00    0.0000E+00    5.088000E+08  0.02000  4.834E-04    0   0.6430   age130_m62            0.0000     8.4972E+02    12.3736   2.2838   112.7786
115      0.0000     0.0000E+00    0.0000E+00    9.047900E+08  0.02000  2.312E-04    0   0.6152   age135_m62            0.0000     4.6866E+02     9.5983   1.6613   112.7597
116      0.0000     0.0000E+00    0.0000E+00    1.278050E+09  0.02000  1.387E-04    0   0.5927   age138_m62            0.0000     2.4943E+02     7.2501   1.2461   109.5337
117      0.0000     0.0000E+00    0.0000E+00    1.434000E+09  0.02000  1.168E-04    0   0.5865   age139_m62            0.0000     2.2125E+02     6.8715   1.2136   108.1075
118      0.0000     0.0000E+00    0.0000E+00    2.500000E+09  0.02000  5.505E-05    0   0.5610   age150_m62            0.0000     2.3176E+02     7.0916   0.8322   105.6474
119      0.0000     0.0000E+00    0.0000E+00    4.250000E+09  0.02000  3.070E-05    0   0.5407   age158_m62            0.0000     3.7952E+02     8.7963   0.5482   105.5440
120      0.0000     0.0000E+00    0.0000E+00    6.250000E+09  0.02000  2.104E-05    0   0.5277   age166_m62            0.0000     4.7449E+02     9.6610   0.4206   105.9751
121      0.0000     0.0000E+00    0.0000E+00    7.500000E+09  0.02000  1.770E-05    0   0.5223   age171_m62            0.0000     5.3276E+02    10.1661   0.3365   106.3124
122      0.9262     1.7219E+00    1.7740E+00    1.000000E+10  0.02000  1.297E-05    0   0.5121   age181_m62            0.0000     6.6197E+02    11.1829   0.1852   106.7336
123      3.8651     9.6166E+00    9.7646E+00    1.300000E+10  0.02000  9.691E-06    0   0.5047   age193_m62            0.0000     7.5641E+02    11.8468   0.1054   107.0671
124      0.2313     6.6716E-01    6.7099E-01    1.500000E+10  0.02000  8.360E-06    0   0.4999   age201_m62            0.0000     8.4165E+02    12.4487   0.0403   107.2079
125      6.8447     2.3881E+01    2.3763E+01    1.800000E+10  0.02000  6.911E-06    0   0.4946   age213_m62            0.0000     9.5274E+02    13.2134  -0.0266   107.3296
126      0.0000     0.0000E+00    0.0000E+00    1.000000E+06  0.05000  2.651E-02    0   0.9998   age020_m72            0.0000     1.9814E+03    22.2273   4.0000   102.2078
127      0.0000     0.0000E+00    0.0000E+00    3.160000E+06  0.05000  4.817E-02    0   0.9577   age045_m72            0.0000     9.9948E+02    16.1760   4.0000   101.1861
128      0.0000     0.0000E+00    0.0000E+00    5.010000E+06  0.05000  3.101E-02    0   0.9147   age055_m72            0.0000     3.5676E+02    10.1591   4.0000    95.2281
129      0.0000     0.0000E+00    0.0000E+00    6.610000E+06  0.05000  1.472E-02    0   0.8877   age061_m72            0.0000     5.6860E+02    12.5868   3.6536    91.1804
130      0.0000     0.0000E+00    0.0000E+00    8.710000E+06  0.05000  1.050E-02    0   0.8638   age067_m72            0.0000     3.8441E+02    10.6735   4.0000    92.7779
131      0.0000     0.0000E+00    0.0000E+00    1.000000E+07  0.05000  8.954E-03    0   0.8524   age070_m72            0.0000     6.5518E+02    13.4700   4.0000    99.9173
132      0.0000     0.0000E+00    0.0000E+00    1.445000E+07  0.05000  6.392E-03    0   0.8262   age078_m72            0.0000     5.3723E+02    12.1327   4.0000    99.7275
133      0.0000     0.0000E+00    0.0000E+00    2.512000E+07  0.05000  4.207E-03    0   0.7902   age090_m72            0.0000     2.1471E+02     6.4992   3.9593    95.4142
134      0.0000     0.0000E+00    0.0000E+00    4.000000E+07  0.05000  3.198E-03    0   0.7618   age104_m72            0.0000     3.6053E+02     7.2295   3.5300   101.5840
135      0.0000     0.0000E+00    0.0000E+00    5.500000E+07  0.05000  2.593E-03    0   0.7432   age110_m72            0.0000     4.3852E+02     8.1581   3.4509   103.1349
136      0.0000     0.0000E+00    0.0000E+00    1.015200E+08  0.05000  1.716E-03    0   0.7092   age116_m72            0.0000     5.9428E+02     9.6009   3.2787   105.0542
137      0.0000     0.0000E+00    0.0000E+00    1.609000E+08  0.05000  1.218E-03    0   0.6876   age120_m72            0.0000     7.5877E+02    10.9777   3.0327   107.2495
138      0.0000     0.0000E+00    0.0000E+00    2.861200E+08  0.05000  7.047E-04    0   0.6618   age125_m72            0.0000     8.9550E+02    12.3908   2.5196   110.6590
139      0.0000     0.0000E+00    0.0000E+00    5.088000E+08  0.05000  3.590E-04    0   0.6356   age130_m72            0.0000     7.3813E+02    11.6827   1.9513   113.1698
140      0.0000     0.0000E+00    0.0000E+00    9.047900E+08  0.05000  1.484E-04    0   0.6088   age135_m72            0.0000     3.4400E+02     8.7246   1.1752   108.1367
141      0.0000     0.0000E+00    0.0000E+00    1.278050E+09  0.05000  9.435E-05    0   0.5924   age138_m72            0.0000     3.6813E+02     9.0488   0.7659   105.6674
142      0.0000     0.0000E+00    0.0000E+00    1.434000E+09  0.05000  7.827E-05    0   0.5847   age139_m72            0.0000     3.4964E+02     8.8044   0.7727   105.2011
143      0.0000     0.0000E+00    0.0000E+00    2.500000E+09  0.05000  3.759E-05    0   0.5583   age150_m72            0.0000     4.7347E+02     9.7783   0.4407   104.9036
144      0.9995     1.3084E+00    1.4146E+00    4.250000E+09  0.05000  1.842E-05    0   0.5374   age158_m72            0.0000     6.9132E+02    11.2238   0.1332   104.3081
145      0.0000     0.0000E+00    0.0000E+00    6.250000E+09  0.05000  1.207E-05    0   0.5242   age166_m72            0.0000     9.0538E+02    12.6199  -0.0950   103.9049
146      0.0000     0.0000E+00    0.0000E+00    7.500000E+09  0.05000  9.993E-06    0   0.5183   age171_m72            0.0000     9.4270E+02    12.8255  -0.1379   103.8564
147      0.0000     0.0000E+00    0.0000E+00    1.000000E+10  0.05000  7.291E-06    0   0.5081   age181_m72            0.0000     1.1048E+03    13.8798  -0.2482   103.5130
148      0.0000     0.0000E+00    0.0000E+00    1.300000E+10  0.05000  5.316E-06    0   0.5018   age193_m72            0.0000     1.3747E+03    15.4786  -0.4154   103.0521
149      0.5128     2.7497E+00    2.7505E+00    1.500000E+10  0.05000  4.497E-06    0   0.4972   age201_m72            0.0000     1.5121E+03    16.2756  -0.4791   103.0937
150      1.7754     1.1449E+01    1.1342E+01    1.800000E+10  0.05000  3.739E-06    0   0.4924   age213_m72            0.0000     1.6906E+03    17.2861  -0.5714   102.9471


## Synthesis Results - Average & Chains ##

# j      x_j: min, <> & last-chain-values for 1 ...  7 chains
  1      2.4604      2.7237      2.7661      2.7445      2.6399      2.6009      2.9213      2.8154      2.8317
  2      0.0000      0.0362      0.0000      0.0428      0.0456      0.0000      0.0000      0.0000      0.2176
  3      7.0206      6.2361      6.5334      6.3584      6.2894      6.2695      6.2896      6.1896      6.2521
  4      1.4864      1.2975      1.2617      1.2821      1.3603      1.2794      1.3522      1.5786      1.3027
  5      0.0000      0.0233      0.0000      0.0000      0.1144      0.0030      0.0000      0.0000      0.0041
  6      1.6652      1.7365      1.8502      1.7677      1.8037      1.6460      1.7146      1.7371      1.7275
  7      0.0000      0.0187      0.0000      0.0000      0.0118      0.0111      0.0000      0.0000      0.0335
  8      0.0000      0.0114      0.0112      0.0923      0.0000      0.0762      0.0138      0.0000      0.0000
  9      0.0000      0.0075      0.0000      0.0000      0.0000      0.0000      0.0000      0.0000      0.0006
 10      0.0000      0.0104      0.0000      0.0366      0.0000      0.0000      0.0000      0.0922      0.0000
 11      0.0000      0.0046      0.0000      0.0000      0.0000      0.0000      0.0000      0.0000      0.0000
 12      0.0000      0.0063      0.0000      0.0000      0.0000      0.0000      0.0000      0.0000      0.0000
 13      0.0000      0.0039      0.0000      0.0000      0.0000      0.0000      0.0000      0.0000      0.0000
 14      0.0000      0.0038      0.0000      0.0000      0.0000      0.0000      0.0000      0.0000      0.0000
 15      0.0000      0.0082      0.0000      0.0000      0.0000      0.0395      0.0000      0.0000      0.0000
 16      0.0000      0.0056      0.0000      0.0000      0.0055      0.0000      0.0000      0.0000      0.0000
 17      0.0000      0.0095      0.0000      0.0000      0.0000      0.0000      0.0000      0.0000      0.0000
 18      0.0000      0.0128      0.0000      0.0000      0.0000      0.0000      0.0659      0.0000      0.0000
 19      0.0000      0.0450      0.0421      0.0997      0.1414      0.3069      0.0250      0.0882      0.0000
 20      0.0000      0.0374      0.0462      0.0000      0.0000      0.0000      0.0000      0.0719      0.0000
 21      0.0000      0.0672      0.2695      0.0000      0.2217      0.0016      0.1147      0.0359      0.2937
 22      0.0000      0.0724      0.1490      0.0538      0.0000      0.0647      0.0000      0.0000      0.0000
 23      0.0000      0.0971      0.2473      0.0000      0.1045      0.0000      0.0000      0.1097      0.0000
 24      0.0000      0.0792      0.0000      0.1891      0.1537      0.0000      0.1687      0.0000      0.0269
 25      0.0000      0.2321      0.3695      0.0000      0.0000      0.1868      0.1350      0.0000      0.0966
 26      1.0370      0.9759      0.9811      0.9792      1.0181      1.1970      0.6048      1.0987      0.9595
 27      0.0000      0.0101      0.0000      0.0000      0.0461      0.0000      0.0698      0.0245      0.0083
 28      0.0000      0.0218      0.0071      0.0000      0.0000      0.0000      0.0942      0.0000      0.0067
 29      0.0000      0.0521      0.0000      0.2541      0.0000      0.0267      0.0358      0.0000      0.0000
 30      0.0000      0.0592      0.0473      0.0895      0.1161      0.0886      0.0424      0.0000      0.1193
 31      0.0000      0.0168      0.0000      0.0000      0.0000      0.0184      0.0000      0.0000      0.0000
 32      0.0000      0.0148      0.0000      0.0000      0.0000      0.0000      0.0576      0.0090      0.0219
 33      0.0000      0.0248      0.0000      0.0000      0.0000      0.0244      0.0000      0.0000      0.0000
 34      0.0000      0.0093      0.0000      0.0000      0.0000      0.0515      0.0000      0.0000      0.0000
 35      0.0000      0.0078      0.0000      0.0000      0.0000      0.0000      0.0117      0.0518      0.0000
 36      0.0000      0.0084      0.0000      0.0000      0.0000      0.0000      0.0000      0.0000      0.0000
 37      0.0000      0.0066      0.0000      0.0031      0.0000      0.0054      0.0000      0.0000      0.0000
 38      0.0000      0.0053      0.0000      0.0000      0.0000      0.0000      0.0000      0.0000      0.0000
 39      0.0000      0.0045      0.0000      0.0000      0.0000      0.0000      0.0223      0.0000      0.0000
 40      0.0000      0.0049      0.0000      0.0000      0.0000      0.0000      0.0040      0.0029      0.0000
 41      0.0000      0.0132      0.0000      0.0000      0.0000      0.0074      0.1839      0.0000      0.0000
 42      0.0000      0.0179      0.0000      0.0075      0.0000      0.0000      0.0629      0.0000      0.0000
 43      0.0000      0.0215      0.0378      0.0000      0.0000      0.0641      0.0519      0.0000      0.0000
 44      0.0000      0.0872      0.0040      0.1635      0.0000      0.1035      0.0000      0.1143      0.6850
 45     12.3772      8.9441      9.8972      8.7622      9.0225      9.1701      9.8195     10.0786      9.2121
 46     17.8158     15.2905     15.4406     15.3238     15.4356     15.9669     16.0476     15.5924     15.3540
 47     18.8475     18.3752     18.3786     18.5580     18.5270     19.0521     18.2932     17.9149     18.5175
 48      6.4441      7.3952      7.5420      8.0876      7.5257      7.3735      7.1902      7.4827      7.0345
 49      1.0375      2.5097      1.3936      2.3816      2.7099      2.7735      2.0380      2.5846      2.0977
 50      1.6043      3.6823      3.4580      3.5550      3.7184      2.2095      2.8039      3.5413      3.6923
 51      0.0000      0.1397      0.0000      0.1520      0.1124      0.0000      0.1939      0.1280      0.2014
 52      0.0000      0.0263      0.0000      0.1538      0.0000      0.0000      0.0000      0.0000      0.0000
 53      0.0000      0.0094      0.0000      0.0000      0.0079      0.0000      0.0000      0.0000      0.0000
 54      0.0000      0.0118      0.0000      0.0000      0.0000      0.0000      0.0473      0.0031      0.0000
 55      0.0000      0.0244      0.2452      0.0000      0.0000      0.0893      0.0000      0.0000      0.0000
 56      0.0000      0.0098      0.0000      0.0000      0.0000      0.0000      0.0000      0.0000      0.0337
 57      0.0000      0.0156      0.0000      0.0792      0.0000      0.0000      0.0000      0.0000      0.0942
 58      0.0000      0.0206      0.0000      0.0000      0.0000      0.0000      0.0000      0.0671      0.0000
 59      0.0000      0.0071      0.0000      0.0000      0.0000      0.0000      0.0000      0.0000      0.0000
 60      0.0000      0.0059      0.0000      0.0000      0.0000      0.0000      0.0000      0.0000      0.0000
 61      0.0000      0.0064      0.0000      0.0890      0.0000      0.0000      0.1080      0.0490      0.0000
 62      0.0000      0.0049      0.0000      0.0000      0.0000      0.0000      0.0000      0.0000      0.0000
 63      0.0000      0.0049      0.0000      0.0040      0.0000      0.0106      0.0000      0.0069      0.0000
 64      0.0000      0.0074      0.0000      0.0000      0.0155      0.0000      0.0000      0.0000      0.0000
 65      0.0000      0.0160      0.2181      0.0000      0.0000      0.0000      0.0000      0.0000      0.0000
 66      0.0000      0.0327      0.0016      0.0000      0.0940      0.0000      0.0450      0.2513      0.0000
 67      0.0000      0.0263      0.0000      0.0000      0.0000      0.2238      0.0000      0.0000      0.0000
 68      0.0000      0.0868      0.1798      0.0950      0.0000      0.1270      0.1041      0.2706      0.4275
 69      0.0000      0.1815      0.0000      0.2418      0.0000      0.1585      0.1283      0.0000      0.6314
 70      0.0000      0.1961      0.1692      0.3200      0.0000      0.0636      0.2208      0.0000      0.0000
 71      0.8276      0.8053      0.6773      0.9189      0.4613      0.7299      1.1605      1.0147      0.8278
 72      1.9439      1.9094      1.8903      1.8248      2.3172      1.6610      1.9747      1.5889      2.0116
 73      3.2556      3.0683      3.0775      3.0384      2.9547      3.2698      2.8322      3.0427      2.8096
 74      2.4006      1.9783      1.9226      2.0828      2.2561      1.8362      1.9748      2.0263      2.0214
 75      0.8569      0.8221      0.9697      0.7484      1.2673      1.2261      0.7888      1.0996      0.6235
 76      0.0000      0.0408      0.0000      0.0000      0.0000      0.1426      0.1210      0.0000      0.0464
 77      0.0000      0.0538      0.0029      0.0052      0.0668      0.0562      0.0939      0.0323      0.0156
 78      0.0000      0.0145      0.0000      0.0000      0.0000      0.0344      0.0000      0.0000      0.0000
 79      0.0000      0.0229      0.0000      0.0000      0.0228      0.0000      0.0000      0.0117      0.0103
 80      0.0000      0.0088      0.0000      0.0000      0.0000      0.0000      0.0344      0.0000      0.0000
 81      0.0000      0.0103      0.0329      0.0000      0.0000      0.0000      0.0000      0.0000      0.0000
 82      0.0000      0.0122      0.0247      0.0000      0.0000      0.0000      0.0215      0.0000      0.0931
 83      0.0000      0.0129      0.0000      0.0000      0.0000      0.0000      0.0000      0.0000      0.0000
 84      0.0000      0.0077      0.0000      0.0000      0.0331      0.0000      0.0507      0.0000      0.0000
 85      0.0000      0.0111      0.0000      0.0000      0.0000      0.0000      0.0000      0.0000      0.0000
 86      0.0000      0.0053      0.0166      0.0000      0.0000      0.0000      0.0062      0.0000      0.0000
 87      0.0000      0.0043      0.0000      0.0000      0.0000      0.0000      0.0000      0.0000      0.0000
 88      0.0000      0.0043      0.0000      0.0000      0.0000      0.0000      0.0000      0.0000      0.0000
 89      0.0000      0.0044      0.0000      0.0000      0.0000      0.0000      0.0000      0.0000      0.0000
 90      0.0000      0.0075      0.0000      0.0416      0.0133      0.0000      0.0000      0.0000      0.0000
 91      0.0000      0.0154      0.0000      0.0000      0.0000      0.0304      0.0000      0.0314      0.0000
 92      0.0000      0.0154      0.0009      0.0557      0.0010      0.0000      0.0000      0.0000      0.0000
 93      0.0000      0.0478      0.2970      0.0000      0.0000      0.0000      0.1612      0.0000      0.0195
 94      0.0000      0.1074      0.0905      0.0000      0.0000      0.0143      0.0000      0.0000      0.0000
 95      0.0000      0.0944      0.0000      0.0937      0.0000      0.1082      0.2212      0.0000      0.0444
 96      0.3087      0.1148      0.1486      0.1524      0.2848      0.1289      0.0000      0.0000      0.0000
 97      0.1313      0.2615      0.2699      0.2088      0.2252      0.1815      0.2392      0.1539      0.2623
 98      0.8287      0.7343      0.7386      0.5307      0.7035      0.6407      0.6897      0.8679      0.7642
 99      0.7270      0.6507      0.8629      0.4899      0.6234      0.8036      0.6554      0.5357      0.6203
100      1.0283      1.0264      0.9674      1.1690      1.0417      0.9379      1.2559      0.9040      1.1965
101      0.0000      0.0715      0.1321      0.0000      0.0000      0.1576      0.0685      0.0000      0.0000
102      0.0000      0.0147      0.0000      0.0000      0.0000      0.0033      0.0000      0.0000      0.0000
103      0.0000      0.0096      0.0040      0.0332      0.0000      0.0190      0.0030      0.0587      0.0000
104      0.0000      0.0182      0.0000      0.0000      0.0000      0.0000      0.0000      0.0000      0.0000
105      0.0000      0.0249      0.0400      0.0000      0.0096      0.0016      0.0000      0.0000      0.0000
106      0.0000      0.0149      0.0000      0.0000      0.0240      0.0000      0.0000      0.0000      0.0000
107      0.0000      0.0308      0.0000      0.1342      0.0000      0.0000      0.0000      0.0000      0.0000
108      0.0000      0.0129      0.0000      0.0000      0.0000      0.0947      0.0000      0.0000      0.0140
109      0.0000      0.0123      0.0000      0.0000      0.0000      0.0020      0.0000      0.0000      0.0000
110      0.0000      0.0052      0.0000      0.0035      0.0000      0.0404      0.0000      0.0000      0.0000
111      0.0000      0.0037      0.0026      0.0000      0.0000      0.0000      0.0000      0.0000      0.0000
112      0.0000      0.0035      0.0000      0.0000      0.0000      0.0000      0.0000      0.0159      0.0000
113      0.0000      0.0057      0.0000      0.0000      0.0000      0.0000      0.0000      0.0000      0.0000
114      0.0000      0.0034      0.0000      0.0000      0.0000      0.0000      0.0000      0.0000      0.0000
115      0.0000      0.0084      0.0000      0.0000      0.0000      0.0000      0.0000      0.0000      0.0000
116      0.0000      0.0159      0.0941      0.0000      0.0000      0.0000      0.0252      0.0000      0.0166
117      0.0000      0.0175      0.0000      0.0100      0.0000      0.0000      0.0000      0.0000      0.0000
118      0.0000      0.0305      0.0000      0.0351      0.0145      0.0081      0.0191      0.0000      0.0000
119      0.0000      0.0296      0.0000      0.0773      0.0000      0.0000      0.0000      0.0000      0.2524
120      0.0000      0.0341      0.0381      0.0000      0.0000      0.0215      0.0000      0.1792      0.1169
121      0.0000      0.0449      0.0000      0.1655      0.0000      0.0000      0.0000      0.0349      0.1295
122      0.9262      1.3999      1.2736      1.0797      1.2365      1.4048      1.3942      1.4464      0.9596
123      3.8651      4.0965      4.1164      4.0921      4.0691      4.0895      4.0760      4.0872      4.2535
124      0.2313      0.4936      0.4052      0.4881      0.4981      0.4116      0.5761      0.4228      0.3873
125      6.8447      7.1748      7.1981      7.0778      7.1971      7.2032      7.0673      7.0726      7.2823
126      0.0000      0.0154      0.0365      0.0000      0.0000      0.0000      0.1017      0.0000      0.0000
127      0.0000      0.0080      0.0000      0.0000      0.0000      0.0000      0.0000      0.0000      0.0735
128      0.0000      0.0274      0.0512      0.0000      0.1315      0.0000      0.0000      0.0000      0.0610
129      0.0000      0.0476      0.0036      0.0000      0.0981      0.0000      0.0000      0.0103      0.0488
130      0.0000      0.0180      0.0000      0.0000      0.0000      0.0512      0.0000      0.0000      0.0119
131      0.0000      0.0290      0.0000      0.0000      0.0145      0.0000      0.0000      0.0306      0.0000
132      0.0000      0.0070      0.0000      0.0000      0.0000      0.0053      0.0015      0.0000      0.0000
133      0.0000      0.0101      0.0000      0.0000      0.0000      0.0000      0.0061      0.0000      0.0000
134      0.0000      0.0045      0.0000      0.0000      0.0000      0.0000      0.0000      0.0000      0.0077
135      0.0000      0.0047      0.0000      0.0000      0.0000      0.0000      0.0000      0.0139      0.0000
136      0.0000      0.0048      0.0000      0.0000      0.0000      0.0000      0.0000      0.0000      0.0000
137      0.0000      0.0051      0.0000      0.0000      0.0000      0.0000      0.0000      0.0000      0.0000
138      0.0000      0.0033      0.0000      0.0000      0.0000      0.0000      0.0000      0.0000      0.0389
139      0.0000      0.0080      0.0000      0.0000      0.0000      0.0000      0.0008      0.0000      0.0000
140      0.0000      0.0137      0.0000      0.0000      0.0000      0.0000      0.0000      0.0000      0.0000
141      0.0000      0.0390      0.0000      0.0000      0.0000      0.1006      0.0306      0.0000      0.0000
142      0.0000      0.0340      0.0568      0.0000      0.0184      0.0000      0.0000      0.0000      0.0000
143      0.0000      0.0478      0.0000      0.0000      0.0000      0.0282      0.0000      0.1219      0.0312
144      0.9995      0.1395      0.1002      0.4502      0.2227      0.1710      0.3946      0.1712      0.0000
145      0.0000      0.0707      0.0238      0.0097      0.1101      0.1403      0.0647      0.0895      0.0000
146      0.0000      0.0583      0.0000      0.1750      0.0000      0.0974      0.1978      0.1082      0.1619
147      0.0000      0.0452      0.1188      0.0000      0.1229      0.1091      0.0165      0.0195      0.0000
148      0.0000      0.0176      0.0048      0.0000      0.0000      0.0000      0.0499      0.0000      0.0000
149      0.5128      0.4715      0.4830      0.5140      0.4548      0.4442      0.4897      0.4912      0.5313
150      1.7754      1.7158      1.7621      1.7291      1.6506      1.7164      1.5233      1.8000      1.8028

# j      m_j: min, <> & last-chain-values for 1 ...  7 chains
  1  1.4627E-02  1.5723E-02  1.6006E-02  1.5909E-02  1.5190E-02  1.5073E-02  1.7073E-02  1.6281E-02  1.6355E-02
  2  0.0000E+00  3.5824E-05  0.0000E+00  4.2506E-05  4.5017E-05  0.0000E+00  0.0000E+00  0.0000E+00  2.1551E-04
  3  1.6891E-02  1.4569E-02  1.5300E-02  1.4917E-02  1.4646E-02  1.4704E-02  1.4877E-02  1.4486E-02  1.4614E-02
  4  6.7219E-03  5.6976E-03  5.5535E-03  5.6532E-03  5.9541E-03  5.6402E-03  6.0115E-03  6.9443E-03  5.7235E-03
  5  0.0000E+00  1.2873E-04  0.0000E+00  0.0000E+00  6.3080E-04  1.6715E-05  0.0000E+00  0.0000E+00  2.2915E-05
  6  1.1280E-02  1.1422E-02  1.2199E-02  1.1676E-02  1.1826E-02  1.0869E-02  1.1419E-02  1.1446E-02  1.1369E-02
  7  0.0000E+00  1.5539E-04  0.0000E+00  0.0000E+00  9.7658E-05  9.2659E-05  0.0000E+00  0.0000E+00  2.7814E-04
  8  0.0000E+00  1.0742E-04  1.0521E-04  8.6996E-04  0.0000E+00  7.1781E-04  1.3150E-04  0.0000E+00  0.0000E+00
  9  0.0000E+00  7.5739E-05  0.0000E+00  0.0000E+00  0.0000E+00  0.0000E+00  0.0000E+00  0.0000E+00  6.2515E-06
 10  0.0000E+00  1.2014E-04  0.0000E+00  4.2485E-04  0.0000E+00  0.0000E+00  0.0000E+00  1.0685E-03  0.0000E+00
 11  0.0000E+00  6.3623E-05  0.0000E+00  0.0000E+00  0.0000E+00  0.0000E+00  0.0000E+00  0.0000E+00  0.0000E+00
 12  0.0000E+00  1.5326E-04  0.0000E+00  0.0000E+00  0.0000E+00  0.0000E+00  0.0000E+00  0.0000E+00  0.0000E+00
 13  0.0000E+00  1.0891E-04  0.0000E+00  0.0000E+00  0.0000E+00  0.0000E+00  0.0000E+00  0.0000E+00  0.0000E+00
 14  0.0000E+00  1.5266E-04  0.0000E+00  0.0000E+00  0.0000E+00  0.0000E+00  0.0000E+00  0.0000E+00  0.0000E+00
 15  0.0000E+00  4.9118E-04  0.0000E+00  0.0000E+00  0.0000E+00  2.3863E-03  0.0000E+00  0.0000E+00  0.0000E+00
 16  0.0000E+00  4.8985E-04  0.0000E+00  0.0000E+00  4.7842E-04  0.0000E+00  0.0000E+00  0.0000E+00  0.0000E+00
 17  0.0000E+00  9.1602E-04  0.0000E+00  0.0000E+00  0.0000E+00  0.0000E+00  0.0000E+00  0.0000E+00  0.0000E+00
 18  0.0000E+00  2.0196E-03  0.0000E+00  0.0000E+00  0.0000E+00  0.0000E+00  1.0519E-02  0.0000E+00  0.0000E+00
 19  0.0000E+00  1.0754E-02  1.0089E-02  2.3923E-02  3.3691E-02  7.3649E-02  6.0536E-03  2.1115E-02  0.0000E+00
 20  0.0000E+00  1.2775E-02  1.5838E-02  0.0000E+00  0.0000E+00  0.0000E+00  0.0000E+00  2.4628E-02  0.0000E+00
 21  0.0000E+00  2.6589E-02  1.0684E-01  0.0000E+00  8.7393E-02  6.4045E-04  4.5925E-02  1.4206E-02  1.1623E-01
 22  0.0000E+00  3.6937E-02  7.6209E-02  2.7564E-02  0.0000E+00  3.3148E-02  0.0000E+00  0.0000E+00  0.0000E+00
 23  0.0000E+00  6.2794E-02  1.6032E-01  0.0000E+00  6.7362E-02  0.0000E+00  0.0000E+00  7.1060E-02  0.0000E+00
 24  0.0000E+00  5.8579E-02  0.0000E+00  1.4049E-01  1.1330E-01  0.0000E+00  1.2633E-01  0.0000E+00  1.9880E-02
 25  0.0000E+00  2.0625E-01  3.2910E-01  0.0000E+00  0.0000E+00  1.6668E-01  1.2143E-01  0.0000E+00  8.5856E-02
 26  5.9474E-03  5.4352E-03  5.4772E-03  5.4762E-03  5.6514E-03  6.6927E-03  3.4104E-03  6.1298E-03  5.3466E-03
 27  0.0000E+00  1.1926E-05  0.0000E+00  0.0000E+00  5.4516E-05  0.0000E+00  8.3738E-05  2.9088E-05  9.8936E-06
 28  0.0000E+00  5.0621E-05  1.6598E-05  0.0000E+00  0.0000E+00  0.0000E+00  2.2142E-04  0.0000E+00  1.5572E-05
 29  0.0000E+00  1.8824E-04  0.0000E+00  9.2254E-04  0.0000E+00  9.6917E-05  1.3113E-04  0.0000E+00  0.0000E+00
 30  0.0000E+00  2.6594E-04  2.1296E-04  4.0382E-04  5.1995E-04  3.9978E-04  1.9302E-04  0.0000E+00  5.3644E-04
 31  0.0000E+00  8.7077E-05  0.0000E+00  0.0000E+00  0.0000E+00  9.6056E-05  0.0000E+00  0.0000E+00  0.0000E+00
 32  0.0000E+00  8.5205E-05  0.0000E+00  0.0000E+00  0.0000E+00  0.0000E+00  3.3511E-04  5.1966E-05  1.2611E-04
 33  0.0000E+00  2.0278E-04  0.0000E+00  0.0000E+00  0.0000E+00  1.9997E-04  0.0000E+00  0.0000E+00  0.0000E+00
 34  0.0000E+00  9.2725E-05  0.0000E+00  0.0000E+00  0.0000E+00  5.1349E-04  0.0000E+00  0.0000E+00  0.0000E+00
 35  0.0000E+00  9.3428E-05  0.0000E+00  0.0000E+00  0.0000E+00  0.0000E+00  1.4239E-04  6.2193E-04  0.0000E+00
 36  0.0000E+00  1.2927E-04  0.0000E+00  0.0000E+00  0.0000E+00  0.0000E+00  0.0000E+00  0.0000E+00  0.0000E+00
 37  0.0000E+00  1.2563E-04  0.0000E+00  5.8796E-05  0.0000E+00  1.0438E-04  0.0000E+00  0.0000E+00  0.0000E+00
 38  0.0000E+00  1.4073E-04  0.0000E+00  0.0000E+00  0.0000E+00  0.0000E+00  0.0000E+00  0.0000E+00  0.0000E+00
 39  0.0000E+00  1.7950E-04  0.0000E+00  0.0000E+00  0.0000E+00  0.0000E+00  8.9482E-04  0.0000E+00  0.0000E+00
 40  0.0000E+00  3.4370E-04  0.0000E+00  0.0000E+00  0.0000E+00  0.0000E+00  2.8200E-04  2.0663E-04  0.0000E+00
 41  0.0000E+00  1.2388E-03  0.0000E+00  0.0000E+00  0.0000E+00  6.9937E-04  1.7476E-02  0.0000E+00  0.0000E+00
 42  0.0000E+00  1.8743E-03  0.0000E+00  7.9369E-04  0.0000E+00  0.0000E+00  6.6766E-03  0.0000E+00  0.0000E+00
 43  0.0000E+00  3.6638E-03  6.4628E-03  0.0000E+00  0.0000E+00  1.0969E-02  8.9632E-03  0.0000E+00  0.0000E+00
 44  0.0000E+00  2.3517E-02  1.0723E-03  4.4266E-02  0.0000E+00  2.8015E-02  0.0000E+00  3.0886E-02  1.8480E-01
 45  4.7906E+00  3.3614E+00  3.7286E+00  3.3068E+00  3.3800E+00  3.4599E+00  3.7364E+00  3.7946E+00  3.4640E+00
 46  8.2144E+00  6.8457E+00  6.9295E+00  6.8892E+00  6.8883E+00  7.1766E+00  7.2741E+00  6.9933E+00  6.8778E+00
 47  1.1390E+01  1.0782E+01  1.0810E+01  1.0935E+01  1.0836E+01  1.1223E+01  1.0868E+01  1.0531E+01  1.0872E+01
 48  4.6372E+00  5.1674E+00  5.2826E+00  5.6748E+00  5.2415E+00  5.1725E+00  5.0867E+00  5.2379E+00  4.9179E+00
 49  8.3521E-01  1.9618E+00  1.0920E+00  1.8694E+00  2.1114E+00  2.1766E+00  1.6129E+00  2.0240E+00  1.6406E+00
 50  1.5190E+00  3.3855E+00  3.1869E+00  3.2820E+00  3.4076E+00  2.0393E+00  2.6100E+00  3.2616E+00  3.3965E+00
 51  0.0000E+00  5.9059E-04  0.0000E+00  6.4524E-04  4.7373E-04  0.0000E+00  8.2989E-04  5.4219E-04  8.5220E-04
 52  0.0000E+00  3.0425E-05  0.0000E+00  1.7856E-04  0.0000E+00  0.0000E+00  0.0000E+00  0.0000E+00  0.0000E+00
 53  0.0000E+00  1.6644E-05  0.0000E+00  0.0000E+00  1.3970E-05  0.0000E+00  0.0000E+00  0.0000E+00  0.0000E+00
 54  0.0000E+00  1.9844E-05  0.0000E+00  0.0000E+00  0.0000E+00  0.0000E+00  8.0510E-05  5.1808E-06  0.0000E+00
 55  0.0000E+00  6.0406E-05  6.0961E-04  0.0000E+00  0.0000E+00  2.2225E-04  0.0000E+00  0.0000E+00  0.0000E+00
 56  0.0000E+00  3.2300E-05  0.0000E+00  0.0000E+00  0.0000E+00  0.0000E+00  0.0000E+00  0.0000E+00  1.1068E-04
 57  0.0000E+00  8.2245E-05  0.0000E+00  4.1864E-04  0.0000E+00  0.0000E+00  0.0000E+00  0.0000E+00  4.9638E-04
 58  0.0000E+00  1.5656E-04  0.0000E+00  0.0000E+00  0.0000E+00  0.0000E+00  0.0000E+00  5.1021E-04  0.0000E+00
 59  0.0000E+00  7.4434E-05  0.0000E+00  0.0000E+00  0.0000E+00  0.0000E+00  0.0000E+00  0.0000E+00  0.0000E+00
 60  0.0000E+00  6.9053E-05  0.0000E+00  0.0000E+00  0.0000E+00  0.0000E+00  0.0000E+00  0.0000E+00  0.0000E+00
 61  0.0000E+00  9.5334E-05  0.0000E+00  1.3374E-03  0.0000E+00  0.0000E+00  1.6369E-03  7.3542E-04  0.0000E+00
 62  0.0000E+00  9.2892E-05  0.0000E+00  0.0000E+00  0.0000E+00  0.0000E+00  0.0000E+00  0.0000E+00  0.0000E+00
 63  0.0000E+00  1.4259E-04  0.0000E+00  1.1520E-04  0.0000E+00  3.0700E-04  0.0000E+00  1.9912E-04  0.0000E+00
 64  0.0000E+00  3.4954E-04  0.0000E+00  0.0000E+00  7.3556E-04  0.0000E+00  0.0000E+00  0.0000E+00  0.0000E+00
 65  0.0000E+00  1.2879E-03  1.7551E-02  0.0000E+00  0.0000E+00  0.0000E+00  0.0000E+00  0.0000E+00  0.0000E+00
 66  0.0000E+00  3.3608E-03  1.6719E-04  0.0000E+00  9.6243E-03  0.0000E+00  4.6778E-03  2.5853E-02  0.0000E+00
 67  0.0000E+00  3.7128E-03  0.0000E+00  0.0000E+00  0.0000E+00  3.1676E-02  0.0000E+00  0.0000E+00  0.0000E+00
 68  0.0000E+00  2.2750E-02  4.7231E-02  2.4994E-02  0.0000E+00  3.3411E-02  2.7630E-02  7.1042E-02  1.1212E-01
 69  0.0000E+00  8.2052E-02  0.0000E+00  1.0976E-01  0.0000E+00  7.1905E-02  5.8729E-02  0.0000E+00  2.8556E-01
 70  0.0000E+00  1.2335E-01  1.0666E-01  2.0217E-01  0.0000E+00  4.0171E-02  1.4063E-01  0.0000E+00  0.0000E+00
 71  6.3257E-01  5.9768E-01  5.0389E-01  6.8489E-01  3.4125E-01  5.4391E-01  8.7206E-01  7.5450E-01  6.1476E-01
 72  1.9561E+00  1.8656E+00  1.8514E+00  1.7904E+00  2.2568E+00  1.6292E+00  1.9535E+00  1.5553E+00  1.9665E+00
 73  4.1324E+00  3.7818E+00  3.8022E+00  3.7606E+00  3.6299E+00  4.0459E+00  3.5341E+00  3.7570E+00  3.4648E+00
 74  3.3996E+00  2.7203E+00  2.6501E+00  2.8760E+00  3.0924E+00  2.5348E+00  2.7494E+00  2.7914E+00  2.7812E+00
 75  1.3953E+00  1.2999E+00  1.5369E+00  1.1883E+00  1.9973E+00  1.9462E+00  1.2627E+00  1.7417E+00  9.8634E-01
 76  0.0000E+00  1.4932E-04  0.0000E+00  0.0000E+00  0.0000E+00  5.2449E-04  4.4865E-04  0.0000E+00  1.7006E-04
 77  0.0000E+00  8.0287E-05  4.2626E-06  7.7486E-06  9.9331E-05  8.4204E-05  1.4180E-04  4.8207E-05  2.3324E-05
 78  0.0000E+00  2.4191E-05  0.0000E+00  0.0000E+00  0.0000E+00  5.7673E-05  0.0000E+00  0.0000E+00  0.0000E+00
 79  0.0000E+00  4.6094E-05  0.0000E+00  0.0000E+00  4.5755E-05  0.0000E+00  0.0000E+00  2.3616E-05  2.0738E-05
 80  0.0000E+00  2.2741E-05  0.0000E+00  0.0000E+00  0.0000E+00  0.0000E+00  9.0263E-05  0.0000E+00  0.0000E+00
 81  0.0000E+00  3.5298E-05  1.1288E-04  0.0000E+00  0.0000E+00  0.0000E+00  0.0000E+00  0.0000E+00  0.0000E+00
 82  0.0000E+00  5.6363E-05  1.1405E-04  0.0000E+00  0.0000E+00  0.0000E+00  1.0029E-04  0.0000E+00  4.2938E-04
 83  0.0000E+00  8.7625E-05  0.0000E+00  0.0000E+00  0.0000E+00  0.0000E+00  0.0000E+00  0.0000E+00  0.0000E+00
 84  0.0000E+00  7.2558E-05  0.0000E+00  0.0000E+00  3.0906E-04  0.0000E+00  4.8129E-04  0.0000E+00  0.0000E+00
 85  0.0000E+00  1.2666E-04  0.0000E+00  0.0000E+00  0.0000E+00  0.0000E+00  0.0000E+00  0.0000E+00  0.0000E+00
 86  0.0000E+00  8.2338E-05  2.5651E-04  0.0000E+00  0.0000E+00  0.0000E+00  9.7346E-05  0.0000E+00  0.0000E+00
 87  0.0000E+00  8.7512E-05  0.0000E+00  0.0000E+00  0.0000E+00  0.0000E+00  0.0000E+00  0.0000E+00  0.0000E+00
 88  0.0000E+00  1.3373E-04  0.0000E+00  0.0000E+00  0.0000E+00  0.0000E+00  0.0000E+00  0.0000E+00  0.0000E+00
 89  0.0000E+00  2.2923E-04  0.0000E+00  0.0000E+00  0.0000E+00  0.0000E+00  0.0000E+00  0.0000E+00  0.0000E+00
 90  0.0000E+00  7.2053E-04  0.0000E+00  4.0268E-03  1.2781E-03  0.0000E+00  0.0000E+00  0.0000E+00  0.0000E+00
 91  0.0000E+00  1.9153E-03  0.0000E+00  0.0000E+00  0.0000E+00  3.7929E-03  0.0000E+00  3.8990E-03  0.0000E+00
 92  0.0000E+00  2.5504E-03  1.5580E-04  9.2649E-03  1.6725E-04  0.0000E+00  0.0000E+00  0.0000E+00  0.0000E+00
 93  0.0000E+00  1.6077E-02  1.0022E-01  0.0000E+00  0.0000E+00  0.0000E+00  5.4938E-02  0.0000E+00  6.5697E-03
 94  0.0000E+00  6.4827E-02  5.4789E-02  0.0000E+00  0.0000E+00  8.6942E-03  0.0000E+00  0.0000E+00  0.0000E+00
 95  0.0000E+00  7.6765E-02  0.0000E+00  7.6563E-02  0.0000E+00  8.8304E-02  1.8215E-01  0.0000E+00  3.6136E-02
 96  3.1195E-01  1.1261E-01  1.4617E-01  1.5016E-01  2.7858E-01  1.2700E-01  0.0000E+00  0.0000E+00  0.0000E+00
 97  1.7293E-01  3.3433E-01  3.4589E-01  2.6811E-01  2.8699E-01  2.3296E-01  3.0965E-01  1.9709E-01  3.3556E-01
 98  1.3994E+00  1.2039E+00  1.2140E+00  8.7375E-01  1.1498E+00  1.0547E+00  1.1449E+00  1.4256E+00  1.2537E+00
 99  1.3994E+00  1.2162E+00  1.6167E+00  9.1937E-01  1.1613E+00  1.5079E+00  1.2402E+00  1.0030E+00  1.1600E+00
100  2.2787E+00  2.2087E+00  2.0868E+00  2.5260E+00  2.2343E+00  2.0261E+00  2.7362E+00  1.9487E+00  2.5759E+00
101  0.0000E+00  1.6922E-04  3.1355E-04  0.0000E+00  0.0000E+00  3.7466E-04  1.6424E-04  0.0000E+00  0.0000E+00
102  0.0000E+00  1.8050E-05  0.0000E+00  0.0000E+00  0.0000E+00  4.1067E-06  0.0000E+00  0.0000E+00  0.0000E+00
103  0.0000E+00  1.3130E-05  5.5001E-06  4.5472E-05  0.0000E+00  2.6020E-05  4.0947E-06  8.0144E-05  0.0000E+00
104  0.0000E+00  3.2682E-05  0.0000E+00  0.0000E+00  0.0000E+00  0.0000E+00  0.0000E+00  0.0000E+00  0.0000E+00
105  0.0000E+00  9.4485E-05  1.5171E-04  0.0000E+00  3.6125E-05  6.1554E-06  0.0000E+00  0.0000E+00  0.0000E+00
106  0.0000E+00  6.0713E-05  0.0000E+00  0.0000E+00  9.7512E-05  0.0000E+00  0.0000E+00  0.0000E+00  0.0000E+00
107  0.0000E+00  1.6778E-04  0.0000E+00  7.3347E-04  0.0000E+00  0.0000E+00  0.0000E+00  0.0000E+00  0.0000E+00
108  0.0000E+00  1.1723E-04  0.0000E+00  0.0000E+00  0.0000E+00  8.6258E-04  0.0000E+00  0.0000E+00  1.2675E-04
109  0.0000E+00  1.3404E-04  0.0000E+00  0.0000E+00  0.0000E+00  2.1657E-05  0.0000E+00  0.0000E+00  0.0000E+00
110  0.0000E+00  6.7197E-05  0.0000E+00  4.6343E-05  0.0000E+00  5.2860E-04  0.0000E+00  0.0000E+00  0.0000E+00
111  0.0000E+00  6.7644E-05  4.6420E-05  0.0000E+00  0.0000E+00  0.0000E+00  0.0000E+00  0.0000E+00  0.0000E+00
112  0.0000E+00  8.4349E-05  0.0000E+00  0.0000E+00  0.0000E+00  0.0000E+00  0.0000E+00  3.8087E-04  0.0000E+00
113  0.0000E+00  2.0190E-04  0.0000E+00  0.0000E+00  0.0000E+00  0.0000E+00  0.0000E+00  0.0000E+00  0.0000E+00
114  0.0000E+00  2.1543E-04  0.0000E+00  0.0000E+00  0.0000E+00  0.0000E+00  0.0000E+00  0.0000E+00  0.0000E+00
115  0.0000E+00  1.0590E-03  0.0000E+00  0.0000E+00  0.0000E+00  0.0000E+00  0.0000E+00  0.0000E+00  0.0000E+00
116  0.0000E+00  3.1920E-03  1.8996E-02  0.0000E+00  0.0000E+00  0.0000E+00  5.1334E-03  0.0000E+00  3.3350E-03
117  0.0000E+00  4.1484E-03  0.0000E+00  2.3715E-03  0.0000E+00  0.0000E+00  0.0000E+00  0.0000E+00  0.0000E+00
118  0.0000E+00  1.4633E-02  0.0000E+00  1.6919E-02  6.9600E-03  3.9227E-03  9.2861E-03  0.0000E+00  0.0000E+00
119  0.0000E+00  2.4551E-02  0.0000E+00  6.4379E-02  0.0000E+00  0.0000E+00  0.0000E+00  0.0000E+00  2.0952E-01
120  0.0000E+00  4.0257E-02  4.5074E-02  0.0000E+00  0.0000E+00  2.5553E-02  0.0000E+00  2.1214E-01  1.3819E-01
121  0.0000E+00  6.2449E-02  0.0000E+00  2.3099E-01  0.0000E+00  0.0000E+00  0.0000E+00  4.8578E-02  1.8005E-01
122  1.7740E+00  2.6035E+00  2.3744E+00  2.0164E+00  2.2923E+00  2.6230E+00  2.6253E+00  2.6948E+00  1.7856E+00
123  9.7646E+00  1.0049E+01  1.0123E+01  1.0080E+01  9.9498E+00  1.0072E+01  1.0124E+01  1.0044E+01  1.0440E+01
124  6.7099E-01  1.3904E+00  1.1442E+00  1.3805E+00  1.3984E+00  1.1638E+00  1.6428E+00  1.1930E+00  1.0915E+00
125  2.3763E+01  2.4187E+01  2.4324E+01  2.3960E+01  2.4184E+01  2.4378E+01  2.4121E+01  2.3885E+01  2.4563E+01
126  0.0000E+00  2.7279E-05  6.4982E-05  0.0000E+00  0.0000E+00  0.0000E+00  1.8300E-04  0.0000E+00  0.0000E+00
127  0.0000E+00  7.5122E-06  0.0000E+00  0.0000E+00  0.0000E+00  0.0000E+00  0.0000E+00  0.0000E+00  6.8867E-05
128  0.0000E+00  3.8004E-05  7.1352E-05  0.0000E+00  1.8206E-04  0.0000E+00  0.0000E+00  0.0000E+00  8.4849E-05
129  0.0000E+00  1.3522E-04  1.0238E-05  0.0000E+00  2.7784E-04  0.0000E+00  0.0000E+00  2.9383E-05  1.3859E-04
130  0.0000E+00  6.9627E-05  0.0000E+00  0.0000E+00  0.0000E+00  1.9938E-04  0.0000E+00  0.0000E+00  4.6029E-05
131  0.0000E+00  1.3025E-04  0.0000E+00  0.0000E+00  6.4971E-05  0.0000E+00  0.0000E+00  1.3767E-04  0.0000E+00
132  0.0000E+00  4.2450E-05  0.0000E+00  0.0000E+00  0.0000E+00  3.2348E-05  9.4054E-06  0.0000E+00  0.0000E+00
133  0.0000E+00  8.9195E-05  0.0000E+00  0.0000E+00  0.0000E+00  0.0000E+00  5.4477E-05  0.0000E+00  0.0000E+00
134  0.0000E+00  5.0121E-05  0.0000E+00  0.0000E+00  0.0000E+00  0.0000E+00  0.0000E+00  0.0000E+00  8.6183E-05
135  0.0000E+00  6.3461E-05  0.0000E+00  2.2187E-07  0.0000E+00  0.0000E+00  0.0000E+00  1.8771E-04  0.0000E+00
136  0.0000E+00  9.3082E-05  0.0000E+00  0.0000E+00  0.0000E+00  0.0000E+00  0.0000E+00  0.0000E+00  0.0000E+00
137  0.0000E+00  1.3522E-04  0.0000E+00  0.0000E+00  0.0000E+00  0.0000E+00  0.0000E+00  0.0000E+00  0.0000E+00
138  0.0000E+00  1.4750E-04  0.0000E+00  0.0000E+00  0.0000E+00  0.0000E+00  0.0000E+00  0.0000E+00  1.7203E-03
139  0.0000E+00  6.6507E-04  0.0000E+00  0.0000E+00  0.0000E+00  0.0000E+00  7.0353E-05  0.0000E+00  0.0000E+00
140  0.0000E+00  2.6459E-03  0.0000E+00  0.0000E+00  0.0000E+00  0.0000E+00  0.0000E+00  0.0000E+00  0.0000E+00
141  0.0000E+00  1.1536E-02  0.0000E+00  0.0000E+00  0.0000E+00  2.9872E-02  9.1515E-03  0.0000E+00  0.0000E+00
142  0.0000E+00  1.1953E-02  2.0045E-02  0.0000E+00  6.4560E-03  0.0000E+00  0.0000E+00  0.0000E+00  0.0000E+00
143  0.0000E+00  3.3434E-02  0.0000E+00  0.0000E+00  0.0000E+00  1.9829E-02  0.0000E+00  8.5461E-02  2.1860E-02
144  1.4146E+00  1.9172E-01  1.3808E-01  6.2124E-01  3.0499E-01  2.3588E-01  5.4903E-01  2.3567E-01  0.0000E+00
145  0.0000E+00  1.4456E-01  4.8755E-02  1.9885E-02  2.2455E-01  2.8807E-01  1.3404E-01  1.8348E-01  0.0000E+00
146  0.0000E+00  1.4249E-01  0.0000E+00  4.2921E-01  0.0000E+00  2.3880E-01  4.8935E-01  2.6482E-01  3.9566E-01
147  0.0000E+00  1.4837E-01  3.9094E-01  0.0000E+00  4.0214E-01  3.5939E-01  5.4682E-02  6.3967E-02  0.0000E+00
148  0.0000E+00  7.8165E-02  2.1443E-02  0.0000E+00  0.0000E+00  0.0000E+00  2.2456E-01  0.0000E+00  0.0000E+00
149  2.7505E+00  2.4557E+00  2.5212E+00  2.6880E+00  2.3608E+00  2.3227E+00  2.5822E+00  2.5627E+00  2.7685E+00
150  1.1342E+01  1.0643E+01  1.0957E+01  1.0771E+01  1.0206E+01  1.0689E+01  9.5674E+00  1.1186E+01  1.1190E+01

# AV, chi2 & Mass for <> & i_chain = 1 ...  7 solutions
AV       1.2997      1.2981      1.2992      1.3013      1.2980      1.2977      1.2975      1.2988      1.2995
chi2 2.9479E+00  3.0427E+00  3.0263E+00  3.0204E+00  3.0153E+00  3.0212E+00  3.0270E+00  3.0288E+00  3.0264E+00
Mass 5.1385E-10  5.2810E-10  5.2756E-10  5.2815E-10  5.2969E-10  5.2575E-10  5.2114E-10  5.2759E-10  5.2877E-10
 -18.10                                  [v0_min (km/s) before EX0s...]
  28.65                                  [vd_min (km/s) before EX0s...]


## Synthetic spectrum (Best Model) ##l_obs f_obs f_syn wei
 3070    [Nl_obs]
 3359.00    0.00000   0.44648   -2.000
 3360.00    0.09619   0.42999   -1.000
 3361.00    0.24693   0.44172   -1.000
 3362.00    0.31239   0.46985   -1.000
 3363.00    0.36019   0.50303   -1.000
 3364.00    0.35750   0.52143   -1.000
 3365.00    0.34773   0.51730   -1.000
 3366.00    0.39063   0.50644   -1.000
 3367.00    0.36396   0.49564   -1.000
 3368.00    0.36215   0.48438   -1.000
 3369.00    0.41520   0.47309   -1.000
 3370.00    0.38647   0.45365   -1.000
 3371.00    0.35018   0.44182   -1.000
 3372.00    0.35225   0.44740   -1.000
 3373.00    0.34655   0.46950   -1.000
 3374.00    0.36732   0.49807   -1.000
 3375.00    0.43248   0.52443   -1.000
 3376.00    0.48558   0.53467   -1.000
 3377.00    0.45689   0.52683   -1.000
 3378.00    0.38853   0.50988   -1.000
 3379.00    0.39747   0.49818   -1.000
 3380.00    0.41412   0.49886   -1.000
 3381.00    0.37710   0.50683   -1.000
 3382.00    0.37266   0.51556   -1.000
 3383.00    0.40480   0.52206   -1.000
 3384.00    0.41659   0.52829   -1.000
 3385.00    0.41337   0.53552   -1.000
 3386.00    0.44044   0.53118   -1.000
 3387.00    0.48299   0.51961   60.026
 3388.00    0.46849   0.51319   59.672
 3389.00    0.45801   0.52011   -1.000
 3390.00    0.50170   0.52993   57.356
 3391.00    0.47421   0.53249   -1.000
 3392.00    0.44936   0.52236   -1.000
 3393.00    0.45170   0.51587   -1.000
 3394.00    0.45339   0.52403   -1.000
 3395.00    0.46809   0.53911   -1.000
 3396.00    0.47601   0.55466   -1.000
 3397.00    0.48820   0.56676   -1.000
 3398.00    0.48443   0.57609   -1.000
 3399.00    0.52086   0.57842   47.013
 3400.00    0.55629   0.57387   45.787
 3401.00    0.53830   0.56233   45.672
 3402.00    0.50422   0.54341   46.833
 3403.00    0.47248   0.53245   48.177
 3404.00    0.47759   0.52723   48.820
 3405.00    0.47703   0.53020   49.699
 3406.00    0.48268   0.52947   50.561
 3407.00    0.50405   0.52346   51.105
 3408.00    0.48256   0.51815   51.607
 3409.00    0.44712   0.52298   -1.000
 3410.00    0.47782   0.53358   52.177
 3411.00    0.49562   0.52973   51.243
 3412.00    0.42986   0.51721   -1.000
 3413.00    0.41383   0.50296   -1.000
 3414.00    0.47054   0.50188   52.679
 3415.00    0.47980   0.51805   53.120
 3416.00    0.46967   0.53662   -1.000
 3417.00    0.50903   0.55107   50.640
 3418.00    0.53809   0.56144   48.346
 3419.00    0.53027   0.57012   45.980
 3420.00    0.52875   0.57514   44.656
 3421.00    0.52287   0.56995   44.436
 3422.00    0.51935   0.55132   44.398
 3423.00    0.52748   0.53486   45.154
 3424.00    0.51645   0.53142   46.353
 3425.00    0.52656   0.53769   46.270
 3426.00    0.59372   0.54630   44.970
 3427.00    0.60815   0.55898   44.228
 3428.00    0.53233   0.57816   -1.000
 3429.00    0.50850   0.59396   -1.000
 3430.00    0.53057   0.59454   -1.000
 3431.00    0.53571   0.57512   -1.000
 3432.00    0.56392   0.55385   -1.000
 3433.00    0.58727   0.54735   -1.000
 3434.00    0.56938   0.56065   44.151
 3435.00    0.52390   0.57622   -1.000
 3436.00    0.51472   0.57544   -1.000
 3437.00    0.53584   0.56013   85.809
 3438.00    0.53295   0.53930   44.901
 3439.00    0.53705   0.51731   47.289
 3440.00    0.52565   0.49647   50.555
 3441.00    0.49687   0.48072   53.694
 3442.00    0.48646   0.47752   54.887
 3443.00    0.48176   0.48445   54.814
 3444.00    0.50001   0.49604   53.662
 3445.00    0.51611   0.50980   51.133
 3446.00    0.51592   0.53115   48.313
 3447.00    0.53673   0.55534   46.105
 3448.00    0.55166   0.57568   76.204
 3449.00    0.57320   0.58443   -1.000
 3450.00    0.60746   0.57239   -1.000
 3451.00    0.60063   0.55113   -1.000
 3452.00    0.55937   0.53678   -1.000
 3453.00    0.55059   0.53704   -1.000
 3454.00    0.56882   0.54781   -1.000
 3455.00    0.58941   0.55790   -1.000
 3456.00    0.60516   0.55806   -1.000
 3457.00    0.58046   0.54995   -1.000
 3458.00    0.56751   0.53853   -1.000
 3459.00    0.58558   0.52740   -1.000
 3460.00    0.59577   0.51603   -1.000
 3461.00    0.55997   0.51522   44.567
 3462.00    0.54067   0.53019   74.685
 3463.00    0.55253   0.54529  363.595
 3464.00    0.54468   0.54790  363.595
 3465.00    0.56108   0.54251   -1.000
 3466.00    0.58117   0.54436   -1.000
 3467.00    0.56573   0.55761  363.595
 3468.00    0.57648   0.57506  363.595
 3469.00    0.60610   0.58788   -1.000
 3470.00    0.60139   0.58985   -1.000
 3471.00    0.58679   0.57945  363.595
 3472.00    0.56944   0.56306  363.595
 3473.00    0.55095   0.53915   -1.000
 3474.00    0.52868   0.51825   -1.000
 3475.00    0.53306   0.50817   87.524
 3476.00    0.54060   0.51378   45.217
 3477.00    0.53286   0.53303   45.686
 3478.00    0.54400   0.55226   75.344
 3479.00    0.60114   0.56654   -1.000
 3480.00    0.61343   0.57651   -1.000
 3481.00    0.56889   0.57652  363.595
 3482.00    0.56718   0.56887  363.595
 3483.00    0.58909   0.56132   -1.000
 3484.00    0.61337   0.56126   -1.000
 3485.00    0.62575   0.57278   -1.000
 3486.00    0.62099   0.58531   -1.000
 3487.00    0.61805   0.58673   -1.000
 3488.00    0.63045   0.57434   -1.000
 3489.00    0.59352   0.55342   -1.000
 3490.00    0.56851   0.53846   -1.000
 3491.00    0.58159   0.54162   -1.000
 3492.00    0.57171   0.55391   -1.000
 3493.00    0.58809   0.56046   -1.000
 3494.00    0.59012   0.55954   -1.000
 3495.00    0.60053   0.55082   -1.000
 3496.00    0.61145   0.54327   -1.000
 3497.00    0.58838   0.54682   -1.000
 3498.00    0.58681   0.55674   -1.000
 3499.00    0.60330   0.56807   -1.000
 3500.00    0.61521   0.57095   -1.000
 3501.00    0.64029   0.57313   -1.000
 3502.00    0.65107   0.58183   -1.000
 3503.00    0.64660   0.58754   -1.000
 3504.00    0.63214   0.58473   -1.000
 3505.00    0.61027   0.57341   -1.000
 3506.00    0.58263   0.56382   -1.000
 3507.00    0.57778   0.56031   -1.000
 3508.00    0.59146   0.55873   -1.000
 3509.00    0.60906   0.55852   -1.000
 3510.00    0.62914   0.55577   -1.000
 3511.00    0.62815   0.55024   -1.000
 3512.00    0.59216   0.54058   -1.000
 3513.00    0.55854   0.53097   -1.000
 3514.00    0.54249   0.53280   -1.000
 3515.00    0.58362   0.55078   -1.000
 3516.00    0.60518   0.58077   -1.000
 3517.00    0.60903   0.60189  363.595
 3518.00    0.60429   0.60265  351.782
 3519.00    0.61493   0.58388   -1.000
 3520.00    0.60758   0.56285   -1.000
 3521.00    0.58371   0.54685   -1.000
 3522.00    0.56638   0.53558   -1.000
 3523.00    0.54872   0.52316   -1.000
 3524.00    0.54555   0.50946   -1.000
 3525.00    0.52090   0.50391   44.780
 3526.00    0.51930   0.51610   45.545
 3527.00    0.54353   0.53791   74.978
 3528.00    0.56433   0.56271  363.595
 3529.00    0.60090   0.58046   -1.000
 3530.00    0.60179   0.58903   -1.000
 3531.00    0.58914   0.59027  363.595
 3532.00    0.59582   0.58253   -1.000
 3533.00    0.59930   0.56857   -1.000
 3534.00    0.62460   0.56286   -1.000
 3535.00    0.60541   0.56815   -1.000
 3536.00    0.58667   0.58529  355.607
 3537.00    0.61229   0.60395  353.495
 3538.00    0.61468   0.61538  352.940
 3539.00    0.60717   0.61933   -1.000
 3540.00    0.61277   0.61470  347.578
 3541.00    0.60537   0.60830  352.268
 3542.00    0.61445   0.60938  357.386
 3543.00    0.63465   0.61829   -1.000
 3544.00    0.65680   0.62472   -1.000
 3545.00    0.64483   0.62263   -1.000
 3546.00    0.63606   0.61510   -1.000
 3547.00    0.63044   0.60866   -1.000
 3548.00    0.60935   0.60760  363.595
 3549.00    0.59940   0.61141   -1.000
 3550.00    0.58121   0.61669   -1.000
 3551.00    0.58859   0.61766   -1.000
 3552.00    0.60575   0.60785  363.595
 3553.00    0.61220   0.59266   -1.000
 3554.00    0.60730   0.58500   -1.000
 3555.00    0.60615   0.58882   -1.000
 3556.00    0.62493   0.59766   -1.000
 3557.00    0.64261   0.60646   -1.000
 3558.00    0.61927   0.60982   -1.000
 3559.00    0.59590   0.61003   -1.000
 3560.00    0.61476   0.61286  363.595
 3561.00    0.62018   0.61749  363.595
 3562.00    0.61930   0.61537  363.595
 3563.00    0.59725   0.59862  363.595
 3564.00    0.55559   0.57118   -1.000
 3565.00    0.54123   0.54726   89.524
 3566.00    0.54114   0.53994   45.318
 3567.00    0.50982   0.54173   46.124
 3568.00    0.49572   0.54122   45.698
 3569.00    0.51726   0.53258   46.233
 3570.00    0.50646   0.52032   47.511
 3571.00    0.50720   0.51791   47.320
 3572.00    0.51827   0.52633   45.533
 3573.00    0.54633   0.53578   72.709
 3574.00    0.56820   0.54430   -1.000
 3575.00    0.55290   0.55229  363.595
 3576.00    0.55039   0.55755  363.595
 3577.00    0.55343   0.55766  363.595
 3578.00    0.55163   0.55155  363.595
 3579.00    0.50830   0.53584   93.167
 3580.00    0.49289   0.51856   47.562
 3581.00    0.49997   0.50623   50.865
 3582.00    0.48540   0.50334   52.571
 3583.00    0.48612   0.50665   52.841
 3584.00    0.49258   0.50336   53.543
 3585.00    0.47416   0.49092   55.087
 3586.00    0.45438   0.47896   56.457
 3587.00    0.45660   0.47957   55.599
 3588.00    0.47998   0.49776   52.693
 3589.00    0.50831   0.52796   50.002
 3590.00    0.52790   0.55606   46.635
 3591.00    0.55826   0.57143   71.988
 3592.00    0.58106   0.57205  363.595
 3593.00    0.56718   0.57125  363.595
 3594.00    0.55864   0.57869   -1.000
 3595.00    0.58379   0.59484   -1.000
 3596.00    0.59489   0.60984   -1.000
 3597.00    0.59689   0.61748   -1.000
 3598.00    0.61891   0.62202  341.187
 3599.00    0.61385   0.62494   -1.000
 3600.00    0.61373   0.62036  332.405
 3601.00    0.60464   0.60310  341.627
 3602.00    0.57034   0.58473   -1.000
 3603.00    0.55891   0.57273   -1.000
 3604.00    0.55209   0.57224   -1.000
 3605.00    0.53591   0.57436   -1.000
 3606.00    0.53891   0.57006   -1.000
 3607.00    0.54434   0.56011   -1.000
 3608.00    0.53938   0.55002   -1.000
 3609.00    0.54656   0.54767  363.595
 3610.00    0.56289   0.55371   -1.000
 3611.00    0.56658   0.56502  363.595
 3612.00    0.56655   0.57684   -1.000
 3613.00    0.56745   0.58784   -1.000
 3614.00    0.55439   0.60128   -1.000
 3615.00    0.55925   0.61353   -1.000
 3616.00    0.56533   0.60675   -1.000
 3617.00    0.55517   0.58233   -1.000
 3618.00    0.53965   0.55580   -1.000
 3619.00    0.52253   0.54838   90.245
 3620.00    0.52619   0.56372   70.952
 3621.00    0.55721   0.58829   -1.000
 3622.00    0.58468   0.60726   -1.000
 3623.00    0.59368   0.61906   -1.000
 3624.00    0.60631   0.63159   -1.000
 3625.00    0.63246   0.65307   -1.000
 3626.00    0.65023   0.67730   -1.000
 3627.00    0.65267   0.69069   -1.000
 3628.00    0.64220   0.67659   -1.000
 3629.00    0.60500   0.63794   -1.000
 3630.00    0.57295   0.59191   -1.000
 3631.00    0.53625   0.56831   -1.000
 3632.00    0.51676   0.57206   -1.000
 3633.00    0.55542   0.59095   -1.000
 3634.00    0.60558   0.60457  363.595
 3635.00    0.59574   0.60809   -1.000
 3636.00    0.59152   0.61251   -1.000
 3637.00    0.60099   0.62851   -1.000
 3638.00    0.62400   0.64695   -1.000
 3639.00    0.65068   0.65905   -1.000
 3640.00    0.64475   0.66219   -1.000
 3641.00    0.63052   0.65393   -1.000
 3642.00    0.61097   0.63772   -1.000
 3643.00    0.60645   0.62084   -1.000
 3644.00    0.60645   0.60714  360.553
 3645.00    0.56759   0.59769   -1.000
 3646.00    0.56401   0.58927   -1.000
 3647.00    0.59162   0.58333   -1.000
 3648.00    0.58198   0.58358  363.595
 3649.00    0.57585   0.58918   -1.000
 3650.00    0.57961   0.60126   -1.000
 3651.00    0.58841   0.61821   -1.000
 3652.00    0.61354   0.63829   -1.000
 3653.00    0.63386   0.65283   -1.000
 3654.00    0.65467   0.66550   -1.000
 3655.00    0.64934   0.67773   -1.000
 3656.00    0.65272   0.68859   -1.000
 3657.00    0.67189   0.69541   -1.000
 3658.00    0.68243   0.69655   -1.000
 3659.00    0.67528   0.69623   -1.000
 3660.00    0.67114   0.69253   -1.000
 3661.00    0.66197   0.68262   -1.000
 3662.00    0.64923   0.67037   -1.000
 3663.00    0.65327   0.66297   -1.000
 3664.00    0.65783   0.66416  315.707
 3665.00    0.65397   0.66960   -1.000
 3666.00    0.65769   0.67133   -1.000
 3667.00    0.65498   0.66617   -1.000
 3668.00    0.63419   0.65415   -1.000
 3669.00    0.61001   0.64477   -1.000
 3670.00    0.60397   0.64780   -1.000
 3671.00    0.62671   0.65985   -1.000
 3672.00    0.66403   0.67214   -1.000
 3673.00    0.66094   0.67795   -1.000
 3674.00    0.65989   0.67548   -1.000
 3675.00    0.66072   0.66613  309.777
 3676.00    0.63053   0.64942   -1.000
 3677.00    0.63054   0.62902  324.164
 3678.00    0.61914   0.61325  334.151
 3679.00    0.60337   0.60924  343.601
 3680.00    0.61002   0.61434  348.190
 3681.00    0.60105   0.62358   -1.000
 3682.00    0.60832   0.63284   -1.000
 3683.00    0.62065   0.63672   -1.000
 3684.00    0.61077   0.63237   -1.000
 3685.00    0.60784   0.61899   -1.000
 3686.00    0.61212   0.60613  353.413
 3687.00    0.60045   0.60626  363.595
 3688.00    0.60904   0.62211   -1.000
 3689.00    0.61654   0.64802   -1.000
 3690.00    0.62104   0.66883   -1.000
 3691.00    0.63476   0.67871   -1.000
 3692.00    0.65427   0.67499   -1.000
 3693.00    0.67440   0.66605  308.275
 3694.00    0.65317   0.66135  315.110
 3695.00    0.65744   0.66220  316.936
 3696.00    0.66397   0.66403  314.858
 3697.00    0.65845   0.66922   -1.000
 3698.00    0.67617   0.68364  304.968
 3699.00    0.68971   0.70022   -1.000
 3700.00    0.69956   0.71069   -1.000
 3701.00    0.70763   0.69812  290.005
 3702.00    0.67885   0.66196   -1.000
 3703.00    0.63555   0.61683   -1.000
 3704.00    0.60331   0.58247   -1.000
 3705.00    0.58356   0.56719   -1.000
 3706.00    0.59814   0.57099   -1.000
 3707.00    0.60184   0.58111   -1.000
 3708.00    0.58609   0.59231  363.595
 3709.00    0.59988   0.60027  363.595
 3710.00    0.61199   0.60619  351.329
 3711.00    0.63554   0.61596   -1.000
 3712.00    0.65805   0.63542   -1.000
 3713.00    0.66850   0.66239  301.502
 3714.00    0.68870   0.68588  290.071
 3715.00    0.69104   0.69765  285.631
 3716.00    0.69284   0.69347  288.328
 3717.00    0.69364   0.67175   -1.000
 3718.00    0.66099   0.63296   -1.000
 3719.00    0.59833   0.57896   -1.000
 3720.00    0.53786   0.52564   -1.000
 3721.00    0.51387   0.50616   94.741
 3722.00    0.54164   0.52645   70.707
 3723.00    0.57093   0.57326  363.595
 3724.00    0.59006   0.62348   -1.000
 3725.00    0.59302   0.65182   -1.000
 3726.00    0.58561   0.65567   -1.000
 3727.00    0.58754   0.65343   -1.000
 3728.00    0.57771   0.65633   -1.000
 3729.00    0.60124   0.66012   -1.000
 3730.00    0.65320   0.65402  329.887
 3731.00    0.63573   0.62244   -1.000
 3732.00    0.60483   0.56533   -1.000
 3733.00    0.56117   0.51072   -1.000
 3734.00    0.50967   0.47253   45.977
 3735.00    0.49197   0.46677   50.008
 3736.00    0.48814   0.49490   49.996
 3737.00    0.51899   0.54460   46.502
 3738.00    0.57085   0.59751   68.852
 3739.00    0.62403   0.64644   -1.000
 3740.00    0.66754   0.67350  340.410
 3741.00    0.69177   0.67453   -1.000
 3742.00    0.67922   0.65305   -1.000
 3743.00    0.66232   0.62522   -1.000
 3744.00    0.62018   0.59920   -1.000
 3745.00    0.57909   0.58073  363.595
 3746.00    0.56401   0.56289  363.595
 3747.00    0.53439   0.53653   94.965
 3748.00    0.49831   0.50930   45.700
 3749.00    0.49162   0.49369   47.666
 3750.00    0.52876   0.50625   75.130
 3751.00    0.59487   0.54687   -1.000
 3752.00    0.65940   0.60009   -1.000
 3753.00    0.69338   0.65372   -1.000
 3754.00    0.71288   0.69079   -1.000
 3755.00    0.73414   0.70047   -1.000
 3756.00    0.71152   0.68343   -1.000
 3757.00    0.64916   0.65021  325.183
 3758.00    0.59602   0.62322   -1.000
 3759.00    0.61041   0.61767  363.595
 3760.00    0.64594   0.62852   -1.000
 3761.00    0.66310   0.64510   -1.000
 3762.00    0.67978   0.65355   -1.000
 3763.00    0.68271   0.65404   -1.000
 3764.00    0.68544   0.64958   -1.000
 3765.00    0.68121   0.64099   -1.000
 3766.00    0.65803   0.62866   -1.000
 3767.00    0.64416   0.61308   -1.000
 3768.00    0.63884   0.59233   -1.000
 3769.00    0.62656   0.57261   -1.000
 3770.00    0.64142   0.56542   -1.000
 3771.00    0.64395   0.58287   -1.000
 3772.00    0.65674   0.61837   -1.000
 3773.00    0.70353   0.65622   -1.000
 3774.00    0.72807   0.67860   -1.000
 3775.00    0.72836   0.68748   -1.000
 3776.00    0.71395   0.69326   -1.000
 3777.00    0.72396   0.70475   -1.000
 3778.00    0.74788   0.72376   -1.000
 3779.00    0.75960   0.74329   -1.000
 3780.00    0.77159   0.75868   -1.000
 3781.00    0.78298   0.76443   -1.000
 3782.00    0.77279   0.76342  279.052
 3783.00    0.76227   0.75787  278.120
 3784.00    0.76383   0.74581   -1.000
 3785.00    0.73014   0.72583  290.862
 3786.00    0.69297   0.70340   -1.000
 3787.00    0.69334   0.68149   -1.000
 3788.00    0.68602   0.66909   -1.000
 3789.00    0.68864   0.66990   -1.000
 3790.00    0.68550   0.67561   -1.000
 3791.00    0.67198   0.67779  337.142
 3792.00    0.67616   0.66963  337.244
 3793.00    0.66408   0.64741   -1.000
 3794.00    0.62971   0.61851   -1.000
 3795.00    0.61018   0.58494   -1.000
 3796.00    0.58853   0.54971   -1.000
 3797.00    0.56395   0.51873   -1.000
 3798.00    0.53925   0.51115   -1.000
 3799.00    0.56772   0.54192   -1.000
 3800.00    0.62798   0.60215   -1.000
 3801.00    0.66804   0.65883  349.057
 3802.00    0.69534   0.69926  326.394
 3803.00    0.71877   0.71707  315.161
 3804.00    0.73550   0.72130   -1.000
 3805.00    0.72768   0.71545   -1.000
 3806.00    0.71582   0.70777  319.095
 3807.00    0.70954   0.71033  329.021
 3808.00    0.71696   0.72527  329.128
 3809.00    0.75003   0.74374  318.530
 3810.00    0.78033   0.75405   -1.000
 3811.00    0.77104   0.74471   -1.000
 3812.00    0.73466   0.71745   -1.000
 3813.00    0.70152   0.68776   -1.000
 3814.00    0.67109   0.66437  360.176
 3815.00    0.64584   0.65934   -1.000
 3816.00    0.66313   0.67052  363.595
 3817.00    0.69871   0.68249   -1.000
 3818.00    0.69233   0.67750   -1.000
 3819.00    0.66219   0.65565   -1.000
 3820.00    0.64287   0.63867  363.595
 3821.00    0.64886   0.63971   -1.000
 3822.00    0.66293   0.65279   -1.000
 3823.00    0.65585   0.65200  363.595
 3824.00    0.61124   0.63163   -1.000
 3825.00    0.58881   0.61108  100.293
 3826.00    0.59168   0.59831   46.451
 3827.00    0.56558   0.59280   46.874
 3828.00    0.55613   0.59115   46.305
 3829.00    0.57686   0.58750   45.546
 3830.00    0.58701   0.57808   45.325
 3831.00    0.57311   0.55820   46.506
 3832.00    0.54714   0.52673   49.287
 3833.00    0.52049   0.48929   52.312
 3834.00    0.51043   0.46262   52.800
 3835.00    0.50776   0.45790   51.264
 3836.00    0.51902   0.47171   49.559
 3837.00    0.53875   0.49320   49.342
 3838.00    0.53256   0.51609   50.489
 3839.00    0.52223   0.54039   50.852
 3840.00    0.54742   0.56970   49.077
 3841.00    0.60228   0.60786   72.748
 3842.00    0.65701   0.64779   -1.000
 3843.00    0.68593   0.68436  363.595
 3844.00    0.70875   0.70617  360.916
 3845.00    0.73431   0.71602   -1.000
 3846.00    0.73100   0.72389  357.127
 3847.00    0.73576   0.72957  357.271
 3848.00    0.73919   0.72727   -1.000
 3849.00    0.70929   0.71875   -1.000
 3850.00    0.70585   0.71455  363.595
 3851.00    0.71431   0.72455   -1.000
 3852.00    0.71492   0.73976   -1.000
 3853.00    0.71857   0.74763   -1.000
 3854.00    0.70017   0.73983   -1.000
 3855.00    0.68806   0.72438   -1.000
 3856.00    0.68425   0.70766   -1.000
 3857.00    0.65807   0.68979   -1.000
 3858.00    0.64019   0.67347   95.965
 3859.00    0.64300   0.66932   44.671
 3860.00    0.63125   0.68118   45.973
 3861.00    0.65555   0.70714   -1.000
 3862.00    0.70183   0.73356   -1.000
 3863.00    0.73368   0.74621   -1.000
 3864.00    0.76092   0.74326   -1.000
 3865.00    0.75189   0.73774   -1.000
 3866.00    0.72358   0.73724   -1.000
 3867.00    0.71288   0.74037   -1.000
 3868.00    0.71296   0.74171   -1.000
 3869.00    0.70782   0.73352   -1.000
 3870.00    0.68538   0.71597   -1.000
 3871.00    0.64885   0.69837   -1.000
 3872.00    0.63868   0.68744   -1.000
 3873.00    0.66552   0.69183   -1.000
 3874.00    0.69975   0.70743  363.595
 3875.00    0.70092   0.71940   -1.000
 3876.00    0.70597   0.71078  343.940
 3877.00    0.68752   0.68945  362.075
 3878.00    0.66054   0.67373   -1.000
 3879.00    0.66345   0.67167  363.595
 3880.00    0.67219   0.68032  363.595
 3881.00    0.65312   0.68415   -1.000
 3882.00    0.63390   0.67951   -1.000
 3883.00    0.65741   0.67379   -1.000
 3884.00    0.66486   0.65854   -1.000
 3885.00    0.63634   0.62401   -1.000
 3886.00    0.61495   0.57842   -1.000
 3887.00    0.58691   0.53558   -1.000
 3888.00    0.56447   0.51706   -1.000
 3889.00    0.57663   0.53332   -1.000
 3890.00    0.62201   0.57903   -1.000
 3891.00    0.66616   0.63455   -1.000
 3892.00    0.69624   0.67601   -1.000
 3893.00    0.71761   0.69099   -1.000
 3894.00    0.72285   0.69444   -1.000
 3895.00    0.70956   0.70239  302.975
 3896.00    0.72480   0.71522  299.261
 3897.00    0.75844   0.72812   -1.000
 3898.00    0.75392   0.73377   -1.000
 3899.00    0.74843   0.73426   -1.000
 3900.00    0.74877   0.73974  293.985
 3901.00    0.76137   0.74575   -1.000
 3902.00    0.77254   0.74432   -1.000
 3903.00    0.75763   0.73599   -1.000
 3904.00    0.74218   0.72455   -1.000
 3905.00    0.72565   0.72216  315.247
 3906.00    0.72392   0.73305  320.061
 3907.00    0.74366   0.75847   -1.000
 3908.00    0.77159   0.78778   -1.000
 3909.00    0.78961   0.80955   -1.000
 3910.00    0.80918   0.81939  271.572
 3911.00    0.84395   0.82479   -1.000
 3912.00    0.83861   0.82719  266.938
 3913.00    0.82170   0.82277  267.221
 3914.00    0.82114   0.81200  271.406
 3915.00    0.82032   0.80330   -1.000
 3916.00    0.78650   0.79727   -1.000
 3917.00    0.78617   0.78806  286.389
 3918.00    0.79758   0.77267   -1.000
 3919.00    0.76593   0.75482   -1.000
 3920.00    0.73929   0.74096  316.255
 3921.00    0.72516   0.73348  328.114
 3922.00    0.72813   0.73635  330.890
 3923.00    0.74306   0.74341  326.493
 3924.00    0.74406   0.74461  323.737
 3925.00    0.72150   0.73422   -1.000
 3926.00    0.68966   0.70670   -1.000
 3927.00    0.64075   0.66858   -1.000
 3928.00    0.56606   0.62142   -1.000
 3929.00    0.51152   0.56935   51.652
 3930.00    0.44263   0.50649   -1.000
 3931.00    0.37793   0.42719   -1.000
 3932.00    0.33368   0.35153   83.806
 3933.00    0.30864   0.30610   95.664
 3934.00    0.30098   0.31875   99.371
 3935.00    0.33447   0.38297   -1.000
 3936.00    0.39287   0.46753   -1.000
 3937.00    0.46353   0.54693   -1.000
 3938.00    0.54822   0.61904   -1.000
 3939.00    0.60159   0.66893   -1.000
 3940.00    0.62876   0.70172   -1.000
 3941.00    0.65654   0.71881   -1.000
 3942.00    0.68398   0.72211   -1.000
 3943.00    0.68912   0.72094   -1.000
 3944.00    0.69729   0.72892   -1.000
 3945.00    0.72517   0.74727   -1.000
 3946.00    0.75893   0.76758  314.619
 3947.00    0.75751   0.77877   -1.000
 3948.00    0.75797   0.78146   -1.000
 3949.00    0.78722   0.78513  293.933
 3950.00    0.80408   0.78945   -1.000
 3951.00    0.82169   0.78880   -1.000
 3952.00    0.80991   0.79052   -1.000
 3953.00    0.80173   0.79885  281.417
 3954.00    0.83045   0.80333   -1.000
 3955.00    0.82300   0.79771   -1.000
 3956.00    0.77671   0.78550  278.092
 3957.00    0.76234   0.77701   -1.000
 3958.00    0.78470   0.77626  287.084
 3959.00    0.78429   0.76529   -1.000
 3960.00    0.74269   0.73291   -1.000
 3961.00    0.69719   0.69480  337.104
 3962.00    0.65634   0.65799  363.595
 3963.00    0.61192   0.62840   -1.000
 3964.00    0.56209   0.59209  104.027
 3965.00    0.50539   0.52857   48.578
 3966.00    0.42751   0.44548   58.018
 3967.00    0.34792   0.35774   71.441
 3968.00    0.29843   0.30539   84.377
 3969.00    0.30832   0.30898   87.235
 3970.00    0.35173   0.36434   77.019
 3971.00    0.40620   0.44453   63.331
 3972.00    0.49839   0.52897   52.430
 3973.00    0.57099   0.59807   70.071
 3974.00    0.61629   0.65595   -1.000
 3975.00    0.65886   0.70191   -1.000
 3976.00    0.71923   0.74020   -1.000
 3977.00    0.77357   0.77378  291.274
 3978.00    0.79788   0.80295  274.935
 3979.00    0.84757   0.82560   -1.000
 3980.00    0.86506   0.83307   -1.000
 3981.00    0.84669   0.83233   -1.000
 3982.00    0.84583   0.83158   -1.000
 3983.00    0.85031   0.83617   -1.000
 3984.00    0.85482   0.84883  251.568
 3985.00    0.86671   0.86290  246.363
 3986.00    0.88866   0.87559  241.843
 3987.00    0.89385   0.88910  237.664
 3988.00    0.89971   0.89903  233.953
 3989.00    0.90827   0.90021  232.926
 3990.00    0.91883   0.90155   -1.000
 3991.00    0.93524   0.90883   -1.000
 3992.00    0.93785   0.91966   -1.000
 3993.00    0.93822   0.92583  222.002
 3994.00    0.95918   0.92127   -1.000
 3995.00    0.95555   0.90662   -1.000
 3996.00    0.90970   0.88901   -1.000
 3997.00    0.88254   0.88286  239.834
 3998.00    0.89627   0.89155  238.948
 3999.00    0.92817   0.91136   -1.000
 4000.00    0.96092   0.93029   -1.000
 4001.00    0.96615   0.94383   -1.000
 4002.00    0.96976   0.94624   -1.000
 4003.00    0.96727   0.93319   -1.000
 4004.00    0.93435   0.90605   -1.000
 4005.00    0.90168   0.88506   -1.000
 4006.00    0.90560   0.88839   -1.000
 4007.00    0.93463   0.91189   -1.000
 4008.00    0.95762   0.93925   -1.000
 4009.00    0.96117   0.95432  215.370
 4010.00    0.97237   0.96089  212.835
 4011.00    1.02762   0.96417   -1.000
 4012.00    1.01327   0.96545   -1.000
 4013.00    0.98846   0.96698   -1.000
 4014.00    0.99380   0.97078   -1.000
 4015.00    0.99253   0.97488   -1.000
 4016.00    1.00802   0.97565   -1.000
 4017.00    1.00598   0.97658   -1.000
 4018.00    0.99173   0.98212  212.902
 4019.00    0.98846   0.98816  210.931
 4020.00    1.01221   0.99084   -1.000
 4021.00    1.03431   0.98648   -1.000
 4022.00    1.01982   0.98044   -1.000
 4023.00    0.99674   0.97376   -1.000
 4024.00    0.98721   0.96832   -1.000
 4025.00    0.98789   0.97109   -1.000
 4026.00    1.02146   0.98589   -1.000
 4027.00    1.05601   1.00359   -1.000
 4028.00    1.05125   1.00332   -1.000
 4029.00    1.01746   0.97868   -1.000
 4030.00    0.96056   0.94080   -1.000
 4031.00    0.93476   0.91146   -1.000
 4032.00    0.93681   0.89892   -1.000
 4033.00    0.94292   0.90383   -1.000
 4034.00    0.96703   0.92430   -1.000
 4035.00    1.01568   0.95770   -1.000
 4036.00    1.04421   0.99479   -1.000
 4037.00    1.05620   1.02452   -1.000
 4038.00    1.05157   1.03230   -1.000
 4039.00    1.03206   1.02354  197.790
 4040.00    1.03041   1.01112   -1.000
 4041.00    1.03213   1.00350   -1.000
 4042.00    1.02300   0.99062   -1.000
 4043.00    0.99272   0.95743   -1.000
 4044.00    0.93594   0.90949   -1.000
 4045.00    0.89876   0.87675   -1.000
 4046.00    0.92006   0.88531   -1.000
 4047.00    0.97300   0.92910   -1.000
 4048.00    0.99991   0.97690   -1.000
 4049.00    1.00295   1.00894  207.879
 4050.00    1.03521   1.01918  203.382
 4051.00    1.05401   1.01904   -1.000
 4052.00    1.03920   1.00973   -1.000
 4053.00    1.00655   0.99638  211.146
 4054.00    0.98876   0.98562  215.813
 4055.00    0.99896   0.97760   -1.000
 4056.00    1.00000   0.97103   -1.000
 4057.00    0.99029   0.96818   -1.000
 4058.00    0.98068   0.97677  222.423
 4059.00    0.98374   0.99403  217.616
 4060.00    1.01937   1.00130   -1.000
 4061.00    1.03258   0.98111   -1.000
 4062.00    0.99153   0.93904   -1.000
 4063.00    0.93828   0.90822   -1.000
 4064.00    0.94910   0.90009   -1.000
 4065.00    0.97465   0.91171   -1.000
 4066.00    0.98327   0.93442   -1.000
 4067.00    0.98520   0.95359   -1.000
 4068.00    1.01399   0.96424   -1.000
 4069.00    1.06071   0.96283   -1.000
 4070.00    1.04545   0.94404   -1.000
 4071.00    0.98586   0.92190   -1.000
 4072.00    0.94692   0.92092   -1.000
 4073.00    0.99352   0.93659   -1.000
 4074.00    1.02116   0.94679   -1.000
 4075.00    0.96596   0.93308   -1.000
 4076.00    0.88166   0.90529   -1.000
 4077.00    0.84972   0.88891   -1.000
 4078.00    0.85778   0.89702   -1.000
 4079.00    0.91659   0.93106   -1.000
 4080.00    0.99210   0.96919   -1.000
 4081.00    1.03909   0.99165   -1.000
 4082.00    1.03088   0.98948   -1.000
 4083.00    1.00158   0.97380   -1.000
 4084.00    0.97129   0.96154  215.830
 4085.00    0.97136   0.96526  216.638
 4086.00    0.99507   0.98489  211.730
 4087.00    1.04664   1.00836   -1.000
 4088.00    1.08141   1.02396   -1.000
 4089.00    1.08581   1.02334   -1.000
 4090.00    1.07802   1.01234   -1.000
 4091.00    1.04863   1.00171   -1.000
 4092.00    1.03143   0.99508   -1.000
 4093.00    1.03422   0.98356   -1.000
 4094.00    1.03885   0.96478   -1.000
 4095.00    1.02147   0.93707   -1.000
 4096.00    0.97636   0.90947   -1.000
 4097.00    0.94808   0.88548   -1.000
 4098.00    0.92117   0.85371   -1.000
 4099.00    0.86600   0.80431   -1.000
 4100.00    0.78174   0.74246   -1.000
 4101.00    0.71463   0.70214   -1.000
 4102.00    0.73030   0.70960   -1.000
 4103.00    0.79493   0.76759   -1.000
 4104.00    0.87096   0.83857   -1.000
 4105.00    0.92538   0.89629   -1.000
 4106.00    0.94770   0.92824   -1.000
 4107.00    0.96514   0.94429   -1.000
 4108.00    0.96910   0.94985   -1.000
 4109.00    0.95317   0.94985  217.809
 4110.00    0.95264   0.95292  221.767
 4111.00    0.96902   0.96107  222.823
 4112.00    0.99115   0.97386   -1.000
 4113.00    1.00285   0.98973  214.486
 4114.00    1.01982   1.00616  210.970
 4115.00    1.04506   1.01724   -1.000
 4116.00    1.02626   1.01477  207.261
 4117.00    1.00735   1.00160  209.577
 4118.00    1.00225   0.98565   -1.000
 4119.00    0.98732   0.97633  220.759
 4120.00    0.98423   0.98015  221.281
 4121.00    0.99383   0.98935  218.555
 4122.00    1.00991   0.99772  217.199
 4123.00    1.02249   1.00469   -1.000
 4124.00    1.01774   1.01246  213.603
 4125.00    1.04071   1.01882   -1.000
 4126.00    1.05232   1.01720   -1.000
 4127.00    1.02481   1.01015  215.072
 4128.00    1.00385   1.00513  218.753
 4129.00    1.00634   1.00133  220.239
 4130.00    1.00900   0.98901   -1.000
 4131.00    1.00177   0.96864   -1.000
 4132.00    0.96884   0.95194   -1.000
 4133.00    0.96518   0.95516  238.527
 4134.00    0.97815   0.97712  235.884
 4135.00    1.01493   1.00478  226.362
 4136.00    1.05723   1.02920   -1.000
 4137.00    1.05894   1.04712  210.615
 4138.00    1.05993   1.05945  207.333
 4139.00    1.08246   1.06381   -1.000
 4140.00    1.07736   1.04955   -1.000
 4141.00    1.03385   1.01614   -1.000
 4142.00    0.97400   0.97639  226.425
 4143.00    0.94301   0.95290  243.378
 4144.00    0.96333   0.95984  248.106
 4145.00    1.00678   0.98876   -1.000
 4146.00    1.03784   1.01638   -1.000
 4147.00    1.06139   1.02502   -1.000
 4148.00    1.05597   1.02285   -1.000
 4149.00    1.03809   1.02073   -1.000
 4150.00    1.03614   1.02171  228.102
 4151.00    1.02729   1.02192  229.242
 4152.00    1.01363   1.01654  227.584
 4153.00    1.01812   1.00770  227.503
 4154.00    1.11101   1.00039   -1.000
 4155.00    1.32821   1.00095   -1.000
 4156.00    1.17320   1.01118   -1.000
 4157.00    0.69700   1.02613   -1.000
 4158.00    0.87176   1.04305   -1.000
 4159.00    1.12369   1.05620   -1.000
 4160.00    1.08365   1.06451   -1.000
 4161.00    1.07314   1.07080  216.194
 4162.00    1.08502   1.07667  210.924
 4163.00    1.07276   1.08124  209.967
 4164.00    1.06191   1.07971   -1.000
 4165.00    1.05304   1.06902   -1.000
 4166.00    1.04503   1.05240  219.339
 4167.00    1.03544   1.04362  223.794
 4168.00    1.04086   1.04358  225.360
 4169.00    1.05757   1.04589  222.719
 4170.00    1.04222   1.03602  220.955
 4171.00    1.00888   1.00859  227.166
 4172.00    0.96814   0.98363   -1.000
 4173.00    0.93768   0.97669   -1.000
 4174.00    0.96378   0.98895   -1.000
 4175.00    0.98856   1.00714   -1.000
 4176.00    1.00144   1.01598   -1.000
 4177.00    0.98690   1.02239   -1.000
 4178.00    0.98906   1.03163   -1.000
 4179.00    1.01054   1.04082   -1.000
 4180.00    1.03244   1.04438   -1.000
 4181.00    1.03655   1.03671  227.568
 4182.00    1.03012   1.03440  226.881
 4183.00    1.03347   1.04616   -1.000
 4184.00    1.04888   1.05571  219.234
 4185.00    1.05657   1.05162  216.842
 4186.00    1.03973   1.03439  219.709
 4187.00    1.00128   1.02049   -1.000
 4188.00    1.00743   1.02210   -1.000
 4189.00    1.04191   1.03258  227.044
 4190.00    1.04448   1.04188  223.123
 4191.00    1.04616   1.04748  221.300
 4192.00    1.04934   1.05403  217.633
 4193.00    1.06345   1.06150  213.498
 4194.00    1.06183   1.05800  213.850
 4195.00    1.03790   1.03636  222.112
 4196.00    1.01556   1.00943  232.530
 4197.00    1.00777   0.98723   -1.000
 4198.00    0.97235   0.97472  241.657
 4199.00    0.96733   0.97043  240.954
 4200.00    0.99190   0.97532   -1.000
 4201.00    1.00029   0.98246   -1.000
 4202.00    0.99858   0.99124  234.179
 4203.00    0.99139   1.00876   -1.000
 4204.00    1.00282   1.03157   -1.000
 4205.00    1.01061   1.05033   -1.000
 4206.00    1.03790   1.06377   -1.000
 4207.00    1.06933   1.07294  216.157
 4208.00    1.08737   1.07507  213.086
 4209.00    1.07611   1.07258  212.802
 4210.00    1.05822   1.07178   -1.000
 4211.00    1.05914   1.07740   -1.000
 4212.00    1.07300   1.08198  211.832
 4213.00    1.06409   1.06781  215.121
 4214.00    1.03571   1.04182  223.364
 4215.00    1.01752   1.02541  232.346
 4216.00    1.01606   1.02879   -1.000
 4217.00    1.03975   1.05414   -1.000
 4218.00    1.08141   1.08113  209.792
 4219.00    1.08949   1.09902  201.842
 4220.00    1.11456   1.10391  197.522
 4221.00    1.12576   1.09570   -1.000
 4222.00    1.09155   1.07084   -1.000
 4223.00    1.03883   1.02418   -1.000
 4224.00    0.97423   0.95826   -1.000
 4225.00    0.91936   0.89994   -1.000
 4226.00    0.85949   0.87247   -1.000
 4227.00    0.86145   0.90026   -1.000
 4228.00    0.92887   0.96939   -1.000
 4229.00    1.01869   1.04268   -1.000
 4230.00    1.08516   1.07886  212.323
 4231.00    1.11072   1.08273   -1.000
 4232.00    1.08010   1.07103  205.615
 4233.00    1.05644   1.05269  210.735
 4234.00    1.04791   1.03700  215.120
 4235.00    1.02756   1.03321  218.136
 4236.00    1.01338   1.03437   -1.000
 4237.00    1.02068   1.04113   -1.000
 4238.00    1.02599   1.05447   -1.000
 4239.00    1.01921   1.06864   -1.000
 4240.00    1.04331   1.08484   -1.000
 4241.00    1.07858   1.10197   -1.000
 4242.00    1.08153   1.11520   -1.000
 4243.00    1.07570   1.12479   -1.000
 4244.00    1.08489   1.12888   -1.000
 4245.00    1.08738   1.12106   -1.000
 4246.00    1.05988   1.09586   -1.000
 4247.00    1.02910   1.06436   -1.000
 4248.00    1.02365   1.03879   -1.000
 4249.00    1.03312   1.02735  225.637
 4250.00    1.04514   1.03151  226.775
 4251.00    1.03936   1.04780  224.228
 4252.00    1.05312   1.05857  217.591
 4253.00    1.04230   1.05579  213.984
 4254.00    1.03631   1.04873  217.043
 4255.00    1.03625   1.05694   -1.000
 4256.00    1.04734   1.07978   -1.000
 4257.00    1.08029   1.08881  208.599
 4258.00    1.07387   1.06918  210.392
 4259.00    1.01350   1.03849   -1.000
 4260.00    0.97837   1.02659   -1.000
 4261.00    1.00312   1.04804   -1.000
 4262.00    1.05083   1.08768   -1.000
 4263.00    1.09392   1.12389   -1.000
 4264.00    1.12928   1.14105  198.980
 4265.00    1.13798   1.14063  195.913
 4266.00    1.11669   1.13220   -1.000
 4267.00    1.09837   1.11554   -1.000
 4268.00    1.08351   1.08822  207.958
 4269.00    1.05720   1.05179  214.820
 4270.00    1.00694   1.01089  225.136
 4271.00    0.96054   0.98257   -1.000
 4272.00    0.95030   0.97286   -1.000
 4273.00    0.96100   0.98304   -1.000
 4274.00    0.97127   1.00577   -1.000
 4275.00    1.00154   1.03702   -1.000
 4276.00    1.04263   1.07738   -1.000
 4277.00    1.07030   1.11297   -1.000
 4278.00    1.08324   1.12150   -1.000
 4279.00    1.06822   1.10743   -1.000
 4280.00    1.04329   1.08490   -1.000
 4281.00    1.03038   1.07566   -1.000
 4282.00    1.03458   1.07939   -1.000
 4283.00    1.05411   1.08263   -1.000
 4284.00    1.04738   1.08046   -1.000
 4285.00    1.03205   1.07112   -1.000
 4286.00    1.01571   1.05676   -1.000
 4287.00    0.99664   1.03586   -1.000
 4288.00    0.98485   1.00738   -1.000
 4289.00    0.95474   0.97953   -1.000
 4290.00    0.94841   0.97475   -1.000
 4291.00    0.95914   0.99703   -1.000
 4292.00    0.98160   1.02793   -1.000
 4293.00    1.02314   1.04366   -1.000
 4294.00    1.03853   1.04103  224.123
 4295.00    1.02214   1.03286  226.974
 4296.00    0.99342   1.01769   -1.000
 4297.00    0.95785   0.98649   -1.000
 4298.00    0.90743   0.94667   -1.000
 4299.00    0.84804   0.90955   -1.000
 4300.00    0.82200   0.89149   -1.000
 4301.00    0.82753   0.89317   -1.000
 4302.00    0.84144   0.90536   -1.000
 4303.00    0.85002   0.91826   -1.000
 4304.00    0.86415   0.92736   -1.000
 4305.00    0.85709   0.92235   -1.000
 4306.00    0.85923   0.90238   -1.000
 4307.00    0.84560   0.88034   -1.000
 4308.00    0.81099   0.87110   -1.000
 4309.00    0.81739   0.88412   -1.000
 4310.00    0.84865   0.91177   -1.000
 4311.00    0.88017   0.94462   -1.000
 4312.00    0.90502   0.97563   -1.000
 4313.00    0.93999   1.01168   -1.000
 4314.00    0.98623   1.05909   -1.000
 4315.00    1.05658   1.11501   -1.000
 4316.00    1.14626   1.17202   -1.000
 4317.00    1.19992   1.20362  188.335
 4318.00    1.20501   1.20677  184.189
 4319.00    1.19411   1.19372  185.383
 4320.00    1.18905   1.17508  188.837
 4321.00    1.14726   1.14723  193.884
 4322.00    1.08532   1.10516   -1.000
 4323.00    1.04849   1.05108  213.236
 4324.00    0.99029   1.00363  230.377
 4325.00    0.94680   0.99084   -1.000
 4326.00    0.95256   1.02514   -1.000
 4327.00    1.02676   1.08660   -1.000
 4328.00    1.09524   1.14247   -1.000
 4329.00    1.12342   1.16564   -1.000
 4330.00    1.14246   1.16638   -1.000
 4331.00    1.14508   1.16494   -1.000
 4332.00    1.15130   1.17005   -1.000
 4333.00    1.15451   1.17273   -1.000
 4334.00    1.14794   1.16225  187.101
 4335.00    1.13691   1.13014  187.955
 4336.00    1.08317   1.07143  194.212
 4337.00    1.00979   0.98802   -1.000
 4338.00    0.92507   0.89699   -1.000
 4339.00    0.83135   0.83675  250.208
 4340.00    0.77732   0.82501   -1.000
 4341.00    0.83625   0.87196   -1.000
 4342.00    0.95145   0.95624  240.071
 4343.00    1.02787   1.03744  219.214
 4344.00    1.05991   1.08836   -1.000
 4345.00    1.09769   1.12174   -1.000
 4346.00    1.10791   1.14593   -1.000
 4347.00    1.12894   1.16795   -1.000
 4348.00    1.14923   1.18188   -1.000
 4349.00    1.14197   1.17048   -1.000
 4350.00    1.11624   1.13314   -1.000
 4351.00    1.06836   1.09564   -1.000
 4352.00    1.04494   1.08275   -1.000
 4353.00    1.07861   1.10570   -1.000
 4354.00    1.13282   1.14430  207.026
 4355.00    1.16012   1.17523   -1.000
 4356.00    1.16943   1.18908   -1.000
 4357.00    1.15393   1.19069   -1.000
 4358.00    1.14679   1.18475   -1.000
 4359.00    1.15175   1.18208   -1.000
 4360.00    1.16869   1.19166   -1.000
 4361.00    1.18566   1.20863   -1.000
 4362.00    1.19477   1.22514   -1.000
 4363.00    1.21484   1.23560   -1.000
 4364.00    1.22144   1.24105   -1.000
 4365.00    1.21795   1.23691   -1.000
 4366.00    1.20014   1.21858   -1.000
 4367.00    1.17035   1.19603   -1.000
 4368.00    1.14805   1.18344   -1.000
 4369.00    1.14539   1.17870   -1.000
 4370.00    1.17162   1.17644  195.042
 4371.00    1.16750   1.16920  194.219
 4372.00    1.14644   1.15174  194.787
 4373.00    1.12713   1.12657  198.783
 4374.00    1.09248   1.10281  207.174
 4375.00    1.07645   1.10183   -1.000
 4376.00    1.10275   1.12954   -1.000
 4377.00    1.14903   1.16894   -1.000
 4378.00    1.19436   1.19134  191.830
 4379.00    1.21055   1.18873   -1.000
 4380.00    1.19182   1.16187   -1.000
 4381.00    1.14686   1.11000   -1.000
 4382.00    1.07963   1.04398   -1.000
 4383.00    1.00941   0.99723   -1.000
 4384.00    0.96931   0.99572   -1.000
 4385.00    1.01059   1.03919   -1.000
 4386.00    1.07065   1.09430   -1.000
 4387.00    1.11456   1.12555  206.422
 4388.00    1.13002   1.13380  202.510
 4389.00    1.13568   1.13413  203.605
 4390.00    1.13536   1.13750  205.411
 4391.00    1.12845   1.14679   -1.000
 4392.00    1.14533   1.15734  200.051
 4393.00    1.16093   1.15928  197.420
 4394.00    1.14754   1.15324  200.035
 4395.00    1.14321   1.15936   -1.000
 4396.00    1.16333   1.18207   -1.000
 4397.00    1.18779   1.19993  190.637
 4398.00    1.19028   1.19762  187.914
 4399.00    1.16556   1.17966  192.337
 4400.00    1.14934   1.16452   -1.000
 4401.00    1.15715   1.15761  202.382
 4402.00    1.16246   1.14961  199.188
 4403.00    1.14632   1.12858   -1.000
 4404.00    1.11426   1.10227  207.949
 4405.00    1.09967   1.09519  217.025
 4406.00    1.11947   1.11165  215.245
 4407.00    1.12315   1.13471  208.946
 4408.00    1.13262   1.15662   -1.000
 4409.00    1.16555   1.18677   -1.000
 4410.00    1.19342   1.22538   -1.000
 4411.00    1.23490   1.25037   -1.000
 4412.00    1.26301   1.24471  181.612
 4413.00    1.24016   1.21486   -1.000
 4414.00    1.19016   1.17522  188.956
 4415.00    1.15426   1.14633  198.912
 4416.00    1.13607   1.15206   -1.000
 4417.00    1.16235   1.18643   -1.000
 4418.00    1.19696   1.22860   -1.000
 4419.00    1.22639   1.25477   -1.000
 4420.00    1.24671   1.25790  181.676
 4421.00    1.22537   1.24175   -1.000
 4422.00    1.20320   1.22478   -1.000
 4423.00    1.20361   1.21814   -1.000
 4424.00    1.21251   1.21836  189.457
 4425.00    1.19534   1.21653   -1.000
 4426.00    1.18382   1.21390   -1.000
 4427.00    1.19158   1.21847   -1.000
 4428.00    1.20128   1.22734   -1.000
 4429.00    1.19958   1.23315   -1.000
 4430.00    1.19375   1.23514   -1.000
 4431.00    1.19259   1.23657   -1.000
 4432.00    1.18568   1.23245   -1.000
 4433.00    1.18268   1.21187   -1.000
 4434.00    1.15176   1.18434   -1.000
 4435.00    1.12715   1.17418   -1.000
 4436.00    1.16532   1.20062   -1.000
 4437.00    1.23262   1.25075   -1.000
 4438.00    1.25899   1.28893   -1.000
 4439.00    1.27176   1.29643   -1.000
 4440.00    1.25511   1.26960  178.344
 4441.00    1.21410   1.23064   -1.000
 4442.00    1.17203   1.20310   -1.000
 4443.00    1.16088   1.20808   -1.000
 4444.00    1.17360   1.23873   -1.000
 4445.00    1.20391   1.27324   -1.000
 4446.00    1.25292   1.29380   -1.000
 4447.00    1.26868   1.29739   -1.000
 4448.00    1.27114   1.29745   -1.000
 4449.00    1.26447   1.29768   -1.000
 4450.00    1.24654   1.29502   -1.000
 4451.00    1.23396   1.28832   -1.000
 4452.00    1.24103   1.27358   -1.000
 4453.00    1.22675   1.24401   -1.000
 4454.00    1.19631   1.20755  194.645
 4455.00    1.16580   1.18877   -1.000
 4456.00    1.15725   1.19381   -1.000
 4457.00    1.18776   1.21026   -1.000
 4458.00    1.20192   1.21799   -1.000
 4459.00    1.18653   1.21627   -1.000
 4460.00    1.17975   1.21371   -1.000
 4461.00    1.16809   1.21799   -1.000
 4462.00    1.18464   1.23450   -1.000
 4463.00    1.24033   1.25806   -1.000
 4464.00    1.26096   1.27569   -1.000
 4465.00    1.25170   1.27974   -1.000
 4466.00    1.24797   1.27228   -1.000
 4467.00    1.24224   1.26031   -1.000
 4468.00    1.24238   1.25112  189.466
 4469.00    1.21640   1.25015   -1.000
 4470.00    1.21260   1.26554   -1.000
 4471.00    1.24236   1.29498   -1.000
 4472.00    1.26725   1.32370   -1.000
 4473.00    1.30839   1.34281   -1.000
 4474.00    1.33608   1.34787  172.424
 4475.00    1.33405   1.34963   -1.000
 4476.00    1.33005   1.35400   -1.000
 4477.00    1.34599   1.35723  170.059
 4478.00    1.35559   1.34657  169.882
 4479.00    1.33439   1.31522  173.005
 4480.00    1.28169   1.27971  180.139
 4481.00    1.24226   1.26259   -1.000
 4482.00    1.23621   1.27422   -1.000
 4483.00    1.26303   1.30992   -1.000
 4484.00    1.31235   1.34936   -1.000
 4485.00    1.36234   1.37508  172.266
 4486.00    1.38081   1.37710  169.939
 4487.00    1.35631   1.35827  171.494
 4488.00    1.30421   1.32999   -1.000
 4489.00    1.27087   1.31297   -1.000
 4490.00    1.29096   1.31694   -1.000
 4491.00    1.31722   1.33536   -1.000
 4492.00    1.32891   1.34413   -1.000
 4493.00    1.33323   1.33056  175.994
 4494.00    1.30129   1.31002  179.757
 4495.00    1.25840   1.30122   -1.000
 4496.00    1.26089   1.31127   -1.000
 4497.00    1.29621   1.33094   -1.000
 4498.00    1.33321   1.34712   -1.000
 4499.00    1.35902   1.35112  173.128
 4500.00    1.34235   1.34460  172.691
 4501.00    1.31897   1.34484   -1.000
 4502.00    1.33472   1.36068   -1.000
 4503.00    1.35232   1.38750   -1.000
 4504.00    1.37143   1.40977   -1.000
 4505.00    1.39612   1.41603   -1.000
 4506.00    1.39790   1.40826  163.976
 4507.00    1.38483   1.39850  166.923
 4508.00    1.37484   1.39616   -1.000
 4509.00    1.38026   1.39972   -1.000
 4510.00    1.39799   1.40303  166.309
 4511.00    1.39202   1.39765  165.942
 4512.00    1.38479   1.38539  168.056
 4513.00    1.37693   1.37398  171.390
 4514.00    1.35945   1.36681  173.825
 4515.00    1.35029   1.36476  174.211
 4516.00    1.34423   1.36412   -1.000
 4517.00    1.34246   1.36046   -1.000
 4518.00    1.32475   1.35651   -1.000
 4519.00    1.32327   1.36129   -1.000
 4520.00    1.35537   1.37303   -1.000
 4521.00    1.36229   1.37891   -1.000
 4522.00    1.34047   1.37088   -1.000
 4523.00    1.32059   1.35319   -1.000
 4524.00    1.31244   1.33750   -1.000
 4525.00    1.29889   1.32245   -1.000
 4526.00    1.27991   1.30019   -1.000
 4527.00    1.27079   1.27383  190.334
 4528.00    1.24757   1.25555  194.753
 4529.00    1.22720   1.25468   -1.000
 4530.00    1.24912   1.26638   -1.000
 4531.00    1.28291   1.28030  190.037
 4532.00    1.29027   1.28270  187.330
 4533.00    1.26054   1.26995  188.368
 4534.00    1.23190   1.25655   -1.000
 4535.00    1.22352   1.26244   -1.000
 4536.00    1.25306   1.29432   -1.000
 4537.00    1.32648   1.34072   -1.000
 4538.00    1.36530   1.37657  172.044
 4539.00    1.37373   1.38551  169.548
 4540.00    1.35601   1.37649   -1.000
 4541.00    1.33815   1.36741   -1.000
 4542.00    1.34613   1.36753   -1.000
 4543.00    1.08411   1.37102   -1.000
 4544.00    0.27553   1.36809   -1.000
 4545.00    0.04494   1.35951   -1.000
 4546.00    0.40298   1.35268   -1.000
 4547.00    1.04213   1.34486   -1.000
 4548.00    0.62748   1.33014   -1.000
 4549.00    1.00989   1.31689   -1.000
 4550.00    1.33423   1.31992   94.444
 4551.00    1.29600   1.33683   -1.000
 4552.00    1.30495   1.34450   -1.000
 4553.00    1.28053   1.33541   -1.000
 4554.00    1.27168   1.32404   -1.000
 4555.00    1.27682   1.32657   -1.000
 4556.00    1.31152   1.35043   -1.000
 4557.00    1.36470   1.38548   -1.000
 4558.00    1.39198   1.41323   -1.000
 4559.00    1.40721   1.42634   -1.000
 4560.00    1.40451   1.43033   -1.000
 4561.00    1.39567   1.42585   -1.000
 4562.00    1.38543   1.41204   -1.000
 4563.00    1.35588   1.39169   -1.000
 4564.00    1.35345   1.37573   -1.000
 4565.00    1.36615   1.37556  177.879
 4566.00    1.36586   1.39267   -1.000
 4567.00    1.39028   1.41548   -1.000
 4568.00    1.41616   1.42886  166.638
 4569.00    1.41139   1.42267  166.115
 4570.00    1.39454   1.40270  168.799
 4571.00    1.36310   1.38183   -1.000
 4572.00    1.34143   1.37811   -1.000
 4573.00    1.36607   1.39741   -1.000
 4574.00    1.39950   1.42002   -1.000
 4575.00    1.40623   1.42928   -1.000
 4576.00    1.40106   1.42597   -1.000
 4577.00    1.40000   1.41659   -1.000
 4578.00    1.37947   1.40012   -1.000
 4579.00    1.34958   1.37685   -1.000
 4580.00    1.32711   1.35619   -1.000
 4581.00    1.31999   1.34898   -1.000
 4582.00    1.33716   1.35490   -1.000
 4583.00    1.34566   1.36345   -1.000
 4584.00    1.35393   1.36655  176.600
 4585.00    1.36853   1.36701  177.378
 4586.00    1.36172   1.37346  177.471
 4587.00    1.36735   1.38988   -1.000
 4588.00    1.38927   1.40948   -1.000
 4589.00    1.39376   1.42035   -1.000
 4590.00    1.39288   1.41916   -1.000
 4591.00    1.38625   1.40742   -1.000
 4592.00    1.36903   1.39176   -1.000
 4593.00    1.34171   1.38455   -1.000
 4594.00    1.35077   1.38608   -1.000
 4595.00    1.36909   1.39112   -1.000
 4596.00    1.38227   1.39746   -1.000
 4597.00    1.38609   1.40337   -1.000
 4598.00    1.39001   1.40567   -1.000
 4599.00    1.38183   1.40290   -1.000
 4600.00    1.37727   1.39520   -1.000
 4601.00    1.37548   1.38838  175.204
 4602.00    1.36478   1.38785   -1.000
 4603.00    1.37859   1.39194  172.973
 4604.00    1.38502   1.39769  171.668
 4605.00    1.39489   1.40290  171.887
 4606.00    1.39545   1.41111   -1.000
 4607.00    1.41219   1.42700   -1.000
 4608.00    1.42917   1.44701   -1.000
 4609.00    1.45514   1.46402  162.156
 4610.00    1.45740   1.46523  161.068
 4611.00    1.44644   1.45352  162.331
 4612.00    1.42779   1.44262  164.515
 4613.00    1.40392   1.43810   -1.000
 4614.00    1.41873   1.44096   -1.000
 4615.00    1.43968   1.44737  165.503
 4616.00    1.42661   1.45169   -1.000
 4617.00    1.41710   1.45242   -1.000
 4618.00    1.43416   1.45081  165.326
 4619.00    1.44565   1.45034  166.163
 4620.00    1.44275   1.45594  165.530
 4621.00    1.45206   1.46587  163.580
 4622.00    1.45165   1.47184   -1.000
 4623.00    1.44402   1.46892   -1.000
 4624.00    1.44345   1.46112   -1.000
 4625.00    1.44002   1.45547  162.904
 4626.00    1.42703   1.45163   -1.000
 4627.00    1.43540   1.45252   -1.000
 4628.00    1.44741   1.45548  164.578
 4629.00    1.44086   1.45713   -1.000
 4630.00    1.43936   1.46040   -1.000
 4631.00    1.44137   1.46569   -1.000
 4632.00    1.43303   1.46592   -1.000
 4633.00    1.42670   1.45866   -1.000
 4634.00    1.42659   1.45037   -1.000
 4635.00    1.42232   1.44639   -1.000
 4636.00    1.41812   1.44155   -1.000
 4637.00    1.41682   1.43209  169.831
 4638.00    1.41923   1.42309  171.689
 4639.00    1.41457   1.42110  172.051
 4640.00    1.42070   1.42988  171.000
 4641.00    1.44199   1.44540  167.606
 4642.00    1.45470   1.45802  163.952
 4643.00    1.45599   1.45892  162.605
 4644.00    1.44442   1.44485  164.061
 4645.00    1.41995   1.42395  167.671
 4646.00    1.39197   1.39986  172.461
 4647.00    1.37689   1.38671  176.100
 4648.00    1.38534   1.39581  175.562
 4649.00    1.40607   1.41953  171.995
 4650.00    1.42165   1.44264   -1.000
 4651.00    1.44888   1.45554  166.732
 4652.00    1.44936   1.45730  166.515
 4653.00    1.42856   1.45057   -1.000
 4654.00    1.39833   1.43785   -1.000
 4655.00    1.37603   1.42944   -1.000
 4656.00    1.37822   1.43371   -1.000
 4657.00    1.42261   1.45242   -1.000
 4658.00    1.46810   1.48359   -1.000
 4659.00    1.50698   1.51280  159.438
 4660.00    1.52685   1.52421  156.931
 4661.00    1.48804   1.51438   -1.000
 4662.00    1.47726   1.49421  160.095
 4663.00    1.45072   1.47397   -1.000
 4664.00    1.44227   1.45538  166.313
 4665.00    1.42703   1.43357  167.216
 4666.00    1.39600   1.40455  171.294
 4667.00    1.35724   1.37638   -1.000
 4668.00    1.33940   1.36951   -1.000
 4669.00    1.35574   1.39046   -1.000
 4670.00    1.40253   1.42426   -1.000
 4671.00    1.44047   1.45134  169.279
 4672.00    1.46426   1.46269  165.813
 4673.00    1.46069   1.46274  165.296
 4674.00    1.45029   1.46490  165.387
 4675.00    1.46225   1.47306  164.641
 4676.00    1.48765   1.48218  162.309
 4677.00    1.49301   1.47919  160.748
 4678.00    1.48976   1.46260   -1.000
 4679.00    1.45448   1.44335  166.029
 4680.00    1.42207   1.42764  169.147
 4681.00    1.40703   1.42099  171.601
 4682.00    1.42306   1.42642  172.148
 4683.00    1.44814   1.44111  169.206
 4684.00    1.45921   1.45525  165.401
 4685.00    1.47604   1.46069  164.081
 4686.00    1.45834   1.45928  164.630
 4687.00    1.44119   1.45574  164.908
 4688.00    1.45592   1.45453  165.639
 4689.00    1.45010   1.45583  165.603
 4690.00    1.44716   1.45644  165.945
 4691.00    1.45565   1.45517  166.968
 4692.00    1.47092   1.45769  166.626
 4693.00    1.49543   1.46524   -1.000
 4694.00    1.51090   1.47380   -1.000
 4695.00    1.52342   1.48114   -1.000
 4696.00    1.52376   1.48323   -1.000
 4697.00    1.50550   1.47252   -1.000
 4698.00    1.48579   1.45214   -1.000
 4699.00    1.46165   1.43403   -1.000
 4700.00    1.44512   1.42402   -1.000
 4701.00    1.46312   1.41658   -1.000
 4702.00    1.44339   1.40835   -1.000
 4703.00    1.41874   1.40654  172.560
 4704.00    1.44387   1.41837   -1.000
 4705.00    1.46004   1.43300   -1.000
 4706.00    1.44685   1.43540  167.791
 4707.00    1.43364   1.42498  170.646
 4708.00    1.41674   1.41462  173.646
 4709.00    1.40693   1.41775  174.529
 4710.00    1.42269   1.43391  172.320
 4711.00    1.45738   1.45229  167.143
 4712.00    1.48613   1.46211   -1.000
 4713.00    1.49175   1.45811   -1.000
 4714.00    1.48501   1.44978   -1.000
 4715.00    1.47570   1.45245   -1.000
 4716.00    1.46163   1.46921  166.170
 4717.00    1.47420   1.49081   -1.000
 4718.00    1.50368   1.50654  160.199
 4719.00    1.52167   1.51580  159.423
 4720.00    1.50909   1.51963  158.879
 4721.00    1.49499   1.51745   -1.000
 4722.00    1.48594   1.51271   -1.000
 4723.00    1.49396   1.51361   -1.000
 4724.00    1.50385   1.51954  159.538
 4725.00    1.52572   1.51845  158.301
 4726.00    1.51077   1.50380  159.596
 4727.00    1.44840   1.47591   -1.000
 4728.00    1.43295   1.44826  169.936
 4729.00    1.44731   1.43770  172.420
 4730.00    1.44870   1.44072  171.272
 4731.00    1.45860   1.45117  169.581
 4732.00    1.49140   1.46613   -1.000
 4733.00    1.49111   1.47889  166.165
 4734.00    1.47772   1.48421  164.886
 4735.00    1.48425   1.48331  163.976
 4736.00    1.47774   1.48005  163.774
 4737.00    1.45071   1.47993   -1.000
 4738.00    1.46454   1.48647   -1.000
 4739.00    1.49462   1.49537  163.093
 4740.00    1.49270   1.49791  163.508
 4741.00    1.49166   1.49611  164.306
 4742.00    1.49528   1.49939  164.074
 4743.00    1.51397   1.50687  162.556
 4744.00    1.51554   1.51302  161.316
 4745.00    1.49007   1.51755   -1.000
 4746.00    1.50029   1.52325   -1.000
 4747.00    1.52700   1.53357  160.078
 4748.00    1.52865   1.54256  158.777
 4749.00    1.52564   1.54659   -1.000
 4750.00    1.53484   1.54961  158.891
 4751.00    1.53216   1.54902  159.266
 4752.00    1.51693   1.54087   -1.000
 4753.00    1.50852   1.52720   -1.000
 4754.00    1.50499   1.51631  163.656
 4755.00    1.50354   1.51363  164.394
 4756.00    1.49235   1.51636   -1.000
 4757.00    1.47626   1.52148   -1.000
 4758.00    1.47627   1.52769   -1.000
 4759.00    1.48944   1.53227   -1.000
 4760.00    1.49593   1.53150   -1.000
 4761.00    1.48146   1.52084   -1.000
 4762.00    1.45960   1.50133   -1.000
 4763.00    1.42101   1.48257   -1.000
 4764.00    1.41246   1.47246   -1.000
 4765.00    1.42436   1.46911   -1.000
 4766.00    1.42836   1.47144   -1.000
 4767.00    1.45232   1.48363   -1.000
 4768.00    1.47937   1.50701   -1.000
 4769.00    1.50348   1.53147   -1.000
 4770.00    1.50844   1.54312   -1.000
 4771.00    1.49663   1.53829   -1.000
 4772.00    1.48644   1.52952   -1.000
 4773.00    1.50076   1.53306   -1.000
 4774.00    1.53887   1.54909  163.782
 4775.00    1.52758   1.56364   -1.000
 4776.00    1.50854   1.56821   -1.000
 4777.00    1.51891   1.56721   -1.000
 4778.00    1.53791   1.56448   -1.000
 4779.00    1.52176   1.55858   -1.000
 4780.00    1.48958   1.55091   -1.000
 4781.00    1.48322   1.54454   -1.000
 4782.00    1.49004   1.53670   -1.000
 4783.00    1.49051   1.52676   -1.000
 4784.00    1.48951   1.52103   -1.000
 4785.00    1.48679   1.51983   -1.000
 4786.00    1.47735   1.51777   -1.000
 4787.00    1.47691   1.51546   -1.000
 4788.00    1.48002   1.51640   -1.000
 4789.00    1.48130   1.51984   -1.000
 4790.00    1.48654   1.52656   -1.000
 4791.00    1.48492   1.54070   -1.000
 4792.00    1.49659   1.56127   -1.000
 4793.00    1.52457   1.58266   -1.000
 4794.00    1.54929   1.60221   -1.000
 4795.00    1.55879   1.61256   -1.000
 4796.00    1.54928   1.60911   -1.000
 4797.00    1.53452   1.59443   -1.000
 4798.00    1.51628   1.57483   -1.000
 4799.00    1.49121   1.56084   -1.000
 4800.00    1.49433   1.56145   -1.000
 4801.00    1.52729   1.57656   -1.000
 4802.00    1.54800   1.59598   -1.000
 4803.00    1.54879   1.60475   -1.000
 4804.00    1.53443   1.59376   -1.000
 4805.00    1.51411   1.57667   -1.000
 4806.00    1.51621   1.56469   -1.000
 4807.00    1.52290   1.55996   -1.000
 4808.00    1.50162   1.56280   -1.000
 4809.00    1.50571   1.57116   -1.000
 4810.00    1.52522   1.57964   -1.000
 4811.00    1.52768   1.58625   -1.000
 4812.00    1.52637   1.59031   -1.000
 4813.00    1.53784   1.59398   -1.000
 4814.00    1.53871   1.59947   -1.000
 4815.00    1.53275   1.60637   -1.000
 4816.00    1.53586   1.61440   -1.000
 4817.00    1.54236   1.62174   -1.000
 4818.00    1.54737   1.62640   -1.000
 4819.00    1.56619   1.62832   -1.000
 4820.00    1.56971   1.62700   -1.000
 4821.00    1.55595   1.61754   -1.000
 4822.00    1.53707   1.59641   -1.000
 4823.00    1.52090   1.56987   -1.000
 4824.00    1.50136   1.55484   -1.000
 4825.00    1.51641   1.56200   -1.000
 4826.00    1.53272   1.58022   -1.000
 4827.00    1.54043   1.58986   -1.000
 4828.00    1.55463   1.58620   -1.000
 4829.00    1.54094   1.57841   -1.000
 4830.00    1.53387   1.57328   -1.000
 4831.00    1.53391   1.56715   -1.000
 4832.00    1.51286   1.56100   -1.000
 4833.00    1.51210   1.56394   -1.000
 4834.00    1.53815   1.57526   -1.000
 4835.00    1.56125   1.58878   -1.000
 4836.00    1.56340   1.59409   -1.000
 4837.00    1.56214   1.59246   -1.000
 4838.00    1.53789   1.58530   -1.000
 4839.00    1.51446   1.57280   -1.000
 4840.00    1.49795   1.56290   -1.000
 4841.00    1.51134   1.56027   -1.000
 4842.00    1.53270   1.56033   -1.000
 4843.00    1.53079   1.56075   -1.000
 4844.00    1.54929   1.56595  163.150
 4845.00    1.57112   1.57911  161.268
 4846.00    1.56992   1.59171   -1.000
 4847.00    1.55119   1.58910   -1.000
 4848.00    1.53523   1.57531   -1.000
 4849.00    1.52248   1.56737   -1.000
 4850.00    1.51865   1.56955   -1.000
 4851.00    1.52266   1.57288   -1.000
 4852.00    1.51055   1.57054   -1.000
 4853.00    1.49916   1.55680   -1.000
 4854.00    1.48274   1.52757   -1.000
 4855.00    1.45389   1.49282   -1.000
 4856.00    1.43419   1.47193   -1.000
 4857.00    1.43402   1.46134   -1.000
 4858.00    1.41407   1.43117  172.478
 4859.00    1.30715   1.34530   -1.000
 4860.00    1.12466   1.21625   -1.000
 4861.00    1.00536   1.12432   -1.000
 4862.00    1.08024   1.13017   -1.000
 4863.00    1.27066   1.23206   -1.000
 4864.00    1.38985   1.34933   -1.000
 4865.00    1.41543   1.43052   -1.000
 4866.00    1.42657   1.47633   -1.000
 4867.00    1.45603   1.50480   -1.000
 4868.00    1.45874   1.52271   -1.000
 4869.00    1.46640   1.52322   -1.000
 4870.00    1.44305   1.49951   -1.000
 4871.00    1.42941   1.46351   -1.000
 4872.00    1.41602   1.44653   -1.000
 4873.00    1.44316   1.46946   -1.000
 4874.00    1.45429   1.51104   -1.000
 4875.00    1.46605   1.54102   -1.000
 4876.00    1.48273   1.55386   -1.000
 4877.00    1.48696   1.56021   -1.000
 4878.00    1.49250   1.57152   -1.000
 4879.00    1.50612   1.58867   -1.000
 4880.00    1.53805   1.60300   -1.000
 4881.00    1.52435   1.60062   -1.000
 4882.00    1.49029   1.58606   -1.000
 4883.00    1.48863   1.57871   -1.000
 4884.00    1.49248   1.57363   -1.000
 4885.00    1.47779   1.56238   -1.000
 4886.00    1.48002   1.55134   -1.000
 4887.00    1.47897   1.54851   -1.000
 4888.00    1.48387   1.54747   -1.000
 4889.00    1.48380   1.53543   -1.000
 4890.00    1.46306   1.51173   -1.000
 4891.00    1.45550   1.49622   -1.000
 4892.00    1.49380   1.51727   -1.000
 4893.00    1.55042   1.57255   -1.000
 4894.00    1.58776   1.63230   -1.000
 4895.00    1.61775   1.67156   -1.000
 4896.00    1.64509   1.68712   -1.000
 4897.00    1.64843   1.68803   -1.000
 4898.00    1.62596   1.67942   -1.000
 4899.00    1.59884   1.66294   -1.000
 4900.00    1.56663   1.64607   -1.000
 4901.00    1.55011   1.63663   -1.000
 4902.00    1.56554   1.63022   -1.000
 4903.00    1.57091   1.62130   -1.000
 4904.00    1.57259   1.62075   -1.000
 4905.00    1.58602   1.64063   -1.000
 4906.00    1.60245   1.66516   -1.000
 4907.00    1.61764   1.66753   -1.000
 4908.00    1.61165   1.64857   -1.000
 4909.00    1.56365   1.62160   -1.000
 4910.00    1.52919   1.59916   -1.000
 4911.00    1.51819   1.59319   -1.000
 4912.00    1.52885   1.60613   -1.000
 4913.00    1.56316   1.62723   -1.000
 4914.00    1.59507   1.64624   -1.000
 4915.00    1.61584   1.65980   -1.000
 4916.00    1.62814   1.65801   -1.000
 4917.00    1.59043   1.62679   -1.000
 4918.00    1.51391   1.56555   -1.000
 4919.00    1.46898   1.49894   -1.000
 4920.00    1.43863   1.45791   -1.000
 4921.00    1.43667   1.46489   -1.000
 4922.00    1.48631   1.50651   -1.000
 4923.00    1.51250   1.54591   -1.000
 4924.00    1.53368   1.56495   -1.000
 4925.00    1.52606   1.57970   -1.000
 4926.00    1.56783   1.60721   -1.000
 4927.00    1.59954   1.64011   -1.000
 4928.00    1.60771   1.66681   -1.000
 4929.00    1.62828   1.68620   -1.000
 4930.00    1.64359   1.69513   -1.000
 4931.00    1.64079   1.68719   -1.000
 4932.00    1.60746   1.65923   -1.000
 4933.00    1.54932   1.62085   -1.000
 4934.00    1.52679   1.59626   -1.000
 4935.00    1.54158   1.59919   -1.000
 4936.00    1.56160   1.60772   -1.000
 4937.00    1.54511   1.59353   -1.000
 4938.00    1.52617   1.56167   -1.000
 4939.00    1.52245   1.54721   -1.000
 4940.00    1.53133   1.56954   -1.000
 4941.00    1.57236   1.61651   -1.000
 4942.00    1.61046   1.66094   -1.000
 4943.00    1.62326   1.68389   -1.000
 4944.00    1.62925   1.68900   -1.000
 4945.00    1.62039   1.68332   -1.000
 4946.00    1.60826   1.67755   -1.000
 4947.00    1.62119   1.68057   -1.000
 4948.00    1.64368   1.69366   -1.000
 4949.00    1.65709   1.70708   -1.000
 4950.00    1.66128   1.71244   -1.000
 4951.00    1.65436   1.71129   -1.000
 4952.00    1.64703   1.70514   -1.000
 4953.00    1.64859   1.69598   -1.000
 4954.00    1.64528   1.68151   -1.000
 4955.00    1.61959   1.64805   -1.000
 4956.00    1.55605   1.58642   -1.000
 4957.00    1.49574   1.52109   -1.000
 4958.00    1.47479   1.50528   -1.000
 4959.00    1.53296   1.55308   -1.000
 4960.00    1.58735   1.62210   -1.000
 4961.00    1.59914   1.66813   -1.000
 4962.00    1.60420   1.68084   -1.000
 4963.00    1.60273   1.67660   -1.000
 4964.00    1.61032   1.66152   -1.000
 4965.00    1.58153   1.63819   -1.000
 4966.00    1.55798   1.61817   -1.000
 4967.00    1.55664   1.61144   -1.000
 4968.00    1.57836   1.61400   -1.000
 4969.00    1.59312   1.62251   -1.000
 4970.00    1.61430   1.63688   -1.000
 4971.00    1.61743   1.65445   -1.000
 4972.00    1.61557   1.67144   -1.000
 4973.00    1.64394   1.68436   -1.000
 4974.00    1.65434   1.68896   -1.000
 4975.00    1.64572   1.68598   -1.000
 4976.00    1.64065   1.67778   -1.000
 4977.00    1.62972   1.66342   -1.000
 4978.00    1.61257   1.64731   -1.000
 4979.00    1.57109   1.63352   -1.000
 4980.00    1.54439   1.61400   -1.000
 4981.00    1.51527   1.58063   -1.000
 4982.00    1.49004   1.53915   -1.000
 4983.00    1.49670   1.51085  182.029
 4984.00    1.51046   1.51495  181.126
 4985.00    1.52069   1.54558   -1.000
 4986.00    1.54305   1.58618   -1.000
 4987.00    1.56669   1.62528   -1.000
 4988.00    1.57274   1.64947   -1.000
 4989.00    1.57019   1.64680   -1.000
 4990.00    1.56780   1.63018   -1.000
 4991.00    1.56712   1.61963   -1.000
 4992.00    1.57703   1.62336   -1.000
 4993.00    1.59191   1.63318   -1.000
 4994.00    1.60211   1.64043   -1.000
 4995.00    1.60153   1.64836   -1.000
 4996.00    1.60421   1.65796   -1.000
 4997.00    1.61192   1.65846   -1.000
 4998.00    1.59884   1.64064   -1.000
 4999.00    1.57059   1.60826   -1.000
 5000.00    1.54214   1.57795   -1.000
 5001.00    1.54331   1.56912   -1.000
 5002.00    1.54916   1.57688   -1.000
 5003.00    1.55481   1.58700   -1.000
 5004.00    1.55362   1.58266   -1.000
 5005.00    1.52771   1.55791   -1.000
 5006.00    1.51260   1.53179   -1.000
 5007.00    1.53147   1.53519  177.197
 5008.00    1.55945   1.57078  172.486
 5009.00    1.60452   1.60588  167.929
 5010.00    1.60340   1.61691  167.065
 5011.00    1.55860   1.59850   -1.000
 5012.00    1.50790   1.56271   -1.000
 5013.00    1.48530   1.52939   -1.000
 5014.00    1.47366   1.51579   -1.000
 5015.00    1.48645   1.52609   -1.000
 5016.00    1.50660   1.54431   -1.000
 5017.00    1.52805   1.55477   -1.000
 5018.00    1.52934   1.55741   -1.000
 5019.00    1.54472   1.56756   -1.000
 5020.00    1.56411   1.58446   -1.000
 5021.00    1.57565   1.59205  171.962
 5022.00    1.57042   1.59126   -1.000
 5023.00    1.55961   1.59606   -1.000
 5024.00    1.57236   1.61476   -1.000
 5025.00    1.60752   1.63380   -1.000
 5026.00    1.61557   1.63587   -1.000
 5027.00    1.57847   1.62522   -1.000
 5028.00    1.59785   1.62094   -1.000
 5029.00    1.61585   1.63127  168.362
 5030.00    1.61670   1.65138   -1.000
 5031.00    1.62378   1.67327   -1.000
 5032.00    1.64496   1.69252   -1.000
 5033.00    1.65741   1.70044   -1.000
 5034.00    1.63346   1.68552   -1.000
 5035.00    1.59127   1.65100   -1.000
 5036.00    1.57574   1.61974   -1.000
 5037.00    1.57608   1.60895   -1.000
 5038.00    1.55332   1.60177   -1.000
 5039.00    1.52438   1.57253   -1.000
 5040.00    1.47704   1.52489   -1.000
 5041.00    1.43846   1.49601   -1.000
 5042.00    1.46749   1.51780   -1.000
 5043.00    1.56114   1.57933   -1.000
 5044.00    1.59686   1.64704   -1.000
 5045.00    1.03291   1.69560   -1.000
 5046.00    0.11253   1.71725   -1.000
 5047.00    0.04279   1.70952   -1.000
 5048.00    0.55772   1.67609   -1.000
 5049.00    1.51928   1.63398   -1.000
 5050.00    1.58813   1.60539   -1.000
 5051.00    1.57189   1.59976   -1.000
 5052.00    1.59473   1.61586   -1.000
 5053.00    1.62913   1.64677   -1.000
 5054.00    1.66933   1.68015  162.828
 5055.00    1.67830   1.70137   -1.000
 5056.00    1.69288   1.71135   -1.000
 5057.00    1.70993   1.71624  158.598
 5058.00    1.70912   1.72049  158.914
 5059.00    1.68742   1.72705   -1.000
 5060.00    1.69156   1.73455   -1.000
 5061.00    1.70771   1.74105   -1.000
 5062.00    1.68945   1.73714   -1.000
 5063.00    1.66653   1.71116   -1.000
 5064.00    1.61788   1.67014   -1.000
 5065.00    1.58767   1.63838   -1.000
 5066.00    1.60807   1.63178   -1.000
 5067.00    1.62540   1.64016  170.068
 5068.00    1.61888   1.64794   -1.000
 5069.00    1.63193   1.65506   -1.000
 5070.00    1.64559   1.66446   -1.000
 5071.00    1.64825   1.66784   -1.000
 5072.00    1.65325   1.66044  167.309
 5073.00    1.65017   1.65445  167.930
 5074.00    1.63510   1.65817   -1.000
 5075.00    1.64994   1.66476  164.855
 5076.00    1.66872   1.66706  164.687
 5077.00    1.65401   1.65890  164.912
 5078.00    1.61282   1.63271   -1.000
 5079.00    1.56927   1.59268   -1.000
 5080.00    1.53781   1.56665   -1.000
 5081.00    1.54049   1.57136   -1.000
 5082.00    1.57751   1.58979  177.572
 5083.00    1.60248   1.60698  174.068
 5084.00    1.63028   1.62705  171.578
 5085.00    1.65901   1.65357  168.361
 5086.00    1.66708   1.67662  165.830
 5087.00    1.68578   1.68847  164.896
 5088.00    1.68919   1.69236  164.577
 5089.00    1.68408   1.69635  163.651
 5090.00    1.69468   1.70160  162.511
 5091.00    1.69093   1.70884  161.636
 5092.00    1.70191   1.72163   -1.000
 5093.00    1.73506   1.73573  158.780
 5094.00    1.71679   1.73915   -1.000
 5095.00    1.71833   1.72406  159.867
 5096.00    1.69420   1.69371  163.304
 5097.00    1.66941   1.66027  166.926
 5098.00    1.64301   1.63229  170.884
 5099.00    1.60641   1.62129  173.837
 5100.00    1.62264   1.63830  173.288
 5101.00    1.66786   1.67086  168.702
 5102.00    1.68604   1.69518  164.473
 5103.00    1.69186   1.69894  163.635
 5104.00    1.68442   1.69034  164.922
 5105.00    1.65691   1.67707   -1.000
 5106.00    1.64048   1.65790  169.226
 5107.00    1.61829   1.63630  171.307
 5108.00    1.60790   1.62346  172.977
 5109.00    1.62606   1.62203  172.453
 5110.00    1.62700   1.63199  171.290
 5111.00    1.63611   1.65329   -1.000
 5112.00    1.66587   1.67992  167.387
 5113.00    1.68440   1.70045  165.352
 5114.00    1.70067   1.71435  163.442
 5115.00    1.70622   1.72595   -1.000
 5116.00    1.71862   1.73793   -1.000
 5117.00    1.73278   1.74805  159.425
 5118.00    1.72050   1.75192   -1.000
 5119.00    1.72687   1.74580  159.322
 5120.00    1.72406   1.72952  161.536
 5121.00    1.70574   1.70607  164.028
 5122.00    1.67298   1.67744  167.047
 5123.00    1.62238   1.64731   -1.000
 5124.00    1.60769   1.62655   -1.000
 5125.00    1.61952   1.62340  176.498
 5126.00    1.62084   1.63082  174.964
 5127.00    1.61527   1.63603   -1.000
 5128.00    1.61473   1.63641   -1.000
 5129.00    1.61704   1.63860   -1.000
 5130.00    1.63229   1.64849  172.934
 5131.00    1.66119   1.66630  170.453
 5132.00    1.67534   1.68413  167.818
 5133.00    1.68269   1.69673  166.468
 5134.00    1.71134   1.70523  164.893
 5135.00    1.72753   1.71024  163.648
 5136.00    1.72141   1.70483  163.923
 5137.00    1.69398   1.68131  167.225
 5138.00    1.63823   1.65098  171.075
 5139.00    1.62509   1.63503  173.255
 5140.00    1.62325   1.63786  173.036
 5141.00    1.62067   1.64624   -1.000
 5142.00    1.61870   1.64712   -1.000
 5143.00    1.61875   1.64816   -1.000
 5144.00    1.63216   1.65942   -1.000
 5145.00    1.66535   1.66905  171.673
 5146.00    1.66854   1.66313  171.606
 5147.00    1.66704   1.65359  173.076
 5148.00    1.66309   1.65510  172.947
 5149.00    1.67746   1.66245  170.938
 5150.00    1.66817   1.65998  170.624
 5151.00    1.62897   1.64595  173.068
 5152.00    1.61458   1.63426   -1.000
 5153.00    1.62531   1.63378  176.557
 5154.00    1.64204   1.64310  175.085
 5155.00    1.67978   1.66497  171.413
 5156.00    1.71019   1.69750  167.008
 5157.00    1.74425   1.72795  162.982
 5158.00    1.74982   1.74602  160.338
 5159.00    1.75219   1.75268  159.457
 5160.00    1.76264   1.75115  159.587
 5161.00    1.75557   1.74115  160.219
 5162.00    1.73015   1.72265  161.329
 5163.00    1.72555   1.69807   -1.000
 5164.00    1.70822   1.66203   -1.000
 5165.00    1.62563   1.59628   -1.000
 5166.00    1.50276   1.49382  189.988
 5167.00    1.40341   1.39836  208.814
 5168.00    1.37258   1.37260  218.937
 5169.00    1.42266   1.41569  212.057
 5170.00    1.48792   1.45922   -1.000
 5171.00    1.46104   1.43719   -1.000
 5172.00    1.37635   1.38062  215.826
 5173.00    1.36021   1.37369  225.920
 5174.00    1.46220   1.45058  212.386
 5175.00    1.58690   1.56404   -1.000
 5176.00    1.67856   1.64273   -1.000
 5177.00    1.70153   1.67615   -1.000
 5178.00    1.70417   1.68593  169.264
 5179.00    1.70355   1.68164   -1.000
 5180.00    1.67381   1.65523   -1.000
 5181.00    1.62055   1.58756   -1.000
 5182.00    1.50565   1.48195   -1.000
 5183.00    1.39520   1.38889  215.816
 5184.00    1.37371   1.37326  227.019
 5185.00    1.47220   1.45664   -1.000
 5186.00    1.57670   1.57237  188.900
 5187.00    1.65966   1.64974  174.843
 5188.00    1.68161   1.68025  170.526
 5189.00    1.68025   1.68773  169.343
 5190.00    1.67857   1.67939  169.148
 5191.00    1.66053   1.64838  171.754
 5192.00    1.62357   1.61184  177.278
 5193.00    1.61239   1.60083  180.951
 5194.00    1.63124   1.61741  178.937
 5195.00    1.64934   1.63961  175.862
 5196.00    1.67209   1.66200  173.293
 5197.00    1.70903   1.68765   -1.000
 5198.00    1.75855   1.71351   -1.000
 5199.00    1.81228   1.73287   -1.000
 5200.00    1.84480   1.74153   -1.000
 5201.00    1.84114   1.73662   -1.000
 5202.00    1.80165   1.71543   -1.000
 5203.00    1.73660   1.67822   -1.000
 5204.00    1.66999   1.62759   -1.000
 5205.00    1.63004   1.58006   -1.000
 5206.00    1.61585   1.55363   -1.000
 5207.00    1.60588   1.54782   -1.000
 5208.00    1.58853   1.54901   -1.000
 5209.00    1.59982   1.56027   -1.000
 5210.00    1.62806   1.59928   -1.000
 5211.00    1.67247   1.66078  175.006
 5212.00    1.73849   1.71896  167.933
 5213.00    1.77141   1.75271  161.960
 5214.00    1.77649   1.74956   -1.000
 5215.00    1.75248   1.72272   -1.000
 5216.00    1.72334   1.69963   -1.000
 5217.00    1.72193   1.70437   -1.000
 5218.00    1.74598   1.73523  165.015
 5219.00    1.78372   1.77038  161.534
 5220.00    1.80475   1.79475  159.370
 5221.00    1.81304   1.80449  158.315
 5222.00    1.81594   1.79785   -1.000
 5223.00    1.79724   1.77100   -1.000
 5224.00    1.72437   1.72211  166.294
 5225.00    1.66467   1.65535  173.434
 5226.00    1.61994   1.59632   -1.000
 5227.00    1.61483   1.58207   -1.000
 5228.00    1.64940   1.62671   -1.000
 5229.00    1.72557   1.69978   -1.000
 5230.00    1.77669   1.75160   -1.000
 5231.00    1.80037   1.75753   -1.000
 5232.00    1.77731   1.73216   -1.000
 5233.00    1.75935   1.70289   -1.000
 5234.00    1.74160   1.70079   -1.000
 5235.00    1.73827   1.73130  165.591
 5236.00    1.77131   1.77381  161.580
 5237.00    1.80799   1.80875  158.094
 5238.00    1.81879   1.82319  156.727
 5239.00    1.82398   1.82264  156.788
 5240.00    1.83402   1.81816  157.178
 5241.00    1.83790   1.81366   -1.000
 5242.00    1.83908   1.81128   -1.000
 5243.00    1.82646   1.81492  156.188
 5244.00    1.83912   1.82139  155.844
 5245.00    1.83036   1.81593  156.209
 5246.00    1.80440   1.78890  159.865
 5247.00    1.76599   1.75447  164.760
 5248.00    1.73389   1.73484  167.893
 5249.00    1.74032   1.73057  168.104
 5250.00    1.74682   1.72890   -1.000
 5251.00    1.73489   1.73239  169.347
 5252.00    1.74805   1.74507  168.147
 5253.00    1.77333   1.75521   -1.000
 5254.00    1.77089   1.75759  164.551
 5255.00    1.76758   1.76276  164.452
 5256.00    1.78486   1.78515  162.703
 5257.00    1.83189   1.82074  158.636
 5258.00    1.87586   1.84610   -1.000
 5259.00    1.87441   1.84692   -1.000
 5260.00    1.83928   1.82017   -1.000
 5261.00    1.77507   1.77037  161.112
 5262.00    1.70596   1.71029  168.249
 5263.00    1.65807   1.65417  175.933
 5264.00    1.61543   1.61118  181.452
 5265.00    1.60378   1.59146  184.470
 5266.00    1.62750   1.59577   -1.000
 5267.00    1.65768   1.60838   -1.000
 5268.00    1.66299   1.59548   -1.000
 5269.00    1.61500   1.55236   -1.000
 5270.00    1.58988   1.53064   -1.000
 5271.00    1.62718   1.57504   -1.000
 5272.00    1.69284   1.65982   -1.000
 5273.00    1.74738   1.71693   -1.000
 5274.00    1.75519   1.73216   -1.000
 5275.00    1.75057   1.73934  165.965
 5276.00    1.78017   1.76068   -1.000
 5277.00    1.81760   1.80012  161.248
 5278.00    1.87493   1.83711   -1.000
 5279.00    1.89311   1.84635   -1.000
 5280.00    1.84751   1.82376   -1.000
 5281.00    1.80768   1.78632   -1.000
 5282.00    1.79279   1.75197   -1.000
 5283.00    1.76311   1.73494   -1.000
 5284.00    1.72467   1.75096   -1.000
 5285.00    1.79583   1.79770  162.091
 5286.00    1.89088   1.85138   -1.000
 5287.00    1.91255   1.88169   -1.000
 5288.00    1.90652   1.88897   -1.000
 5289.00    1.90004   1.89034  152.909
 5290.00    1.88587   1.89200  152.674
 5291.00    1.87382   1.89097  151.828
 5292.00    1.88273   1.88593  151.756
 5293.00    1.89079   1.87963  152.817
 5294.00    1.87469   1.86945  154.398
 5295.00    1.84149   1.84432  156.853
 5296.00    1.79489   1.79872  161.560
 5297.00    1.75581   1.75021  167.577
 5298.00    1.74332   1.72864  170.974
 5299.00    1.76578   1.74525   -1.000
 5300.00    1.79920   1.77697   -1.000
 5301.00    1.81573   1.79922  162.077
 5302.00    1.83794   1.81616   -1.000
 5303.00    1.86163   1.84216   -1.000
 5304.00    1.89322   1.87536   -1.000
 5305.00    1.89818   1.89624  152.020
 5306.00    1.90177   1.89478  152.095
 5307.00    1.88902   1.88452  153.667
 5308.00    1.89298   1.88245  154.580
 5309.00    1.90470   1.89389  153.316
 5310.00    1.91659   1.90777  151.782
 5311.00    1.91094   1.91095  151.048
 5312.00    1.91792   1.90515  151.386
 5313.00    1.90367   1.89569  152.249
 5314.00    1.90767   1.88351   -1.000
 5315.00    1.90172   1.86880   -1.000
 5316.00    1.88720   1.85404   -1.000
 5317.00    1.89449   1.84893   -1.000
 5318.00    1.88474   1.85751   -1.000
 5319.00    1.89530   1.86889   -1.000
 5320.00    1.88380   1.87282  155.038
 5321.00    1.88076   1.86615  155.775
 5322.00    1.87789   1.84699   -1.000
 5323.00    1.85090   1.81666   -1.000
 5324.00    1.84188   1.78878   -1.000
 5325.00    1.82714   1.76885   -1.000
 5326.00    1.80146   1.73435   -1.000
 5327.00    1.74670   1.67208   -1.000
 5328.00    1.68032   1.61934   -1.000
 5329.00    1.67543   1.62974   -1.000
 5330.00    1.74709   1.70759   -1.000
 5331.00    1.83121   1.78769   -1.000
 5332.00    1.86813   1.82841   -1.000
 5333.00    1.87790   1.84450   -1.000
 5334.00    1.88350   1.85953   -1.000
 5335.00    1.89741   1.87465   -1.000
 5336.00    1.89214   1.87969  155.096
 5337.00    1.88409   1.87147  156.203
 5338.00    1.88302   1.85085   -1.000
 5339.00    1.86270   1.81618   -1.000
 5340.00    1.82901   1.78022   -1.000
 5341.00    1.80602   1.77157   -1.000
 5342.00    1.84983   1.80048   -1.000
 5343.00    1.89180   1.83683   -1.000
 5344.00    1.89960   1.85349   -1.000
 5345.00    1.88684   1.84913   -1.000
 5346.00    1.88144   1.83608   -1.000
 5347.00    1.89591   1.82396   -1.000
 5348.00    1.87492   1.81418   -1.000
 5349.00    1.85267   1.81093   -1.000
 5350.00    1.86364   1.82638   -1.000
 5351.00    1.90944   1.85645   -1.000
 5352.00    1.92093   1.88528   -1.000
 5353.00    1.93086   1.90318   -1.000
 5354.00    1.95123   1.91430   -1.000
 5355.00    1.93739   1.92935  151.305
 5356.00    1.96441   1.94316   -1.000
 5357.00    1.96803   1.94908   -1.000
 5358.00    1.97251   1.94861   -1.000
 5359.00    1.95939   1.94354  149.109
 5360.00    1.95444   1.93198   -1.000
 5361.00    1.93352   1.91488   -1.000
 5362.00    1.92232   1.89685   -1.000
 5363.00    1.89761   1.87975   -1.000
 5364.00    1.89306   1.86349   -1.000
 5365.00    1.88029   1.85158   -1.000
 5366.00    1.88100   1.84831   -1.000
 5367.00    1.88487   1.85046   -1.000
 5368.00    1.87010   1.84077   -1.000
 5369.00    1.84665   1.80596   -1.000
 5370.00    1.81900   1.75689   -1.000
 5371.00    1.79785   1.72578   -1.000
 5372.00    1.83597   1.74449   -1.000
 5373.00    1.89756   1.80598   -1.000
 5374.00    1.93841   1.87031   -1.000
 5375.00    1.96576   1.90806   -1.000
 5376.00    1.95706   1.91605   -1.000
 5377.00    1.95985   1.91492   -1.000
 5378.00    1.97270   1.91673   -1.000
 5379.00    1.95554   1.91815   -1.000
 5380.00    1.93369   1.91180   -1.000
 5381.00    1.91328   1.89692   -1.000
 5382.00    1.89351   1.88144  155.965
 5383.00    1.88872   1.87380  156.530
 5384.00    1.90395   1.87888   -1.000
 5385.00    1.92764   1.89535   -1.000
 5386.00    1.94565   1.91242   -1.000
 5387.00    1.94167   1.91673   -1.000
 5388.00    1.93709   1.90548   -1.000
 5389.00    1.91858   1.88426   -1.000
 5390.00    1.90786   1.86199   -1.000
 5391.00    1.89050   1.84724   -1.000
 5392.00    1.88682   1.83944   -1.000
 5393.00    1.88145   1.83554   -1.000
 5394.00    1.87852   1.83097   -1.000
 5395.00    1.86423   1.81613   -1.000
 5396.00    1.83006   1.78745   -1.000
 5397.00    1.81514   1.76582   -1.000
 5398.00    1.82830   1.77849   -1.000
 5399.00    1.86694   1.81899   -1.000
 5400.00    1.89981   1.85672   -1.000
 5401.00    1.91815   1.87387   -1.000
 5402.00    1.90628   1.86896   -1.000
 5403.00    1.88414   1.83707   -1.000
 5404.00    1.82410   1.78200   -1.000
 5405.00    1.79068   1.73346   -1.000
 5406.00    1.79371   1.72821   -1.000
 5407.00    1.83857   1.76213   -1.000
 5408.00    1.84967   1.79363   -1.000
 5409.00    1.83608   1.79908   -1.000
 5410.00    1.83384   1.79525   -1.000
 5411.00    1.84370   1.81642   -1.000
 5412.00    1.90162   1.85539   -1.000
 5413.00    1.93994   1.88174   -1.000
 5414.00    1.92139   1.88895   -1.000
 5415.00    1.91494   1.89180   -1.000
 5416.00    1.92664   1.90535   -1.000
 5417.00    1.92935   1.92288  154.507
 5418.00    1.93428   1.92839  153.803
 5419.00    1.92789   1.92254  154.708
 5420.00    1.91732   1.91486  156.220
 5421.00    1.91678   1.90906  156.851
 5422.00    1.92248   1.90284   -1.000
 5423.00    1.91950   1.89048   -1.000
 5424.00    1.90143   1.87998   -1.000
 5425.00    1.90940   1.89018   -1.000
 5426.00    1.93611   1.91686   -1.000
 5427.00    1.95403   1.92848   -1.000
 5428.00    1.93764   1.89836   -1.000
 5429.00    1.88230   1.84607   -1.000
 5430.00    1.86408   1.81977   -1.000
 5431.00    1.87980   1.83069   -1.000
 5432.00    1.90468   1.84784   -1.000
 5433.00    1.87310   1.83942   -1.000
 5434.00    1.85002   1.81460   -1.000
 5435.00    1.85538   1.80881   -1.000
 5436.00    1.87935   1.83449   -1.000
 5437.00    1.89630   1.88018  161.414
 5438.00    1.94564   1.92489   -1.000
 5439.00    1.96444   1.95409  154.014
 5440.00    2.00009   1.96945   -1.000
 5441.00    1.99648   1.97744   -1.000
 5442.00    1.99287   1.98049  150.898
 5443.00    1.98067   1.97124  151.148
 5444.00    1.95584   1.93791   -1.000
 5445.00    1.91337   1.87889   -1.000
 5446.00    1.85549   1.81857   -1.000
 5447.00    1.82292   1.79592   -1.000
 5448.00    1.85795   1.82314   -1.000
 5449.00    1.92530   1.87628   -1.000
 5450.00    1.94439   1.91671   -1.000
 5451.00    1.96027   1.92857   -1.000
 5452.00    1.95030   1.91983   -1.000
 5453.00    1.90767   1.89278  157.845
 5454.00    1.87937   1.84804   -1.000
 5455.00    1.83396   1.80629   -1.000
 5456.00    1.84008   1.80385   -1.000
 5457.00    1.91951   1.85002   -1.000
 5458.00    1.96121   1.90938   -1.000
 5459.00    1.97560   1.93863   -1.000
 5460.00    1.95818   1.93469   -1.000
 5461.00    1.93364   1.91169   -1.000
 5462.00    1.92180   1.88510   -1.000
 5463.00    1.91753   1.87126   -1.000
 5464.00    1.91903   1.87836   -1.000
 5465.00    1.92339   1.89830   -1.000
 5466.00    1.93641   1.91644   -1.000
 5467.00    1.94031   1.92779  158.461
 5468.00    1.94600   1.93316  156.757
 5469.00    1.94526   1.93274  156.527
 5470.00    1.94201   1.92598  158.213
 5471.00    1.95170   1.91560   -1.000
 5472.00    1.94203   1.90661   -1.000
 5473.00    1.92531   1.89766   -1.000
 5474.00    1.89913   1.87989   -1.000
 5475.00    1.88868   1.84996   -1.000
 5476.00    1.85844   1.81925   -1.000
 5477.00    1.83834   1.81330   -1.000
 5478.00    1.86186   1.84543   -1.000
 5479.00    1.91837   1.88362   -1.000
 5480.00    1.93322   1.89462   -1.000
 5481.00    1.91624   1.88210   -1.000
 5482.00    1.89208   1.87436   -1.000
 5483.00    1.90954   1.89220   -1.000
 5484.00    1.93134   1.92384  160.437
 5485.00    1.92409   1.94429  157.401
 5486.00    1.95528   1.94167  156.628
 5487.00    1.93414   1.92334  158.512
 5488.00    1.92604   1.90806   -1.000
 5489.00    1.91315   1.90673  161.318
 5490.00    1.91901   1.91848  161.104
 5491.00    1.93214   1.93048  159.858
 5492.00    1.92372   1.93614  158.783
 5493.00    1.95774   1.93581   -1.000
 5494.00    1.95833   1.93346   -1.000
 5495.00    1.96206   1.92870   -1.000
 5496.00    1.96003   1.91713   -1.000
 5497.00    1.93806   1.90483   -1.000
 5498.00    1.93318   1.90704   -1.000
 5499.00    1.96500   1.91890   -1.000
 5500.00    1.95520   1.91873   -1.000
 5501.00    1.91982   1.90172   -1.000
 5502.00    1.89477   1.88640  162.507
 5503.00    1.92011   1.88971   -1.000
 5504.00    1.94304   1.89743   -1.000
 5505.00    1.93295   1.88893   -1.000
 5506.00    1.91393   1.87252   -1.000
 5507.00    1.90232   1.87030   -1.000
 5508.00    1.92082   1.89154   -1.000
 5509.00    1.94886   1.91767   -1.000
 5510.00    1.94698   1.92079   -1.000
 5511.00    1.92117   1.90093   -1.000
 5512.00    1.89937   1.87454   -1.000
 5513.00    1.88790   1.85771   -1.000
 5514.00    1.88720   1.85939   -1.000
 5515.00    1.91495   1.87501   -1.000
 5516.00    1.95316   1.89810   -1.000
 5517.00    1.97916   1.92447   -1.000
 5518.00    2.02333   1.94979   -1.000
 5519.00    2.02486   1.96694   -1.000
 5520.00    2.01475   1.97153   -1.000
 5521.00    2.02069   1.96819   -1.000
 5522.00    2.00619   1.96744   -1.000
 5523.00    1.99944   1.96907   -1.000
 5524.00    1.98502   1.96624   -1.000
 5525.00    1.95934   1.94928  157.489
 5526.00    1.92697   1.91453  159.951
 5527.00    1.90509   1.87377   -1.000
 5528.00    1.89297   1.85015   -1.000
 5529.00    1.90614   1.86504   -1.000
 5530.00    1.97085   1.90694   -1.000
 5531.00    1.98347   1.94301   -1.000
 5532.00    1.98101   1.95300   -1.000
 5533.00    1.96448   1.94483   -1.000
 5534.00    1.95784   1.93419   -1.000
 5535.00    1.95088   1.92954   -1.000
 5536.00    1.96461   1.93391   -1.000
 5537.00    1.99393   1.94320   -1.000
 5538.00    1.99358   1.95307   -1.000
 5539.00    2.00568   1.96361   -1.000
 5540.00    2.00900   1.97550   -1.000
 5541.00    2.00665   1.98195   -1.000
 5542.00    2.00808   1.97661   -1.000
 5543.00    2.00223   1.96452   -1.000
 5544.00    1.97974   1.95724   -1.000
 5545.00    1.98111   1.95813   -1.000
 5546.00    2.00168   1.96277   -1.000
 5547.00    2.00852   1.97087   -1.000
 5548.00    2.01759   1.98618   -1.000
 5549.00    2.02994   2.00159   -1.000
 5550.00    2.03572   2.00768   -1.000
 5551.00    2.03600   2.00449   -1.000
 5552.00    2.02858   1.99471   -1.000
 5553.00    2.01317   1.98252   -1.000
 5554.00    2.00259   1.97363   -1.000
 5555.00    2.01598   1.97194   -1.000
 5556.00    2.02442   1.97442   -1.000
 5557.00    2.02238   1.97683   -1.000
 5558.00    2.02091   1.97797   -1.000
 5559.00    2.01396   1.98084   -1.000
 5560.00    2.02200   1.98260   -1.000
 5561.00    2.00949   1.97646   -1.000
 5562.00    1.99248   1.96435   -1.000
 5563.00    1.98023   1.95501   -1.000
 5564.00    1.96770   1.95130   -1.000
 5565.00    1.97701   1.94880   -1.000
 5566.00    1.97657   1.94352   -1.000
 5567.00    1.97474   1.93868   -1.000
 5568.00    1.98290   1.93586   -1.000
 5569.00    1.97418   1.93510   -1.000
 5570.00    1.97776   1.93711   -1.000
 5571.00    1.98119   1.93604   -1.000
 5572.00    1.97672   1.93085   -1.000
 5573.00    1.95801   1.92932   -1.000
 5574.00    1.88153   1.93785   -1.000
 5575.00    1.60215   1.95382   -1.000
 5576.00    1.15004   1.96439   -1.000
 5577.00    1.55410   1.96972   -1.000
 5578.00    3.65967   1.97815   -1.000
 5579.00    6.26194   1.98673   -1.000
 5580.00    8.09883   1.98841   -1.000
 5581.00    6.23933   1.98376   -1.000
 5582.00    3.33872   1.97779   -1.000
 5583.00    2.16923   1.97462   -1.000
 5584.00    2.03600   1.96746   -1.000
 5585.00    2.00567   1.94158   -1.000
 5586.00    1.95832   1.89793   -1.000
 5587.00    1.91031   1.85543   -1.000
 5588.00    1.88277   1.83615   -1.000
 5589.00    1.90125   1.84489   -1.000
 5590.00    1.92134   1.87168   -1.000
 5591.00    1.95067   1.90175   -1.000
 5592.00    1.97460   1.91848   -1.000
 5593.00    1.97007   1.92260   -1.000
 5594.00    1.94948   1.92669   -1.000
 5595.00    1.96134   1.94313   -1.000
 5596.00    1.98242   1.96112   -1.000
 5597.00    1.97725   1.95797   -1.000
 5598.00    1.96220   1.93630   -1.000
 5599.00    1.94269   1.91540   -1.000
 5600.00    1.93605   1.90138   -1.000
 5601.00    1.93095   1.88978   -1.000
 5602.00    1.91886   1.88782   -1.000
 5603.00    1.91435   1.90783  168.247
 5604.00    1.94808   1.94831  164.878
 5605.00    2.00803   1.99095  160.285
 5606.00    2.03183   2.01872  156.934
 5607.00    2.06010   2.03055   -1.000
 5608.00    2.07675   2.03201   -1.000
 5609.00    2.06175   2.03065   -1.000
 5610.00    2.05121   2.03311   -1.000
 5611.00    2.06554   2.03792   -1.000
 5612.00    2.04982   2.03312   -1.000
 5613.00    2.03138   2.00516   -1.000
 5614.00    1.98714   1.95208   -1.000
 5615.00    1.93969   1.90208   -1.000
 5616.00    1.95082   1.89197   -1.000
 5617.00    1.96546   1.92095   -1.000
 5618.00    1.99262   1.95710   -1.000
 5619.00    2.00264   1.97465   -1.000
 5620.00    2.01711   1.98260   -1.000
 5621.00    2.02362   1.99150   -1.000
 5622.00    2.01584   1.99207   -1.000
 5623.00    2.00563   1.97445   -1.000
 5624.00    1.97510   1.94876   -1.000
 5625.00    1.96021   1.93633   -1.000
 5626.00    1.97604   1.94973   -1.000
 5627.00    1.99682   1.97424   -1.000
 5628.00    2.01921   1.99465   -1.000
 5629.00    2.01822   2.01044  157.879
 5630.00    2.02472   2.02043  156.872
 5631.00    2.05395   2.02312   -1.000
 5632.00    2.05708   2.01980   -1.000
 5633.00    2.04843   2.01381   -1.000
 5634.00    2.03500   2.00628   -1.000
 5635.00    2.03169   1.99488   -1.000
 5636.00    2.04017   1.98192   -1.000
 5637.00    2.02460   1.97362   -1.000
 5638.00    2.00007   1.97328   -1.000
 5639.00    1.99009   1.97652  161.741
 5640.00    1.98976   1.97564  161.646
 5641.00    1.99512   1.96957   -1.000
 5642.00    2.00706   1.96800   -1.000
 5643.00    2.01349   1.97538   -1.000
 5644.00    2.00840   1.98351   -1.000
 5645.00    2.01893   1.98946   -1.000
 5646.00    2.02633   1.99456   -1.000
 5647.00    2.02042   1.99693   -1.000
 5648.00    2.02785   1.99622   -1.000
 5649.00    2.03996   1.99428   -1.000
 5650.00    2.05557   1.99617   -1.000
 5651.00    2.07002   2.00508   -1.000
 5652.00    2.07764   2.01340   -1.000
 5653.00    2.05838   2.01178   -1.000
 5654.00    2.05062   2.00248   -1.000
 5655.00    2.05329   1.99071   -1.000
 5656.00    2.01401   1.97062   -1.000
 5657.00    1.96748   1.93879   -1.000
 5658.00    1.95004   1.91057   -1.000
 5659.00    1.93832   1.90789   -1.000
 5660.00    1.96105   1.93124   -1.000
 5661.00    1.97276   1.95125   -1.000
 5662.00    1.96187   1.95543  164.556
 5663.00    1.97542   1.96596  164.645
 5664.00    2.01190   1.98850   -1.000
 5665.00    2.03146   2.00497   -1.000
 5666.00    2.01780   2.00348  160.074
 5667.00    2.00752   1.98967   -1.000
 5668.00    1.99432   1.98065  161.972
 5669.00    2.01175   1.98260   -1.000
 5670.00    2.02037   1.99025   -1.000
 5671.00    2.03177   2.00170   -1.000
 5672.00    2.03406   2.01686   -1.000
 5673.00    2.06815   2.03025   -1.000
 5674.00    2.06888   2.03597   -1.000
 5675.00    2.03791   2.03590  156.184
 5676.00    2.07170   2.03598   -1.000
 5677.00    2.06970   2.03850   -1.000
 5678.00    2.06033   2.03769   -1.000
 5679.00    2.05014   2.03019   -1.000
 5680.00    2.03669   2.01847   -1.000
 5681.00    2.02321   2.00278   -1.000
 5682.00    2.01106   1.98400   -1.000
 5683.00    2.01449   1.97298   -1.000
 5684.00    2.01802   1.97834   -1.000
 5685.00    2.01626   1.98892   -1.000
 5686.00    2.01693   1.99030   -1.000
 5687.00    2.02885   1.98265   -1.000
 5688.00    2.02594   1.97672   -1.000
 5689.00    2.00109   1.98210   -1.000
 5690.00    2.02944   1.99920   -1.000
 5691.00    2.07370   2.02022   -1.000
 5692.00    2.08314   2.03643   -1.000
 5693.00    2.06828   2.04290   -1.000
 5694.00    2.07256   2.04223   -1.000
 5695.00    2.08890   2.03948   -1.000
 5696.00    2.05994   2.03520   -1.000
 5697.00    2.05142   2.02715   -1.000
 5698.00    2.04811   2.01423   -1.000
 5699.00    2.03237   1.99998   -1.000
 5700.00    2.02297   1.98721   -1.000
 5701.00    2.01631   1.97738   -1.000
 5702.00    2.01622   1.97825   -1.000
 5703.00    2.01338   1.99069   -1.000
 5704.00    2.01807   2.00138   -1.000
 5705.00    2.02695   1.99994   -1.000
 5706.00    2.00787   1.98401   -1.000
 5707.00    1.97203   1.96097  165.052
 5708.00    1.93911   1.93960  168.167
 5709.00    1.91802   1.92326  170.528
 5710.00    1.93454   1.91883   -1.000
 5711.00    1.95188   1.92956   -1.000
 5712.00    1.99543   1.95397   -1.000
 5713.00    2.02508   1.98679   -1.000
 5714.00    2.03047   2.01412   -1.000
 5715.00    2.06512   2.02822   -1.000
 5716.00    2.06748   2.03641   -1.000
 5717.00    2.07752   2.04260   -1.000
 5718.00    2.08271   2.04821   -1.000
 5719.00    2.08397   2.05563   -1.000
 5720.00    2.10654   2.06493   -1.000
 5721.00    2.12571   2.07341   -1.000
 5722.00    2.10715   2.07928   -1.000
 5723.00    2.09281   2.08277  154.299
 5724.00    2.10764   2.08146   -1.000
 5725.00    2.11346   2.07011   -1.000
 5726.00    2.07075   2.05142   -1.000
 5727.00    2.04594   2.03943  157.827
 5728.00    2.06463   2.04233   -1.000
 5729.00    2.07191   2.05135   -1.000
 5730.00    2.08898   2.05366   -1.000
 5731.00    2.08351   2.04961   -1.000
 5732.00    2.06754   2.04913   -1.000
 5733.00    2.06820   2.06059  157.327
 5734.00    2.09665   2.07637   -1.000
 5735.00    2.10811   2.08142   -1.000
 5736.00    2.11225   2.07807   -1.000
 5737.00    2.10558   2.07319   -1.000
 5738.00    2.08498   2.07052  155.926
 5739.00    2.08945   2.07177   -1.000
 5740.00    2.09858   2.07297   -1.000
 5741.00    2.07327   2.07124  156.603
 5742.00    2.06350   2.06757  156.902
 5743.00    2.08549   2.06933   -1.000
 5744.00    2.10540   2.07891   -1.000
 5745.00    2.12694   2.08821   -1.000
 5746.00    2.11971   2.08640   -1.000
 5747.00    2.08827   2.07353   -1.000
 5748.00    2.07295   2.06595  157.040
 5749.00    2.07795   2.07244  157.336
 5750.00    2.07948   2.08030  156.269
 5751.00    2.10296   2.07495   -1.000
 5752.00    2.07357   2.05228   -1.000
 5753.00    2.03625   2.02944  159.528
 5754.00    2.04362   2.02716   -1.000
 5755.00    2.07044   2.04861   -1.000
 5756.00    2.09583   2.07884   -1.000
 5757.00    2.11043   2.09936  155.131
 5758.00    2.11173   2.10432  153.687
 5759.00    2.10887   2.09287   -1.000
 5760.00    2.10551   2.07038   -1.000
 5761.00    2.07017   2.04618   -1.000
 5762.00    2.06041   2.03254   -1.000
 5763.00    2.05948   2.04120   -1.000
 5764.00    2.08431   2.07025  158.795
 5765.00    2.09533   2.09805  155.933
 5766.00    2.11780   2.11020  154.304
 5767.00    2.12684   2.11295  154.025
 5768.00    2.12368   2.11134  153.877
 5769.00    2.11619   2.10795  153.655
 5770.00    2.10314   2.10324  154.070
 5771.00    2.09678   2.09783  154.632
 5772.00    2.11320   2.09104   -1.000
 5773.00    2.11700   2.08404   -1.000
 5774.00    2.08740   2.07844  156.758
 5775.00    2.08330   2.07690  156.884
 5776.00    2.09113   2.08185  156.442
 5777.00    2.09619   2.08505  155.665
 5778.00    2.06686   2.07743  155.672
 5779.00    2.04083   2.05689  156.409
 5780.00    2.01081   2.02852  159.046
 5781.00    1.97653   2.00408   -1.000
 5782.00    1.97054   1.99389  164.305
 5783.00    1.99088   1.99722  163.699
 5784.00    2.01334   2.00144  163.056
 5785.00    2.04351   2.00558   -1.000
 5786.00    2.07619   2.01926   -1.000
 5787.00    2.08633   2.04071   -1.000
 5788.00    2.09640   2.05913   -1.000
 5789.00    2.10874   2.06764   -1.000
 5790.00    2.09715   2.06500   -1.000
 5791.00    2.08200   2.06169   -1.000
 5792.00    2.07779   2.06964  157.331
 5793.00    2.10295   2.08885   -1.000
 5794.00    2.11720   2.10789  154.922
 5795.00    2.10028   2.11598  154.074
 5796.00    2.09132   2.10873  154.168
 5797.00    2.06742   2.09371   -1.000
 5798.00    2.07239   2.08886  156.042
 5799.00    2.11195   2.10224  154.962
 5800.00    2.14530   2.12393   -1.000
 5801.00    2.15279   2.13777   -1.000
 5802.00    2.15020   2.13747   -1.000
 5803.00    2.14077   2.12503   -1.000
 5804.00    2.11763   2.10945  153.508
 5805.00    2.12258   2.10155   -1.000
 5806.00    2.12125   2.10312   -1.000
 5807.00    2.11457   2.11041  154.744
 5808.00    2.12912   2.11653  154.158
 5809.00    2.12553   2.12032  153.758
 5810.00    2.13953   2.12450   -1.000
 5811.00    2.16329   2.12758   -1.000
 5812.00    2.16859   2.12695   -1.000
 5813.00    2.15958   2.12128   -1.000
 5814.00    2.15501   2.10952   -1.000
 5815.00    2.14409   2.09521   -1.000
 5816.00    2.13377   2.08975   -1.000
 5817.00    2.14692   2.10125   -1.000
 5818.00    2.17365   2.12100   -1.000
 5819.00    2.18700   2.13537   -1.000
 5820.00    2.16275   2.13915   -1.000
 5821.00    2.18085   2.13731   -1.000
 5822.00    2.19095   2.13430   -1.000
 5823.00    2.16997   2.13207   -1.000
 5824.00    2.16203   2.13169   -1.000
 5825.00    2.15492   2.13298   -1.000
 5826.00    2.16038   2.13652   -1.000
 5827.00    2.18274   2.14038   -1.000
 5828.00    2.17556   2.14465   -1.000
 5829.00    2.18350   2.14813   -1.000
 5830.00    2.19114   2.14818   -1.000
 5831.00    2.18827   2.14596   -1.000
 5832.00    2.16363   2.14217   -1.000
 5833.00    2.16968   2.13638   -1.000
 5834.00    2.16371   2.13026   -1.000
 5835.00    2.17929   2.12818   -1.000
 5836.00    2.18134   2.13144   -1.000
 5837.00    2.17500   2.13397   -1.000
 5838.00    2.15981   2.13534   -1.000
 5839.00    2.14179   2.13983  152.299
 5840.00    2.15718   2.14732  151.653
 5841.00    2.17234   2.15436   -1.000
 5842.00    2.17493   2.15609   -1.000
 5843.00    2.16796   2.15075   -1.000
 5844.00    2.15516   2.14197   -1.000
 5845.00    2.15782   2.13231   -1.000
 5846.00    2.16523   2.12243   -1.000
 5847.00    2.17015   2.11503   -1.000
 5848.00    2.16154   2.11348   -1.000
 5849.00    2.14583   2.11541   -1.000
 5850.00    2.13256   2.11353   -1.000
 5851.00    2.11724   2.10187   -1.000
 5852.00    2.11267   2.08432   -1.000
 5853.00    2.10406   2.07265   -1.000
 5854.00    2.09836   2.07118   -1.000
 5855.00    2.09569   2.06791   -1.000
 5856.00    2.10205   2.04962   -1.000
 5857.00    2.07711   2.02609   -1.000
 5858.00    2.07266   2.02072   -1.000
 5859.00    2.10525   2.04083   -1.000
 5860.00    2.12338   2.06874   -1.000
 5861.00    2.14945   2.08520   -1.000
 5862.00    2.15345   2.09102   -1.000
 5863.00    2.14213   2.09298   -1.000
 5864.00    2.13842   2.09409   -1.000
 5865.00    2.12016   2.08957   -1.000
 5866.00    2.11152   2.07994   -1.000
 5867.00    2.11704   2.07828   -1.000
 5868.00    2.13393   2.09176   -1.000
 5869.00    2.17355   2.11002   -1.000
 5870.00    2.16257   2.12187   -1.000
 5871.00    2.17161   2.12321   -1.000
 5872.00    2.16020   2.11755   -1.000
 5873.00    2.15940   2.11197   -1.000
 5874.00    2.15338   2.10914   -1.000
 5875.00    2.15555   2.10769   -1.000
 5876.00    2.15085   2.10426   -1.000
 5877.00    2.12579   2.09672   -1.000
 5878.00    2.15694   2.08492   -1.000
 5879.00    2.17332   2.07263   -1.000
 5880.00    2.15650   2.06544   -1.000
 5881.00    2.14006   2.06495   -1.000
 5882.00    2.13103   2.06600   -1.000
 5883.00    2.12163   2.06088   -1.000
 5884.00    2.12136   2.05238   -1.000
 5885.00    2.12793   2.04371   -1.000
 5886.00    2.09204   2.02117   -1.000
 5887.00    2.01028   1.95836   -1.000
 5888.00    1.85142   1.84437  167.574
 5889.00    1.61700   1.72530   -1.000
 5890.00    1.50632   1.67773   -1.000
 5891.00    1.62912   1.72432   -1.000
 5892.00    1.93110   1.80753   -1.000
 5893.00    2.07211   1.84718   -1.000
 5894.00    1.96707   1.82262   -1.000
 5895.00    1.78344   1.76810   -1.000
 5896.00    1.65717   1.75284   -1.000
 5897.00    1.74683   1.80853   -1.000
 5898.00    1.96134   1.88794   -1.000
 5899.00    2.10235   1.95018   -1.000
 5900.00    2.11193   1.99387   -1.000
 5901.00    2.08578   2.02595   -1.000
 5902.00    2.09962   2.04680   -1.000
 5903.00    2.11151   2.05849   -1.000
 5904.00    2.10153   2.06305   -1.000
 5905.00    2.10927   2.06426   -1.000
 5906.00    2.12431   2.06680   -1.000
 5907.00    2.11429   2.07257   -1.000
 5908.00    2.11888   2.07954   -1.000
 5909.00    2.12575   2.08586   -1.000
 5910.00    2.13300   2.09091   -1.000
 5911.00    2.13140   2.09084   -1.000
 5912.00    2.13171   2.08136   -1.000
 5913.00    2.10638   2.06226   -1.000
 5914.00    2.09254   2.04245   -1.000
 5915.00    2.08331   2.03481   -1.000
 5916.00    2.07162   2.04121   -1.000
 5917.00    2.11872   2.05500   -1.000
 5918.00    2.11061   2.07027   -1.000
 5919.00    2.11835   2.08055   -1.000
 5920.00    2.13216   2.08443   -1.000
 5921.00    2.11517   2.08370   -1.000
 5922.00    2.09952   2.08154   -1.000
 5923.00    2.10398   2.08268   -1.000
 5924.00    2.11666   2.09067   -1.000
 5925.00    2.10265   2.10103  158.066
 5926.00    2.09838   2.10683  157.816
 5927.00    2.13095   2.10336   -1.000
 5928.00    2.15527   2.09053   -1.000
 5929.00    2.13527   2.07740   -1.000
 5930.00    2.12236   2.07562   -1.000
 5931.00    2.13455   2.08661   -1.000
 5932.00    2.13259   2.09643   -1.000
 5933.00    2.11001   2.09529  157.990
 5934.00    2.09771   2.08733  159.427
 5935.00    2.14101   2.08551   -1.000
 5936.00    2.15441   2.09530   -1.000
 5937.00    2.13237   2.10656   -1.000
 5938.00    2.16179   2.11000   -1.000
 5939.00    2.16144   2.10407   -1.000
 5940.00    2.15488   2.09150   -1.000
 5941.00    2.12927   2.07989   -1.000
 5942.00    2.11680   2.07703   -1.000
 5943.00    2.09421   2.08573  160.427
 5944.00    2.10978   2.09925  159.371
 5945.00    2.12339   2.10814   -1.000
 5946.00    2.12157   2.10790  157.975
 5947.00    2.10042   2.09838  158.654
 5948.00    2.10531   2.08716   -1.000
 5949.00    2.10338   2.08651   -1.000
 5950.00    2.11416   2.09385   -1.000
 5951.00    2.12708   2.09630   -1.000
 5952.00    2.10896   2.09204   -1.000
 5953.00    2.09739   2.08811  161.018
 5954.00    2.11292   2.08978   -1.000
 5955.00    2.13781   2.09014   -1.000
 5956.00    2.14871   2.08411   -1.000
 5957.00    2.11786   2.08051   -1.000
 5958.00    2.09919   2.08836  161.416
 5959.00    2.12382   2.10450   -1.000
 5960.00    2.14999   2.12048   -1.000
 5961.00    2.17389   2.13047   -1.000
 5962.00    2.17753   2.13252   -1.000
 5963.00    2.17211   2.12863   -1.000
 5964.00    2.16865   2.12067   -1.000
 5965.00    2.14711   2.11215   -1.000
 5966.00    2.14334   2.10991   -1.000
 5967.00    2.14851   2.11655   -1.000
 5968.00    2.13966   2.12519  158.454
 5969.00    2.14402   2.13198  157.186
 5970.00    2.15833   2.13777   -1.000
 5971.00    2.16414   2.14102   -1.000
 5972.00    2.16907   2.13987   -1.000
 5973.00    2.17870   2.13542   -1.000
 5974.00    2.17734   2.12659   -1.000
 5975.00    2.15708   2.11135   -1.000
 5976.00    2.12807   2.09714   -1.000
 5977.00    2.11282   2.09189   -1.000
 5978.00    2.11872   2.09726   -1.000
 5979.00    2.14927   2.11074   -1.000
 5980.00    2.18799   2.12348   -1.000
 5981.00    2.17030   2.12577   -1.000
 5982.00    2.15685   2.11264   -1.000
 5983.00    2.15641   2.09224   -1.000
 5984.00    2.13541   2.07945   -1.000
 5985.00    2.13684   2.08460   -1.000
 5986.00    2.14076   2.10029   -1.000
 5987.00    2.15557   2.11340   -1.000
 5988.00    2.17571   2.12274   -1.000
 5989.00    2.17373   2.12815   -1.000
 5990.00    2.16684   2.12834   -1.000
 5991.00    2.17898   2.12837   -1.000
 5992.00    2.16631   2.13622   -1.000
 5993.00    2.20311   2.15087   -1.000
 5994.00    2.19751   2.16008   -1.000
 5995.00    2.18160   2.15502   -1.000
 5996.00    2.17478   2.14033   -1.000
 5997.00    2.18015   2.12713   -1.000
 5998.00    2.16974   2.12370   -1.000
 5999.00    2.18827   2.12916   -1.000
 6000.00    2.17748   2.13361   -1.000
 6001.00    2.17045   2.13216   -1.000
 6002.00    2.15238   2.12574   -1.000
 6003.00    2.13888   2.12181   -1.000
 6004.00    2.14996   2.12495   -1.000
 6005.00    2.15343   2.12310   -1.000
 6006.00    2.15480   2.10874   -1.000
 6007.00    2.13210   2.09160   -1.000
 6008.00    2.12930   2.08828   -1.000
 6009.00    2.13926   2.10636   -1.000
 6010.00    2.16012   2.12796   -1.000
 6011.00    2.15511   2.13282   -1.000
 6012.00    2.15916   2.12500   -1.000
 6013.00    2.14035   2.11763   -1.000
 6014.00    2.15334   2.11847   -1.000
 6015.00    2.17967   2.12123   -1.000
 6016.00    2.17203   2.11853   -1.000
 6017.00    2.15924   2.11640   -1.000
 6018.00    2.15537   2.11547   -1.000
 6019.00    2.16791   2.10945   -1.000
 6020.00    2.17415   2.10279   -1.000
 6021.00    2.14893   2.10282   -1.000
 6022.00    2.14262   2.10794   -1.000
 6023.00    2.15533   2.11547   -1.000
 6024.00    2.15911   2.12566   -1.000
 6025.00    2.17438   2.13790   -1.000
 6026.00    2.19640   2.14791   -1.000
 6027.00    2.20483   2.15486   -1.000
 6028.00    2.19863   2.16255   -1.000
 6029.00    2.19744   2.16917   -1.000
 6030.00    2.20758   2.17221   -1.000
 6031.00    2.20155   2.17457   -1.000
 6032.00    2.19985   2.17821   -1.000
 6033.00    2.21158   2.18471   -1.000
 6034.00    2.21916   2.19296   -1.000
 6035.00    2.22003   2.19736   -1.000
 6036.00    2.21981   2.19510   -1.000
 6037.00    2.22256   2.18777   -1.000
 6038.00    2.20792   2.17810   -1.000
 6039.00    2.20494   2.16887   -1.000
 6040.00    2.21098   2.16468   -1.000
 6041.00    2.21344   2.16734   -1.000
 6042.00    2.20328   2.17116   -1.000
 6043.00    2.21566   2.17787   -1.000
 6044.00    2.22228   2.18917   -1.000
 6045.00    2.22302   2.19787   -1.000
 6046.00    2.25670   2.20205   -1.000
 6047.00    2.24695   2.20386   -1.000
 6048.00    2.22485   2.20508   -1.000
 6049.00    2.22338   2.20550   -1.000
 6050.00    2.23336   2.20437   -1.000
 6051.00    2.24115   2.19915   -1.000
 6052.00    2.25708   2.19125   -1.000
 6053.00    2.22123   2.18304   -1.000
 6054.00    2.22471   2.17418   -1.000
 6055.00    2.20756   2.16541   -1.000
 6056.00    2.20788   2.16130   -1.000
 6057.00    2.22061   2.16423   -1.000
 6058.00    2.24212   2.17108   -1.000
 6059.00    2.22832   2.17927   -1.000
 6060.00    2.21449   2.18432   -1.000
 6061.00    2.18672   2.18143  157.671
 6062.00    2.32447   2.16821   -1.000
 6063.00    1.88288   2.14645   -1.000
 6064.00    0.75244   2.12616   -1.000
 6065.00    2.33939   2.12111   -1.000
 6066.00    2.33275   2.13886   -1.000
 6067.00    2.21768   2.16865   48.181
 6068.00    2.30575   2.19193   -1.000
 6069.00    2.04550   2.20316   -1.000
 6070.00    0.47976   2.20894   -1.000
 6071.00    1.91963   2.21249   -1.000
 6072.00    2.32246   2.21406   -1.000
 6073.00    2.21261   2.21396  155.595
 6074.00    2.21955   2.21190  156.160
 6075.00    2.25532   2.20552   -1.000
 6076.00    2.25849   2.19414   -1.000
 6077.00    2.22331   2.18089   -1.000
 6078.00    2.18088   2.17076  158.655
 6079.00    2.18123   2.16620   -1.000
 6080.00    2.20543   2.16294   -1.000
 6081.00    2.17843   2.15733   -1.000
 6082.00    2.17517   2.15342   -1.000
 6083.00    2.18805   2.15529   -1.000
 6084.00    2.20571   2.15887   -1.000
 6085.00    2.20568   2.16284   -1.000
 6086.00    2.19480   2.16914   -1.000
 6087.00    2.19840   2.17536   -1.000
 6088.00    2.19915   2.17558   -1.000
 6089.00    2.20511   2.16725   -1.000
 6090.00    2.20253   2.15657   -1.000
 6091.00    2.19860   2.15244   -1.000
 6092.00    2.20039   2.15721   -1.000
 6093.00    2.21689   2.16828   -1.000
 6094.00    2.21578   2.18087   -1.000
 6095.00    2.21413   2.18926   -1.000
 6096.00    2.21791   2.19258   -1.000
 6097.00    2.23428   2.19561   -1.000
 6098.00    2.23835   2.19943   -1.000
 6099.00    2.22350   2.19528   -1.000
 6100.00    2.21090   2.17356   -1.000
 6101.00    2.18385   2.13380   -1.000
 6102.00    2.15639   2.09824   -1.000
 6103.00    2.12672   2.09615   -1.000
 6104.00    2.15914   2.12394   -1.000
 6105.00    2.20713   2.15586   -1.000
 6106.00    2.21715   2.17422   -1.000
 6107.00    2.20066   2.18332   -1.000
 6108.00    2.18542   2.19150  160.835
 6109.00    2.19611   2.19795  161.161
 6110.00    2.21151   2.19780   -1.000
 6111.00    2.21134   2.19517   -1.000
 6112.00    2.20572   2.19765  159.897
 6113.00    2.22408   2.20487   -1.000
 6114.00    2.22028   2.20944  158.969
 6115.00    2.23073   2.20677   -1.000
 6116.00    2.22193   2.20210   -1.000
 6117.00    2.20640   2.19919  160.551
 6118.00    2.18388   2.18624  160.664
 6119.00    2.18752   2.15803   -1.000
 6120.00    2.16975   2.12365   -1.000
 6121.00    2.14430   2.09221   -1.000
 6122.00    2.14329   2.08499   -1.000
 6123.00    2.15380   2.11073   -1.000
 6124.00    2.18874   2.14453   -1.000
 6125.00    2.19313   2.16426   -1.000
 6126.00    2.19463   2.17013   -1.000
 6127.00    2.18152   2.17010   -1.000
 6128.00    2.16110   2.17432  163.386
 6129.00    2.18087   2.18704  163.001
 6130.00    2.18753   2.20273  161.517
 6131.00    2.19304   2.21483  160.023
 6132.00    2.20475   2.21750  159.884
 6133.00    2.18270   2.20323  160.300
 6134.00    2.15609   2.16450  162.063
 6135.00    2.12577   2.10500   -1.000
 6136.00    2.07741   2.05457   -1.000
 6137.00    2.05701   2.04936  175.159
 6138.00    2.08782   2.08710  174.968
 6139.00    2.13875   2.13087  169.950
 6140.00    2.14562   2.14842  165.236
 6141.00    2.14548   2.14913  163.882
 6142.00    2.14474   2.15974  164.416
 6143.00    2.14876   2.18213   -1.000
 6144.00    2.19642   2.20098  162.635
 6145.00    2.19050   2.20687  160.732
 6146.00    2.20961   2.20236  160.766
 6147.00    2.20584   2.19171   -1.000
 6148.00    2.18013   2.17835  162.688
 6149.00    2.16725   2.16801  163.878
 6150.00    2.13858   2.16563   -1.000
 6151.00    2.15567   2.17212  164.628
 6152.00    2.17466   2.18062  163.934
 6153.00    2.17672   2.18164  162.745
 6154.00    2.15854   2.17282  162.744
 6155.00    2.17901   2.16384   -1.000
 6156.00    2.19264   2.16006   -1.000
 6157.00    2.17717   2.15678   -1.000
 6158.00    2.17173   2.14540   -1.000
 6159.00    2.12565   2.11336   -1.000
 6160.00    2.10304   2.05694   -1.000
 6161.00    2.04861   1.99709   -1.000
 6162.00    1.98095   1.96902  181.744
 6163.00    1.98920   1.98593  182.855
 6164.00    2.03042   2.02663  179.501
 6165.00    2.07309   2.06405  174.336
 6166.00    2.08488   2.08439  172.082
 6167.00    2.07109   2.08430  171.604
 6168.00    2.05009   2.06555  172.249
 6169.00    2.02091   2.04846   -1.000
 6170.00    2.03045   2.05595   -1.000
 6171.00    2.05498   2.08506   -1.000
 6172.00    2.11574   2.11180  170.890
 6173.00    2.10471   2.12573  168.755
 6174.00    2.10238   2.13356   -1.000
 6175.00    2.10961   2.13813   -1.000
 6176.00    2.10216   2.14044   -1.000
 6177.00    2.10789   2.14526   -1.000
 6178.00    2.13897   2.15156  168.050
 6179.00    2.14362   2.15510  167.168
 6180.00    2.14375   2.15927  166.609
 6181.00    2.14189   2.16753   -1.000
 6182.00    2.14366   2.17357   -1.000
 6183.00    2.15161   2.17299  164.934
 6184.00    2.14468   2.16740   -1.000
 6185.00    2.14035   2.15650  166.005
 6186.00    2.11086   2.14136   -1.000
 6187.00    2.09213   2.12771   -1.000
 6188.00    2.11363   2.11494  171.080
 6189.00    2.10392   2.09405  172.679
 6190.00    2.07395   2.06776  173.890
 6191.00    2.03087   2.05673   -1.000
 6192.00    2.04977   2.07517   -1.000
 6193.00    2.10556   2.11027  174.667
 6194.00    2.13876   2.13948  170.036
 6195.00    2.14277   2.15580  167.595
 6196.00    2.12900   2.16275   -1.000
 6197.00    2.13116   2.15838   -1.000
 6198.00    2.11043   2.14264   -1.000
 6199.00    2.09147   2.12911   -1.000
 6200.00    2.08899   2.13302   -1.000
 6201.00    2.08024   2.14876   -1.000
 6202.00    2.09640   2.16489   -1.000
 6203.00    2.09923   2.17547   -1.000
 6204.00    2.09569   2.18078   -1.000
 6205.00    2.11932   2.18441   -1.000
 6206.00    2.13403   2.18769   -1.000
 6207.00    2.13945   2.18997   -1.000
 6208.00    2.13893   2.18846   -1.000
 6209.00    2.14153   2.18175   -1.000
 6210.00    2.14836   2.17052   -1.000
 6211.00    2.12953   2.15317   -1.000
 6212.00    2.09536   2.12763   -1.000
 6213.00    2.07255   2.10098   -1.000
 6214.00    2.04834   2.08574   -1.000
 6215.00    2.04406   2.08573   -1.000
 6216.00    2.06245   2.09297   -1.000
 6217.00    2.07003   2.09688   -1.000
 6218.00    2.06093   2.09250   -1.000
 6219.00    2.04613   2.08618   -1.000
 6220.00    2.07364   2.08923  174.456
 6221.00    2.01040   2.10072   -1.000
 6222.00    1.95547   2.11051   -1.000
 6223.00    2.11772   2.11457  189.682
 6224.00    2.12036   2.11776  179.850
 6225.00    2.10974   2.12228  171.746
 6226.00    2.09700   2.12486   -1.000
 6227.00    2.09368   2.11808   -1.000
 6228.00    2.09050   2.09542  173.721
 6229.00    2.06992   2.06161  176.311
 6230.00    2.02692   2.03575  179.288
 6231.00    2.01952   2.03484  181.400
 6232.00    2.03876   2.05889   -1.000
 6233.00    2.08007   2.09427  177.298
 6234.00    2.08475   2.12549   -1.000
 6235.00    2.10395   2.14066   -1.000
 6236.00    2.09922   2.13759   -1.000
 6237.00    2.09712   2.12405   -1.000
 6238.00    2.10677   2.10773  173.913
 6239.00    2.08896   2.09493  175.672
 6240.00    2.06017   2.08787   -1.000
 6241.00    2.06611   2.08362  178.082
 6242.00    2.07051   2.07568  177.939
 6243.00    2.05682   2.06581  179.485
 6244.00    2.02677   2.06028   -1.000
 6245.00    2.04034   2.06237   -1.000
 6246.00    2.06786   2.07669  178.969
 6247.00    2.08098   2.10156   -1.000
 6248.00    2.08569   2.12359   -1.000
 6249.00    2.10605   2.13130   -1.000
 6250.00    2.11087   2.12028  173.150
 6251.00    2.07960   2.09428  175.023
 6252.00    2.02988   2.06867   -1.000
 6253.00    2.02783   2.05642   -1.000
 6254.00    2.01505   2.05568   -1.000
 6255.00    2.02923   2.05577   -1.000
 6256.00    2.02100   2.04876   -1.000
 6257.00    2.00162   2.04135   -1.000
 6258.00    1.96342   2.04628   -1.000
 6259.00    2.00214   2.06587   -1.000
 6260.00    2.06027   2.09226   -1.000
 6261.00    2.08603   2.11714   -1.000
 6262.00    2.08795   2.13583   -1.000
 6263.00    2.10225   2.14243   -1.000
 6264.00    2.09974   2.13887   -1.000
 6265.00    2.08263   2.13535   -1.000
 6266.00    2.07669   2.13957   -1.000
 6267.00    2.09119   2.14530   -1.000
 6268.00    2.08180   2.14441   -1.000
 6269.00    2.06620   2.14099   -1.000
 6270.00    2.07496   2.14159   -1.000
 6271.00    2.09223   2.14618   -1.000
 6272.00    2.09957   2.14798   -1.000
 6273.00    2.10355   2.14092   -1.000
 6274.00    2.10282   2.12450   -1.000
 6275.00    2.08763   2.10405  175.449
 6276.00    2.04364   2.08519   -1.000
 6277.00    2.01391   2.07134   -1.000
 6278.00    1.97521   2.06317   -1.000
 6279.00    1.92774   2.05892   -1.000
 6280.00    1.90526   2.06248   -1.000
 6281.00    1.91212   2.07813   -1.000
 6282.00    1.92505   2.10313   -1.000
 6283.00    1.92550   2.12882   -1.000
 6284.00    1.95286   2.14759   -1.000
 6285.00    1.95429   2.15868   -1.000
 6286.00    1.98143   2.16714   -1.000
 6287.00    2.01814   2.17399   -1.000
 6288.00    2.05147   2.17461   -1.000
 6289.00    2.06263   2.16649   -1.000
 6290.00    2.08754   2.15453   -1.000
 6291.00    2.08413   2.14538   -1.000
 6292.00    2.08008   2.14124   -1.000
 6293.00    2.08357   2.13954   -1.000
 6294.00    2.07288   2.13622   -1.000
 6295.00    2.05807   2.12529   -1.000
 6296.00    2.06124   2.11042   -1.000
 6297.00    2.08590   2.10240  179.379
 6298.00    2.28024   2.10518   -1.000
 6299.00    2.57687   2.11020   -1.000
 6300.00    2.97800   2.10662   -1.000
 6301.00    3.92196   2.10046   -1.000
 6302.00    4.85891   2.10506   -1.000
 6303.00    4.80759   2.12050   -1.000
 6304.00    4.07317   2.13802   -1.000
 6305.00    2.98994   2.15212   -1.000
 6306.00    2.32138   2.16507   -1.000
 6307.00    2.16219   2.17710  173.052
 6308.00    2.12245   2.18322   -1.000
 6309.00    2.12299   2.18201   -1.000
 6310.00    2.10028   2.17634   -1.000
 6311.00    2.09370   2.16944   -1.000
 6312.00    2.09694   2.16338   -1.000
 6313.00    2.08302   2.15520   -1.000
 6314.00    2.07547   2.14407   -1.000
 6315.00    2.05245   2.13548   -1.000
 6316.00    2.04617   2.12906   -1.000
 6317.00    2.04906   2.12155   -1.000
 6318.00    2.04332   2.12210   -1.000
 6319.00    2.04311   2.13818   -1.000
 6320.00    2.06175   2.15797   -1.000
 6321.00    2.06665   2.17041   -1.000
 6322.00    2.08233   2.17914   -1.000
 6323.00    2.08574   2.19032   -1.000
 6324.00    2.11449   2.20176   -1.000
 6325.00    2.12918   2.20756   -1.000
 6326.00    2.11611   2.20810   -1.000
 6327.00    2.10916   2.20762   -1.000
 6328.00    2.10078   2.20777   -1.000
 6329.00    2.10674   2.20774   -1.000
 6330.00    2.12776   2.21010   -1.000
 6331.00    2.13111   2.21687   -1.000
 6332.00    2.13114   2.21928   -1.000
 6333.00    2.06395   2.20730   -1.000
 6334.00    2.07498   2.18165   -1.000
 6335.00    2.09666   2.15716   -1.000
 6336.00    2.06362   2.15114   -1.000
 6337.00    2.07310   2.16260   -1.000
 6338.00    2.09981   2.18087   -1.000
 6339.00    2.13868   2.19922   -1.000
 6340.00    2.14736   2.21184   -1.000
 6341.00    2.12598   2.21305   -1.000
 6342.00    2.11834   2.20329   -1.000
 6343.00    2.09881   2.18994   -1.000
 6344.00    2.08283   2.18573   -1.000
 6345.00    2.08502   2.19467   -1.000
 6346.00    2.10303   2.20935   -1.000
 6347.00    2.12141   2.22366   -1.000
 6348.00    2.12374   2.23532   -1.000
 6349.00    2.12031   2.24354   -1.000
 6350.00    2.13595   2.24662   -1.000
 6351.00    2.13532   2.24385   -1.000
 6352.00    2.10607   2.23440   -1.000
 6353.00    2.10105   2.21937   -1.000
 6354.00    2.07806   2.20547   -1.000
 6355.00    2.06781   2.19875   -1.000
 6356.00    2.07014   2.19403   -1.000
 6357.00    2.08597   2.18320   -1.000
 6358.00    2.09365   2.16883   -1.000
 6359.00    2.06875   2.15945   -1.000
 6360.00    2.10664   2.15429   -1.000
 6361.00    2.15764   2.14969  172.821
 6362.00    2.22794   2.14951   -1.000
 6363.00    2.37499   2.15792   -1.000
 6364.00    2.66243   2.17286   -1.000
 6365.00    2.94719   2.18922   -1.000
 6366.00    2.99684   2.20478   -1.000
 6367.00    2.77724   2.21886   -1.000
 6368.00    2.40898   2.22720   -1.000
 6369.00    2.20356   2.22815  166.157
 6370.00    2.15179   2.22806   -1.000
 6371.00    2.10563   2.23207   -1.000
 6372.00    2.07617   2.24012   -1.000
 6373.00    2.08040   2.24694   -1.000
 6374.00    2.10054   2.24870   -1.000
 6375.00    2.10304   2.24706   -1.000
 6376.00    2.09989   2.24286   -1.000
 6377.00    2.08895   2.23508   -1.000
 6378.00    2.06705   2.22625   -1.000
 6379.00    2.05563   2.21931   -1.000
 6380.00    2.03985   2.21584   -1.000
 6381.00    2.03834   2.21651   -1.000
 6382.00    2.04984   2.21956   -1.000
 6383.00    2.03392   2.22242   -1.000
 6384.00    2.02141   2.22528   -1.000
 6385.00    2.02390   2.23024   -1.000
 6386.00    2.02431   2.23592   -1.000
 6387.00    2.00832   2.23856   -1.000
 6388.00    2.02451   2.23888   -1.000
 6389.00    2.04005   2.23732   -1.000
 6390.00    1.99559   2.22840   -1.000
 6391.00    1.97288   2.20771   -1.000
 6392.00    1.94140   2.18277   -1.000
 6393.00    1.92347   2.17274   -1.000
 6394.00    1.91549   2.18771   -1.000
 6395.00    1.93431   2.21414   -1.000
 6396.00    1.95576   2.23215   -1.000
 6397.00    1.94490   2.22819   -1.000
 6398.00    1.91264   2.20247   -1.000
 6399.00    1.87536   2.17453   -1.000
 6400.00    1.84638   2.17111   -1.000
 6401.00    1.87891   2.19716   -1.000
 6402.00    1.88770   2.23060   -1.000
 6403.00    1.89125   2.25345   -1.000
 6404.00    1.91390   2.26025   -1.000
 6405.00    1.88766   2.25113   -1.000
 6406.00    1.87145   2.23344   -1.000
 6407.00    1.86116   2.21991   -1.000
 6408.00    1.82631   2.21821   -1.000
 6409.00    1.80140   2.22358   -1.000
 6410.00    1.79573   2.22319   -1.000
 6411.00    1.79699   2.21700   -1.000
 6412.00    1.76387   2.21644   -1.000
 6413.00    1.74488   2.22364   -1.000
 6414.00    1.75559   2.23336   -1.000
 6415.00    1.76582   2.24165   -1.000
 6416.00    1.73057   2.24454   -1.000
 6417.00    1.71594   2.23887   -1.000
 6418.00    1.69521   2.22347   -1.000
 6419.00    1.66887   2.20239   -1.000
 6420.00    1.64699   2.18951   -1.000
 6421.00    1.62130   2.19778   -1.000
 6422.00    1.61099   2.22257   -1.000
 6423.00    1.61718   2.24738   -1.000
 6424.00    1.62916   2.26323   -1.000
 6425.00    1.60418   2.27211   -1.000
 6426.00    1.58969   2.27725   -1.000
 6427.00    1.56182   2.27375   -1.000
 6428.00    1.53173   2.25445   -1.000
