###################################################################
## OUTPUT of StarlightChains_v04.for    [Cid@UFSC - 01/Apr/2007] ##
###################################################################

## Some input info
NGC6284_a_1.cxt                          [arq_obs]
Base.BC03.S                              [arq_base]
NGC6284_a_1.msk                          [arq_masks]
StCv04.C11.config                        [arq_config]
  150                                    [N_base]
    0                                    [N_YAV_components = # of components with extra extinction!]
    0                                    [i_FitPowerLaw (1/0 = Yes/No)]
-9.99                                    [alpha_PowerLaw]
CCM                                      [red_law_option]
 1.458241                                [q_norm = A(l_norm)/A(V)]

## (Re)Sampling Parameters
 3359.00                                 [l_ini (A)]
 6428.00                                 [l_fin (A)]
    1.00                                 [dl    (A)]     (OBS: dl_cushion =    50.00 A)

## Normalization info
 4020.00                                 [l_norm (A) - for base]
 4010.00                                 [llow_norm (A) - window for f_obs]
 4060.00                                 [lupp_norm (A) - window for f_obs]
9.247314E-15                             [fobs_norm (in input units)]

## S/N
 4730.00                                 [llow_SN (A) - window for S/N]
 4780.00                                 [lupp_SN (A) - window for S/N]
  76.302                                 [S/N in S/N window]
  62.584                                 [S/N in norm. window]
  42.607                                 [S/N_err in S/N window]
  34.947                                 [S/N_err in norm. window]
  1.0000                                 [fscale_chi2]

## etc...
  2147483621                             [idum_orig]
  3068                                   [NOl_eff]
  1584                                   [Nl_eff]
  1484    NSIGMA                         [Ntot_cliped & clip_method]
  1752450                                [Nglobal_steps]
   7                                     [N_chains]
  30                                     [NEX0s_base = N_base in EX0s-fits]
 0   0   1      208   2.0   7.609E+02    [Clip-Bug, RC-Crash & Burn-In warning-flags, n_censored_weights, wei_nsig_threshold & wei_limit]
    52     51.856     51.844      0.012  [idt_all, wdt_TotTime, wdt_UsrTime & wdt_SysTime (sec)]

## Synthesis Results - Best model ##

 1.20452E+00                             [chi2/Nl_eff]
     1.50156                             [adev (%)]

   100.02984                             [sum-of-x (%)]
 2.62180E-14                             [Flux_tot (units of input spectrum!)]
 7.57676E-10                             [Mini_tot (???)]
 3.74901E-10                             [Mcor_tot (???)]

  -6.42                                  [v0_min  (km/s)]
  52.85                                  [vd_min  (km/s)]
 0.7757                                  [AV_min  (mag)]
 0.0000                                  [YAV_min (mag)]

# j     x_j(%)      Mini_j(%)     Mcor_j(%)     age_j(yr)     Z_j      (L/M)_j    YAV?  Mstars   component_j        a/Fe...       SSP_chi2r SSP_adev(%)   SSP_AV   SSP_x(%)
  1      0.0000     0.0000E+00    0.0000E+00    1.000000E+06  0.00010  8.160E-03    0   1.0000   age020_m22            0.0000     7.1133E+02    13.2376   4.0000    74.8677
  2      5.8800     4.2742E-03    8.6381E-03    3.160000E+06  0.00010  4.759E-02    0   1.0000   age045_m22            0.0000     6.2524E+01     5.3416   2.4013    93.4567
  3      0.0000     0.0000E+00    0.0000E+00    5.010000E+06  0.00010  1.932E-02    0   0.9582   age055_m22            0.0000     3.8505E+02    13.6626   2.9083    80.0121
  4      0.0000     0.0000E+00    0.0000E+00    6.610000E+06  0.00010  9.973E-03    0   0.9297   age061_m22            0.0000     6.3126E+02    12.9159   4.0000    77.1416
  5      0.0000     0.0000E+00    0.0000E+00    8.710000E+06  0.00010  7.690E-03    0   0.9030   age067_m22            0.0000     5.9636E+02    12.4945   4.0000    77.6128
  6      0.0000     0.0000E+00    0.0000E+00    1.000000E+07  0.00010  6.375E-03    0   0.8902   age070_m22            0.0000     5.7726E+02    12.6766   4.0000    77.8429
  7      0.0000     0.0000E+00    0.0000E+00    1.445000E+07  0.00010  4.874E-03    0   0.8589   age078_m22            0.0000     3.6902E+02     8.0426   4.0000    80.7351
  8      0.0000     0.0000E+00    0.0000E+00    2.512000E+07  0.00010  4.103E-03    0   0.8174   age090_m22            0.0000     1.3022E+02     8.2600   3.8360    86.3972
  9      0.7301     6.9118E-03    1.0938E-02    4.000000E+07  0.00010  3.654E-03    0   0.7830   age104_m22            0.0000     1.0738E+02     4.8697   3.4450    90.8194
 10      0.6206     6.9404E-03    1.0656E-02    5.500000E+07  0.00010  3.093E-03    0   0.7597   age110_m22            0.0000     1.1764E+02     3.9204   3.2911    92.6497
 11     14.2713     2.0308E-01    2.9296E-01    1.015200E+08  0.00010  2.431E-03    0   0.7138   age116_m22            0.0000     1.7154E+02     4.4567   2.8758    95.6013
 12      0.0000     0.0000E+00    0.0000E+00    1.609000E+08  0.00010  1.319E-03    0   0.6775   age120_m22            0.0000     1.6589E+02     5.3514   2.3282    98.5248
 13      0.0000     0.0000E+00    0.0000E+00    2.861200E+08  0.00010  1.075E-03    0   0.6412   age125_m22            0.0000     4.8671E+02    12.0176   2.1286   103.7593
 14      0.0000     0.0000E+00    0.0000E+00    5.088000E+08  0.00010  7.183E-04    0   0.6083   age130_m22            0.0000     6.0604E+02    15.0264   1.7618   106.5808
 15      0.0000     0.0000E+00    0.0000E+00    9.047900E+08  0.00010  4.524E-04    0   0.5785   age135_m22            0.0000     6.1346E+02    15.8097   1.5256   108.0382
 16      0.0000     0.0000E+00    0.0000E+00    1.278050E+09  0.00010  3.018E-04    0   0.5588   age138_m22            0.0000     2.7157E+02    10.6434   1.1899   105.0786
 17      0.0000     0.0000E+00    0.0000E+00    1.434000E+09  0.00010  2.691E-04    0   0.5532   age139_m22            0.0000     2.1362E+02     9.6201   1.0674   104.3840
 18      0.0006     1.3868E-04    1.4843E-04    2.500000E+09  0.00010  1.582E-04    0   0.5296   age150_m22            0.0000     1.7923E+02     8.5046   1.0135   104.4260
 19      0.0000     0.0000E+00    0.0000E+00    4.250000E+09  0.00010  1.007E-04    0   0.5110   age158_m22            0.0000     8.3572E+01     5.7155   0.9527   102.3996
 20      0.0000     0.0000E+00    0.0000E+00    6.250000E+09  0.00010  6.869E-05    0   0.4985   age166_m22            0.0000     2.7613E+01     3.1353   0.9798    99.4566
 21      0.0000     0.0000E+00    0.0000E+00    7.500000E+09  0.00010  5.873E-05    0   0.4931   age171_m22            0.0000     2.2981E+01     2.7406   0.9929    98.7244
 22      0.0000     0.0000E+00    0.0000E+00    1.000000E+10  0.00010  4.481E-05    0   0.4854   age181_m22            0.0000     2.1254E+01     2.6471   0.9541    98.4497
 23      0.0000     7.8381E-06    7.5893E-06    1.300000E+10  0.00010  3.489E-05    0   0.4791   age193_m22            0.0000     1.7424E+01     2.4338   0.8988    98.0572
 24      0.0090     1.0302E-02    9.9233E-03    1.500000E+10  0.00010  3.035E-05    0   0.4766   age201_m22            0.0000     1.5103E+01     2.2775   0.8641    97.9179
 25     16.3515     2.2536E+01    2.1565E+01    1.800000E+10  0.00010  2.510E-05    0   0.4735   age213_m22            0.0000     1.1079E+01     2.0005   0.8079    97.3859
 26      0.0000     0.0000E+00    0.0000E+00    1.000000E+06  0.00040  8.458E-03    0   1.0000   age020_m32            0.0000     6.9819E+02    13.7730   4.0000    75.4131
 27      0.0000     0.0000E+00    0.0000E+00    3.160000E+06  0.00040  3.973E-02    0   1.0000   age045_m32            0.0000     1.4773E+02     9.0851   3.7634    86.2675
 28      0.0000     0.0000E+00    0.0000E+00    5.010000E+06  0.00040  1.935E-02    0   0.9532   age055_m32            0.0000     3.3084E+02    11.3393   4.0000    80.4055
 29      0.0000     0.0000E+00    0.0000E+00    6.610000E+06  0.00040  1.204E-02    0   0.9243   age061_m32            0.0000     4.7080E+02     9.3370   4.0000    79.0947
 30      0.0000     0.0000E+00    0.0000E+00    8.710000E+06  0.00040  9.433E-03    0   0.9001   age067_m32            0.0000     4.1321E+02     8.6744   4.0000    79.9941
 31      0.0000     0.0000E+00    0.0000E+00    1.000000E+07  0.00040  8.053E-03    0   0.8877   age070_m32            0.0000     3.8235E+02     8.3315   4.0000    80.4434
 32      0.0000     0.0000E+00    0.0000E+00    1.445000E+07  0.00040  7.027E-03    0   0.8578   age078_m32            0.0000     1.8126E+02    10.0991   3.7465    84.7433
 33      0.0000     0.0000E+00    0.0000E+00    2.512000E+07  0.00040  4.707E-03    0   0.8166   age090_m32            0.0000     1.0776E+02     7.3449   3.3806    88.6792
 34      0.0242     2.2565E-04    3.5695E-04    4.000000E+07  0.00040  3.714E-03    0   0.7827   age104_m32            0.0000     9.3103E+01     4.8871   3.0997    92.0252
 35      0.0000     0.0000E+00    0.0000E+00    5.500000E+07  0.00040  2.982E-03    0   0.7593   age110_m32            0.0000     1.0469E+02     4.1901   2.9955    93.3303
 36      0.0000     0.0000E+00    0.0000E+00    1.015200E+08  0.00040  2.188E-03    0   0.7143   age116_m32            0.0000     2.4556E+02     6.4723   2.5484    98.5575
 37      0.0000     1.6995E-07    2.3548E-07    1.609000E+08  0.00040  1.690E-03    0   0.6856   age120_m32            0.0000     3.8905E+02     9.4839   2.2268   101.8670
 38      0.0000     0.0000E+00    0.0000E+00    2.861200E+08  0.00040  1.152E-03    0   0.6509   age125_m32            0.0000     5.1829E+02    13.1812   1.8307   105.2687
 39      0.0000     0.0000E+00    0.0000E+00    5.088000E+08  0.00040  7.331E-04    0   0.6182   age130_m32            0.0000     5.6352E+02    14.7775   1.5868   106.7519
 40      0.0000     0.0000E+00    0.0000E+00    9.047900E+08  0.00040  3.960E-04    0   0.5890   age135_m32            0.0000     2.7498E+02    11.1755   1.2387   104.9977
 41      0.0000     0.0000E+00    0.0000E+00    1.278050E+09  0.00040  2.854E-04    0   0.5687   age138_m32            0.0000     2.1407E+02     9.4449   1.0405   105.7188
 42      0.0000     0.0000E+00    0.0000E+00    1.434000E+09  0.00040  2.531E-04    0   0.5632   age139_m32            0.0000     2.0708E+02     9.2971   0.9871   105.6137
 43      7.1033     1.6514E+00    1.7975E+00    2.500000E+09  0.00040  1.488E-04    0   0.5386   age150_m32            0.0000     1.2907E+02     7.6449   0.7769   103.8527
 44     23.8002     9.0654E+00    9.5252E+00    4.250000E+09  0.00040  9.082E-05    0   0.5199   age158_m32            0.0000     2.4623E+01     3.3910   0.8116   100.1870
 45      5.9263     3.2224E+00    3.3057E+00    6.250000E+09  0.00040  6.362E-05    0   0.5076   age166_m32            0.0000     1.1016E+01     2.0123   0.8833    96.4809
 46      0.0000     4.8683E-06    4.9460E-06    7.500000E+09  0.00040  5.289E-05    0   0.5027   age171_m32            0.0000     1.6736E+01     2.2147   0.8576    95.4004
 47      0.0000     0.0000E+00    0.0000E+00    1.000000E+10  0.00040  3.972E-05    0   0.4948   age181_m32            0.0000     2.3618E+01     2.3245   0.7933    94.3491
 48      0.0000     0.0000E+00    0.0000E+00    1.300000E+10  0.00040  3.283E-05    0   0.4870   age193_m32            0.0000     7.5696E+00     1.6275   0.6950    97.1677
 49      0.0000     0.0000E+00    0.0000E+00    1.500000E+10  0.00040  2.925E-05    0   0.4854   age201_m32            0.0000     8.4605E+00     2.0747   0.6439    98.8005
 50      0.0078     1.0878E-02    1.0595E-02    1.800000E+10  0.00040  2.469E-05    0   0.4819   age213_m32            0.0000     1.0754E+01     2.3850   0.5883    99.4154
 51      0.0000     0.0000E+00    0.0000E+00    1.000000E+06  0.00400  1.114E-02    0   1.0000   age020_m42            0.0000     6.4154E+02    11.5530   4.0000    75.9827
 52      0.0000     0.0000E+00    0.0000E+00    3.160000E+06  0.00400  4.073E-02    0   0.9999   age045_m42            0.0000     9.7627E+01     7.0219   3.4139    89.3819
 53      0.0000     0.0000E+00    0.0000E+00    5.010000E+06  0.00400  2.534E-02    0   0.9488   age055_m42            0.0000     2.3180E+02    11.1765   3.9210    82.8776
 54      0.0000     0.0000E+00    0.0000E+00    6.610000E+06  0.00400  2.583E-02    0   0.9220   age061_m42            0.0000     9.2567E+01     6.0455   3.2107    89.9019
 55      0.0000     0.0000E+00    0.0000E+00    8.710000E+06  0.00400  1.706E-02    0   0.8983   age067_m42            0.0000     1.2915E+02     8.3279   3.1116    87.6087
 56      0.0000     0.0000E+00    0.0000E+00    1.000000E+07  0.00400  1.271E-02    0   0.8862   age070_m42            0.0000     1.7910E+02     9.8371   3.1426    85.8409
 57      0.0000     0.0000E+00    0.0000E+00    1.445000E+07  0.00400  7.666E-03    0   0.8571   age078_m42            0.0000     2.5933E+02    11.5305   3.5661    83.1344
 58      0.0000     0.0000E+00    0.0000E+00    2.512000E+07  0.00400  5.070E-03    0   0.8174   age090_m42            0.0000     1.4962E+02     8.8655   2.9823    87.8399
 59      0.0000     0.0000E+00    0.0000E+00    4.000000E+07  0.00400  3.505E-03    0   0.7851   age104_m42            0.0000     9.1749E+01     6.3853   2.5986    91.4413
 60      0.0000     0.0000E+00    0.0000E+00    5.500000E+07  0.00400  3.059E-03    0   0.7629   age110_m42            0.0000     8.1601E+01     2.9182   2.4885    96.6354
 61      0.0000     0.0000E+00    0.0000E+00    1.015200E+08  0.00400  2.268E-03    0   0.7207   age116_m42            0.0000     3.2499E+02     8.3898   2.1537   103.0733
 62      0.0000     0.0000E+00    0.0000E+00    1.609000E+08  0.00400  1.720E-03    0   0.6930   age120_m42            0.0000     3.6009E+02     9.8020   1.9417   105.4517
 63      0.0000     0.0000E+00    0.0000E+00    2.861200E+08  0.00400  1.079E-03    0   0.6613   age125_m42            0.0000     3.7230E+02    11.3072   1.5196   106.5005
 64      1.0553     5.8307E-02    7.4391E-02    5.088000E+08  0.00400  6.261E-04    0   0.6313   age130_m42            0.0000     4.4606E+02    13.1535   1.2647   109.5920
 65      0.0000     0.0000E+00    0.0000E+00    9.047900E+08  0.00400  3.535E-04    0   0.6024   age135_m42            0.0000     2.3938E+02    10.2845   0.9550   109.5866
 66      0.0000     0.0000E+00    0.0000E+00    1.278050E+09  0.00400  2.677E-04    0   0.5837   age138_m42            0.0000     7.0235E+01     7.2785   0.3454   108.4896
 67      0.0000     0.0000E+00    0.0000E+00    1.434000E+09  0.00400  1.910E-04    0   0.5716   age139_m42            0.0000     8.9329E+01     7.6841   0.4923   108.8933
 68      0.0000     0.0000E+00    0.0000E+00    2.500000E+09  0.00400  9.818E-05    0   0.5463   age150_m42            0.0000     3.7062E+01     5.1736   0.3452   104.2240
 69      0.0000     0.0000E+00    0.0000E+00    4.250000E+09  0.00400  5.491E-05    0   0.5269   age158_m42            0.0000     6.6632E+01     4.4586   0.2834   101.4911
 70      0.0207     1.8522E-02    1.9282E-02    6.250000E+09  0.00400  3.857E-05    0   0.5151   age166_m42            0.0000     1.0496E+02     4.9870   0.1623   100.6064
 71      0.7019     7.4869E-01    7.7320E-01    7.500000E+09  0.00400  3.243E-05    0   0.5110   age171_m42            0.0000     1.3171E+02     5.4211   0.0790   100.3717
 72      0.0000     0.0000E+00    0.0000E+00    1.000000E+10  0.00400  2.424E-05    0   0.5028   age181_m42            0.0000     1.7687E+02     5.9523  -0.0055   100.1563
 73      0.0000     0.0000E+00    0.0000E+00    1.300000E+10  0.00400  1.883E-05    0   0.4927   age193_m42            0.0000     2.2141E+02     6.2914  -0.0442   100.1283
 74      0.0000     0.0000E+00    0.0000E+00    1.500000E+10  0.00400  1.685E-05    0   0.4919   age201_m42            0.0000     2.1009E+02     6.1585  -0.0364   100.0434
 75      0.0000     0.0000E+00    0.0000E+00    1.800000E+10  0.00400  1.452E-05    0   0.4874   age213_m42            0.0000     1.9038E+02     5.9176  -0.0132   100.1197
 76      0.0000     0.0000E+00    0.0000E+00    1.000000E+06  0.00800  1.286E-02    0   1.0000   age020_m52            0.0000     5.4757E+02    10.5984   4.0000    77.7572
 77      0.0000     0.0000E+00    0.0000E+00    3.160000E+06  0.00800  3.147E-02    0   0.9966   age045_m52            0.0000     4.7968E+02     8.9032   4.0000    79.0221
 78      0.0000     0.0000E+00    0.0000E+00    5.010000E+06  0.00800  2.664E-02    0   0.9443   age055_m52            0.0000     2.8313E+02    10.8756   4.0000    82.1613
 79      0.0000     0.0000E+00    0.0000E+00    6.610000E+06  0.00800  2.151E-02    0   0.9177   age061_m52            0.0000     1.5808E+02     9.0182   2.7014    88.5855
 80      0.0000     0.0000E+00    0.0000E+00    8.710000E+06  0.00800  1.628E-02    0   0.8948   age067_m52            0.0000     1.4083E+02     8.6042   3.0672    88.2745
 81      0.0000     0.0000E+00    0.0000E+00    1.000000E+07  0.00800  1.215E-02    0   0.8827   age070_m52            0.0000     1.7999E+02     9.6870   3.4309    86.3142
 82      0.0000     0.0000E+00    0.0000E+00    1.445000E+07  0.00800  8.739E-03    0   0.8552   age078_m52            0.0000     1.4951E+02     8.6336   3.4427    87.5390
 83      0.0000     0.0000E+00    0.0000E+00    2.512000E+07  0.00800  5.676E-03    0   0.8162   age090_m52            0.0000     1.1106E+02     5.6957   2.9704    91.9521
 84      0.0000     0.0000E+00    0.0000E+00    4.000000E+07  0.00800  3.939E-03    0   0.7841   age104_m52            0.0000     1.0876E+02     4.0030   2.7206    95.0394
 85      0.0000     0.0000E+00    0.0000E+00    5.500000E+07  0.00800  3.155E-03    0   0.7627   age110_m52            0.0000     1.3621E+02     3.7432   2.6119    97.3311
 86      0.0000     0.0000E+00    0.0000E+00    1.015200E+08  0.00800  2.206E-03    0   0.7226   age116_m52            0.0000     2.3694E+02     6.6866   2.2779   102.3517
 87      0.0000     0.0000E+00    0.0000E+00    1.609000E+08  0.00800  1.596E-03    0   0.6963   age120_m52            0.0000     2.9506E+02     8.6126   1.9787   104.7506
 88      0.0000     0.0000E+00    0.0000E+00    2.861200E+08  0.00800  1.002E-03    0   0.6665   age125_m52            0.0000     4.6952E+02    13.3862   1.4716   109.5466
 89      0.0000     0.0000E+00    0.0000E+00    5.088000E+08  0.00800  5.759E-04    0   0.6377   age130_m52            0.0000     4.9944E+02    15.6342   1.0027   114.9198
 90      0.0000     0.0000E+00    0.0000E+00    9.047900E+08  0.00800  2.972E-04    0   0.6086   age135_m52            0.0000     2.3498E+02    13.1309   0.5256   114.0978
 91      0.0000     0.0000E+00    0.0000E+00    1.278050E+09  0.00800  2.242E-04    0   0.5907   age138_m52            0.0000     9.6230E+01     8.7573   0.1088   112.5953
 92      0.0000     0.0000E+00    0.0000E+00    1.434000E+09  0.00800  1.645E-04    0   0.5787   age139_m52            0.0000     7.4859E+01     7.7271   0.2988   111.4275
 93      0.0000     0.0000E+00    0.0000E+00    2.500000E+09  0.00800  7.723E-05    0   0.5519   age150_m52            0.0000     1.0053E+02     7.2248   0.0000   108.1004
 94      0.0000     9.9737E-06    1.0723E-05    4.250000E+09  0.00800  4.151E-05    0   0.5320   age158_m52            0.0000     1.2366E+02     6.3631   0.0000   105.2867
 95      0.0644     7.3967E-02    7.7689E-02    6.250000E+09  0.00800  3.010E-05    0   0.5197   age166_m52            0.0000     2.0062E+02     7.0155  -0.1854   104.5696
 96      0.0000     0.0000E+00    0.0000E+00    7.500000E+09  0.00800  2.467E-05    0   0.5139   age171_m52            0.0000     2.2286E+02     7.2852  -0.2318   104.3915
 97      0.8611     1.5998E+00    1.6340E+00    1.000000E+10  0.00800  1.862E-05    0   0.5054   age181_m52            0.0000     2.9093E+02     8.2283  -0.3858   104.7118
 98      9.7512     2.3540E+01    2.3730E+01    1.300000E+10  0.00800  1.433E-05    0   0.4988   age193_m52            0.0000     3.8351E+02     9.0835  -0.4953   106.0843
 99      9.0516     2.5171E+01    2.5109E+01    1.500000E+10  0.00800  1.244E-05    0   0.4936   age201_m52            0.0000     4.2413E+02     9.3870  -0.5286   106.8197
100      3.2151     1.0394E+01    1.0268E+01    1.800000E+10  0.00800  1.070E-05    0   0.4888   age213_m52            0.0000     4.4984E+02     9.6799  -0.5716   106.8700
101      0.0000     0.0000E+00    0.0000E+00    1.000000E+06  0.02000  1.989E-02    0   1.0000   age020_m62            0.0000     6.2380E+02    10.4940   4.0000    76.7834
102      0.0000     0.0000E+00    0.0000E+00    3.160000E+06  0.02000  3.772E-02    0   0.9858   age045_m62            0.0000     4.9766E+02     8.6472   4.0000    78.7063
103      0.0000     0.0000E+00    0.0000E+00    5.010000E+06  0.02000  3.227E-02    0   0.9342   age055_m62            0.0000     1.5681E+02     9.2418   3.7287    85.6670
104      0.0000     0.0000E+00    0.0000E+00    6.610000E+06  0.02000  2.387E-02    0   0.9090   age061_m62            0.0000     2.2485E+02    11.1033   3.5432    84.4895
105      0.0000     0.0000E+00    0.0000E+00    8.710000E+06  0.02000  1.102E-02    0   0.8861   age067_m62            0.0000     5.5646E+02    16.0484   3.2958    79.0982
106      0.0000     0.0000E+00    0.0000E+00    1.000000E+07  0.02000  1.011E-02    0   0.8751   age070_m62            0.0000     4.0007E+02    13.7880   3.2633    82.0281
107      0.0000     0.0000E+00    0.0000E+00    1.445000E+07  0.02000  7.331E-03    0   0.8472   age078_m62            0.0000     2.9521E+02    12.0903   3.2319    84.0034
108      0.0000     0.0000E+00    0.0000E+00    2.512000E+07  0.02000  4.206E-03    0   0.8099   age090_m62            0.0000     3.0932E+02    11.9938   3.1404    83.5834
109      0.0000     0.0000E+00    0.0000E+00    4.000000E+07  0.02000  3.373E-03    0   0.7799   age104_m62            0.0000     8.9659E+01     5.2359   2.7480    92.9478
110      0.0000     0.0000E+00    0.0000E+00    5.500000E+07  0.02000  2.747E-03    0   0.7595   age110_m62            0.0000     1.0969E+02     3.7246   2.5639    96.9250
111      0.0000     0.0000E+00    0.0000E+00    1.015200E+08  0.02000  1.878E-03    0   0.7221   age116_m62            0.0000     2.8400E+02     7.5606   2.2313   102.8690
112      0.0000     0.0000E+00    0.0000E+00    1.609000E+08  0.02000  1.378E-03    0   0.6978   age120_m62            0.0000     4.3213E+02    11.0648   1.9349   106.5571
113      0.0000     0.0000E+00    0.0000E+00    2.861200E+08  0.02000  8.869E-04    0   0.6700   age125_m62            0.0000     6.9431E+02    16.3925   1.3347   112.8517
114      0.0000     0.0000E+00    0.0000E+00    5.088000E+08  0.02000  4.834E-04    0   0.6430   age130_m62            0.0000     5.6276E+02    17.4389   0.7943   116.8243
115      0.0000     0.0000E+00    0.0000E+00    9.047900E+08  0.02000  2.312E-04    0   0.6152   age135_m62            0.0000     1.9916E+02    12.2040   0.3777   115.5864
116      0.0000     0.0000E+00    0.0000E+00    1.278050E+09  0.02000  1.387E-04    0   0.5927   age138_m62            0.0000     6.9588E+01     8.0145   0.1695   110.9615
117      0.0000     0.0000E+00    0.0000E+00    1.434000E+09  0.02000  1.168E-04    0   0.5865   age139_m62            0.0000     6.5161E+01     7.4029   0.1749   109.3604
118      0.0000     0.0000E+00    0.0000E+00    2.500000E+09  0.02000  5.505E-05    0   0.5610   age150_m62            0.0000     1.4050E+02     7.6553  -0.1563   107.3831
119      0.0000     0.0000E+00    0.0000E+00    4.250000E+09  0.02000  3.070E-05    0   0.5407   age158_m62            0.0000     2.8932E+02     9.6396  -0.5023   108.8875
120      0.0000     0.0000E+00    0.0000E+00    6.250000E+09  0.02000  2.104E-05    0   0.5277   age166_m62            0.0000     3.9525E+02    10.5532  -0.6568   110.1191
121      0.0000     0.0000E+00    0.0000E+00    7.500000E+09  0.02000  1.770E-05    0   0.5223   age171_m62            0.0000     4.4550E+02    11.1630  -0.7666   111.0033
122      0.0000     0.0000E+00    0.0000E+00    1.000000E+10  0.02000  1.297E-05    0   0.5121   age181_m62            0.0000     5.6400E+02    12.3428  -0.9656   112.5213
123      0.0000     0.0000E+00    0.0000E+00    1.300000E+10  0.02000  9.691E-06    0   0.5047   age193_m62            0.0000     6.5486E+02    12.3935  -1.0000   113.3379
124      0.0000     0.0000E+00    0.0000E+00    1.500000E+10  0.02000  8.360E-06    0   0.4999   age201_m62            0.0000     7.3292E+02    12.4159  -1.0000   113.8379
125      0.0000     0.0000E+00    0.0000E+00    1.800000E+10  0.02000  6.911E-06    0   0.4946   age213_m62            0.0000     8.3209E+02    12.9088  -1.0000   114.4299
126      0.0000     0.0000E+00    0.0000E+00    1.000000E+06  0.05000  2.651E-02    0   0.9998   age020_m72            0.0000     5.9377E+02    10.0850   4.0000    77.7839
127      0.0000     0.0000E+00    0.0000E+00    3.160000E+06  0.05000  4.817E-02    0   0.9577   age045_m72            0.0000     3.2485E+02     8.9316   4.0000    81.9063
128      0.0000     0.0000E+00    0.0000E+00    5.010000E+06  0.05000  3.101E-02    0   0.9147   age055_m72            0.0000     2.6737E+02    12.1191   3.8145    83.9266
129      0.0000     0.0000E+00    0.0000E+00    6.610000E+06  0.05000  1.472E-02    0   0.8877   age061_m72            0.0000     4.8123E+02    15.2250   3.4582    81.1313
130      0.0000     0.0000E+00    0.0000E+00    8.710000E+06  0.05000  1.050E-02    0   0.8638   age067_m72            0.0000     3.7193E+02    13.4340   3.7931    82.4597
131      0.0000     0.0000E+00    0.0000E+00    1.000000E+07  0.05000  8.954E-03    0   0.8524   age070_m72            0.0000     3.0449E+02    11.6266   4.0000    83.3243
132      0.0000     0.0000E+00    0.0000E+00    1.445000E+07  0.05000  6.392E-03    0   0.8262   age078_m72            0.0000     2.5965E+02    11.1212   3.9416    84.5185
133      0.0000     0.0000E+00    0.0000E+00    2.512000E+07  0.05000  4.207E-03    0   0.7902   age090_m72            0.0000     1.3660E+02     7.6567   3.4774    89.1743
134      0.0000     0.0000E+00    0.0000E+00    4.000000E+07  0.05000  3.198E-03    0   0.7618   age104_m72            0.0000     1.5091E+02     4.2616   2.7178    98.2541
135      0.0000     0.0000E+00    0.0000E+00    5.500000E+07  0.05000  2.593E-03    0   0.7432   age110_m72            0.0000     2.1421E+02     5.9120   2.5647   100.2731
136      0.0000     0.0000E+00    0.0000E+00    1.015200E+08  0.05000  1.716E-03    0   0.7092   age116_m72            0.0000     3.5240E+02     8.9130   2.2624   103.4849
137      0.0000     0.0000E+00    0.0000E+00    1.609000E+08  0.05000  1.218E-03    0   0.6876   age120_m72            0.0000     5.1663E+02    12.2733   1.8499   107.6081
138      0.0000     0.0000E+00    0.0000E+00    2.861200E+08  0.05000  7.047E-04    0   0.6618   age125_m72            0.0000     6.4674E+02    16.4199   1.0948   114.0292
139      0.0000     0.0000E+00    0.0000E+00    5.088000E+08  0.05000  3.590E-04    0   0.6356   age130_m72            0.0000     4.4016E+02    16.5187   0.4626   118.0915
140      0.0000     0.0000E+00    0.0000E+00    9.047900E+08  0.05000  1.484E-04    0   0.6088   age135_m72            0.0000     1.1094E+02    10.3364  -0.0325   111.6858
141      0.0000     0.0000E+00    0.0000E+00    1.278050E+09  0.05000  9.435E-05    0   0.5924   age138_m72            0.0000     1.6966E+02    10.2837  -0.3891   109.8990
142      0.0000     0.0000E+00    0.0000E+00    1.434000E+09  0.05000  7.827E-05    0   0.5847   age139_m72            0.0000     1.8391E+02     9.7537  -0.3425   109.0614
143      0.0000     0.0000E+00    0.0000E+00    2.500000E+09  0.05000  3.759E-05    0   0.5583   age150_m72            0.0000     3.6287E+02    10.6286  -0.6556   109.3844
144      0.1037     1.9483E-01    2.1160E-01    4.250000E+09  0.05000  1.842E-05    0   0.5374   age158_m72            0.0000     5.1434E+02    11.9136  -1.0000   110.2245
145      0.2983     8.5493E-01    9.0572E-01    6.250000E+09  0.05000  1.207E-05    0   0.5242   age166_m72            0.0000     6.8108E+02    12.5690  -1.0000   110.3359
146      0.1816     6.2855E-01    6.5840E-01    7.500000E+09  0.05000  9.993E-06    0   0.5183   age171_m72            0.0000     7.0644E+02    13.2003  -1.0000   110.2632
147      0.0000     4.7667E-05    4.8948E-05    1.000000E+10  0.05000  7.291E-06    0   0.5081   age181_m72            0.0000     8.5062E+02    16.1886  -1.0000   110.3236
148      0.0000     0.0000E+00    0.0000E+00    1.300000E+10  0.05000  5.316E-06    0   0.5018   age193_m72            0.0000     1.1297E+03    22.1684  -1.0000   110.0571
149      0.0000     0.0000E+00    0.0000E+00    1.500000E+10  0.05000  4.497E-06    0   0.4972   age201_m72            0.0000     1.2834E+03    24.8450  -1.0000   110.1933
150      0.0000     7.4763E-05    7.4400E-05    1.800000E+10  0.05000  3.739E-06    0   0.4924   age213_m72            0.0000     1.5151E+03    28.7003  -1.0000   109.9232


## Synthesis Results - Average & Chains ##

# j      x_j: min, <> & last-chain-values for 1 ...  7 chains
  1      0.0000      0.0069      0.0000      0.0245      0.0000      0.0278      0.0000      0.0067      0.0000
  2      5.8800      3.7582      4.0560      3.8462      3.9032      4.0610      3.8980      4.0345      3.8327
  3      0.0000      0.0071      0.0000      0.0047      0.0000      0.0000      0.0000      0.0000      0.0000
  4      0.0000      0.0024      0.0000      0.0163      0.0000      0.0000      0.0000      0.0000      0.0000
  5      0.0000      0.0030      0.0000      0.0000      0.0000      0.0000      0.0000      0.0000      0.0000
  6      0.0000      0.0022      0.0000      0.0000      0.0000      0.0000      0.0000      0.0000      0.0000
  7      0.0000      0.0070      0.0000      0.0000      0.0000      0.0000      0.0144      0.0000      0.0000
  8      0.0000      0.0165      0.0000      0.0000      0.0903      0.0000      0.0000      0.0000      0.0000
  9      0.7301      0.4517      0.5328      0.4620      0.4475      0.4006      0.5186      1.2118      0.8628
 10      0.6206      0.3283      0.3674      0.3789      0.3854      0.7061      0.4480      0.3388      0.3820
 11     14.2713     13.0032     13.8666     13.4852     13.1905     12.9909     13.7859     12.7193     12.9450
 12      0.0000      0.0238      0.0618      0.1289      0.0471      0.2643      0.0000      0.0000      0.0000
 13      0.0000      0.0101      0.0000      0.0033      0.0000      0.0000      0.0000      0.0000      0.1047
 14      0.0000      0.0098      0.0000      0.0000      0.0000      0.0000      0.0000      0.0000      0.0000
 15      0.0000      0.0050      0.0000      0.0000      0.0301      0.0243      0.0000      0.0000      0.0048
 16      0.0000      0.0119      0.0000      0.0000      0.0089      0.0000      0.0000      0.0000      0.0000
 17      0.0000      0.0207      0.0175      0.0000      0.0300      0.0000      0.0000      0.0000      0.0000
 18      0.0006      0.0444      0.0434      0.2604      0.0000      0.0000      0.0000      0.1200      0.0000
 19      0.0000      0.0675      0.0000      0.0000      0.0351      0.0352      0.0000      0.0000      0.0635
 20      0.0000      0.1308      0.2492      0.1071      0.0000      0.3122      0.0000      0.0000      0.1783
 21      0.0000      0.3669      0.6245      0.0000      0.0000      0.8754      0.0000      0.6845      0.4090
 22      0.0000      0.3100      0.0272      0.0000      0.0000      0.0000      0.2419      0.1352      0.2863
 23      0.0000      0.1721      0.0870      0.4717      0.0000      0.1589      0.0000      0.0913      0.2377
 24      0.0090      0.2152      0.0259      0.5387      0.1204      0.3294      0.0000      0.2109      0.1509
 25     16.3515     20.7365     21.0909     20.1298     21.8760     19.9289     20.6795     21.0067     20.0466
 26      0.0000      0.0032      0.0000      0.0000      0.0000      0.0000      0.0000      0.0000      0.0000
 27      0.0000      0.0247      0.0000      0.0000      0.0203      0.0000      0.0000      0.1742      0.0000
 28      0.0000      0.0092      0.0000      0.0360      0.0000      0.0000      0.0000      0.0003      0.0000
 29      0.0000      0.0048      0.0000      0.0000      0.0357      0.0000      0.0000      0.0000      0.0000
 30      0.0000      0.0044      0.0000      0.0000      0.0000      0.0471      0.0000      0.0000      0.0000
 31      0.0000      0.0098      0.0644      0.0000      0.0000      0.0000      0.0000      0.1185      0.0844
 32      0.0000      0.0115      0.0000      0.0831      0.0000      0.0000      0.0087      0.0000      0.0000
 33      0.0000      0.0126      0.0000      0.0000      0.0254      0.0000      0.0000      0.0000      0.0000
 34      0.0242      0.2248      0.3642      0.2584      0.5602      0.3209      0.1961      0.0000      0.3315
 35      0.0000      0.2298      0.0649      0.2035      0.2654      0.2127      0.0678      0.0000      0.3080
 36      0.0000      0.1199      0.0917      0.1057      0.0000      0.0000      0.0000      0.2547      0.6298
 37      0.0000      0.0534      0.0000      0.3664      0.0000      0.0000      0.0000      0.0874      0.0000
 38      0.0000      0.0128      0.0000      0.0000      0.0000      0.0036      0.0000      0.0000      0.0000
 39      0.0000      0.0054      0.0000      0.0000      0.0000      0.0000      0.0000      0.0000      0.0000
 40      0.0000      0.0073      0.0818      0.0017      0.0000      0.0347      0.0000      0.0117      0.0000
 41      0.0000      0.0338      0.1047      0.0000      0.0000      0.0000      0.0000      0.0266      0.0000
 42      0.0000      0.0468      0.0000      0.0196      0.0000      0.0000      0.0000      0.0000      0.0000
 43      7.1033      8.3070      6.5109      7.5224      7.8432      8.2518      8.6647      7.9388      8.4069
 44     23.8002     22.4823     23.6511     22.1761     22.7179     23.1144     22.6212     21.5162     22.7518
 45      5.9263      1.2032      1.7896      2.2825      1.3217      1.2795      1.2023      2.1572      1.5183
 46      0.0000      0.4983      0.3735      0.7611      0.2876      1.2618      0.3210      0.2312      0.0115
 47      0.0000      0.1057      0.0000      0.0000      0.0000      0.0000      0.0000      0.0000      0.4405
 48      0.0000      0.2276      0.0734      0.0000      0.1755      0.1132      0.2255      0.0000      0.0000
 49      0.0000      0.4371      0.0000      0.0425      0.0000      0.0000      0.0000      0.0000      0.1250
 50      0.0078      0.4965      0.0000      0.5261      0.2032      0.2917      0.4537      0.8323      0.1204
 51      0.0000      0.0044      0.0000      0.0000      0.0000      0.0000      0.0000      0.0000      0.0248
 52      0.0000      0.1738      0.0000      0.1676      0.4005      0.2140      0.0408      0.2074      0.2394
 53      0.0000      0.0156      0.0000      0.0013      0.0000      0.0000      0.0000      0.0000      0.0931
 54      0.0000      0.2227      0.1830      0.2912      0.1612      0.1674      0.5568      0.1424      0.1390
 55      0.0000      0.1214      0.0000      0.0712      0.0000      0.1188      0.1874      0.0000      0.2194
 56      0.0000      0.0347      0.0000      0.0000      0.0000      0.0000      0.0000      0.0000      0.0000
 57      0.0000      0.0064      0.0000      0.0000      0.0000      0.0000      0.0000      0.0000      0.0000
 58      0.0000      0.0166      0.0000      0.0000      0.0000      0.0000      0.2045      0.0000      0.0000
 59      0.0000      0.0071      0.0000      0.0000      0.0000      0.0000      0.0000      0.0000      0.0000
 60      0.0000      0.0193      0.0000      0.0000      0.0000      0.0000      0.1259      0.0109      0.0000
 61      0.0000      0.0267      0.0000      0.0000      0.0000      0.0408      0.0000      0.0000      0.0000
 62      0.0000      0.0257      0.0000      0.0000      0.0000      0.0000      0.0000      0.0000      0.0000
 63      0.0000      0.0104      0.0056      0.0000      0.0000      0.0000      0.0000      0.0726      0.0000
 64      1.0553      0.0257      0.0000      0.2447      0.0000      0.1591      0.0000      0.0000      0.0000
 65      0.0000      0.0716      0.4151      0.0000      0.2805      0.0000      0.0528      0.4142      0.0000
 66      0.0000      0.1054      0.5203      0.0748      0.4535      0.0883      0.0000      0.2972      0.3440
 67      0.0000      0.0426      0.0000      0.0000      0.2607      0.0000      0.0000      0.0094      0.0084
 68      0.0000      0.0638      0.0000      0.0000      0.0000      0.0462      0.0000      0.0000      0.2478
 69      0.0000      0.0759      0.0000      0.0431      0.1115      0.0000      0.2820      0.3295      0.0000
 70      0.0207      0.1279      0.0000      0.5604      0.0000      0.0000      0.2450      0.2521      0.1144
 71      0.7019      1.5405      1.9769      1.5119      1.9932      1.2779      1.9044      1.3791      1.1558
 72      0.0000      0.1180      0.1549      0.0000      0.0179      0.0000      0.0715      0.0000      0.0085
 73      0.0000      0.0670      0.0000      0.1991      0.0000      0.0000      0.0000      0.1965      0.4702
 74      0.0000      0.0679      0.0000      0.0000      0.0000      0.0000      0.0339      0.0514      0.2138
 75      0.0000      0.0845      0.0611      0.0000      0.3517      0.2551      0.0549      0.0000      0.0000
 76      0.0000      0.0053      0.0000      0.0000      0.0000      0.0000      0.0000      0.0000      0.0000
 77      0.0000      0.0055      0.0000      0.0000      0.0000      0.0000      0.0000      0.0000      0.0000
 78      0.0000      0.0063      0.0000      0.0000      0.0000      0.0031      0.0000      0.0000      0.0000
 79      0.0000      0.0120      0.0000      0.0000      0.0000      0.0000      0.0000      0.0000      0.0214
 80      0.0000      0.0257      0.0723      0.0000      0.0211      0.0409      0.0000      0.0000      0.0000
 81      0.0000      0.0081      0.0000      0.0000      0.0766      0.0000      0.0000      0.0000      0.0000
 82      0.0000      0.0134      0.0000      0.0000      0.0000      0.0000      0.0000      0.0000      0.0000
 83      0.0000      0.0455      0.0000      0.0000      0.0000      0.0000      0.0000      0.0189      0.0000
 84      0.0000      0.0274      0.0441      0.0000      0.0895      0.0000      0.0000      0.0000      0.0428
 85      0.0000      0.0206      0.0000      0.0000      0.2238      0.0000      0.0354      0.0000      0.0000
 86      0.0000      0.0318      0.0000      0.0000      0.0000      0.0000      0.0078      0.0000      0.0000
 87      0.0000      0.0230      0.0000      0.0112      0.0000      0.0000      0.0280      0.0000      0.0532
 88      0.0000      0.0092      0.0000      0.0017      0.0000      0.0000      0.0000      0.0044      0.0000
 89      0.0000      0.0102      0.0000      0.0000      0.0000      0.0122      0.0910      0.0657      0.0119
 90      0.0000      0.0066      0.0000      0.0102      0.0000      0.0000      0.0000      0.0000      0.0000
 91      0.0000      0.0294      0.0117      0.0996      0.0000      0.0000      0.0000      0.0000      0.0000
 92      0.0000      0.0205      0.2922      0.0000      0.0000      0.0000      0.1098      0.0060      0.0000
 93      0.0000      0.0419      0.0000      0.0000      0.0000      0.3333      0.0000      0.0000      0.0000
 94      0.0000      0.1112      0.0000      0.2541      0.0000      0.0000      0.2258      0.4258      0.0000
 95      0.0644      0.1189      0.0000      0.5378      0.5356      0.0000      0.1937      0.1899      0.3365
 96      0.0000      0.1157      0.4040      0.0000      0.0300      0.0000      0.0000      0.3038      0.0000
 97      0.8611      1.6786      1.8692      1.8637      1.7823      1.7339      1.4873      1.7626      1.8192
 98      9.7512      7.8605      8.0170      8.0708      7.8956      7.8798      8.3677      7.8893      7.5723
 99      9.0516      6.7923      6.8544      6.8351      6.8213      6.8159      6.8687      6.7894      7.7275
100      3.2151      1.6526      1.4842      1.8699      1.7853      2.2727      2.0135      1.7603      1.5734
101      0.0000      0.0045      0.0000      0.0000      0.0000      0.0000      0.0045      0.0000      0.0000
102      0.0000      0.0023      0.0000      0.0000      0.0000      0.0000      0.0000      0.0000      0.0000
103      0.0000      0.0195      0.0909      0.0000      0.0000      0.0124      0.0000      0.0000      0.0000
104      0.0000      0.0173      0.0396      0.0000      0.0000      0.0000      0.0000      0.0885      0.0000
105      0.0000      0.0081      0.0000      0.0000      0.0000      0.0000      0.0000      0.0000      0.0000
106      0.0000      0.0097      0.0000      0.0000      0.0000      0.0000      0.0000      0.0277      0.0000
107      0.0000      0.0064      0.0000      0.0084      0.0000      0.0357      0.0000      0.0000      0.0051
108      0.0000      0.0028      0.0000      0.0000      0.0000      0.0000      0.0000      0.0000      0.0000
109      0.0000      0.0055      0.0000      0.0000      0.0000      0.0000      0.0000      0.0000      0.0680
110      0.0000      0.0082      0.0000      0.0000      0.0000      0.0000      0.0000      0.0000      0.0000
111      0.0000      0.0129      0.0000      0.0000      0.0000      0.0000      0.0000      0.0327      0.0000
112      0.0000      0.0103      0.0000      0.0000      0.0000      0.0000      0.2026      0.0000      0.0000
113      0.0000      0.0072      0.0287      0.0000      0.0000      0.0000      0.0000      0.0000      0.0360
114      0.0000      0.0040      0.0000      0.0000      0.0000      0.0000      0.0000      0.0000      0.0000
115      0.0000      0.0102      0.0000      0.0000      0.0000      0.0000      0.0000      0.0000      0.0000
116      0.0000      0.0160      0.0000      0.0000      0.0000      0.1562      0.0000      0.0000      0.0000
117      0.0000      0.0129      0.0000      0.0000      0.0000      0.0000      0.0000      0.0000      0.0000
118      0.0000      0.0201      0.0000      0.0000      0.0000      0.0356      0.0000      0.0000      0.0000
119      0.0000      0.0299      0.0292      0.0010      0.0000      0.0000      0.0000      0.0000      0.0000
120      0.0000      0.0316      0.0199      0.0000      0.0000      0.0000      0.2048      0.2669      0.0000
121      0.0000      0.0435      0.0000      0.0000      0.0000      0.0000      0.1104      0.0264      0.1664
122      0.0000      0.0231      0.0000      0.0000      0.0000      0.0582      0.0000      0.0000      0.0000
123      0.0000      0.0316      0.0000      0.1628      0.0000      0.0000      0.0000      0.0000      0.0000
124      0.0000      0.0314      0.0000      0.0000      0.0000      0.0000      0.0000      0.0000      0.0584
125      0.0000      0.0567      0.3666      0.0000      0.0000      0.2338      0.1029      0.0000      0.0949
126      0.0000      0.0022      0.0000      0.0000      0.0000      0.0000      0.0000      0.0009      0.0000
127      0.0000      0.0039      0.0000      0.0000      0.0000      0.0000      0.0502      0.0442      0.0000
128      0.0000      0.0093      0.0000      0.0000      0.0000      0.0000      0.0000      0.0000      0.0000
129      0.0000      0.0063      0.0000      0.0000      0.0000      0.0000      0.0000      0.0000      0.0000
130      0.0000      0.0034      0.0000      0.0000      0.0000      0.0000      0.0000      0.0000      0.0000
131      0.0000      0.0018      0.0000      0.0000      0.0000      0.0000      0.0524      0.0000      0.0000
132      0.0000      0.0017      0.0342      0.0000      0.0000      0.0000      0.0000      0.0000      0.0000
133      0.0000      0.0051      0.0000      0.0000      0.0000      0.0000      0.0000      0.0000      0.0000
134      0.0000      0.0086      0.0000      0.0000      0.0000      0.0000      0.0000      0.0000      0.0000
135      0.0000      0.0104      0.0000      0.0000      0.0000      0.0000      0.0000      0.0000      0.0000
136      0.0000      0.0170      0.0000      0.0000      0.0000      0.0000      0.0000      0.0000      0.0000
137      0.0000      0.0136      0.0041      0.0000      0.0000      0.0000      0.0000      0.1451      0.0000
138      0.0000      0.0042      0.0000      0.0000      0.0000      0.0000      0.0000      0.0000      0.0000
139      0.0000      0.0132      0.0000      0.0000      0.0409      0.0000      0.0000      0.0000      0.0000
140      0.0000      0.0104      0.0000      0.0000      0.0000      0.0000      0.0000      0.0000      0.0000
141      0.0000      0.0114      0.0000      0.0000      0.1721      0.0000      0.0000      0.0000      0.0000
142      0.0000      0.0173      0.0000      0.0000      0.0000      0.0000      0.0000      0.0000      0.0000
143      0.0000      0.0467      0.1021      0.0000      0.0000      0.0000      0.1903      0.2666      0.0000
144      0.1037      0.1753      0.0000      0.4519      0.3216      0.3596      0.2286      0.2886      0.3770
145      0.2983      0.4516      0.5633      0.6469      0.3006      0.1247      0.3710      0.1195      0.5776
146      0.1816      0.6070      0.2969      0.6430      0.6276      0.3981      0.5605      0.5132      0.6273
147      0.0000      0.5834      0.5313      0.6549      0.3539      0.7193      0.5420      0.4994      0.5121
148      0.0000      0.6293      0.4168      0.2291      0.5378      0.5818      0.0038      0.5950      0.0000
149      0.0000      0.6372      1.0355      0.0000      0.5007      0.6208      0.5351      0.2424      0.4545
150      0.0000      0.4704      0.0000      0.3370      0.3511      0.3415      0.4448      0.4585      0.4622

# j      m_j: min, <> & last-chain-values for 1 ...  7 chains
  1  0.0000E+00  5.2794E-05  0.0000E+00  1.9721E-04  0.0000E+00  2.1380E-04  0.0000E+00  5.3048E-05  0.0000E+00
  2  8.6381E-03  4.8975E-03  5.4404E-03  5.3008E-03  5.2475E-03  5.3601E-03  5.2754E-03  5.4551E-03  5.2027E-03
  3  0.0000E+00  2.1829E-05  0.0000E+00  1.5397E-05  0.0000E+00  0.0000E+00  0.0000E+00  0.0000E+00  0.0000E+00
  4  0.0000E+00  1.3764E-05  0.0000E+00  9.9517E-05  0.0000E+00  0.0000E+00  0.0000E+00  0.0000E+00  0.0000E+00
  5  0.0000E+00  2.1975E-05  0.0000E+00  0.0000E+00  0.0000E+00  0.0000E+00  0.0000E+00  0.0000E+00  0.0000E+00
  6  0.0000E+00  1.8640E-05  0.0000E+00  0.0000E+00  0.0000E+00  0.0000E+00  0.0000E+00  0.0000E+00  0.0000E+00
  7  0.0000E+00  7.6234E-05  0.0000E+00  0.0000E+00  0.0000E+00  0.0000E+00  1.6301E-04  0.0000E+00  0.0000E+00
  8  0.0000E+00  2.0401E-04  0.0000E+00  0.0000E+00  1.1508E-03  0.0000E+00  0.0000E+00  0.0000E+00  0.0000E+00
  9  1.0938E-02  6.0033E-03  7.2876E-03  6.4939E-03  6.1349E-03  5.3923E-03  7.1573E-03  1.6710E-02  1.1944E-02
 10  1.0656E-02  5.0015E-03  5.7603E-03  6.1039E-03  6.0569E-03  1.0894E-02  7.0873E-03  5.3545E-03  6.0606E-03
 11  2.9296E-01  2.3678E-01  2.5991E-01  2.5970E-01  2.4780E-01  2.3960E-01  2.6071E-01  2.4032E-01  2.4555E-01
 12  0.0000E+00  7.5941E-04  2.0277E-03  4.3434E-03  1.5494E-03  8.5279E-03  0.0000E+00  0.0000E+00  0.0000E+00
 13  0.0000E+00  3.7486E-04  0.0000E+00  1.2892E-04  0.0000E+00  0.0000E+00  0.0000E+00  0.0000E+00  4.0357E-03
 14  0.0000E+00  5.1270E-04  0.0000E+00  0.0000E+00  0.0000E+00  0.0000E+00  0.0000E+00  0.0000E+00  0.0000E+00
 15  0.0000E+00  3.9927E-04  0.0000E+00  0.0000E+00  2.4614E-03  1.9491E-03  0.0000E+00  0.0000E+00  3.9679E-04
 16  0.0000E+00  1.3641E-03  0.0000E+00  0.0000E+00  1.0521E-03  0.0000E+00  0.0000E+00  0.0000E+00  0.0000E+00
 17  0.0000E+00  2.6355E-03  2.2974E-03  0.0000E+00  3.9470E-03  0.0000E+00  0.0000E+00  0.0000E+00  0.0000E+00
 18  1.4843E-04  9.2268E-03  9.2679E-03  5.7175E-02  0.0000E+00  0.0000E+00  0.0000E+00  2.5852E-02  0.0000E+00
 19  0.0000E+00  2.1227E-02  0.0000E+00  0.0000E+00  1.1400E-02  1.1231E-02  0.0000E+00  0.0000E+00  2.0810E-02
 20  0.0000E+00  5.8873E-02  1.1544E-01  5.0957E-02  0.0000E+00  1.4234E-01  0.0000E+00  0.0000E+00  8.3607E-02
 21  0.0000E+00  1.9103E-01  3.3472E-01  0.0000E+00  0.0000E+00  4.6171E-01  0.0000E+00  3.6981E-01  2.2185E-01
 22  0.0000E+00  2.0823E-01  1.8802E-02  0.0000E+00  0.0000E+00  0.0000E+00  1.6879E-01  9.4250E-02  2.0038E-01
 23  7.5893E-06  1.4659E-01  7.6300E-02  4.2481E-01  0.0000E+00  1.3706E-01  0.0000E+00  8.0699E-02  2.1085E-01
 24  9.9233E-03  2.0957E-01  2.5960E-02  5.5488E-01  1.2097E-01  3.2488E-01  0.0000E+00  2.1310E-01  1.5313E-01
 25  2.1565E+01  2.4260E+01  2.5398E+01  2.4906E+01  2.6404E+01  2.3615E+01  2.5125E+01  2.5500E+01  2.4430E+01
 26  0.0000E+00  2.3476E-05  0.0000E+00  0.0000E+00  0.0000E+00  0.0000E+00  0.0000E+00  0.0000E+00  0.0000E+00
 27  0.0000E+00  3.8631E-05  0.0000E+00  0.0000E+00  3.2629E-05  0.0000E+00  0.0000E+00  2.8215E-04  0.0000E+00
 28  0.0000E+00  2.8184E-05  0.0000E+00  1.1646E-04  0.0000E+00  0.0000E+00  0.0000E+00  8.7252E-07  0.0000E+00
 29  0.0000E+00  2.2742E-05  0.0000E+00  0.0000E+00  1.7538E-04  0.0000E+00  0.0000E+00  0.0000E+00  0.0000E+00
 30  0.0000E+00  2.5971E-05  0.0000E+00  0.0000E+00  0.0000E+00  2.8253E-04  0.0000E+00  0.0000E+00  0.0000E+00
 31  0.0000E+00  6.6767E-05  4.5289E-04  0.0000E+00  0.0000E+00  0.0000E+00  0.0000E+00  8.4069E-04  6.0107E-04
 32  0.0000E+00  8.7243E-05  0.0000E+00  6.6572E-04  0.0000E+00  0.0000E+00  6.8089E-05  0.0000E+00  0.0000E+00
 33  0.0000E+00  1.3561E-04  0.0000E+00  0.0000E+00  2.8145E-04  0.0000E+00  0.0000E+00  0.0000E+00  0.0000E+00
 34  3.5695E-04  2.9377E-03  4.8993E-03  3.5711E-03  7.5539E-03  4.2484E-03  2.6614E-03  0.0000E+00  4.5131E-03
 35  0.0000E+00  3.6293E-03  1.0556E-03  3.3978E-03  4.3233E-03  3.4026E-03  1.1111E-03  0.0000E+00  5.0664E-03
 36  0.0000E+00  2.4276E-03  1.9109E-03  2.2623E-03  0.0000E+00  0.0000E+00  0.0000E+00  5.3509E-03  1.3281E-02
 37  2.3548E-07  1.3432E-03  0.0000E+00  9.7486E-03  0.0000E+00  0.0000E+00  0.0000E+00  2.2825E-03  0.0000E+00
 38  0.0000E+00  4.4836E-04  0.0000E+00  0.0000E+00  0.0000E+00  1.2900E-04  0.0000E+00  0.0000E+00  0.0000E+00
 39  0.0000E+00  2.8119E-04  0.0000E+00  0.0000E+00  0.0000E+00  0.0000E+00  0.0000E+00  0.0000E+00  0.0000E+00
 40  0.0000E+00  6.7519E-04  7.7690E-03  1.6633E-04  0.0000E+00  3.2389E-03  0.0000E+00  1.1216E-03  0.0000E+00
 41  0.0000E+00  4.1804E-03  1.3320E-02  0.0000E+00  0.0000E+00  0.0000E+00  0.0000E+00  3.4058E-03  0.0000E+00
 42  0.0000E+00  6.4560E-03  0.0000E+00  2.8670E-03  0.0000E+00  0.0000E+00  0.0000E+00  0.0000E+00  0.0000E+00
 43  1.7975E+00  1.8647E+00  1.5044E+00  1.7858E+00  1.8164E+00  1.8762E+00  2.0200E+00  1.8491E+00  1.9658E+00
 44  9.5252E+00  7.9816E+00  8.6426E+00  8.3262E+00  8.3206E+00  8.3115E+00  8.3402E+00  7.9257E+00  8.4138E+00
 45  3.3057E+00  5.9536E-01  9.1145E-01  1.1944E+00  6.7472E-01  6.4125E-01  6.1783E-01  1.1075E+00  7.8255E-01
 46  4.9460E-06  2.9374E-01  2.2663E-01  4.7443E-01  1.7490E-01  7.5335E-01  1.9653E-01  1.4142E-01  7.0371E-03
 47  0.0000E+00  8.1679E-02  0.0000E+00  0.0000E+00  0.0000E+00  0.0000E+00  0.0000E+00  0.0000E+00  3.5452E-01
 48  0.0000E+00  2.0941E-01  6.9470E-02  0.0000E+00  1.6660E-01  1.0544E-01  2.1545E-01  0.0000E+00  0.0000E+00
 49  0.0000E+00  4.4988E-01  0.0000E+00  4.6248E-02  0.0000E+00  0.0000E+00  0.0000E+00  0.0000E+00  1.3405E-01
 50  1.0595E-02  6.0097E-01  0.0000E+00  6.7350E-01  2.5371E-01  3.5759E-01  5.7037E-01  1.0453E+00  1.5185E-01
 51  0.0000E+00  2.4565E-05  0.0000E+00  0.0000E+00  0.0000E+00  0.0000E+00  0.0000E+00  0.0000E+00  1.4383E-04
 52  0.0000E+00  2.6460E-04  0.0000E+00  2.6993E-04  6.2909E-04  3.2993E-04  6.4547E-05  3.2762E-04  3.7969E-04
 53  0.0000E+00  3.6289E-05  0.0000E+00  3.1952E-06  0.0000E+00  0.0000E+00  0.0000E+00  0.0000E+00  2.2521E-04
 54  0.0000E+00  4.9298E-04  4.1708E-04  6.8171E-04  3.6810E-04  3.7543E-04  1.2801E-03  3.2697E-04  3.2061E-04
 55  0.0000E+00  3.9647E-04  0.0000E+00  2.4584E-04  0.0000E+00  3.9303E-04  6.3563E-04  0.0000E+00  7.4631E-04
 56  0.0000E+00  1.5014E-04  0.0000E+00  0.0000E+00  0.0000E+00  0.0000E+00  0.0000E+00  0.0000E+00  0.0000E+00
 57  0.0000E+00  4.4042E-05  0.0000E+00  0.0000E+00  0.0000E+00  0.0000E+00  0.0000E+00  0.0000E+00  0.0000E+00
 58  0.0000E+00  1.6640E-04  0.0000E+00  0.0000E+00  0.0000E+00  0.0000E+00  2.1239E-03  0.0000E+00  0.0000E+00
 59  0.0000E+00  9.7966E-05  0.0000E+00  0.0000E+00  0.0000E+00  0.0000E+00  0.0000E+00  0.0000E+00  0.0000E+00
 60  0.0000E+00  2.9776E-04  0.0000E+00  0.0000E+00  0.0000E+00  0.0000E+00  2.0217E-03  1.7514E-04  0.0000E+00
 61  0.0000E+00  5.2521E-04  0.0000E+00  0.0000E+00  0.0000E+00  8.1488E-04  0.0000E+00  0.0000E+00  0.0000E+00
 62  0.0000E+00  6.4265E-04  0.0000E+00  0.0000E+00  0.0000E+00  0.0000E+00  0.0000E+00  0.0000E+00  0.0000E+00
 63  0.0000E+00  3.9347E-04  2.1747E-04  0.0000E+00  0.0000E+00  0.0000E+00  0.0000E+00  2.8621E-03  0.0000E+00
 64  7.4391E-02  1.6101E-03  0.0000E+00  1.6182E-02  0.0000E+00  1.0079E-02  0.0000E+00  0.0000E+00  0.0000E+00
 65  0.0000E+00  7.5718E-03  4.5151E-02  0.0000E+00  3.0587E-02  0.0000E+00  5.7945E-03  4.5417E-02  0.0000E+00
 66  0.0000E+00  1.4257E-02  7.2422E-02  1.0696E-02  6.3265E-02  1.2090E-02  0.0000E+00  4.1702E-02  4.8449E-02
 67  0.0000E+00  7.9079E-03  0.0000E+00  0.0000E+00  4.9908E-02  0.0000E+00  0.0000E+00  1.8134E-03  1.6174E-03
 68  0.0000E+00  2.2024E-02  0.0000E+00  0.0000E+00  0.0000E+00  1.6140E-02  0.0000E+00  0.0000E+00  8.9069E-02
 69  0.0000E+00  4.5150E-02  0.0000E+00  2.7108E-02  6.8426E-02  0.0000E+00  1.7427E-01  2.0347E-01  0.0000E+00
 70  1.9282E-02  1.0591E-01  0.0000E+00  4.9085E-01  0.0000E+00  0.0000E+00  2.1072E-01  2.1661E-01  9.8664E-02
 71  7.7320E-01  1.5054E+00  1.9885E+00  1.5625E+00  2.0094E+00  1.2648E+00  1.9327E+00  1.3983E+00  1.1766E+00
 72  0.0000E+00  1.5180E-01  2.0515E-01  0.0000E+00  2.3743E-02  0.0000E+00  9.5526E-02  0.0000E+00  1.1402E-02
 73  0.0000E+00  1.0871E-01  0.0000E+00  3.4174E-01  0.0000E+00  0.0000E+00  0.0000E+00  3.3078E-01  7.9478E-01
 74  0.0000E+00  1.2297E-01  0.0000E+00  0.0000E+00  0.0000E+00  0.0000E+00  6.3741E-02  9.6540E-02  4.0324E-01
 75  0.0000E+00  1.7581E-01  1.3086E-01  0.0000E+00  7.5541E-01  5.3778E-01  1.1874E-01  0.0000E+00  0.0000E+00
 76  0.0000E+00  2.5628E-05  0.0000E+00  0.0000E+00  0.0000E+00  0.0000E+00  0.0000E+00  0.0000E+00  0.0000E+00
 77  0.0000E+00  1.0727E-05  0.0000E+00  0.0000E+00  0.0000E+00  0.0000E+00  0.0000E+00  0.0000E+00  0.0000E+00
 78  0.0000E+00  1.3885E-05  0.0000E+00  0.0000E+00  0.0000E+00  6.8223E-06  0.0000E+00  0.0000E+00  0.0000E+00
 79  0.0000E+00  3.1876E-05  0.0000E+00  0.0000E+00  0.0000E+00  0.0000E+00  0.0000E+00  0.0000E+00  5.8927E-05
 80  0.0000E+00  8.7772E-05  2.5349E-04  0.0000E+00  7.4340E-05  1.4121E-04  0.0000E+00  0.0000E+00  0.0000E+00
 81  0.0000E+00  3.6489E-05  0.0000E+00  0.0000E+00  3.5595E-04  0.0000E+00  0.0000E+00  0.0000E+00  0.0000E+00
 82  0.0000E+00  8.1529E-05  0.0000E+00  0.0000E+00  0.0000E+00  0.0000E+00  0.0000E+00  0.0000E+00  0.0000E+00
 83  0.0000E+00  4.0548E-04  0.0000E+00  0.0000E+00  0.0000E+00  0.0000E+00  0.0000E+00  1.7534E-04  0.0000E+00
 84  0.0000E+00  3.3771E-04  5.6099E-04  0.0000E+00  1.1397E-03  0.0000E+00  0.0000E+00  0.0000E+00  5.5100E-04
 85  0.0000E+00  3.0956E-04  0.0000E+00  0.0000E+00  3.4619E-03  0.0000E+00  5.5191E-04  0.0000E+00  0.0000E+00
 86  0.0000E+00  6.4569E-04  0.0000E+00  0.0000E+00  0.0000E+00  0.0000E+00  1.6359E-04  0.0000E+00  0.0000E+00
 87  0.0000E+00  6.2141E-04  0.0000E+00  3.1923E-04  0.0000E+00  0.0000E+00  7.8720E-04  0.0000E+00  1.5002E-03
 88  0.0000E+00  3.8118E-04  0.0000E+00  7.4212E-05  0.0000E+00  0.0000E+00  0.0000E+00  1.8926E-04  0.0000E+00
 89  0.0000E+00  7.0232E-04  0.0000E+00  0.0000E+00  0.0000E+00  8.5078E-04  6.4870E-03  4.6831E-03  8.4994E-04
 90  0.0000E+00  8.3536E-04  0.0000E+00  1.3648E-03  0.0000E+00  0.0000E+00  0.0000E+00  0.0000E+00  0.0000E+00
 91  0.0000E+00  4.8118E-03  1.9605E-03  1.7212E-02  0.0000E+00  0.0000E+00  0.0000E+00  0.0000E+00  0.0000E+00
 92  0.0000E+00  4.4700E-03  6.5609E-02  0.0000E+00  0.0000E+00  0.0000E+00  2.4868E-02  1.3532E-03  0.0000E+00
 93  0.0000E+00  1.8569E-02  0.0000E+00  0.0000E+00  0.0000E+00  1.4960E-01  0.0000E+00  0.0000E+00  0.0000E+00
 94  1.0723E-05  8.8385E-02  0.0000E+00  2.1355E-01  0.0000E+00  0.0000E+00  1.8641E-01  3.5115E-01  0.0000E+00
 95  7.7689E-02  1.2731E-01  0.0000E+00  6.0898E-01  5.9169E-01  0.0000E+00  2.1545E-01  2.1100E-01  3.7532E-01
 96  0.0000E+00  1.4949E-01  5.3715E-01  0.0000E+00  4.0008E-02  0.0000E+00  0.0000E+00  4.0729E-01  0.0000E+00
 97  1.6340E+00  2.8255E+00  3.2387E+00  3.3178E+00  3.0952E+00  2.9562E+00  2.6000E+00  3.0786E+00  3.1900E+00
 98  2.3730E+01  1.6968E+01  1.7813E+01  1.8425E+01  1.7584E+01  1.7229E+01  1.8759E+01  1.7671E+01  1.7027E+01
 99  2.5109E+01  1.6714E+01  1.7361E+01  1.7788E+01  1.7317E+01  1.6988E+01  1.7553E+01  1.7335E+01  1.9808E+01
100  1.0268E+01  4.6818E+00  4.3280E+00  5.6025E+00  5.2181E+00  6.5216E+00  5.9241E+00  5.1745E+00  4.6433E+00
101  0.0000E+00  1.3995E-05  0.0000E+00  0.0000E+00  0.0000E+00  0.0000E+00  1.4548E-05  0.0000E+00  0.0000E+00
102  0.0000E+00  3.7592E-06  0.0000E+00  0.0000E+00  0.0000E+00  0.0000E+00  0.0000E+00  0.0000E+00  0.0000E+00
103  0.0000E+00  3.5023E-05  1.6806E-04  0.0000E+00  0.0000E+00  2.2627E-05  0.0000E+00  0.0000E+00  0.0000E+00
104  0.0000E+00  4.0807E-05  9.6342E-05  0.0000E+00  0.0000E+00  0.0000E+00  0.0000E+00  2.1689E-04  0.0000E+00
105  0.0000E+00  4.0591E-05  0.0000E+00  0.0000E+00  0.0000E+00  0.0000E+00  0.0000E+00  0.0000E+00  0.0000E+00
106  0.0000E+00  5.1933E-05  0.0000E+00  0.0000E+00  0.0000E+00  0.0000E+00  0.0000E+00  1.5412E-04  0.0000E+00
107  0.0000E+00  4.6224E-05  0.0000E+00  6.3400E-05  0.0000E+00  2.5879E-04  0.0000E+00  0.0000E+00  3.8257E-05
108  0.0000E+00  3.3534E-05  0.0000E+00  0.0000E+00  0.0000E+00  0.0000E+00  0.0000E+00  0.0000E+00  0.0000E+00
109  0.0000E+00  7.8432E-05  0.0000E+00  0.0000E+00  0.0000E+00  0.0000E+00  0.0000E+00  0.0000E+00  1.0150E-03
110  0.0000E+00  1.3998E-04  0.0000E+00  0.0000E+00  0.0000E+00  0.0000E+00  0.0000E+00  3.7004E-08  0.0000E+00
111  0.0000E+00  3.0767E-04  0.0000E+00  0.0000E+00  0.0000E+00  0.0000E+00  0.0000E+00  8.1027E-04  0.0000E+00
112  0.0000E+00  3.2373E-04  0.0000E+00  0.0000E+00  0.0000E+00  0.0000E+00  6.6070E-03  0.0000E+00  0.0000E+00
113  0.0000E+00  3.3810E-04  1.3829E-03  0.0000E+00  0.0000E+00  0.0000E+00  0.0000E+00  0.0000E+00  1.7581E-03
114  0.0000E+00  3.3187E-04  0.0000E+00  0.0000E+00  0.0000E+00  0.0000E+00  0.0000E+00  0.0000E+00  0.0000E+00
115  0.0000E+00  1.6877E-03  0.0000E+00  0.0000E+00  0.0000E+00  0.0000E+00  0.0000E+00  0.0000E+00  0.0000E+00
116  0.0000E+00  4.2435E-03  0.0000E+00  0.0000E+00  0.0000E+00  4.1939E-02  0.0000E+00  0.0000E+00  0.0000E+00
117  0.0000E+00  4.0281E-03  0.0000E+00  0.0000E+00  0.0000E+00  0.0000E+00  0.0000E+00  0.0000E+00  0.0000E+00
118  0.0000E+00  1.2688E-02  0.0000E+00  0.0000E+00  0.0000E+00  2.2770E-02  0.0000E+00  0.0000E+00  0.0000E+00
119  0.0000E+00  3.2611E-02  3.2803E-02  1.1488E-03  0.0000E+00  0.0000E+00  0.0000E+00  0.0000E+00  0.0000E+00
120  0.0000E+00  4.9181E-02  3.1835E-02  0.0000E+00  0.0000E+00  0.0000E+00  3.3084E-01  4.3083E-01  0.0000E+00
121  0.0000E+00  7.9521E-02  0.0000E+00  0.0000E+00  0.0000E+00  0.0000E+00  2.0983E-01  5.0130E-02  3.1718E-01
122  0.0000E+00  5.6675E-02  0.0000E+00  0.0000E+00  0.0000E+00  1.4427E-01  0.0000E+00  0.0000E+00  0.0000E+00
123  0.0000E+00  1.0216E-01  0.0000E+00  5.5624E-01  0.0000E+00  0.0000E+00  0.0000E+00  0.0000E+00  0.0000E+00
124  0.0000E+00  1.1638E-01  0.0000E+00  0.0000E+00  0.0000E+00  0.0000E+00  0.0000E+00  0.0000E+00  2.2563E-01
125  0.0000E+00  2.5175E-01  1.6749E+00  0.0000E+00  0.0000E+00  1.0512E+00  4.7431E-01  0.0000E+00  4.3867E-01
126  0.0000E+00  5.0679E-06  0.0000E+00  0.0000E+00  0.0000E+00  0.0000E+00  0.0000E+00  2.2860E-06  0.0000E+00
127  0.0000E+00  4.7639E-06  0.0000E+00  0.0000E+00  0.0000E+00  0.0000E+00  6.4228E-05  5.6573E-05  0.0000E+00
128  0.0000E+00  1.7025E-05  0.0000E+00  0.0000E+00  0.0000E+00  0.0000E+00  0.0000E+00  0.0000E+00  0.0000E+00
129  0.0000E+00  2.3478E-05  0.0000E+00  0.0000E+00  0.0000E+00  0.0000E+00  0.0000E+00  0.0000E+00  0.0000E+00
130  0.0000E+00  1.7444E-05  0.0000E+00  0.0000E+00  0.0000E+00  0.0000E+00  0.0000E+00  0.0000E+00  0.0000E+00
131  0.0000E+00  1.0360E-05  0.0000E+00  0.0000E+00  0.0000E+00  0.0000E+00  3.2140E-04  0.0000E+00  0.0000E+00
132  0.0000E+00  1.3799E-05  2.8244E-04  0.0000E+00  0.0000E+00  0.0000E+00  0.0000E+00  0.0000E+00  0.0000E+00
133  0.0000E+00  5.9044E-05  0.0000E+00  0.0000E+00  0.0000E+00  0.0000E+00  0.0000E+00  0.0000E+00  0.0000E+00
134  0.0000E+00  1.2638E-04  0.0000E+00  0.0000E+00  0.0000E+00  0.0000E+00  0.0000E+00  0.0000E+00  0.0000E+00
135  0.0000E+00  1.8454E-04  0.0000E+00  0.0000E+00  0.0000E+00  0.0000E+00  0.0000E+00  0.0000E+00  0.0000E+00
136  0.0000E+00  4.3700E-04  0.0000E+00  0.0000E+00  0.0000E+00  0.0000E+00  0.0000E+00  0.0000E+00  0.0000E+00
137  0.0000E+00  4.7445E-04  1.4685E-04  0.0000E+00  0.0000E+00  0.0000E+00  0.0000E+00  5.2694E-03  0.0000E+00
138  0.0000E+00  2.4724E-04  0.0000E+00  0.0000E+00  0.0000E+00  0.0000E+00  0.0000E+00  0.0000E+00  0.0000E+00
139  0.0000E+00  1.4446E-03  0.0000E+00  0.0000E+00  4.6287E-03  0.0000E+00  0.0000E+00  0.0000E+00  0.0000E+00
140  0.0000E+00  2.6381E-03  0.0000E+00  0.0000E+00  0.0000E+00  0.0000E+00  0.0000E+00  0.0000E+00  0.0000E+00
141  0.0000E+00  4.4446E-03  0.0000E+00  0.0000E+00  6.9142E-02  0.0000E+00  0.0000E+00  0.0000E+00  0.0000E+00
142  0.0000E+00  7.9995E-03  0.0000E+00  0.0000E+00  0.0000E+00  0.0000E+00  0.0000E+00  0.0000E+00  0.0000E+00
143  0.0000E+00  4.2979E-02  9.6799E-02  0.0000E+00  0.0000E+00  0.0000E+00  1.8199E-01  2.5478E-01  0.0000E+00
144  2.1160E-01  3.1726E-01  0.0000E+00  8.6464E-01  6.0021E-01  6.5902E-01  4.2960E-01  5.4180E-01  7.1059E-01
145  9.0572E-01  1.2164E+00  1.5618E+00  1.8427E+00  8.3516E-01  3.4007E-01  1.0378E+00  3.3394E-01  1.6205E+00
146  6.5840E-01  1.9524E+00  9.8294E-01  2.1874E+00  2.0825E+00  1.2968E+00  1.8725E+00  1.7127E+00  2.1017E+00
147  4.8948E-05  2.5215E+00  2.3633E+00  2.9934E+00  1.5779E+00  3.1488E+00  2.4329E+00  2.2395E+00  2.3055E+00
148  0.0000E+00  3.6837E+00  2.5113E+00  1.4185E+00  3.2477E+00  3.4496E+00  2.3170E-02  3.6138E+00  0.0000E+00
149  0.0000E+00  4.3689E+00  7.3080E+00  0.0000E+00  3.5418E+00  4.3116E+00  3.8103E+00  1.7246E+00  3.2462E+00
150  7.4400E-05  3.8419E+00  0.0000E+00  2.9108E+00  2.9580E+00  2.8247E+00  3.7725E+00  3.8850E+00  3.9319E+00

# AV, chi2 & Mass for <> & i_chain = 1 ...  7 solutions
AV       0.7757      0.7023      0.7239      0.7258      0.7263      0.7169      0.7282      0.7282      0.7313
chi2 1.2045E+00  1.3565E+00  1.3029E+00  1.2898E+00  1.2997E+00  1.3210E+00  1.2983E+00  1.2999E+00  1.2934E+00
Mass 3.7490E-10  3.8294E-10  3.8301E-10  3.7372E-10  3.8337E-10  3.8559E-10  3.8178E-10  3.8214E-10  3.8224E-10
  -6.42                                  [v0_min (km/s) before EX0s...]
  52.85                                  [vd_min (km/s) before EX0s...]


## Synthetic spectrum (Best Model) ##l_obs f_obs f_syn wei
 3070    [Nl_obs]
 3359.00    0.02616   0.41273   -1.000
 3360.00    0.21456   0.39570   -1.000
 3361.00    0.20597   0.40290   -1.000
 3362.00    0.22425   0.42739   -1.000
 3363.00    0.23515   0.45689   -1.000
 3364.00    0.25936   0.47580   -1.000
 3365.00    0.25957   0.47627   -1.000
 3366.00    0.25704   0.46602   -1.000
 3367.00    0.27021   0.45367   -1.000
 3368.00    0.24867   0.44183   -1.000
 3369.00    0.25567   0.43149   -1.000
 3370.00    0.25581   0.41949   -1.000
 3371.00    0.24639   0.41115   -1.000
 3372.00    0.24563   0.41383   -1.000
 3373.00    0.25990   0.43010   -1.000
 3374.00    0.27727   0.45440   -1.000
 3375.00    0.29155   0.47883   -1.000
 3376.00    0.31340   0.49173   -1.000
 3377.00    0.30943   0.48789   -1.000
 3378.00    0.30327   0.47213   -1.000
 3379.00    0.31913   0.45783   -1.000
 3380.00    0.31959   0.45432   -1.000
 3381.00    0.30042   0.46086   -1.000
 3382.00    0.30468   0.47153   -1.000
 3383.00    0.30853   0.48086   -1.000
 3384.00    0.30885   0.48775   -1.000
 3385.00    0.31109   0.49210   -1.000
 3386.00    0.33819   0.48915   -1.000
 3387.00    0.33640   0.48177   -1.000
 3388.00    0.34885   0.47897   -1.000
 3389.00    0.35001   0.48364   -1.000
 3390.00    0.35439   0.48895   -1.000
 3391.00    0.36749   0.48790   -1.000
 3392.00    0.35100   0.47883   -1.000
 3393.00    0.35933   0.47305   -1.000
 3394.00    0.36207   0.47878   -1.000
 3395.00    0.37195   0.49340   -1.000
 3396.00    0.38430   0.50999   -1.000
 3397.00    0.39506   0.52329   -1.000
 3398.00    0.41002   0.53274   -1.000
 3399.00    0.42502   0.53524   -1.000
 3400.00    0.43471   0.53010   -1.000
 3401.00    0.42709   0.51902   -1.000
 3402.00    0.43197   0.50357   -1.000
 3403.00    0.42120   0.49284   -1.000
 3404.00    0.40224   0.48793   -1.000
 3405.00    0.39405   0.48774   -1.000
 3406.00    0.40081   0.48589   -1.000
 3407.00    0.39842   0.48125   -1.000
 3408.00    0.39704   0.47783   -1.000
 3409.00    0.38638   0.48054   -1.000
 3410.00    0.39540   0.48726   -1.000
 3411.00    0.40409   0.48726   -1.000
 3412.00    0.41622   0.47995   -1.000
 3413.00    0.40926   0.47056   -1.000
 3414.00    0.40182   0.46805   -1.000
 3415.00    0.39409   0.47657   -1.000
 3416.00    0.39599   0.49044   -1.000
 3417.00    0.41328   0.50475   -1.000
 3418.00    0.42683   0.51745   -1.000
 3419.00    0.43662   0.52729   -1.000
 3420.00    0.44591   0.53174   -1.000
 3421.00    0.45543   0.52672   -1.000
 3422.00    0.43154   0.51233   -1.000
 3423.00    0.45089   0.49897   -1.000
 3424.00    0.45063   0.49501   -1.000
 3425.00    0.45395   0.49875   -1.000
 3426.00    0.46014   0.50522   -1.000
 3427.00    0.45968   0.51494   -1.000
 3428.00    0.47683   0.52960   -1.000
 3429.00    0.48111   0.54409   -1.000
 3430.00    0.48770   0.54663   -1.000
 3431.00    0.48895   0.53310   -1.000
 3432.00    0.46428   0.51584   -1.000
 3433.00    0.46436   0.50897   -1.000
 3434.00    0.47809   0.51696   -1.000
 3435.00    0.48767   0.52834   -1.000
 3436.00    0.49498   0.52973   -1.000
 3437.00    0.47747   0.51950   -1.000
 3438.00    0.45189   0.50277   -1.000
 3439.00    0.45175   0.48216  104.779
 3440.00    0.43878   0.46148  112.668
 3441.00    0.41681   0.44565  116.612
 3442.00    0.41618   0.44006  116.671
 3443.00    0.42484   0.44466  115.627
 3444.00    0.42782   0.45542  110.758
 3445.00    0.44618   0.47002  104.663
 3446.00    0.47031   0.48916   99.145
 3447.00    0.46811   0.51017   -1.000
 3448.00    0.47994   0.52835   -1.000
 3449.00    0.50097   0.53747   -1.000
 3450.00    0.50581   0.53042   -1.000
 3451.00    0.49148   0.51241   -1.000
 3452.00    0.47493   0.49800   -1.000
 3453.00    0.47721   0.49540   -1.000
 3454.00    0.47824   0.50214   -1.000
 3455.00    0.48729   0.50940   -1.000
 3456.00    0.50314   0.50985   -1.000
 3457.00    0.48699   0.50325   -1.000
 3458.00    0.48030   0.49299   -1.000
 3459.00    0.48843   0.48305   93.898
 3460.00    0.48371   0.47494   94.940
 3461.00    0.48716   0.47439  106.247
 3462.00    0.49173   0.48464   -1.000
 3463.00    0.49467   0.49758  760.885
 3464.00    0.50733   0.50268   -1.000
 3465.00    0.51336   0.49983   -1.000
 3466.00    0.50542   0.49967   -1.000
 3467.00    0.49639   0.50824   -1.000
 3468.00    0.50161   0.52277   -1.000
 3469.00    0.51598   0.53515   -1.000
 3470.00    0.53028   0.53903   -1.000
 3471.00    0.53163   0.53243  760.885
 3472.00    0.50493   0.51730   -1.000
 3473.00    0.50137   0.49627   -1.000
 3474.00    0.49261   0.47742   -1.000
 3475.00    0.48730   0.46714   94.956
 3476.00    0.47170   0.46997   97.830
 3477.00    0.46940   0.48487  107.954
 3478.00    0.49953   0.50226  760.885
 3479.00    0.51973   0.51608  760.885
 3480.00    0.53524   0.52492   -1.000
 3481.00    0.53484   0.52584   -1.000
 3482.00    0.53162   0.51998   -1.000
 3483.00    0.53492   0.51337   -1.000
 3484.00    0.53557   0.51290   -1.000
 3485.00    0.52320   0.52287  760.885
 3486.00    0.53128   0.53533   -1.000
 3487.00    0.54859   0.53836   -1.000
 3488.00    0.54348   0.52830   -1.000
 3489.00    0.51895   0.51019   -1.000
 3490.00    0.51010   0.49600   -1.000
 3491.00    0.50155   0.49457   -1.000
 3492.00    0.49787   0.50240  760.885
 3493.00    0.50136   0.50857   -1.000
 3494.00    0.50350   0.50759  760.885
 3495.00    0.50575   0.50005   -1.000
 3496.00    0.49487   0.49374  760.885
 3497.00    0.50136   0.49732   -1.000
 3498.00    0.52469   0.50865   -1.000
 3499.00    0.53612   0.52091   -1.000
 3500.00    0.54776   0.52675   -1.000
 3501.00    0.55892   0.52966   -1.000
 3502.00    0.54327   0.53467   -1.000
 3503.00    0.54819   0.53772   -1.000
 3504.00    0.55335   0.53483   -1.000
 3505.00    0.54100   0.52675   -1.000
 3506.00    0.53104   0.51909   -1.000
 3507.00    0.53073   0.51574   -1.000
 3508.00    0.53254   0.51484   -1.000
 3509.00    0.54475   0.51378   -1.000
 3510.00    0.53218   0.51073   -1.000
 3511.00    0.50748   0.50510  760.885
 3512.00    0.51419   0.49660   -1.000
 3513.00    0.51668   0.48848   -1.000
 3514.00    0.50415   0.48874   -1.000
 3515.00    0.50815   0.50284   -1.000
 3516.00    0.53272   0.52689   -1.000
 3517.00    0.55426   0.54649   -1.000
 3518.00    0.56040   0.55032   -1.000
 3519.00    0.55637   0.53776   -1.000
 3520.00    0.54806   0.52017   -1.000
 3521.00    0.52731   0.50564   -1.000
 3522.00    0.51629   0.49487   -1.000
 3523.00    0.50128   0.48418   -1.000
 3524.00    0.48281   0.47271   94.119
 3525.00    0.46936   0.46765   97.018
 3526.00    0.47402   0.47600  108.756
 3527.00    0.50033   0.49426   -1.000
 3528.00    0.53210   0.51592   -1.000
 3529.00    0.54341   0.53298   -1.000
 3530.00    0.55017   0.54145   -1.000
 3531.00    0.54539   0.54222  760.885
 3532.00    0.53713   0.53814  760.885
 3533.00    0.53671   0.53267   -1.000
 3534.00    0.54405   0.53039   -1.000
 3535.00    0.54612   0.53350   -1.000
 3536.00    0.56028   0.54244   -1.000
 3537.00    0.55486   0.55405  752.794
 3538.00    0.55720   0.56399   -1.000
 3539.00    0.56704   0.56858  736.678
 3540.00    0.56086   0.56643   -1.000
 3541.00    0.55572   0.56164   -1.000
 3542.00    0.55620   0.56113   -1.000
 3543.00    0.55879   0.56711   -1.000
 3544.00    0.56678   0.57326   -1.000
 3545.00    0.56502   0.57411   -1.000
 3546.00    0.55961   0.57042   -1.000
 3547.00    0.56211   0.56583   -1.000
 3548.00    0.55841   0.56406   -1.000
 3549.00    0.56179   0.56580   -1.000
 3550.00    0.56346   0.56903   -1.000
 3551.00    0.54408   0.56893   -1.000
 3552.00    0.52883   0.56137   -1.000
 3553.00    0.52298   0.54969   -1.000
 3554.00    0.53638   0.54256   -1.000
 3555.00    0.54597   0.54452  760.885
 3556.00    0.53433   0.55136   -1.000
 3557.00    0.54491   0.55758   -1.000
 3558.00    0.54981   0.55947   -1.000
 3559.00    0.53797   0.55889   -1.000
 3560.00    0.54340   0.56026   -1.000
 3561.00    0.54623   0.56417   -1.000
 3562.00    0.54244   0.56456   -1.000
 3563.00    0.54721   0.55304   -1.000
 3564.00    0.53291   0.53004  423.781
 3565.00    0.50663   0.50671   95.140
 3566.00    0.48043   0.49533   98.401
 3567.00    0.49478   0.49540   97.291
 3568.00    0.49422   0.49587   97.247
 3569.00    0.48094   0.49044  100.424
 3570.00    0.48061   0.48245  101.587
 3571.00    0.48044   0.47899   98.163
 3572.00    0.48946   0.48281  106.610
 3573.00    0.49543   0.48972   -1.000
 3574.00    0.50636   0.49692   -1.000
 3575.00    0.51767   0.50424   -1.000
 3576.00    0.52272   0.50999   -1.000
 3577.00    0.52382   0.51119   -1.000
 3578.00    0.52410   0.50585   -1.000
 3579.00    0.51016   0.49264   98.779
 3580.00    0.48378   0.47674  106.394
 3581.00    0.46171   0.46495  111.536
 3582.00    0.45652   0.46177  112.169
 3583.00    0.46351   0.46391  112.934
 3584.00    0.46293   0.46129  115.934
 3585.00    0.44592   0.45112  119.496
 3586.00    0.43488   0.44081  120.100
 3587.00    0.45264   0.44031  113.896
 3588.00    0.45873   0.45367  107.895
 3589.00    0.47798   0.47729  102.053
 3590.00    0.48870   0.50120  106.314
 3591.00    0.51605   0.51694  760.885
 3592.00    0.53612   0.52235   -1.000
 3593.00    0.54033   0.52376   -1.000
 3594.00    0.54095   0.52949   -1.000
 3595.00    0.55961   0.54190   -1.000
 3596.00    0.56060   0.55550   -1.000
 3597.00    0.55821   0.56465   -1.000
 3598.00    0.57755   0.56986   -1.000
 3599.00    0.58946   0.57245   -1.000
 3600.00    0.58827   0.56868   -1.000
 3601.00    0.57794   0.55536   -1.000
 3602.00    0.56507   0.53865   -1.000
 3603.00    0.55090   0.52569   -1.000
 3604.00    0.54698   0.52125   -1.000
 3605.00    0.54350   0.52176   -1.000
 3606.00    0.53517   0.52024   -1.000
 3607.00    0.53019   0.51379   -1.000
 3608.00    0.51971   0.50558   -1.000
 3609.00    0.51342   0.50255   -1.000
 3610.00    0.51901   0.50711   -1.000
 3611.00    0.51361   0.51669  760.885
 3612.00    0.52426   0.52642  760.885
 3613.00    0.52719   0.53512   -1.000
 3614.00    0.54249   0.54586   -1.000
 3615.00    0.54776   0.55553   -1.000
 3616.00    0.55697   0.55255  760.885
 3617.00    0.54748   0.53489   -1.000
 3618.00    0.50531   0.51285  425.706
 3619.00    0.48871   0.50377  105.523
 3620.00    0.51198   0.51480  760.885
 3621.00    0.54090   0.53638   -1.000
 3622.00    0.56309   0.55568   -1.000
 3623.00    0.58019   0.56786   -1.000
 3624.00    0.56938   0.57899   -1.000
 3625.00    0.57431   0.59579   -1.000
 3626.00    0.59975   0.61475   -1.000
 3627.00    0.59899   0.62584   -1.000
 3628.00    0.59253   0.61750   -1.000
 3629.00    0.57031   0.58855   -1.000
 3630.00    0.55648   0.55096   -1.000
 3631.00    0.52375   0.52601  760.885
 3632.00    0.51185   0.52343   -1.000
 3633.00    0.52113   0.53682   -1.000
 3634.00    0.52614   0.55167   -1.000
 3635.00    0.53743   0.55990   -1.000
 3636.00    0.54840   0.56534   -1.000
 3637.00    0.56274   0.57540   -1.000
 3638.00    0.56455   0.58929   -1.000
 3639.00    0.58172   0.60008   -1.000
 3640.00    0.57042   0.60240   -1.000
 3641.00    0.56996   0.59517   -1.000
 3642.00    0.57493   0.58165   -1.000
 3643.00    0.56310   0.56766   -1.000
 3644.00    0.54839   0.55634   -1.000
 3645.00    0.54191   0.54756   -1.000
 3646.00    0.53312   0.53995   -1.000
 3647.00    0.53845   0.53507  760.885
 3648.00    0.54299   0.53528   -1.000
 3649.00    0.54399   0.54086  760.885
 3650.00    0.54966   0.55207  759.274
 3651.00    0.56685   0.56749  723.000
 3652.00    0.58253   0.58426  694.426
 3653.00    0.59795   0.59770  678.541
 3654.00    0.60749   0.60805  670.173
 3655.00    0.59781   0.61713   -1.000
 3656.00    0.61433   0.62562   -1.000
 3657.00    0.61289   0.63216   -1.000
 3658.00    0.60131   0.63477   -1.000
 3659.00    0.59832   0.63401   -1.000
 3660.00    0.60936   0.62998   -1.000
 3661.00    0.61014   0.62226   -1.000
 3662.00    0.60598   0.61287   -1.000
 3663.00    0.59858   0.60663   -1.000
 3664.00    0.60254   0.60632   -1.000
 3665.00    0.59500   0.60926   -1.000
 3666.00    0.60035   0.61025   -1.000
 3667.00    0.60169   0.60599   -1.000
 3668.00    0.59226   0.59779   -1.000
 3669.00    0.58674   0.59215   -1.000
 3670.00    0.58694   0.59465   -1.000
 3671.00    0.58791   0.60412   -1.000
 3672.00    0.60015   0.61409   -1.000
 3673.00    0.61026   0.61894   -1.000
 3674.00    0.60617   0.61742   -1.000
 3675.00    0.61810   0.60945   -1.000
 3676.00    0.60831   0.59547   -1.000
 3677.00    0.59301   0.57937   -1.000
 3678.00    0.58093   0.56634   -1.000
 3679.00    0.57138   0.56149   -1.000
 3680.00    0.56827   0.56494  735.932
 3681.00    0.57997   0.57252   -1.000
 3682.00    0.59594   0.57953   -1.000
 3683.00    0.60198   0.58217   -1.000
 3684.00    0.58140   0.57773  713.026
 3685.00    0.57016   0.56617  742.660
 3686.00    0.56555   0.55470   -1.000
 3687.00    0.55549   0.55447  760.885
 3688.00    0.57055   0.56988  752.661
 3689.00    0.58681   0.59348   -1.000
 3690.00    0.60730   0.61215   -1.000
 3691.00    0.61616   0.61985   -1.000
 3692.00    0.61881   0.61943  650.078
 3693.00    0.61756   0.61710  667.240
 3694.00    0.61780   0.61649  674.536
 3695.00    0.60548   0.61546   -1.000
 3696.00    0.60339   0.61266   -1.000
 3697.00    0.60855   0.61483   -1.000
 3698.00    0.62843   0.62879  633.342
 3699.00    0.64516   0.64959   -1.000
 3700.00    0.65867   0.66399   -1.000
 3701.00    0.65187   0.65654   -1.000
 3702.00    0.62552   0.62376  660.510
 3703.00    0.59020   0.57838   -1.000
 3704.00    0.56080   0.54209   -1.000
 3705.00    0.53900   0.52767   -1.000
 3706.00    0.54278   0.53450   -1.000
 3707.00    0.56007   0.55105   -1.000
 3708.00    0.56627   0.56550  760.885
 3709.00    0.57410   0.57065   -1.000
 3710.00    0.58533   0.56923   -1.000
 3711.00    0.59039   0.57060   -1.000
 3712.00    0.59977   0.58344   -1.000
 3713.00    0.62683   0.60902   -1.000
 3714.00    0.64884   0.63903   -1.000
 3715.00    0.66366   0.66215  608.276
 3716.00    0.67691   0.67024   -1.000
 3717.00    0.67810   0.65941   -1.000
 3718.00    0.63376   0.62605   -1.000
 3719.00    0.58642   0.57253   -1.000
 3720.00    0.52800   0.51526   -1.000
 3721.00    0.51017   0.48214   -1.000
 3722.00    0.51188   0.48696   -1.000
 3723.00    0.54221   0.52566   -1.000
 3724.00    0.59658   0.58012   -1.000
 3725.00    0.63611   0.62370   -1.000
 3726.00    0.64872   0.64378   -1.000
 3727.00    0.65259   0.65071  705.440
 3728.00    0.64597   0.65544   -1.000
 3729.00    0.64274   0.65799   -1.000
 3730.00    0.64570   0.64830  709.947
 3731.00    0.62888   0.61380   -1.000
 3732.00    0.57926   0.55496   -1.000
 3733.00    0.50211   0.49337   94.764
 3734.00    0.45890   0.44915  105.249
 3735.00    0.45243   0.43814  107.815
 3736.00    0.46654   0.46426  101.632
 3737.00    0.51711   0.51674  105.966
 3738.00    0.57962   0.57775   -1.000
 3739.00    0.62010   0.63479   -1.000
 3740.00    0.64753   0.67200   -1.000
 3741.00    0.66865   0.68314   -1.000
 3742.00    0.66965   0.67157  729.685
 3743.00    0.65007   0.64863  760.885
 3744.00    0.62028   0.62215  760.885
 3745.00    0.58789   0.59597   -1.000
 3746.00    0.56406   0.56708  420.054
 3747.00    0.53089   0.53121   95.497
 3748.00    0.49941   0.49305  101.031
 3749.00    0.46647   0.46651  115.862
 3750.00    0.47587   0.46937   -1.000
 3751.00    0.52836   0.50646   -1.000
 3752.00    0.57930   0.56427   -1.000
 3753.00    0.63786   0.62482   -1.000
 3754.00    0.68169   0.67260   -1.000
 3755.00    0.71015   0.69596   -1.000
 3756.00    0.70390   0.69229   -1.000
 3757.00    0.67130   0.66951  756.998
 3758.00    0.64604   0.64664  760.885
 3759.00    0.64034   0.63831  760.885
 3760.00    0.65250   0.64425   -1.000
 3761.00    0.67519   0.65667   -1.000
 3762.00    0.69038   0.66588   -1.000
 3763.00    0.69144   0.66774   -1.000
 3764.00    0.68691   0.66290   -1.000
 3765.00    0.66896   0.65101   -1.000
 3766.00    0.65177   0.63272   -1.000
 3767.00    0.62147   0.60854   -1.000
 3768.00    0.60556   0.57837   -1.000
 3769.00    0.57935   0.54863   -1.000
 3770.00    0.56172   0.53147   -1.000
 3771.00    0.57735   0.54014   -1.000
 3772.00    0.61375   0.57406   -1.000
 3773.00    0.64634   0.61731   -1.000
 3774.00    0.66955   0.65253   -1.000
 3775.00    0.69325   0.67646   -1.000
 3776.00    0.72192   0.69494   -1.000
 3777.00    0.73112   0.71542   -1.000
 3778.00    0.74589   0.73965   -1.000
 3779.00    0.76943   0.76338   -1.000
 3780.00    0.78379   0.78270  597.846
 3781.00    0.79718   0.79350  594.062
 3782.00    0.79782   0.79649  591.004
 3783.00    0.79379   0.79355  593.252
 3784.00    0.79239   0.78353   -1.000
 3785.00    0.78085   0.76485   -1.000
 3786.00    0.76049   0.74187   -1.000
 3787.00    0.73356   0.72053   -1.000
 3788.00    0.72482   0.70664   -1.000
 3789.00    0.72267   0.70183   -1.000
 3790.00    0.70492   0.70134   -1.000
 3791.00    0.69528   0.69707  713.786
 3792.00    0.68856   0.68267   -1.000
 3793.00    0.66519   0.65646   -1.000
 3794.00    0.62779   0.62058   -1.000
 3795.00    0.59279   0.57842   -1.000
 3796.00    0.55683   0.53472   -1.000
 3797.00    0.51600   0.49707   -1.000
 3798.00    0.49800   0.48319   -1.000
 3799.00    0.52169   0.50682   -1.000
 3800.00    0.57612   0.56211   -1.000
 3801.00    0.63669   0.62582   -1.000
 3802.00    0.68328   0.68005  673.716
 3803.00    0.71583   0.71501  660.633
 3804.00    0.73522   0.73279  659.025
 3805.00    0.74809   0.73673   -1.000
 3806.00    0.74219   0.73605   -1.000
 3807.00    0.73481   0.74166   -1.000
 3808.00    0.75384   0.75707  684.191
 3809.00    0.77374   0.77723  659.987
 3810.00    0.78424   0.79086   -1.000
 3811.00    0.78590   0.78760  672.222
 3812.00    0.77910   0.76597   -1.000
 3813.00    0.74627   0.73716   -1.000
 3814.00    0.72598   0.71429   -1.000
 3815.00    0.72146   0.70746   -1.000
 3816.00    0.71678   0.71502  760.885
 3817.00    0.72358   0.72506  760.885
 3818.00    0.73813   0.72285   -1.000
 3819.00    0.72106   0.70545   -1.000
 3820.00    0.69108   0.68888  760.885
 3821.00    0.69017   0.68607  760.885
 3822.00    0.70156   0.69265   -1.000
 3823.00    0.71035   0.69082   -1.000
 3824.00    0.68178   0.67248   -1.000
 3825.00    0.65146   0.64926   98.199
 3826.00    0.63503   0.63214   99.866
 3827.00    0.62755   0.62225   98.837
 3828.00    0.61809   0.61524   97.218
 3829.00    0.60788   0.60707   96.011
 3830.00    0.59887   0.59197   97.707
 3831.00    0.56712   0.56467  102.712
 3832.00    0.53151   0.52615  110.370
 3833.00    0.49581   0.48217  112.832
 3834.00    0.46019   0.44772  110.143
 3835.00    0.45579   0.43471  105.918
 3836.00    0.47528   0.44255   -1.000
 3837.00    0.48920   0.46556  106.657
 3838.00    0.50563   0.49665  108.608
 3839.00    0.52574   0.53123  105.935
 3840.00    0.57184   0.57020  114.747
 3841.00    0.62350   0.61456   -1.000
 3842.00    0.66589   0.65832   -1.000
 3843.00    0.70104   0.69610   -1.000
 3844.00    0.72413   0.72192  758.956
 3845.00    0.73069   0.73809   -1.000
 3846.00    0.74229   0.75050   -1.000
 3847.00    0.75414   0.75916   -1.000
 3848.00    0.75590   0.76044   -1.000
 3849.00    0.75030   0.75627   -1.000
 3850.00    0.74587   0.75571   -1.000
 3851.00    0.75026   0.76493   -1.000
 3852.00    0.76325   0.77837   -1.000
 3853.00    0.77522   0.78582   -1.000
 3854.00    0.76906   0.78218   -1.000
 3855.00    0.75110   0.77089   -1.000
 3856.00    0.74282   0.75792   -1.000
 3857.00    0.72984   0.74547   -1.000
 3858.00    0.71821   0.73410   93.501
 3859.00    0.69733   0.72953   -1.000
 3860.00    0.70159   0.73795   -1.000
 3861.00    0.73428   0.75760   -1.000
 3862.00    0.76244   0.77752   -1.000
 3863.00    0.78026   0.78725   -1.000
 3864.00    0.80026   0.78696   -1.000
 3865.00    0.79978   0.78363   -1.000
 3866.00    0.78367   0.78330  760.885
 3867.00    0.78444   0.78573   -1.000
 3868.00    0.77899   0.78577   -1.000
 3869.00    0.75936   0.77792   -1.000
 3870.00    0.73975   0.76147   -1.000
 3871.00    0.70851   0.74269   -1.000
 3872.00    0.70337   0.72968   -1.000
 3873.00    0.72757   0.73067  760.885
 3874.00    0.74932   0.74330   -1.000
 3875.00    0.76537   0.75362   -1.000
 3876.00    0.75729   0.74760   -1.000
 3877.00    0.72426   0.72800  760.885
 3878.00    0.69503   0.71049   -1.000
 3879.00    0.69056   0.70372   -1.000
 3880.00    0.68606   0.70399   -1.000
 3881.00    0.67837   0.70158   -1.000
 3882.00    0.66204   0.69274   -1.000
 3883.00    0.66222   0.67952   -1.000
 3884.00    0.65876   0.65719  745.138
 3885.00    0.64065   0.62032   -1.000
 3886.00    0.60447   0.57223   -1.000
 3887.00    0.56621   0.52438   -1.000
 3888.00    0.53718   0.49571   -1.000
 3889.00    0.53556   0.49828   -1.000
 3890.00    0.57935   0.53283   -1.000
 3891.00    0.64501   0.58636   -1.000
 3892.00    0.68192   0.63682   -1.000
 3893.00    0.69880   0.66877   -1.000
 3894.00    0.71180   0.68692   -1.000
 3895.00    0.72337   0.70266   -1.000
 3896.00    0.76578   0.72092   -1.000
 3897.00    0.77138   0.73789   -1.000
 3898.00    0.76834   0.74861   -1.000
 3899.00    0.78872   0.75385   -1.000
 3900.00    0.78893   0.76015   -1.000
 3901.00    0.80096   0.76915   -1.000
 3902.00    0.82245   0.77516   -1.000
 3903.00    0.80332   0.77419   -1.000
 3904.00    0.79487   0.76767   -1.000
 3905.00    0.78761   0.76414   -1.000
 3906.00    0.78329   0.77212   -1.000
 3907.00    0.80547   0.79367   -1.000
 3908.00    0.82927   0.82114   -1.000
 3909.00    0.85160   0.84403   -1.000
 3910.00    0.88396   0.85704   -1.000
 3911.00    0.88658   0.86165   -1.000
 3912.00    0.88156   0.85985   -1.000
 3913.00    0.87648   0.85249   -1.000
 3914.00    0.85528   0.84261   -1.000
 3915.00    0.84698   0.83637   -1.000
 3916.00    0.84368   0.83395   -1.000
 3917.00    0.85130   0.82972   -1.000
 3918.00    0.83873   0.82005   -1.000
 3919.00    0.81426   0.80672   -1.000
 3920.00    0.80378   0.79565   -1.000
 3921.00    0.80406   0.79077   -1.000
 3922.00    0.79399   0.79252  697.093
 3923.00    0.79424   0.79667   -1.000
 3924.00    0.79596   0.79648  696.600
 3925.00    0.78604   0.78619  736.714
 3926.00    0.75048   0.76197   -1.000
 3927.00    0.71042   0.72685   -1.000
 3928.00    0.65075   0.68459   -1.000
 3929.00    0.60204   0.63832   -1.000
 3930.00    0.54762   0.58536   -1.000
 3931.00    0.47763   0.52033   -1.000
 3932.00    0.40442   0.45319   -1.000
 3933.00    0.35931   0.40787   -1.000
 3934.00    0.36615   0.40727   -1.000
 3935.00    0.41654   0.45288   -1.000
 3936.00    0.48781   0.52415   -1.000
 3937.00    0.55554   0.59723   -1.000
 3938.00    0.61777   0.66154   -1.000
 3939.00    0.66411   0.71007   -1.000
 3940.00    0.70788   0.74293   -1.000
 3941.00    0.73559   0.76119   -1.000
 3942.00    0.74157   0.76736   -1.000
 3943.00    0.74934   0.77053   -1.000
 3944.00    0.75832   0.77869   -1.000
 3945.00    0.78990   0.79245  678.114
 3946.00    0.81847   0.80651   -1.000
 3947.00    0.82300   0.81489   -1.000
 3948.00    0.81563   0.81808  630.381
 3949.00    0.82129   0.82026  607.160
 3950.00    0.84045   0.82166   -1.000
 3951.00    0.84482   0.82024   -1.000
 3952.00    0.84315   0.81951   -1.000
 3953.00    0.85155   0.82350   -1.000
 3954.00    0.86419   0.82623   -1.000
 3955.00    0.85465   0.82148   -1.000
 3956.00    0.82092   0.81099   -1.000
 3957.00    0.80611   0.80150  612.841
 3958.00    0.81902   0.79602   -1.000
 3959.00    0.82222   0.78370   -1.000
 3960.00    0.78030   0.75466   -1.000
 3961.00    0.71923   0.71556   -1.000
 3962.00    0.67928   0.67642   -1.000
 3963.00    0.64034   0.64107  413.513
 3964.00    0.59554   0.59998   99.640
 3965.00    0.52741   0.54045  117.766
 3966.00    0.44061   0.46293  145.311
 3967.00    0.35530   0.38082   -1.000
 3968.00    0.29619   0.32121   -1.000
 3969.00    0.28697   0.30400  171.526
 3970.00    0.33116   0.33400  141.102
 3971.00    0.40134   0.39873  116.268
 3972.00    0.47266   0.47782  114.483
 3973.00    0.55096   0.55291  760.885
 3974.00    0.62771   0.61878   -1.000
 3975.00    0.68676   0.67313   -1.000
 3976.00    0.73789   0.71859   -1.000
 3977.00    0.77112   0.75747   -1.000
 3978.00    0.80833   0.79058   -1.000
 3979.00    0.83973   0.81663   -1.000
 3980.00    0.85789   0.83091   -1.000
 3981.00    0.86948   0.83556   -1.000
 3982.00    0.87849   0.83759   -1.000
 3983.00    0.87961   0.84400   -1.000
 3984.00    0.88361   0.85716   -1.000
 3985.00    0.89832   0.87240   -1.000
 3986.00    0.90671   0.88588   -1.000
 3987.00    0.91393   0.89737   -1.000
 3988.00    0.92345   0.90594   -1.000
 3989.00    0.93662   0.91059   -1.000
 3990.00    0.93723   0.91509   -1.000
 3991.00    0.95094   0.92262   -1.000
 3992.00    0.96249   0.93170   -1.000
 3993.00    0.96308   0.93801   -1.000
 3994.00    0.94939   0.93620   -1.000
 3995.00    0.94315   0.92512   -1.000
 3996.00    0.93360   0.91108   -1.000
 3997.00    0.91525   0.90513   -1.000
 3998.00    0.91021   0.91225  496.800
 3999.00    0.94169   0.92771   -1.000
 4000.00    0.95731   0.94226   -1.000
 4001.00    0.97854   0.95112   -1.000
 4002.00    0.99462   0.95148   -1.000
 4003.00    0.99762   0.94105   -1.000
 4004.00    0.96602   0.92215   -1.000
 4005.00    0.92581   0.90718   -1.000
 4006.00    0.92579   0.90885   -1.000
 4007.00    0.95161   0.92644   -1.000
 4008.00    0.97355   0.94827   -1.000
 4009.00    0.98841   0.96284   -1.000
 4010.00    0.98855   0.96942   -1.000
 4011.00    0.99430   0.97130   -1.000
 4012.00    0.98963   0.97129   -1.000
 4013.00    0.99268   0.97253   -1.000
 4014.00    1.00844   0.97568   -1.000
 4015.00    1.00446   0.97901   -1.000
 4016.00    0.99438   0.98165   -1.000
 4017.00    0.99423   0.98488  453.039
 4018.00    0.99979   0.99022   -1.000
 4019.00    1.00376   0.99571  443.964
 4020.00    1.00267   0.99792  446.068
 4021.00    0.98630   0.99477   -1.000
 4022.00    0.99395   0.98759  454.812
 4023.00    1.00343   0.97904   -1.000
 4024.00    0.99084   0.97314   -1.000
 4025.00    0.98701   0.97553  446.618
 4026.00    1.00094   0.98755   -1.000
 4027.00    1.01657   1.00013   -1.000
 4028.00    1.01654   1.00010   -1.000
 4029.00    1.01478   0.98320   -1.000
 4030.00    0.97418   0.95710   -1.000
 4031.00    0.94677   0.93580   -1.000
 4032.00    0.94176   0.92702   -1.000
 4033.00    0.94816   0.93125   -1.000
 4034.00    0.96977   0.94721   -1.000
 4035.00    0.98229   0.97248   -1.000
 4036.00    1.01405   1.00076   -1.000
 4037.00    1.03279   1.02337  418.086
 4038.00    1.04574   1.03186   -1.000
 4039.00    1.02943   1.02749  427.816
 4040.00    1.02236   1.01856  437.279
 4041.00    1.01902   1.01072  441.488
 4042.00    1.01293   0.99894   -1.000
 4043.00    0.99807   0.97269   -1.000
 4044.00    0.95635   0.93533   -1.000
 4045.00    0.90765   0.90841  547.810
 4046.00    0.91696   0.91184  518.651
 4047.00    0.95773   0.94336   -1.000
 4048.00    1.00513   0.98112   -1.000
 4049.00    1.03368   1.00744   -1.000
 4050.00    1.03280   1.01718   -1.000
 4051.00    1.02448   1.01520  434.186
 4052.00    1.01748   1.00612   -1.000
 4053.00    1.01755   0.99449   -1.000
 4054.00    1.00142   0.98507   -1.000
 4055.00    0.99939   0.97876   -1.000
 4056.00    1.00000   0.97421   -1.000
 4057.00    0.98992   0.97312   -1.000
 4058.00    0.99426   0.98042   -1.000
 4059.00    1.01521   0.99389   -1.000
 4060.00    1.02852   0.99992   -1.000
 4061.00    1.01790   0.98621   -1.000
 4062.00    0.98675   0.95648   -1.000
 4063.00    0.94245   0.93072   -1.000
 4064.00    0.94444   0.92143   -1.000
 4065.00    0.96536   0.92613   -1.000
 4066.00    0.98286   0.93822   -1.000
 4067.00    0.98835   0.95147   -1.000
 4068.00    1.00907   0.96094   -1.000
 4069.00    1.02139   0.96071   -1.000
 4070.00    1.00322   0.94741   -1.000
 4071.00    0.98975   0.93082   -1.000
 4072.00    0.97013   0.92694   -1.000
 4073.00    0.98061   0.93563   -1.000
 4074.00    1.00048   0.94140   -1.000
 4075.00    0.98176   0.93054   -1.000
 4076.00    0.94955   0.90735   -1.000
 4077.00    0.92496   0.89081   -1.000
 4078.00    0.92096   0.89488   -1.000
 4079.00    0.95252   0.92024   -1.000
 4080.00    0.98002   0.95094   -1.000
 4081.00    1.00488   0.96909   -1.000
 4082.00    0.99705   0.96827   -1.000
 4083.00    0.98618   0.95572   -1.000
 4084.00    0.96937   0.94459   -1.000
 4085.00    0.96080   0.94403   -1.000
 4086.00    0.98020   0.95521   -1.000
 4087.00    1.01216   0.97082   -1.000
 4088.00    1.03061   0.98194   -1.000
 4089.00    1.02736   0.98292   -1.000
 4090.00    1.01225   0.97484   -1.000
 4091.00    0.98937   0.96357   -1.000
 4092.00    0.97347   0.95141   -1.000
 4093.00    0.97609   0.93597   -1.000
 4094.00    0.95846   0.91564   -1.000
 4095.00    0.93697   0.88983   -1.000
 4096.00    0.91529   0.86146   -1.000
 4097.00    0.88838   0.83160   -1.000
 4098.00    0.85047   0.79433   -1.000
 4099.00    0.80233   0.74259   -1.000
 4100.00    0.72093   0.68238   -1.000
 4101.00    0.65880   0.63881   -1.000
 4102.00    0.66146   0.63618   -1.000
 4103.00    0.71616   0.67911   -1.000
 4104.00    0.79806   0.74495   -1.000
 4105.00    0.84575   0.80648   -1.000
 4106.00    0.88732   0.84883   -1.000
 4107.00    0.91570   0.87351   -1.000
 4108.00    0.91210   0.88630   -1.000
 4109.00    0.92234   0.89391   -1.000
 4110.00    0.93314   0.90227   -1.000
 4111.00    0.94095   0.91446   -1.000
 4112.00    0.95727   0.93093   -1.000
 4113.00    0.97108   0.94909   -1.000
 4114.00    0.98758   0.96584   -1.000
 4115.00    1.00371   0.97706   -1.000
 4116.00    1.00268   0.97856   -1.000
 4117.00    0.99413   0.97077   -1.000
 4118.00    0.98418   0.95979   -1.000
 4119.00    0.98171   0.95321   -1.000
 4120.00    0.99734   0.95452   -1.000
 4121.00    0.99122   0.96031   -1.000
 4122.00    0.99105   0.96684   -1.000
 4123.00    0.99365   0.97411   -1.000
 4124.00    1.00048   0.98189   -1.000
 4125.00    1.00735   0.98642   -1.000
 4126.00    1.00825   0.98382   -1.000
 4127.00    0.99578   0.97627   -1.000
 4128.00    0.98126   0.96966   -1.000
 4129.00    0.97602   0.96506   -1.000
 4130.00    0.96920   0.95766   -1.000
 4131.00    0.96826   0.94625   -1.000
 4132.00    0.95485   0.93776   -1.000
 4133.00    0.94686   0.94193  504.840
 4134.00    0.95203   0.95959   -1.000
 4135.00    0.98066   0.98242  462.663
 4136.00    1.02175   1.00308   -1.000
 4137.00    1.03317   1.01912   -1.000
 4138.00    1.03489   1.03061  435.929
 4139.00    1.05043   1.03486   -1.000
 4140.00    1.04604   1.02565   -1.000
 4141.00    1.02578   1.00103   -1.000
 4142.00    0.97979   0.96990   -1.000
 4143.00    0.95701   0.94974  531.560
 4144.00    0.94915   0.95219  508.646
 4145.00    0.97069   0.97272  479.421
 4146.00    1.00244   0.99531  463.867
 4147.00    1.00339   1.00615  461.512
 4148.00    0.99605   1.00573   -1.000
 4149.00    0.98703   1.00217   -1.000
 4150.00    0.97793   1.00082   -1.000
 4151.00    0.99308   1.00045   -1.000
 4152.00    0.99806   0.99706  482.612
 4153.00    0.98557   0.99053   -1.000
 4154.00    0.98355   0.98477  492.893
 4155.00    0.98375   0.98434  481.143
 4156.00    0.98219   0.99071   -1.000
 4157.00    1.05057   1.00168   -1.000
 4158.00    1.12665   1.01406   -1.000
 4159.00    1.01076   1.02430   -1.000
 4160.00    0.92932   1.03114   -1.000
 4161.00    0.99506   1.03532   -1.000
 4162.00    1.04052   1.03858  445.701
 4163.00    1.02733   1.04141   -1.000
 4164.00    1.02729   1.04189   -1.000
 4165.00    1.02772   1.03778   -1.000
 4166.00    1.00932   1.02963   -1.000
 4167.00    0.99476   1.02323   -1.000
 4168.00    0.99818   1.02144   -1.000
 4169.00    1.00662   1.01910   -1.000
 4170.00    0.99512   1.00677   -1.000
 4171.00    0.97019   0.98224   -1.000
 4172.00    0.93307   0.95849   -1.000
 4173.00    0.92843   0.94983   -1.000
 4174.00    0.94279   0.95903   -1.000
 4175.00    0.95202   0.97579   -1.000
 4176.00    0.95734   0.98626   -1.000
 4177.00    0.96244   0.98909   -1.000
 4178.00    0.96196   0.99115   -1.000
 4179.00    0.98047   0.99675   -1.000
 4180.00    0.99229   1.00299   -1.000
 4181.00    0.98519   1.00449   -1.000
 4182.00    0.98289   1.00510   -1.000
 4183.00    0.98967   1.01094   -1.000
 4184.00    1.00569   1.01716   -1.000
 4185.00    1.00441   1.01591   -1.000
 4186.00    0.98538   1.00633   -1.000
 4187.00    0.96279   0.99730   -1.000
 4188.00    0.96720   0.99724   -1.000
 4189.00    0.98890   1.00294   -1.000
 4190.00    0.99408   1.00839   -1.000
 4191.00    0.99837   1.01331   -1.000
 4192.00    1.00705   1.01899   -1.000
 4193.00    1.01371   1.02309   -1.000
 4194.00    1.01191   1.01875   -1.000
 4195.00    1.00227   1.00271  491.354
 4196.00    0.97484   0.98204   -1.000
 4197.00    0.94836   0.96493   -1.000
 4198.00    0.94561   0.95491   -1.000
 4199.00    0.93944   0.95180   -1.000
 4200.00    0.94885   0.95405   -1.000
 4201.00    0.95783   0.95819  498.340
 4202.00    0.96919   0.96402  494.294
 4203.00    0.97239   0.97510  486.976
 4204.00    0.97272   0.99013   -1.000
 4205.00    0.98461   1.00432   -1.000
 4206.00    0.99823   1.01646   -1.000
 4207.00    1.00985   1.02603   -1.000
 4208.00    1.01293   1.03028   -1.000
 4209.00    1.01293   1.02995   -1.000
 4210.00    1.01145   1.02984   -1.000
 4211.00    1.01239   1.03290   -1.000
 4212.00    1.00988   1.03489   -1.000
 4213.00    1.00891   1.02601   -1.000
 4214.00    0.99653   1.00717   -1.000
 4215.00    0.96363   0.99171   -1.000
 4216.00    0.96311   0.99151   -1.000
 4217.00    0.99461   1.00864   -1.000
 4218.00    1.02734   1.03135  431.150
 4219.00    1.03841   1.04828   -1.000
 4220.00    1.04447   1.05504   -1.000
 4221.00    1.04221   1.05016   -1.000
 4222.00    1.02500   1.03104   -1.000
 4223.00    0.98798   0.99576   -1.000
 4224.00    0.96701   0.94790   -1.000
 4225.00    0.90030   0.90294  596.045
 4226.00    0.85171   0.88137   -1.000
 4227.00    0.85902   0.89836   -1.000
 4228.00    0.91601   0.94761   -1.000
 4229.00    0.97916   1.00309   -1.000
 4230.00    1.01638   1.03598   -1.000
 4231.00    1.02431   1.03986   -1.000
 4232.00    1.01593   1.02688   -1.000
 4233.00    1.00069   1.00928   -1.000
 4234.00    1.00666   0.99579   -1.000
 4235.00    0.99021   0.99091  472.464
 4236.00    0.97619   0.99161   -1.000
 4237.00    0.96805   0.99626   -1.000
 4238.00    0.98065   1.00590   -1.000
 4239.00    0.99341   1.01849   -1.000
 4240.00    1.00539   1.03173   -1.000
 4241.00    1.01254   1.04332   -1.000
 4242.00    1.02434   1.05164   -1.000
 4243.00    1.02716   1.05691   -1.000
 4244.00    1.03234   1.05822   -1.000
 4245.00    1.03520   1.05071   -1.000
 4246.00    1.00991   1.03160   -1.000
 4247.00    0.98648   1.00811   -1.000
 4248.00    0.97252   0.98993   -1.000
 4249.00    0.96854   0.98249   -1.000
 4250.00    0.95884   0.98631   -1.000
 4251.00    0.97369   0.99807   -1.000
 4252.00    0.99957   1.00780   -1.000
 4253.00    0.99987   1.00954   -1.000
 4254.00    0.98581   1.00854   -1.000
 4255.00    0.98878   1.01347   -1.000
 4256.00    1.01231   1.02389   -1.000
 4257.00    1.02719   1.02606  444.099
 4258.00    1.00578   1.01149  463.365
 4259.00    0.98454   0.99077   -1.000
 4260.00    0.96163   0.98206   -1.000
 4261.00    0.96796   0.99518   -1.000
 4262.00    0.99610   1.02359   -1.000
 4263.00    1.02177   1.05210   -1.000
 4264.00    1.04260   1.06802   -1.000
 4265.00    1.04358   1.06931   -1.000
 4266.00    1.04011   1.06156   -1.000
 4267.00    1.03055   1.04735   -1.000
 4268.00    1.01320   1.02600   -1.000
 4269.00    0.98972   0.99763   -1.000
 4270.00    0.96222   0.96612  504.965
 4271.00    0.92515   0.94191   -1.000
 4272.00    0.91342   0.93320   -1.000
 4273.00    0.92511   0.94082   -1.000
 4274.00    0.93208   0.95998   -1.000
 4275.00    0.95284   0.98651   -1.000
 4276.00    0.98523   1.01678   -1.000
 4277.00    1.01741   1.04091   -1.000
 4278.00    1.02007   1.04720   -1.000
 4279.00    1.00497   1.03680   -1.000
 4280.00    0.98187   1.02159   -1.000
 4281.00    0.98197   1.01434   -1.000
 4282.00    0.99348   1.01557   -1.000
 4283.00    0.98929   1.01686   -1.000
 4284.00    0.98596   1.01346   -1.000
 4285.00    0.97251   1.00497   -1.000
 4286.00    0.95565   0.99259   -1.000
 4287.00    0.94164   0.97578   -1.000
 4288.00    0.91772   0.95407   -1.000
 4289.00    0.89218   0.93431   -1.000
 4290.00    0.89535   0.92957   -1.000
 4291.00    0.91544   0.94346   -1.000
 4292.00    0.94523   0.96418   -1.000
 4293.00    0.96572   0.97491   -1.000
 4294.00    0.96669   0.97186  481.079
 4295.00    0.96082   0.96263  489.693
 4296.00    0.94499   0.94833  503.203
 4297.00    0.91610   0.92470   -1.000
 4298.00    0.87127   0.89417   -1.000
 4299.00    0.83404   0.86514   -1.000
 4300.00    0.82311   0.84723   -1.000
 4301.00    0.82684   0.84361   -1.000
 4302.00    0.83144   0.85031   -1.000
 4303.00    0.84204   0.86137   -1.000
 4304.00    0.85916   0.87095   -1.000
 4305.00    0.86753   0.87125  582.338
 4306.00    0.84883   0.85960   -1.000
 4307.00    0.82559   0.84354   -1.000
 4308.00    0.81257   0.83560   -1.000
 4309.00    0.81911   0.84312   -1.000
 4310.00    0.83468   0.86254   -1.000
 4311.00    0.86293   0.88570   -1.000
 4312.00    0.88497   0.90689   -1.000
 4313.00    0.89852   0.93056   -1.000
 4314.00    0.92928   0.96452   -1.000
 4315.00    0.97979   1.00890   -1.000
 4316.00    1.03406   1.05403   -1.000
 4317.00    1.07155   1.08343   -1.000
 4318.00    1.07222   1.09110   -1.000
 4319.00    1.05439   1.08309   -1.000
 4320.00    1.04457   1.06664   -1.000
 4321.00    1.02222   1.04304   -1.000
 4322.00    0.99395   1.01035   -1.000
 4323.00    0.95832   0.96993   -1.000
 4324.00    0.91256   0.93351   -1.000
 4325.00    0.89084   0.92044   -1.000
 4326.00    0.90929   0.94110   -1.000
 4327.00    0.95902   0.98262   -1.000
 4328.00    1.00777   1.02036   -1.000
 4329.00    1.02435   1.03726   -1.000
 4330.00    1.01245   1.03691   -1.000
 4331.00    1.00019   1.03243   -1.000
 4332.00    1.00375   1.03011   -1.000
 4333.00    1.00757   1.02619   -1.000
 4334.00    1.00065   1.01265   -1.000
 4335.00    0.98344   0.98184  408.592
 4336.00    0.93817   0.92946   -1.000
 4337.00    0.86886   0.85753   -1.000
 4338.00    0.79468   0.77968   -1.000
 4339.00    0.72697   0.72068   -1.000
 4340.00    0.68439   0.70027   -1.000
 4341.00    0.70397   0.72720   -1.000
 4342.00    0.77696   0.79036   -1.000
 4343.00    0.85626   0.86189  444.802
 4344.00    0.90452   0.91913   -1.000
 4345.00    0.93679   0.95972   -1.000
 4346.00    0.96212   0.99008   -1.000
 4347.00    0.97925   1.01487   -1.000
 4348.00    0.99744   1.03004   -1.000
 4349.00    1.01205   1.02620   -1.000
 4350.00    0.99406   1.00326  434.441
 4351.00    0.94912   0.97786   -1.000
 4352.00    0.93963   0.97040   -1.000
 4353.00    0.96590   0.98853   -1.000
 4354.00    1.00033   1.01987   -1.000
 4355.00    1.01815   1.04713   -1.000
 4356.00    1.02903   1.06228   -1.000
 4357.00    1.03392   1.06585   -1.000
 4358.00    1.04785   1.06266   -1.000
 4359.00    1.04124   1.06192   -1.000
 4360.00    1.04128   1.07016   -1.000
 4361.00    1.05441   1.08420   -1.000
 4362.00    1.06420   1.09787   -1.000
 4363.00    1.06874   1.10788   -1.000
 4364.00    1.07914   1.11253   -1.000
 4365.00    1.08089   1.10888   -1.000
 4366.00    1.06016   1.09525   -1.000
 4367.00    1.04140   1.07731   -1.000
 4368.00    1.03430   1.06510   -1.000
 4369.00    1.03658   1.06070   -1.000
 4370.00    1.04503   1.05887   -1.000
 4371.00    1.05328   1.05357  413.337
 4372.00    1.03970   1.04070  419.833
 4373.00    1.01712   1.02080  437.785
 4374.00    0.98326   1.00293   -1.000
 4375.00    0.98948   1.00160   -1.000
 4376.00    1.01794   1.02090  428.027
 4377.00    1.04602   1.04941  408.677
 4378.00    1.05794   1.06917  403.821
 4379.00    1.06062   1.07102  407.552
 4380.00    1.06330   1.05388   -1.000
 4381.00    1.04018   1.01714   -1.000
 4382.00    0.98036   0.96764   -1.000
 4383.00    0.93383   0.92772   -1.000
 4384.00    0.90650   0.91891   -1.000
 4385.00    0.93824   0.94379  480.949
 4386.00    0.98984   0.98309   -1.000
 4387.00    1.01355   1.01198  430.247
 4388.00    1.02947   1.02364   -1.000
 4389.00    1.03204   1.02555   -1.000
 4390.00    1.03712   1.02726   -1.000
 4391.00    1.03771   1.03287   -1.000
 4392.00    1.04708   1.03851   -1.000
 4393.00    1.04986   1.03779   -1.000
 4394.00    1.03484   1.03279  431.697
 4395.00    1.02575   1.03549  426.208
 4396.00    1.05109   1.04992  406.871
 4397.00    1.07561   1.06335   -1.000
 4398.00    1.06908   1.06281   -1.000
 4399.00    1.04947   1.05021  421.734
 4400.00    1.01848   1.03950   -1.000
 4401.00    1.02729   1.03702  424.510
 4402.00    1.04711   1.03448   -1.000
 4403.00    1.03718   1.02369   -1.000
 4404.00    1.01475   1.00902   -1.000
 4405.00    1.00123   1.00382  459.969
 4406.00    1.01167   1.01263  444.941
 4407.00    1.01927   1.02670  439.448
 4408.00    1.01742   1.04122   -1.000
 4409.00    1.02536   1.06039   -1.000
 4410.00    1.05793   1.08445   -1.000
 4411.00    1.08732   1.10271   -1.000
 4412.00    1.09961   1.10289  385.020
 4413.00    1.08737   1.08360  398.323
 4414.00    1.06238   1.05482   -1.000
 4415.00    1.03377   1.03273  432.344
 4416.00    1.02715   1.03163  426.619
 4417.00    1.03861   1.05055   -1.000
 4418.00    1.05970   1.07777   -1.000
 4419.00    1.08572   1.09928   -1.000
 4420.00    1.09680   1.10646  390.067
 4421.00    1.08645   1.09998   -1.000
 4422.00    1.07088   1.09071   -1.000
 4423.00    1.06386   1.08736   -1.000
 4424.00    1.05394   1.08814   -1.000
 4425.00    1.05610   1.08860   -1.000
 4426.00    1.05922   1.08865   -1.000
 4427.00    1.04908   1.09059   -1.000
 4428.00    1.04709   1.09384   -1.000
 4429.00    1.05516   1.09588   -1.000
 4430.00    1.05559   1.09675   -1.000
 4431.00    1.06043   1.09759   -1.000
 4432.00    1.07375   1.09413   -1.000
 4433.00    1.06234   1.08147   -1.000
 4434.00    1.03945   1.06531   -1.000
 4435.00    1.02545   1.06020   -1.000
 4436.00    1.03901   1.07674   -1.000
 4437.00    1.07989   1.10801   -1.000
 4438.00    1.10603   1.13406   -1.000
 4439.00    1.11685   1.13978   -1.000
 4440.00    1.10425   1.12304   -1.000
 4441.00    1.07169   1.09543   -1.000
 4442.00    1.04512   1.07310   -1.000
 4443.00    1.03067   1.06952   -1.000
 4444.00    1.04733   1.08580   -1.000
 4445.00    1.08090   1.11126   -1.000
 4446.00    1.09464   1.13079   -1.000
 4447.00    1.10156   1.13821   -1.000
 4448.00    1.10889   1.13856   -1.000
 4449.00    1.10556   1.13684   -1.000
 4450.00    1.09953   1.13414   -1.000
 4451.00    1.09746   1.13023   -1.000
 4452.00    1.09817   1.12222   -1.000
 4453.00    1.08446   1.10587   -1.000
 4454.00    1.05625   1.08399   -1.000
 4455.00    1.03638   1.06918   -1.000
 4456.00    1.04225   1.06904   -1.000
 4457.00    1.05830   1.07719   -1.000
 4458.00    1.06795   1.08290   -1.000
 4459.00    1.05889   1.08274   -1.000
 4460.00    1.05460   1.08040   -1.000
 4461.00    1.05738   1.08190   -1.000
 4462.00    1.07103   1.09151   -1.000
 4463.00    1.08813   1.10611   -1.000
 4464.00    1.09177   1.11775   -1.000
 4465.00    1.09702   1.12095   -1.000
 4466.00    1.10082   1.11556   -1.000
 4467.00    1.09011   1.10529   -1.000
 4468.00    1.07670   1.09616   -1.000
 4469.00    1.07314   1.09465   -1.000
 4470.00    1.06463   1.10494   -1.000
 4471.00    1.08408   1.12504   -1.000
 4472.00    1.11685   1.14689   37.564
 4473.00    1.14655   1.16383   36.682
 4474.00    1.15057   1.17317   36.476
 4475.00    1.15277   1.17785   36.498
 4476.00    1.15279   1.18223   36.171
 4477.00    1.16011   1.18344   36.060
 4478.00    1.15275   1.17243   36.588
 4479.00    1.14502   1.14585   38.066
 4480.00    1.11229   1.11527   39.709
 4481.00    1.08765   1.09890   40.516
 4482.00    1.08769   1.10705   39.746
 4483.00    1.10030   1.13523   38.026
 4484.00    1.12913   1.16730   36.711
 4485.00    1.15426   1.18806   36.105
 4486.00    1.15864   1.19083   36.338
 4487.00    1.15142   1.17715   37.311
 4488.00    1.13028   1.15586   38.688
 4489.00    1.11136   1.14098   39.313
 4490.00    1.11639   1.14161   38.700
 4491.00    1.13162   1.15358   37.700
 4492.00    1.13778   1.16216   37.325
 4493.00    1.14580   1.15765   38.055
 4494.00    1.13277   1.14625   39.203
 4495.00    1.10597   1.14038   39.803
 4496.00    1.10465   1.14571   39.128
 4497.00    1.12691   1.15784   37.768
 4498.00    1.14869   1.16748   36.838
 4499.00    1.14928   1.16804   36.643
 4500.00    1.13351   1.16203   37.084
 4501.00    1.11769   1.16063   37.063
 4502.00    1.13841   1.17117   35.981
 4503.00    1.16699   1.19023   34.830
 4504.00    1.18842   1.20723   34.397
 4505.00    1.19249   1.21371   34.759
 4506.00    1.18291   1.20961   35.439
 4507.00    1.17789   1.20133   35.707
 4508.00    1.17086   1.19638   35.665
 4509.00    1.17601   1.19735   35.378
 4510.00    1.18673   1.20030   35.228
 4511.00    1.19050   1.19901   35.629
 4512.00    1.17568   1.19180   36.349
 4513.00    1.16347   1.18229   36.920
 4514.00    1.15958   1.17442   37.053
 4515.00    1.15011   1.16998   36.874
 4516.00    1.14639   1.16792   36.940
 4517.00    1.14549   1.16605   37.380
 4518.00    1.14321   1.16479   37.432
 4519.00    1.14574   1.16657   36.729
 4520.00    1.15816   1.17052   36.144
 4521.00    1.16116   1.17123   36.430
 4522.00    1.15073   1.16509   37.319
 4523.00    1.13291   1.15530   37.992
 4524.00    1.12069   1.14677   38.346
 4525.00    1.12140   1.13814   39.102
 4526.00    1.10729   1.12562   40.320
 4527.00    1.09376   1.10974   41.339
 4528.00    1.07877   1.09664   41.657
 4529.00    1.08189   1.09327   41.235
 4530.00    1.09329   1.09978   40.481
 4531.00    1.10408   1.10870   39.835
 4532.00    1.10345   1.10962   39.893
 4533.00    1.08773   1.09978   41.133
 4534.00    1.07437   1.08951   42.205
 4535.00    1.07244   1.09356   41.205
 4536.00    1.09999   1.11684   38.745
 4537.00    1.14191   1.14865   36.676
 4538.00    1.17198   1.17269   35.985
 4539.00    1.17248   1.18021   36.495
 4540.00    1.16401   1.17578   37.247
 4541.00    1.16226   1.16994   37.115
 4542.00    1.15928   1.16846   36.856
 4543.00    1.15612   1.16922   38.802
 4544.00    1.14549   1.16713   39.570
 4545.00    1.13638   1.16191   18.584
 4546.00    0.82689   1.15628   -1.000
 4547.00    0.04425   1.14796   -1.000
 4548.00   -0.01675   1.13418    0.000
 4549.00    0.26630   1.12115   -1.000
 4550.00    0.75369   1.11983   -1.000
 4551.00    0.34153   1.13063   -1.000
 4552.00    1.02415   1.13968   -1.000
 4553.00    1.13519   1.13720   39.234
 4554.00    1.10098   1.12956   39.414
 4555.00    1.10305   1.12959   38.618
 4556.00    1.12275   1.14374   37.137
 4557.00    1.15045   1.16623   35.782
 4558.00    1.17995   1.18557   35.340
 4559.00    1.17945   1.19698   35.541
 4560.00    1.18158   1.20207   35.512
 4561.00    1.18046   1.20052   35.669
 4562.00    1.16992   1.19044   36.556
 4563.00    1.15307   1.17494   37.423
 4564.00    1.13886   1.16343   37.862
 4565.00    1.14091   1.16384   37.294
 4566.00    1.15899   1.17565   36.312
 4567.00    1.18375   1.19089   35.454
 4568.00    1.19601   1.19977   35.258
 4569.00    1.18411   1.19668   35.772
 4570.00    1.16658   1.18352   36.716
 4571.00    1.14481   1.16908   37.468
 4572.00    1.13701   1.16484   36.977
 4573.00    1.16154   1.17497   35.920
 4574.00    1.18198   1.18973   35.531
 4575.00    1.18105   1.19733   35.603
 4576.00    1.17720   1.19613   35.782
 4577.00    1.18063   1.18966   36.062
 4578.00    1.17086   1.17872   36.783
 4579.00    1.14502   1.16366   37.855
 4580.00    1.13354   1.14888   38.462
 4581.00    1.13927   1.13998   38.233
 4582.00    1.13786   1.13774   37.717
 4583.00    1.13399   1.13879   37.520
 4584.00    1.14034   1.14158   37.673
 4585.00    1.14487   1.14665   37.783
 4586.00    1.15409   1.15506   37.137
 4587.00    1.16567   1.16695   36.171
 4588.00    1.17241   1.17855   35.537
 4589.00    1.17663   1.18482   35.619
 4590.00    1.16926   1.18434   36.196
 4591.00    1.16033   1.17853   36.872
 4592.00    1.15629   1.17075   37.410
 4593.00    1.15480   1.16611   37.352
 4594.00    1.15833   1.16664   37.021
 4595.00    1.16322   1.16997   36.765
 4596.00    1.16706   1.17450   36.681
 4597.00    1.17176   1.17867   36.603
 4598.00    1.18010   1.18005   36.591
 4599.00    1.18251   1.17816   36.936
 4600.00    1.16774   1.17440   37.228
 4601.00    1.16205   1.17120   37.232
 4602.00    1.15640   1.17052   36.808
 4603.00    1.16774   1.17225   36.477
 4604.00    1.17387   1.17516   36.540
 4605.00    1.18382   1.17909   36.412
 4606.00    1.18802   1.18571   35.941
 4607.00    1.19582   1.19621   35.203
 4608.00    1.20773   1.20816   34.506
 4609.00    1.21510   1.21685   34.214
 4610.00    1.20774   1.21810   34.451
 4611.00    1.20715   1.21245   34.927
 4612.00    1.19684   1.20528   35.281
 4613.00    1.19367   1.20134   35.430
 4614.00    1.19600   1.20198   35.210
 4615.00    1.19694   1.20449   34.920
 4616.00    1.19550   1.20537   34.854
 4617.00    1.19420   1.20403   35.112
 4618.00    1.19043   1.20173   35.322
 4619.00    1.18357   1.20103   35.219
 4620.00    1.20181   1.20457   34.827
 4621.00    1.20455   1.21142   34.357
 4622.00    1.21910   1.21705   34.391
 4623.00    1.21715   1.21814   34.479
 4624.00    1.20893   1.21536   34.590
 4625.00    1.19811   1.21181   34.881
 4626.00    1.20135   1.20953   34.935
 4627.00    1.20149   1.20841   34.955
 4628.00    1.20045   1.20738   35.168
 4629.00    1.19226   1.20704   35.190
 4630.00    1.19144   1.20927   34.959
 4631.00    1.19800   1.21289   34.642
 4632.00    1.19789   1.21375   34.888
 4633.00    1.18949   1.21021   35.396
 4634.00    1.19366   1.20478   35.704
 4635.00    1.19226   1.20070   35.707
 4636.00    1.19432   1.19748   36.048
 4637.00    1.17729   1.19389   36.478
 4638.00    1.17294   1.19116   36.574
 4639.00    1.18182   1.19201   36.410
 4640.00    1.19531   1.19853   35.713
 4641.00    1.20941   1.20871   34.892
 4642.00    1.21684   1.21677   34.543
 4643.00    1.22143   1.21759   34.804
 4644.00    1.20099   1.20968   35.539
 4645.00    1.18627   1.19513   36.558
 4646.00    1.17307   1.17847   37.418
 4647.00    1.16839   1.16817   37.384
 4648.00    1.17970   1.17037   36.642
 4649.00    1.18148   1.18275   35.838
 4650.00    1.19504   1.19795   35.441
 4651.00    1.19934   1.20895   35.399
 4652.00    1.18806   1.21171   35.411
 4653.00    1.19415   1.20628   35.931
 4654.00    1.19059   1.19657   36.715
 4655.00    1.17497   1.18957   36.981
 4656.00    1.17368   1.19096   36.469
 4657.00    1.18801   1.20269   35.220
 4658.00    1.21156   1.22216   33.958
 4659.00    1.23048   1.24081   33.353
 4660.00    1.23632   1.24897   33.435
 4661.00    1.22754   1.24409   33.947
 4662.00    1.21257   1.23161   34.776
 4663.00    1.20645   1.21807   35.344
 4664.00    1.20699   1.20489   35.483
 4665.00    1.20289   1.18828   36.259
 4666.00    1.18173   1.16720   37.869
 4667.00    1.15520   1.14846   39.169
 4668.00    1.14907   1.14326   38.899
 4669.00    1.14989   1.15528   37.562
 4670.00    1.17802   1.17594   36.068
 4671.00    1.20053   1.19420   35.257
 4672.00    1.21028   1.20411   35.128
 4673.00    1.20712   1.20771   35.155
 4674.00    1.21137   1.21156   35.038
 4675.00    1.20958   1.21819   34.546
 4676.00    1.22497   1.22329   34.146
 4677.00    1.22391   1.22032   34.456
 4678.00    1.21539   1.20889   35.226
 4679.00    1.19219   1.19493   35.898
 4680.00    1.17901   1.18365   36.442
 4681.00    1.18378   1.17890   36.635
 4682.00    1.18587   1.18232   36.050
 4683.00    1.19695   1.19112   35.194
 4684.00    1.21749   1.19973   34.860
 4685.00    1.22730   1.20437   34.990
 4686.00    1.22538   1.20506   35.031
 4687.00    1.21591   1.20393   35.206
 4688.00    1.21757   1.20299   35.197
 4689.00    1.21520   1.20250   35.246
 4690.00    1.21023   1.20147   35.482
 4691.00    1.20816   1.20038   35.456
 4692.00    1.21810   1.20182   34.989
 4693.00    1.23088   1.20684   34.415
 4694.00    1.24683   1.21321   33.692
 4695.00    1.24224   1.21797   33.387
 4696.00    1.24278   1.21768   33.725
 4697.00    1.23499   1.20940   34.753
 4698.00    1.21555   1.19568   35.691
 4699.00    1.20632   1.18337   35.944
 4700.00    1.20309   1.17541   35.718
 4701.00    1.19881   1.16882   36.083
 4702.00    1.18800   1.16269   36.662
 4703.00    1.18577   1.16108   36.665
 4704.00    1.19492   1.16656   35.951
 4705.00    1.19725   1.17458   35.614
 4706.00    1.19408   1.17738   36.207
 4707.00    1.18290   1.17298   36.879
 4708.00    1.17911   1.16712   37.114
 4709.00    1.18190   1.16771   36.724
 4710.00    1.19334   1.17695   35.609
 4711.00    1.22110   1.18920   34.751
 4712.00    1.22876   1.19608   34.560
 4713.00    1.21595   1.19413   34.985
 4714.00    1.21166   1.18943   35.547
 4715.00    1.21516   1.19105   35.382
 4716.00    1.21746   1.20146   34.647
 4717.00    1.22898   1.21571   34.064
 4718.00    1.23916   1.22749   33.894
 4719.00    1.24031   1.23455   33.778
 4720.00    1.23760   1.23694   33.735
 4721.00    1.22745   1.23541   34.037
 4722.00    1.22607   1.23265   34.195
 4723.00    1.22477   1.23281   33.940
 4724.00    1.22057   1.23567   33.639
 4725.00    1.23221   1.23493   33.850
 4726.00    1.22996   1.22546   34.799
 4727.00    1.21281   1.20829   36.057
 4728.00    1.19540   1.19086   36.662
 4729.00    1.18413   1.18121   36.434
 4730.00    1.19036   1.18038   36.066
 4731.00    1.19990   1.18542   35.759
 4732.00    1.20615   1.19425   35.341
 4733.00    1.20835   1.20386   35.061
 4734.00    1.21119   1.20995   34.867
 4735.00    1.21718   1.21040   34.776
 4736.00    1.21181   1.20758   35.122
 4737.00    1.20657   1.20647   35.056
 4738.00    1.22132   1.20960   34.660
 4739.00    1.22736   1.21428   34.735
 4740.00    1.21593   1.21664   34.919
 4741.00    1.20990   1.21739   34.896
 4742.00    1.21801   1.21969   34.580
 4743.00    1.22747   1.22375   34.279
 4744.00    1.23427   1.22782   34.365
 4745.00    1.23712   1.23188   34.340
 4746.00    1.24063   1.23691   34.051
 4747.00    1.23111   1.24328   33.751
 4748.00    1.23345   1.24957   33.717
 4749.00    1.23424   1.25378   33.769
 4750.00    1.23715   1.25591   33.830
 4751.00    1.24737   1.25575   34.115
 4752.00    1.23603   1.25188   34.492
 4753.00    1.22841   1.24477   34.766
 4754.00    1.22125   1.23754   34.947
 4755.00    1.21315   1.23305   34.905
 4756.00    1.21259   1.23281   35.075
 4757.00    1.21733   1.23637   35.302
 4758.00    1.21823   1.24153   35.268
 4759.00    1.22316   1.24558   34.999
 4760.00    1.21332   1.24512   35.058
 4761.00    1.19965   1.23725   35.699
 4762.00    1.19090   1.22343   36.535
 4763.00    1.18878   1.20961   36.906
 4764.00    1.18764   1.20129   36.916
 4765.00    1.18489   1.19943   36.799
 4766.00    1.19645   1.20340   36.484
 4767.00    1.20740   1.21327   35.906
 4768.00    1.21472   1.22821   35.131
 4769.00    1.22268   1.24387   34.760
 4770.00    1.23223   1.25341   34.889
 4771.00    1.22674   1.25381   35.199
 4772.00    1.21369   1.25028   35.379
 4773.00    1.22327   1.25109   34.868
 4774.00    1.23817   1.25884   34.196
 4775.00    1.24223   1.26786   34.037
 4776.00    1.24301   1.27263   34.089
 4777.00    1.24271   1.27341   34.216
 4778.00    1.23585   1.27111   34.475
 4779.00    1.22195   1.26576   34.839
 4780.00    1.21565   1.25965   35.013
 4781.00    1.21295   1.25570   35.111
 4782.00    1.21743   1.25340   35.308
 4783.00    1.21938   1.25049   35.544
 4784.00    1.21451   1.24693   35.538
 4785.00    1.21413   1.24282   35.709
 4786.00    1.21841   1.23734   36.050
 4787.00    1.20396   1.23240   36.205
 4788.00    1.20271   1.23084   36.130
 4789.00    1.20505   1.23241   35.937
 4790.00    1.21072   1.23675   35.685
 4791.00    1.21499   1.24521   35.265
 4792.00    1.22636   1.25787   34.636
 4793.00    1.24450   1.27270   33.886
 4794.00    1.25657   1.28638   33.397
 4795.00    1.26671   1.29406   33.381
 4796.00    1.26589   1.29283   33.802
 4797.00    1.24354   1.28306   34.494
 4798.00    1.24351   1.26873   35.095
 4799.00    1.22588   1.25792   35.366
 4800.00    1.23344   1.25753   34.945
 4801.00    1.24293   1.26709   34.255
 4802.00    1.24948   1.27920   33.873
 4803.00    1.24800   1.28374   34.023
 4804.00    1.24344   1.27673   34.496
 4805.00    1.23073   1.26523   34.913
 4806.00    1.22379   1.25720   35.164
 4807.00    1.23309   1.25513   35.125
 4808.00    1.23607   1.25775   35.020
 4809.00    1.23263   1.26257   34.829
 4810.00    1.24190   1.26729   34.517
 4811.00    1.24116   1.27085   34.287
 4812.00    1.23601   1.27356   34.141
 4813.00    1.24240   1.27649   34.105
 4814.00    1.24381   1.28028   34.011
 4815.00    1.25002   1.28485   33.870
 4816.00    1.25517   1.29026   33.652
 4817.00    1.25713   1.29591   33.457
 4818.00    1.26795   1.29984   33.348
 4819.00    1.26999   1.30075   33.344
 4820.00    1.25992   1.29847   33.399
 4821.00    1.25234   1.29112   33.816
 4822.00    1.24412   1.27718   34.697
 4823.00    1.23059   1.26070   35.211
 4824.00    1.22926   1.25026   35.006
 4825.00    1.23276   1.25117   34.375
 4826.00    1.24511   1.25962   33.971
 4827.00    1.24292   1.26644   34.193
 4828.00    1.23777   1.26673   34.575
 4829.00    1.23670   1.26254   34.739
 4830.00    1.23591   1.25747   34.780
 4831.00    1.22768   1.25266   35.072
 4832.00    1.22964   1.24940   35.002
 4833.00    1.23387   1.25023   34.429
 4834.00    1.24977   1.25507   34.038
 4835.00    1.25250   1.26042   33.961
 4836.00    1.23605   1.26264   34.045
 4837.00    1.24309   1.26138   34.268
 4838.00    1.23632   1.25710   34.779
 4839.00    1.22579   1.25016   35.300
 4840.00    1.21231   1.24360   35.274
 4841.00    1.22008   1.24049   35.177
 4842.00    1.22089   1.23984   34.979
 4843.00    1.22642   1.24007   34.697
 4844.00    1.23434   1.24261   34.309
 4845.00    1.23916   1.24791   33.827
 4846.00    1.23319   1.25156   33.826
 4847.00    1.22174   1.24775   34.522
 4848.00    1.21933   1.23778   34.933
 4849.00    1.21686   1.23000   34.815
 4850.00    1.21799   1.22831   34.380
 4851.00    1.21802   1.22838   34.369
 4852.00    1.21068   1.22437   34.595
 4853.00    1.19023   1.21174   35.028
 4854.00    1.16325   1.18899   36.104
 4855.00    1.13978   1.16178   36.922
 4856.00    1.12762   1.13947   36.736
 4857.00    1.12667   1.12072   36.599
 4858.00    1.09608   1.08935   38.040
 4859.00    1.00986   1.02709   41.641
 4860.00    0.90866   0.94002   46.115
 4861.00    0.83888   0.87038   47.229
 4862.00    0.85951   0.86111   43.887
 4863.00    0.95388   0.91666   40.185
 4864.00    1.03541   0.99870   38.039
 4865.00    1.08732   1.06866   36.829
 4866.00    1.12337   1.11623   36.152
 4867.00    1.15145   1.14762   35.871
 4868.00    1.16529   1.16740   35.809
 4869.00    1.16349   1.17402   36.266
 4870.00    1.15652   1.16607   37.299
 4871.00    1.13738   1.15111   37.980
 4872.00    1.13535   1.14480   37.463
 4873.00    1.15424   1.15691   36.441
 4874.00    1.17158   1.17998   35.890
 4875.00    1.18275   1.19973   35.640
 4876.00    1.18712   1.21087   35.462
 4877.00    1.18402   1.21812   35.272
 4878.00    1.18617   1.22799   34.767
 4879.00    1.20441   1.24095   34.526
 4880.00    1.21248   1.25119   34.909
 4881.00    1.20146   1.25257   35.431
 4882.00    1.20295   1.24619   35.566
 4883.00    1.20311   1.23901   35.490
 4884.00    1.19587   1.23354   35.760
 4885.00    1.18870   1.22824   36.263
 4886.00    1.19728   1.22396   36.371
 4887.00    1.20265   1.22240   36.188
 4888.00    1.19248   1.22046   36.251
 4889.00    1.19786   1.21273   36.861
 4890.00    1.17735   1.19977   37.496
 4891.00    1.17360   1.19265   36.969
 4892.00    1.19517   1.20525   35.395
 4893.00    1.22982   1.23711   33.849
 4894.00    1.26663   1.27339   32.938
 4895.00    1.27455   1.30058   32.416
 4896.00    1.29316   1.31439   32.317
 4897.00    1.28191   1.31689   32.509
 4898.00    1.27072   1.31141   33.252
 4899.00    1.25573   1.30090   33.968
 4900.00    1.24913   1.28979   34.228
 4901.00    1.25232   1.28219   34.081
 4902.00    1.25320   1.27745   34.206
 4903.00    1.24084   1.27388   34.496
 4904.00    1.24079   1.27517   34.025
 4905.00    1.25640   1.28517   33.366
 4906.00    1.26845   1.29756   33.226
 4907.00    1.26880   1.30026   33.643
 4908.00    1.25551   1.28994   34.506
 4909.00    1.24138   1.27248   35.413
 4910.00    1.22900   1.25646   35.674
 4911.00    1.23424   1.24971   35.141
 4912.00    1.24274   1.25485   34.526
 4913.00    1.25056   1.26758   34.062
 4914.00    1.25851   1.28120   33.645
 4915.00    1.26823   1.29051   33.435
 4916.00    1.27108   1.28925   33.791
 4917.00    1.24464   1.27059   35.132
 4918.00    1.21195   1.23490   37.047
 4919.00    1.17822   1.19460   38.566
 4920.00    1.16202   1.16733   38.647
 4921.00    1.17679   1.16477   37.309
 4922.00    1.20440   1.18138   36.096
 4923.00    1.21403   1.20034   35.676
 4924.00    1.21111   1.21331   35.579
 4925.00    1.22274   1.22664   35.022
 4926.00    1.24453   1.24638   34.142
 4927.00    1.26063   1.26849   33.595
 4928.00    1.27546   1.28679   33.303
 4929.00    1.28124   1.29988   33.082
 4930.00    1.28597   1.30649   32.979
 4931.00    1.28430   1.30292   33.426
 4932.00    1.25975   1.28707   34.414
 4933.00    1.22887   1.26418   35.468
 4934.00    1.22522   1.24734   35.385
 4935.00    1.23880   1.24437   34.838
 4936.00    1.24134   1.24625   35.023
 4937.00    1.22333   1.23981   36.082
 4938.00    1.20731   1.22619   36.836
 4939.00    1.20646   1.21998   36.299
 4940.00    1.22329   1.23205   35.045
 4941.00    1.25517   1.25855   34.011
 4942.00    1.27249   1.28605   33.454
 4943.00    1.28236   1.30305   33.218
 4944.00    1.28299   1.30767   33.291
 4945.00    1.27621   1.30438   33.506
 4946.00    1.26712   1.30040   33.503
 4947.00    1.26743   1.30148   33.172
 4948.00    1.28025   1.30802   32.829
 4949.00    1.28593   1.31550   32.731
 4950.00    1.28987   1.31927   32.648
 4951.00    1.28937   1.31857   32.838
 4952.00    1.28450   1.31494   33.095
 4953.00    1.28525   1.30976   33.489
 4954.00    1.27444   1.30083   33.995
 4955.00    1.25928   1.28110   35.072
 4956.00    1.23015   1.24686   36.848
 4957.00    1.18917   1.21094   37.908
 4958.00    1.18945   1.19912   36.809
 4959.00    1.22749   1.22150   34.816
 4960.00    1.25617   1.26066   33.810
 4961.00    1.27419   1.29300   33.651
 4962.00    1.28042   1.30780   33.840
 4963.00    1.27317   1.30774   34.138
 4964.00    1.26598   1.29838   34.606
 4965.00    1.25710   1.28409   35.301
 4966.00    1.25283   1.27076   35.669
 4967.00    1.24942   1.26388   35.644
 4968.00    1.24513   1.26309   35.507
 4969.00    1.24239   1.26604   35.218
 4970.00    1.24880   1.27279   34.837
 4971.00    1.25477   1.28282   34.455
 4972.00    1.27100   1.29370   34.058
 4973.00    1.27547   1.30269   33.772
 4974.00    1.27954   1.30734   33.708
 4975.00    1.27649   1.30682   33.976
 4976.00    1.26955   1.30134   34.357
 4977.00    1.27156   1.29144   34.845
 4978.00    1.26409   1.28027   35.392
 4979.00    1.24809   1.27045   35.837
 4980.00    1.22539   1.25829   36.469
 4981.00    1.20762   1.23894   37.691
 4982.00    1.19007   1.21456   38.690
 4983.00    1.17796   1.19565   38.521
 4984.00    1.19071   1.19322   37.709
 4985.00    1.21231   1.20789   36.613
 4986.00    1.23118   1.23222   35.494
 4987.00    1.24878   1.25730   34.788
 4988.00    1.25624   1.27393   34.930
 4989.00    1.25078   1.27595   35.432
 4990.00    1.23993   1.26778   35.728
 4991.00    1.24150   1.25991   35.672
 4992.00    1.24249   1.25891   35.375
 4993.00    1.24308   1.26363   35.255
 4994.00    1.24922   1.27015   35.211
 4995.00    1.25560   1.27719   35.026
 4996.00    1.26460   1.28289   34.923
 4997.00    1.26617   1.28238   35.193
 4998.00    1.25740   1.27191   35.717
 4999.00    1.23175   1.25310   36.397
 5000.00    1.22221   1.23470   36.767
 5001.00    1.23145   1.22665   36.711
 5002.00    1.23747   1.22822   36.372
 5003.00    1.23077   1.23076   36.275
 5004.00    1.22515   1.22630   36.891
 5005.00    1.21264   1.21392   37.712
 5006.00    1.20215   1.20279   37.688
 5007.00    1.21754   1.20537   36.692
 5008.00    1.24302   1.22310   35.702
 5009.00    1.25696   1.24248   35.495
 5010.00    1.25306   1.24903   36.093
 5011.00    1.23478   1.23835   37.247
 5012.00    1.20837   1.21714   38.560
 5013.00    1.19162   1.19726   39.243
 5014.00    1.18339   1.18826   38.896
 5015.00    1.19966   1.19198   38.025
 5016.00    1.21385   1.20030   37.348
 5017.00    1.21968   1.20381   37.238
 5018.00    1.21931   1.20255   37.169
 5019.00    1.22215   1.20551   36.756
 5020.00    1.22985   1.21615   36.545
 5021.00    1.23853   1.22726   36.704
 5022.00    1.24158   1.23437   36.729
 5023.00    1.24458   1.24117   36.477
 5024.00    1.24767   1.25070   36.112
 5025.00    1.24749   1.25923   35.950
 5026.00    1.25090   1.26135   36.134
 5027.00    1.24497   1.25830   36.212
 5028.00    1.24852   1.25737   35.800
 5029.00    1.26472   1.26252   35.146
 5030.00    1.27511   1.27187   34.636
 5031.00    1.28001   1.28272   34.101
 5032.00    1.28529   1.29286   33.796
 5033.00    1.28222   1.29743   34.052
 5034.00    1.26462   1.29094   35.226
 5035.00    1.24658   1.27434   36.487
 5036.00    1.22988   1.25695   36.980
 5037.00    1.22422   1.24617   37.158
 5038.00    1.22014   1.23641   37.811
 5039.00    1.19540   1.21761   39.343
 5040.00    1.16964   1.19129   40.654
 5041.00    1.15741   1.17388   40.240
 5042.00    1.18843   1.18230   38.132
 5043.00    1.22873   1.21508   35.911
 5044.00    1.25915   1.25563   34.603
 5045.00    1.28629   1.28808   33.777
 5046.00    1.30575   1.30461   32.891
 5047.00    1.23017   1.30307   23.136
 5048.00    0.52585   1.28623   -1.000
 5049.00   -0.00284   1.26304    0.000
 5050.00    0.05879   1.24467   -1.000
 5051.00    0.53106   1.23772   -1.000
 5052.00    1.14402   1.24406   35.471
 5053.00    1.28063   1.26169   34.619
 5054.00    1.29730   1.28332   34.053
 5055.00    1.30806   1.29986   33.778
 5056.00    1.30496   1.30816   33.707
 5057.00    1.29936   1.31130   33.775
 5058.00    1.30072   1.31335   33.823
 5059.00    1.30273   1.31658   33.766
 5060.00    1.30666   1.32128   33.576
 5061.00    1.30802   1.32500   33.684
 5062.00    1.30773   1.32222   34.251
 5063.00    1.29022   1.30850   35.312
 5064.00    1.26100   1.28665   36.422
 5065.00    1.24938   1.26734   36.649
 5066.00    1.25371   1.25936   36.155
 5067.00    1.26246   1.26069   35.686
 5068.00    1.26169   1.26488   35.575
 5069.00    1.26765   1.26963   35.391
 5070.00    1.27927   1.27429   35.254
 5071.00    1.27912   1.27594   35.556
 5072.00    1.26401   1.27322   35.699
 5073.00    1.27203   1.26983   35.266
 5074.00    1.28234   1.26963   35.039
 5075.00    1.27784   1.27201   35.003
 5076.00    1.28163   1.27324   35.046
 5077.00    1.27566   1.26789   35.564
 5078.00    1.25084   1.25160   36.924
 5079.00    1.21580   1.22841   38.455
 5080.00    1.20295   1.21224   38.610
 5081.00    1.21977   1.21261   37.752
 5082.00    1.22917   1.22389   37.003
 5083.00    1.23880   1.23720   36.476
 5084.00    1.25642   1.25135   35.791
 5085.00    1.28064   1.26656   35.249
 5086.00    1.29254   1.27907   35.048
 5087.00    1.29056   1.28598   34.982
 5088.00    1.29053   1.28917   34.786
 5089.00    1.29599   1.29258   34.542
 5090.00    1.29772   1.29762   34.356
 5091.00    1.29892   1.30361   34.136
 5092.00    1.30873   1.31029   33.751
 5093.00    1.31111   1.31630   33.567
 5094.00    1.30975   1.31761   33.971
 5095.00    1.32579   1.31012   34.701
 5096.00    1.31194   1.29316   35.470
 5097.00    1.27189   1.27096   36.313
 5098.00    1.25417   1.25119   36.947
 5099.00    1.24255   1.24265   36.840
 5100.00    1.25260   1.25054   35.867
 5101.00    1.27709   1.26926   34.960
 5102.00    1.29213   1.28623   34.777
 5103.00    1.29825   1.29311   35.049
 5104.00    1.28900   1.29050   35.518
 5105.00    1.27974   1.28205   35.964
 5106.00    1.26668   1.26947   36.406
 5107.00    1.25440   1.25571   36.765
 5108.00    1.24458   1.24614   36.655
 5109.00    1.24763   1.24380   36.408
 5110.00    1.25039   1.24920   36.094
 5111.00    1.25905   1.26195   35.580
 5112.00    1.27379   1.27885   35.147
 5113.00    1.29154   1.29387   34.740
 5114.00    1.30279   1.30371   34.456
 5115.00    1.29987   1.31000   34.241
 5116.00    1.31376   1.31575   33.886
 5117.00    1.31643   1.32140   33.680
 5118.00    1.31965   1.32417   33.860
 5119.00    1.31339   1.32101   34.330
 5120.00    1.30205   1.31132   34.860
 5121.00    1.29090   1.29641   35.499
 5122.00    1.26751   1.27804   36.459
 5123.00    1.25191   1.25958   37.404
 5124.00    1.24256   1.24669   37.515
 5125.00    1.23781   1.24270   37.188
 5126.00    1.25399   1.24452   37.005
 5127.00    1.25783   1.24645   36.835
 5128.00    1.24983   1.24684   36.882
 5129.00    1.24690   1.24846   36.757
 5130.00    1.25726   1.25430   36.230
 5131.00    1.27162   1.26412   35.669
 5132.00    1.28181   1.27448   35.382
 5133.00    1.28917   1.28298   35.048
 5134.00    1.28989   1.28927   34.782
 5135.00    1.29551   1.29209   34.839
 5136.00    1.29283   1.28791   35.540
 5137.00    1.27287   1.27464   36.359
 5138.00    1.25154   1.25750   36.824
 5139.00    1.23937   1.24634   36.778
 5140.00    1.24361   1.24498   36.549
 5141.00    1.24520   1.24798   36.909
 5142.00    1.23610   1.24939   37.366
 5143.00    1.23966   1.25106   37.032
 5144.00    1.25417   1.25680   36.488
 5145.00    1.26470   1.26269   36.473
 5146.00    1.26432   1.26294   36.786
 5147.00    1.26359   1.26005   36.758
 5148.00    1.26762   1.25948   36.331
 5149.00    1.26340   1.26049   36.265
 5150.00    1.25656   1.25804   36.784
 5151.00    1.24404   1.25089   37.384
 5152.00    1.24036   1.24435   37.525
 5153.00    1.25134   1.24368   37.212
 5154.00    1.26261   1.24986   36.431
 5155.00    1.27771   1.26259   35.495
 5156.00    1.30035   1.28012   34.639
 5157.00    1.31403   1.29737   34.078
 5158.00    1.31888   1.30922   33.891
 5159.00    1.32409   1.31412   33.919
 5160.00    1.31721   1.31284   34.054
 5161.00    1.31013   1.30649   34.290
 5162.00    1.30989   1.29631   34.714
 5163.00    1.29906   1.28144   35.410
 5164.00    1.27593   1.25515   37.093
 5165.00    1.23291   1.20899   40.394
 5166.00    1.16335   1.14594   44.391
 5167.00    1.09594   1.08897   46.529
 5168.00    1.08390   1.06684   45.061
 5169.00    1.12516   1.08287   42.786
 5170.00    1.16237   1.10708   -1.000
 5171.00    1.13912   1.10634   45.886
 5172.00    1.08708   1.08575   48.006
 5173.00    1.09420   1.08376   45.114
 5174.00    1.16551   1.12330   40.339
 5175.00    1.23449   1.18756   37.422
 5176.00    1.27986   1.24279   36.283
 5177.00    1.30739   1.27324   35.975
 5178.00    1.30992   1.28416   36.000
 5179.00    1.30393   1.28243   36.551
 5180.00    1.28700   1.26548   38.132
 5181.00    1.24484   1.22482   41.274
 5182.00    1.16811   1.16249   45.891
 5183.00    1.08800   1.10369   48.231
 5184.00    1.08610   1.08391   45.051
 5185.00    1.15777   1.11811   40.122
 5186.00    1.23735   1.18087   -1.000
 5187.00    1.28394   1.23270   36.242
 5188.00    1.28798   1.25845   35.991
 5189.00    1.27946   1.26523   35.954
 5190.00    1.27475   1.25998   36.515
 5191.00    1.24961   1.24422   37.687
 5192.00    1.22341   1.22540   38.456
 5193.00    1.21707   1.21705   38.026
 5194.00    1.23323   1.22264   37.373
 5195.00    1.25636   1.23383   36.827
 5196.00    1.27458   1.24519   36.248
 5197.00    1.27777   1.25759   35.530
 5198.00    1.28935   1.27164   34.995
 5199.00    1.31025   1.28511   34.773
 5200.00    1.31300   1.29399   34.813
 5201.00    1.30529   1.29458   35.179
 5202.00    1.28882   1.28474   35.869
 5203.00    1.27245   1.26447   36.760
 5204.00    1.24867   1.23750   37.931
 5205.00    1.22661   1.21212   38.893
 5206.00    1.22605   1.19610   38.995
 5207.00    1.22287   1.19045   39.214
 5208.00    1.21892   1.19122   39.290
 5209.00    1.23381   1.19876   38.530
 5210.00    1.25720   1.21874   37.177
 5211.00    1.28841   1.24982   35.675
 5212.00    1.31698   1.28023   34.414
 5213.00    1.32966   1.29787   33.950
 5214.00    1.32418   1.29719   34.467
 5215.00    1.30105   1.28315   35.227
 5216.00    1.28218   1.26937   35.489
 5217.00    1.28569   1.26857   35.062
 5218.00    1.31079   1.28249   34.326
 5219.00    1.33371   1.30239   33.869
 5220.00    1.33824   1.31878   33.647
 5221.00    1.34465   1.32644   33.631
 5222.00    1.34587   1.32293   34.213
 5223.00    1.32813   1.30644   35.365
 5224.00    1.29222   1.27619   36.887
 5225.00    1.24875   1.23651   38.491
 5226.00    1.21684   1.20156   39.133
 5227.00    1.21366   1.19022   37.921
 5228.00    1.25468   1.21006   35.859
 5229.00    1.30287   1.24822   34.591
 5230.00    1.32677   1.28096   34.129
 5231.00    1.33150   1.29167   34.251
 5232.00    1.31555   1.28150   34.971
 5233.00    1.30210   1.26496   35.447
 5234.00    1.28777   1.25907   35.181
 5235.00    1.30398   1.27076   34.328
 5236.00    1.32999   1.29325   33.596
 5237.00    1.34483   1.31499   33.311
 5238.00    1.34842   1.32824   33.326
 5239.00    1.33869   1.33283   33.405
 5240.00    1.34679   1.33298   33.308
 5241.00    1.34772   1.33185   33.154
 5242.00    1.33913   1.33110   33.195
 5243.00    1.34537   1.33192   33.122
 5244.00    1.34709   1.33312   33.214
 5245.00    1.33878   1.32950   33.998
 5246.00    1.31628   1.31688   35.033
 5247.00    1.29487   1.29954   35.685
 5248.00    1.29680   1.28616   35.730
 5249.00    1.29511   1.27915   35.830
 5250.00    1.28612   1.27616   35.989
 5251.00    1.29179   1.27769   35.727
 5252.00    1.30816   1.28374   35.243
 5253.00    1.31155   1.28960   34.975
 5254.00    1.30248   1.29216   34.947
 5255.00    1.31552   1.29583   34.563
 5256.00    1.32655   1.30777   33.697
 5257.00    1.35016   1.32698   32.905
 5258.00    1.36495   1.34262   32.770
 5259.00    1.36204   1.34478   33.228
 5260.00    1.34201   1.33027   34.274
 5261.00    1.30751   1.30129   35.795
 5262.00    1.26422   1.26475   37.420
 5263.00    1.23511   1.22923   38.583
 5264.00    1.22139   1.20178   39.209
 5265.00    1.21643   1.18788   39.115
 5266.00    1.22379   1.18802   38.386
 5267.00    1.24143   1.19270   38.007
 5268.00    1.24484   1.18697   -1.000
 5269.00    1.20923   1.16979   40.226
 5270.00    1.19504   1.16199   39.058
 5271.00    1.24425   1.18209   -1.000
 5272.00    1.29070   1.22183   -1.000
 5273.00    1.29858   1.25467   35.256
 5274.00    1.29834   1.26735   35.272
 5275.00    1.30198   1.27097   35.059
 5276.00    1.31631   1.28178   34.241
 5277.00    1.33972   1.30373   33.150
 5278.00    1.36525   1.32624   32.730
 5279.00    1.37353   1.33529   33.094
 5280.00    1.36142   1.32668   33.940
 5281.00    1.33790   1.30743   34.774
 5282.00    1.31195   1.28811   35.300
 5283.00    1.29999   1.27799   35.262
 5284.00    1.31208   1.28411   34.422
 5285.00    1.34945   1.30655   33.342
 5286.00    1.34730   1.33483   32.455
 5287.00    1.31583   1.35531   32.341
 5288.00    1.37628   1.36438   32.499
 5289.00    1.38244   1.36771   32.444
 5290.00    1.38645   1.36939   32.268
 5291.00    1.38447   1.36897   32.260
 5292.00    1.38291   1.36565   32.489
 5293.00    1.38244   1.36042   32.829
 5294.00    1.37740   1.35242   33.364
 5295.00    1.35820   1.33723   34.376
 5296.00    1.31455   1.31333   35.643
 5297.00    1.29183   1.28850   36.330
 5298.00    1.28937   1.27557   35.888
 5299.00    1.30766   1.28022   34.989
 5300.00    1.32896   1.29466   34.443
 5301.00    1.33665   1.30819   34.205
 5302.00    1.33693   1.31988   33.664
 5303.00    1.35660   1.33429   32.787
 5304.00    1.38050   1.35073   32.309
 5305.00    1.38040   1.36207   32.337
 5306.00    1.37878   1.36368   32.669
 5307.00    1.37523   1.35976   32.847
 5308.00    1.37508   1.35835   32.575
 5309.00    1.39009   1.36270   32.254
 5310.00    1.40162   1.36912   32.105
 5311.00    1.39841   1.37194   32.182
 5312.00    1.38686   1.36970   32.363
 5313.00    1.37863   1.36385   32.520
 5314.00    1.37458   1.35477   32.780
 5315.00    1.36891   1.34291   33.104
 5316.00    1.35787   1.33184   33.337
 5317.00    1.35211   1.32742   33.276
 5318.00    1.35691   1.33200   33.036
 5319.00    1.36687   1.34049   32.957
 5320.00    1.36934   1.34548   33.117
 5321.00    1.36153   1.34306   33.389
 5322.00    1.35641   1.33265   33.832
 5323.00    1.34197   1.31714   34.380
 5324.00    1.33436   1.30248   34.611
 5325.00    1.33328   1.28971   34.774
 5326.00    1.31631   1.26997   36.051
 5327.00    1.26973   1.23843   38.232
 5328.00    1.23819   1.21032   38.795
 5329.00    1.25628   1.21085   36.957
 5330.00    1.29946   1.24504   -1.000
 5331.00    1.34181   1.28852   34.016
 5332.00    1.36026   1.31742   33.706
 5333.00    1.36402   1.33062   33.368
 5334.00    1.36962   1.33780   33.026
 5335.00    1.37351   1.34324   32.973
 5336.00    1.36848   1.34506   33.207
 5337.00    1.35834   1.34110   33.452
 5338.00    1.35188   1.33040   33.927
 5339.00    1.33964   1.31356   34.765
 5340.00    1.31961   1.29703   35.169
 5341.00    1.32284   1.29228   34.682
 5342.00    1.34534   1.30372   33.771
 5343.00    1.36336   1.32130   33.313
 5344.00    1.37870   1.33202   33.393
 5345.00    1.37220   1.33244   33.623
 5346.00    1.37061   1.32680   33.828
 5347.00    1.35954   1.31988   34.020
 5348.00    1.34757   1.31419   34.290
 5349.00    1.34908   1.31285   34.227
 5350.00    1.35591   1.31981   33.602
 5351.00    1.37577   1.33363   32.882
 5352.00    1.38674   1.34768   32.560
 5353.00    1.38144   1.35815   32.442
 5354.00    1.38917   1.36652   32.141
 5355.00    1.40579   1.37517   31.756
 5356.00    1.40998   1.38291   31.585
 5357.00    1.40687   1.38697   31.634
 5358.00    1.40805   1.38704   31.697
 5359.00    1.41422   1.38371   31.871
 5360.00    1.40222   1.37656   32.296
 5361.00    1.38146   1.36592   32.835
 5362.00    1.36577   1.35394   33.259
 5363.00    1.35641   1.34295   33.468
 5364.00    1.35147   1.33427   33.662
 5365.00    1.34789   1.32867   33.801
 5366.00    1.35734   1.32630   33.697
 5367.00    1.36108   1.32465   33.776
 5368.00    1.34688   1.31751   34.247
 5369.00    1.32911   1.30019   35.176
 5370.00    1.30133   1.27735   36.057
 5371.00    1.29970   1.26382   35.791
 5372.00    1.32061   1.27342   34.316
 5373.00    1.35084   1.30391   32.874
 5374.00    1.38404   1.33821   32.237
 5375.00    1.40522   1.36115   32.102
 5376.00    1.41815   1.36960   32.202
 5377.00    1.41880   1.36979   32.217
 5378.00    1.40760   1.36793   32.311
 5379.00    1.39734   1.36492   32.535
 5380.00    1.38590   1.35918   32.867
 5381.00    1.37355   1.35084   33.156
 5382.00    1.36707   1.34319   33.267
 5383.00    1.37147   1.34031   33.204
 5384.00    1.38042   1.34377   32.995
 5385.00    1.39424   1.35145   32.688
 5386.00    1.39856   1.35856   32.690
 5387.00    1.39937   1.36043   32.888
 5388.00    1.38935   1.35537   33.257
 5389.00    1.37428   1.34517   33.752
 5390.00    1.37068   1.33368   34.071
 5391.00    1.36991   1.32436   34.179
 5392.00    1.36649   1.31814   34.205
 5393.00    1.35829   1.31429   34.349
 5394.00    1.34625   1.31037   34.657
 5395.00    1.34053   1.30198   35.182
 5396.00    1.32812   1.28843   35.768
 5397.00    1.31686   1.27866   35.503
 5398.00    1.33879   1.28324   -1.000
 5399.00    1.37017   1.30077   -1.000
 5400.00    1.37568   1.32000   -1.000
 5401.00    1.36636   1.33115   33.598
 5402.00    1.36449   1.32940   34.038
 5403.00    1.34524   1.31292   35.150
 5404.00    1.31581   1.28574   36.168
 5405.00    1.29847   1.26148   36.464
 5406.00    1.30476   1.25528   -1.000
 5407.00    1.33061   1.26739   -1.000
 5408.00    1.34984   1.28265   -1.000
 5409.00    1.33749   1.28960   35.345
 5410.00    1.33593   1.29248   34.968
 5411.00    1.35217   1.30259   34.012
 5412.00    1.37517   1.32036   -1.000
 5413.00    1.38592   1.33490   33.089
 5414.00    1.38281   1.34077   33.133
 5415.00    1.38081   1.34334   33.089
 5416.00    1.38228   1.34910   32.829
 5417.00    1.39192   1.35682   32.698
 5418.00    1.38855   1.36025   32.900
 5419.00    1.38409   1.35771   33.213
 5420.00    1.38603   1.35312   33.328
 5421.00    1.38134   1.34944   33.169
 5422.00    1.38064   1.34550   33.166
 5423.00    1.37804   1.33934   33.644
 5424.00    1.36922   1.33460   33.791
 5425.00    1.37462   1.33840   33.335
 5426.00    1.38582   1.34936   32.900
 5427.00    1.38165   1.35438   33.229
 5428.00    1.35751   1.34246   34.243
 5429.00    1.33605   1.32033   35.128
 5430.00    1.34099   1.30643   34.955
 5431.00    1.35318   1.30756   34.412
 5432.00    1.36027   1.31269   34.556
 5433.00    1.35303   1.30952   35.068
 5434.00    1.33814   1.29996   35.347
 5435.00    1.33715   1.29735   35.050
 5436.00    1.35207   1.30993   34.251
 5437.00    1.37058   1.33364   33.338
 5438.00    1.39510   1.35859   32.709
 5439.00    1.41317   1.37697   32.309
 5440.00    1.41562   1.38697   32.099
 5441.00    1.41769   1.39071   32.072
 5442.00    1.41593   1.38974   32.147
 5443.00    1.40843   1.38193   32.625
 5444.00    1.38365   1.36299   33.640
 5445.00    1.34843   1.33350   35.012
 5446.00    1.32914   1.30468   35.835
 5447.00    1.33005   1.29298   35.265
 5448.00    1.34902   1.30487   34.100
 5449.00    1.38408   1.33079   -1.000
 5450.00    1.40555   1.35441   -1.000
 5451.00    1.41152   1.36507   33.186
 5452.00    1.40458   1.36140   33.596
 5453.00    1.38198   1.34541   34.461
 5454.00    1.35580   1.32129   35.416
 5455.00    1.33262   1.30050   35.882
 5456.00    1.34354   1.29811   35.100
 5457.00    1.36883   1.31832   -1.000
 5458.00    1.40179   1.34742   -1.000
 5459.00    1.40694   1.36639   33.142
 5460.00    1.39861   1.36789   33.626
 5461.00    1.39635   1.35654   34.239
 5462.00    1.38334   1.34124   34.626
 5463.00    1.37692   1.33144   34.658
 5464.00    1.37691   1.33250   34.184
 5465.00    1.38691   1.34146   33.844
 5466.00    1.39714   1.35126   33.655
 5467.00    1.40627   1.35822   33.310
 5468.00    1.40718   1.36216   33.291
 5469.00    1.40977   1.36296   33.648
 5470.00    1.40037   1.36031   33.949
 5471.00    1.38737   1.35491   34.062
 5472.00    1.38847   1.34830   34.281
 5473.00    1.38536   1.34062   34.676
 5474.00    1.37290   1.32943   35.235
 5475.00    1.35534   1.31310   35.967
 5476.00    1.33332   1.29659   36.314
 5477.00    1.33372   1.29161   35.736
 5478.00    1.35718   1.30417   -1.000
 5479.00    1.37968   1.32333   -1.000
 5480.00    1.39169   1.33313   -1.000
 5481.00    1.38180   1.33139   -1.000
 5482.00    1.37078   1.32912   34.726
 5483.00    1.38003   1.33602   34.053
 5484.00    1.39750   1.35014   33.438
 5485.00    1.40173   1.36125   33.315
 5486.00    1.38643   1.36209   33.723
 5487.00    1.37619   1.35472   34.155
 5488.00    1.37552   1.34721   34.286
 5489.00    1.38008   1.34547   34.224
 5490.00    1.38250   1.34948   33.960
 5491.00    1.39774   1.35531   33.740
 5492.00    1.40137   1.35903   33.670
 5493.00    1.39441   1.35953   33.748
 5494.00    1.39891   1.35811   33.750
 5495.00    1.39876   1.35538   33.799
 5496.00    1.38865   1.35050   34.067
 5497.00    1.38041   1.34567   34.211
 5498.00    1.37975   1.34592   33.944
 5499.00    1.39220   1.35006   33.688
 5500.00    1.39278   1.35006   34.077
 5501.00    1.37691   1.34280   34.539
 5502.00    1.37761   1.33476   34.477
 5503.00    1.38738   1.33289   -1.000
 5504.00    1.38914   1.33434   -1.000
 5505.00    1.38472   1.33132   -1.000
 5506.00    1.36926   1.32444   34.947
 5507.00    1.36793   1.32222   34.516
 5508.00    1.38139   1.32934   -1.000
 5509.00    1.39980   1.33972   -1.000
 5510.00    1.39437   1.34267   -1.000
 5511.00    1.38418   1.33515   -1.000
 5512.00    1.37636   1.32337   -1.000
 5513.00    1.36237   1.31580   -1.000
 5514.00    1.36544   1.31710   -1.000
 5515.00    1.38620   1.32609   -1.000
 5516.00    1.40570   1.33883   -1.000
 5517.00    1.42546   1.35228   -1.000
 5518.00    1.43017   1.36433   -1.000
 5519.00    1.43167   1.37270   -1.000
 5520.00    1.43410   1.37571   -1.000
 5521.00    1.43088   1.37468   -1.000
 5522.00    1.43244   1.37318   -1.000
 5523.00    1.42663   1.37215   -1.000
 5524.00    1.41639   1.36842   -1.000
 5525.00    1.40338   1.35749   -1.000
 5526.00    1.38409   1.33847   -1.000
 5527.00    1.36494   1.31771   -1.000
 5528.00    1.35317   1.30638   -1.000
 5529.00    1.36609   1.31206   -1.000
 5530.00    1.38689   1.33070   -1.000
 5531.00    1.39760   1.34927   -1.000
 5532.00    1.40238   1.35747   33.734
 5533.00    1.40729   1.35495   -1.000
 5534.00    1.40205   1.34837   -1.000
 5535.00    1.39531   1.34456   -1.000
 5536.00    1.39816   1.34633   -1.000
 5537.00    1.40677   1.35202   -1.000
 5538.00    1.41726   1.35894   -1.000
 5539.00    1.42990   1.36616   -1.000
 5540.00    1.42911   1.37280   -1.000
 5541.00    1.42684   1.37600   -1.000
 5542.00    1.42028   1.37344   -1.000
 5543.00    1.40855   1.36721   33.661
 5544.00    1.40791   1.36229   -1.000
 5545.00    1.40962   1.36145   -1.000
 5546.00    1.41920   1.36422   -1.000
 5547.00    1.42891   1.36990   -1.000
 5548.00    1.43993   1.37799   -1.000
 5549.00    1.44683   1.38588   -1.000
 5550.00    1.43794   1.39006   -1.000
 5551.00    1.43352   1.38922   32.891
 5552.00    1.43137   1.38448   -1.000
 5553.00    1.42737   1.37808   -1.000
 5554.00    1.41935   1.37302   -1.000
 5555.00    1.42268   1.37153   -1.000
 5556.00    1.42319   1.37303   -1.000
 5557.00    1.42670   1.37510   -1.000
 5558.00    1.42445   1.37622   -1.000
 5559.00    1.42116   1.37687   33.363
 5560.00    1.42925   1.37696   -1.000
 5561.00    1.42529   1.37443   -1.000
 5562.00    1.41744   1.36877   -1.000
 5563.00    1.40787   1.36269   -1.000
 5564.00    1.39720   1.35890   34.295
 5565.00    1.40172   1.35720   -1.000
 5566.00    1.40726   1.35575   -1.000
 5567.00    1.40190   1.35383   -1.000
 5568.00    1.39939   1.35205   -1.000
 5569.00    1.39944   1.35126   -1.000
 5570.00    1.39830   1.35111   -1.000
 5571.00    1.40355   1.34968   -1.000
 5572.00    1.40090   1.34697   -1.000
 5573.00    1.38872   1.34638   34.167
 5574.00    1.38377   1.35057   33.801
 5575.00    1.36435   1.35815   33.477
 5576.00    1.32983   1.36518   32.952
 5577.00    1.36802   1.36986   32.645
 5578.00    1.47396   1.37359   -1.000
 5579.00    1.54433   1.37692   -1.000
 5580.00    1.53278   1.37827   -1.000
 5581.00    1.39455   1.37675   34.132
 5582.00    1.40810   1.37368   33.830
 5583.00    1.41687   1.37037   -1.000
 5584.00    1.41782   1.36437   -1.000
 5585.00    1.39555   1.35063   -1.000
 5586.00    1.36743   1.32892   35.899
 5587.00    1.33889   1.30692   36.575
 5588.00    1.32920   1.29456   36.644
 5589.00    1.34300   1.29643   -1.000
 5590.00    1.37067   1.30941   -1.000
 5591.00    1.38008   1.32504   -1.000
 5592.00    1.38718   1.33524   -1.000
 5593.00    1.38680   1.33874   -1.000
 5594.00    1.38691   1.34149   -1.000
 5595.00    1.39342   1.34905   -1.000
 5596.00    1.40569   1.35787   -1.000
 5597.00    1.40476   1.35910   -1.000
 5598.00    1.39220   1.35136   35.233
 5599.00    1.37993   1.34057   35.492
 5600.00    1.37224   1.33044   -1.000
 5601.00    1.37153   1.32219   -1.000
 5602.00    1.36804   1.31995   -1.000
 5603.00    1.37899   1.32916   -1.000
 5604.00    1.39738   1.34991   -1.000
 5605.00    1.41901   1.37428   33.323
 5606.00    1.43826   1.39264   -1.000
 5607.00    1.44361   1.40155   33.015
 5608.00    1.43849   1.40380   33.078
 5609.00    1.43548   1.40391   33.124
 5610.00    1.44552   1.40489   33.065
 5611.00    1.45197   1.40584   -1.000
 5612.00    1.44505   1.40124   -1.000
 5613.00    1.42385   1.38500   34.161
 5614.00    1.39677   1.35815   35.310
 5615.00    1.37623   1.33355   -1.000
 5616.00    1.37129   1.32637   -1.000
 5617.00    1.39428   1.33816   -1.000
 5618.00    1.41803   1.35646   -1.000
 5619.00    1.42201   1.36954   -1.000
 5620.00    1.42765   1.37620   -1.000
 5621.00    1.43636   1.37952   -1.000
 5622.00    1.42718   1.37802   -1.000
 5623.00    1.40932   1.36923   34.832
 5624.00    1.39778   1.35713   35.287
 5625.00    1.39948   1.35080   -1.000
 5626.00    1.40985   1.35568   -1.000
 5627.00    1.42261   1.36789   -1.000
 5628.00    1.43028   1.38029   -1.000
 5629.00    1.44210   1.38991   -1.000
 5630.00    1.44580   1.39623   -1.000
 5631.00    1.45424   1.39838   -1.000
 5632.00    1.44720   1.39606   -1.000
 5633.00    1.44617   1.39076   -1.000
 5634.00    1.43860   1.38464   -1.000
 5635.00    1.43234   1.37847   -1.000
 5636.00    1.43705   1.37219   -1.000
 5637.00    1.42554   1.36713   -1.000
 5638.00    1.42042   1.36499   -1.000
 5639.00    1.42768   1.36477   -1.000
 5640.00    1.42096   1.36391   -1.000
 5641.00    1.41671   1.36212   -1.000
 5642.00    1.41691   1.36197   -1.000
 5643.00    1.41949   1.36513   -1.000
 5644.00    1.43398   1.36997   -1.000
 5645.00    1.43275   1.37416   -1.000
 5646.00    1.42915   1.37706   -1.000
 5647.00    1.43193   1.37853   -1.000
 5648.00    1.43713   1.37810   -1.000
 5649.00    1.44311   1.37638   -1.000
 5650.00    1.44150   1.37579   -1.000
 5651.00    1.43950   1.37791   -1.000
 5652.00    1.43768   1.38082   -1.000
 5653.00    1.43409   1.38092   -1.000
 5654.00    1.43399   1.37686   -1.000
 5655.00    1.41759   1.36887   -1.000
 5656.00    1.40666   1.35572   -1.000
 5657.00    1.38214   1.33807   -1.000
 5658.00    1.35703   1.32320   36.350
 5659.00    1.37115   1.32015   -1.000
 5660.00    1.39409   1.32924   -1.000
 5661.00    1.40258   1.34068   -1.000
 5662.00    1.40240   1.34788   -1.000
 5663.00    1.40758   1.35504   -1.000
 5664.00    1.42237   1.36535   -1.000
 5665.00    1.43177   1.37328   -1.000
 5666.00    1.42993   1.37322   -1.000
 5667.00    1.42196   1.36713   -1.000
 5668.00    1.41196   1.36182   -1.000
 5669.00    1.41180   1.36186   -1.000
 5670.00    1.41635   1.36687   -1.000
 5671.00    1.43502   1.37471   -1.000
 5672.00    1.44153   1.38352   -1.000
 5673.00    1.44201   1.39089   -1.000
 5674.00    1.44153   1.39494   -1.000
 5675.00    1.44128   1.39623   -1.000
 5676.00    1.43723   1.39653   33.159
 5677.00    1.44594   1.39625   -1.000
 5678.00    1.44982   1.39420   -1.000
 5679.00    1.43546   1.38972   -1.000
 5680.00    1.42608   1.38320   -1.000
 5681.00    1.43265   1.37475   -1.000
 5682.00    1.42688   1.36505   -1.000
 5683.00    1.41745   1.35767   -1.000
 5684.00    1.41563   1.35617   -1.000
 5685.00    1.40942   1.35875   -1.000
 5686.00    1.40902   1.36041   -1.000
 5687.00    1.40065   1.35941   -1.000
 5688.00    1.40210   1.35880   -1.000
 5689.00    1.41341   1.36226   -1.000
 5690.00    1.43641   1.37006   -1.000
 5691.00    1.44568   1.37926   -1.000
 5692.00    1.44533   1.38663   -1.000
 5693.00    1.44628   1.39056   -1.000
 5694.00    1.44894   1.39142   -1.000
 5695.00    1.45162   1.39063   -1.000
 5696.00    1.44421   1.38873   -1.000
 5697.00    1.43433   1.38489   -1.000
 5698.00    1.42535   1.37865   -1.000
 5699.00    1.41144   1.37119   -1.000
 5700.00    1.40742   1.36409   -1.000
 5701.00    1.40890   1.35900   -1.000
 5702.00    1.40436   1.35832   -1.000
 5703.00    1.40662   1.36223   -1.000
 5704.00    1.41470   1.36616   -1.000
 5705.00    1.41287   1.36482   -1.000
 5706.00    1.39974   1.35681   -1.000
 5707.00    1.38320   1.34465   35.800
 5708.00    1.36845   1.33227   36.262
 5709.00    1.36482   1.32307   -1.000
 5710.00    1.36197   1.31999   -1.000
 5711.00    1.36693   1.32510   -1.000
 5712.00    1.39275   1.33823   -1.000
 5713.00    1.41836   1.35601   -1.000
 5714.00    1.43184   1.37222   -1.000
 5715.00    1.43662   1.38263   -1.000
 5716.00    1.44381   1.38839   -1.000
 5717.00    1.44491   1.39228   -1.000
 5718.00    1.44498   1.39578   -1.000
 5719.00    1.44974   1.39976   -1.000
 5720.00    1.45491   1.40432   -1.000
 5721.00    1.44587   1.40859   32.836
 5722.00    1.45634   1.41186   -1.000
 5723.00    1.45374   1.41380   32.780
 5724.00    1.44469   1.41314   32.919
 5725.00    1.44342   1.40826   33.236
 5726.00    1.44316   1.40036   -1.000
 5727.00    1.44148   1.39402   -1.000
 5728.00    1.43777   1.39281   -1.000
 5729.00    1.43595   1.39516   -1.000
 5730.00    1.43844   1.39684   -1.000
 5731.00    1.44015   1.39668   -1.000
 5732.00    1.45102   1.39753   -1.000
 5733.00    1.45970   1.40209   -1.000
 5734.00    1.46488   1.40848   -1.000
 5735.00    1.45863   1.41200   -1.000
 5736.00    1.45268   1.41126   -1.000
 5737.00    1.45420   1.40865   -1.000
 5738.00    1.45619   1.40660   -1.000
 5739.00    1.45132   1.40588   -1.000
 5740.00    1.44733   1.40571   -1.000
 5741.00    1.44306   1.40501   33.336
 5742.00    1.43821   1.40413   33.250
 5743.00    1.43988   1.40498   33.175
 5744.00    1.44516   1.40819   32.920
 5745.00    1.45503   1.41095   -1.000
 5746.00    1.45149   1.40971   -1.000
 5747.00    1.44277   1.40495   33.388
 5748.00    1.43953   1.40177   33.412
 5749.00    1.44670   1.40335   -1.000
 5750.00    1.45532   1.40598   -1.000
 5751.00    1.45515   1.40292   -1.000
 5752.00    1.43543   1.39215   -1.000
 5753.00    1.42219   1.38020   -1.000
 5754.00    1.42700   1.37668   -1.000
 5755.00    1.43381   1.38508   -1.000
 5756.00    1.44932   1.40000   -1.000
 5757.00    1.46220   1.41273   -1.000
 5758.00    1.45983   1.41747   -1.000
 5759.00    1.44897   1.41325   33.310
 5760.00    1.43900   1.40291   33.756
 5761.00    1.43240   1.39137   -1.000
 5762.00    1.42929   1.38436   -1.000
 5763.00    1.43683   1.38675   -1.000
 5764.00    1.44596   1.39845   -1.000
 5765.00    1.45596   1.41243   -1.000
 5766.00    1.46777   1.42145   -1.000
 5767.00    1.46980   1.42442   -1.000
 5768.00    1.46290   1.42385   32.668
 5769.00    1.46235   1.42155   -1.000
 5770.00    1.46569   1.41847   -1.000
 5771.00    1.45921   1.41532   -1.000
 5772.00    1.44482   1.41214   33.264
 5773.00    1.43062   1.40862   33.322
 5774.00    1.43574   1.40515   33.334
 5775.00    1.43938   1.40336   33.228
 5776.00    1.44123   1.40403   33.084
 5777.00    1.43072   1.40444   33.102
 5778.00    1.40785   1.40029   33.308
 5779.00    1.38518   1.38968   33.900
 5780.00    1.37433   1.37517   34.618
 5781.00    1.37687   1.36225   34.906
 5782.00    1.38815   1.35550   34.776
 5783.00    1.40243   1.35497   -1.000
 5784.00    1.42048   1.35727   -1.000
 5785.00    1.41712   1.36118   -1.000
 5786.00    1.42385   1.36867   -1.000
 5787.00    1.44691   1.37917   -1.000
 5788.00    1.44506   1.38846   -1.000
 5789.00    1.44525   1.39320   -1.000
 5790.00    1.44504   1.39377   -1.000
 5791.00    1.44192   1.39381   -1.000
 5792.00    1.44562   1.39734   -1.000
 5793.00    1.44609   1.40491   -1.000
 5794.00    1.44731   1.41307   32.747
 5795.00    1.44129   1.41731   32.795
 5796.00    1.43311   1.41549   33.017
 5797.00    1.43582   1.41061   33.139
 5798.00    1.44368   1.40900   32.878
 5799.00    1.46110   1.41389   -1.000
 5800.00    1.47155   1.42236   -1.000
 5801.00    1.47064   1.42885   -1.000
 5802.00    1.46998   1.42941   -1.000
 5803.00    1.47101   1.42391   -1.000
 5804.00    1.46297   1.41626   -1.000
 5805.00    1.45071   1.41148   -1.000
 5806.00    1.44893   1.41165   32.873
 5807.00    1.44838   1.41519   32.753
 5808.00    1.45387   1.41937   32.681
 5809.00    1.46125   1.42283   32.682
 5810.00    1.46672   1.42567   -1.000
 5811.00    1.46735   1.42772   -1.000
 5812.00    1.46938   1.42786   -1.000
 5813.00    1.47898   1.42493   -1.000
 5814.00    1.47235   1.41911   -1.000
 5815.00    1.46517   1.41289   -1.000
 5816.00    1.46895   1.41051   -1.000
 5817.00    1.47682   1.41467   -1.000
 5818.00    1.48214   1.42310   -1.000
 5819.00    1.48021   1.43079   -1.000
 5820.00    1.48358   1.43470   -1.000
 5821.00    1.48565   1.43509   -1.000
 5822.00    1.48152   1.43375   -1.000
 5823.00    1.48699   1.43234   -1.000
 5824.00    1.48958   1.43172   -1.000
 5825.00    1.48957   1.43213   -1.000
 5826.00    1.49301   1.43329   -1.000
 5827.00    1.48966   1.43491   -1.000
 5828.00    1.49393   1.43699   -1.000
 5829.00    1.48858   1.43897   -1.000
 5830.00    1.48239   1.43961   -1.000
 5831.00    1.48811   1.43866   -1.000
 5832.00    1.48649   1.43663   -1.000
 5833.00    1.48892   1.43376   -1.000
 5834.00    1.48765   1.43065   -1.000
 5835.00    1.48073   1.42895   -1.000
 5836.00    1.48292   1.42932   -1.000
 5837.00    1.49445   1.43063   -1.000
 5838.00    1.48621   1.43241   -1.000
 5839.00    1.48187   1.43538   -1.000
 5840.00    1.48308   1.43911   -1.000
 5841.00    1.47658   1.44186   31.849
 5842.00    1.48395   1.44214   -1.000
 5843.00    1.48826   1.43967   -1.000
 5844.00    1.48064   1.43503   -1.000
 5845.00    1.47812   1.42915   -1.000
 5846.00    1.47855   1.42324   -1.000
 5847.00    1.47795   1.41901   -1.000
 5848.00    1.48100   1.41753   -1.000
 5849.00    1.47457   1.41773   -1.000
 5850.00    1.46792   1.41641   -1.000
 5851.00    1.46070   1.41078   -1.000
 5852.00    1.45599   1.40184   -1.000
 5853.00    1.45083   1.39409   -1.000
 5854.00    1.44734   1.39020   -1.000
 5855.00    1.44884   1.38699   -1.000
 5856.00    1.44346   1.37982   -1.000
 5857.00    1.43416   1.37082   -1.000
 5858.00    1.44152   1.36756   -1.000
 5859.00    1.45434   1.37389   -1.000
 5860.00    1.46175   1.38557   -1.000
 5861.00    1.46814   1.39590   -1.000
 5862.00    1.46491   1.40230   -1.000
 5863.00    1.46523   1.40574   -1.000
 5864.00    1.47275   1.40679   -1.000
 5865.00    1.46423   1.40492   -1.000
 5866.00    1.45509   1.40140   -1.000
 5867.00    1.46090   1.40045   -1.000
 5868.00    1.47535   1.40483   -1.000
 5869.00    1.48055   1.41229   -1.000
 5870.00    1.47877   1.41827   -1.000
 5871.00    1.48492   1.42028   -1.000
 5872.00    1.48052   1.41901   -1.000
 5873.00    1.48019   1.41649   -1.000
 5874.00    1.47454   1.41399   -1.000
 5875.00    1.47454   1.41179   -1.000
 5876.00    1.47458   1.40957   -1.000
 5877.00    1.47084   1.40618   -1.000
 5878.00    1.46971   1.40082   -1.000
 5879.00    1.46967   1.39459   -1.000
 5880.00    1.46165   1.38979   -1.000
 5881.00    1.45363   1.38760   -1.000
 5882.00    1.45308   1.38660   -1.000
 5883.00    1.45484   1.38454   -1.000
 5884.00    1.44420   1.38124   -1.000
 5885.00    1.43551   1.37628   -1.000
 5886.00    1.39989   1.36322   34.390
 5887.00    1.31126   1.33122   35.956
 5888.00    1.18129   1.27816   38.421
 5889.00    1.09081   1.22346   -1.000
 5890.00    1.10405   1.19676   40.540
 5891.00    1.20573   1.20989   39.141
 5892.00    1.29931   1.24399   -1.000
 5893.00    1.29481   1.26671   37.363
 5894.00    1.21728   1.26167   38.069
 5895.00    1.14909   1.24073   38.927
 5896.00    1.17603   1.23206   38.398
 5897.00    1.28175   1.25144   37.135
 5898.00    1.36909   1.28797   -1.000
 5899.00    1.41120   1.32234   -1.000
 5900.00    1.43221   1.34682   -1.000
 5901.00    1.44098   1.36325   -1.000
 5902.00    1.45432   1.37409   -1.000
 5903.00    1.46205   1.38053   -1.000
 5904.00    1.46459   1.38372   -1.000
 5905.00    1.45931   1.38527   -1.000
 5906.00    1.46229   1.38698   -1.000
 5907.00    1.46570   1.38983   -1.000
 5908.00    1.46693   1.39318   -1.000
 5909.00    1.46322   1.39587   -1.000
 5910.00    1.45780   1.39716   -1.000
 5911.00    1.45879   1.39595   -1.000
 5912.00    1.45373   1.39066   -1.000
 5913.00    1.44147   1.38144   -1.000
 5914.00    1.43404   1.37192   -1.000
 5915.00    1.43077   1.36711   -1.000
 5916.00    1.42770   1.36865   -1.000
 5917.00    1.42599   1.37449   -1.000
 5918.00    1.43315   1.38154   -1.000
 5919.00    1.44412   1.38731   -1.000
 5920.00    1.45144   1.39052   -1.000
 5921.00    1.44791   1.39140   -1.000
 5922.00    1.43685   1.39136   -1.000
 5923.00    1.44533   1.39236   -1.000
 5924.00    1.45614   1.39537   -1.000
 5925.00    1.45900   1.39929   -1.000
 5926.00    1.46716   1.40192   -1.000
 5927.00    1.46377   1.40116   -1.000
 5928.00    1.46191   1.39639   -1.000
 5929.00    1.45983   1.39029   -1.000
 5930.00    1.45433   1.38779   -1.000
 5931.00    1.45614   1.39049   -1.000
 5932.00    1.45097   1.39428   -1.000
 5933.00    1.45475   1.39459   -1.000
 5934.00    1.46064   1.39186   -1.000
 5935.00    1.45524   1.39063   -1.000
 5936.00    1.45899   1.39387   -1.000
 5937.00    1.46182   1.39936   -1.000
 5938.00    1.45696   1.40236   -1.000
 5939.00    1.45183   1.40024   -1.000
 5940.00    1.44299   1.39424   -1.000
 5941.00    1.44107   1.38797   -1.000
 5942.00    1.44141   1.38510   -1.000
 5943.00    1.44505   1.38710   -1.000
 5944.00    1.45211   1.39205   -1.000
 5945.00    1.44932   1.39624   -1.000
 5946.00    1.45110   1.39653   -1.000
 5947.00    1.44976   1.39244   -1.000
 5948.00    1.44675   1.38738   -1.000
 5949.00    1.45004   1.38593   -1.000
 5950.00    1.45599   1.38809   -1.000
 5951.00    1.44542   1.38998   -1.000
 5952.00    1.44053   1.38985   -1.000
 5953.00    1.44563   1.38950   -1.000
 5954.00    1.44568   1.38981   -1.000
 5955.00    1.43966   1.38924   -1.000
 5956.00    1.44595   1.38706   -1.000
 5957.00    1.44190   1.38582   -1.000
 5958.00    1.44649   1.38872   -1.000
 5959.00    1.45331   1.39552   -1.000
 5960.00    1.47261   1.40325   -1.000
 5961.00    1.47888   1.40908   -1.000
 5962.00    1.47758   1.41165   -1.000
 5963.00    1.46955   1.41091   -1.000
 5964.00    1.46559   1.40770   -1.000
 5965.00    1.45858   1.40370   -1.000
 5966.00    1.46052   1.40149   -1.000
 5967.00    1.46418   1.40249   -1.000
 5968.00    1.46059   1.40550   -1.000
 5969.00    1.46088   1.40884   -1.000
 5970.00    1.46701   1.41184   -1.000
 5971.00    1.46995   1.41391   -1.000
 5972.00    1.47104   1.41411   -1.000
 5973.00    1.47153   1.41182   -1.000
 5974.00    1.46369   1.40656   -1.000
 5975.00    1.45108   1.39867   -1.000
 5976.00    1.43799   1.39104   -1.000
 5977.00    1.43170   1.38737   -1.000
 5978.00    1.44276   1.38938   -1.000
 5979.00    1.45688   1.39546   -1.000
 5980.00    1.45767   1.40144   -1.000
 5981.00    1.45556   1.40287   -1.000
 5982.00    1.45356   1.39792   -1.000
 5983.00    1.44543   1.38926   -1.000
 5984.00    1.44145   1.38262   -1.000
 5985.00    1.43945   1.38243   -1.000
 5986.00    1.44232   1.38790   -1.000
 5987.00    1.44804   1.39486   -1.000
 5988.00    1.44580   1.40025   -1.000
 5989.00    1.44802   1.40299   -1.000
 5990.00    1.45032   1.40324   -1.000
 5991.00    1.45589   1.40318   -1.000
 5992.00    1.46400   1.40588   -1.000
 5993.00    1.46608   1.41125   -1.000
 5994.00    1.47122   1.41543   -1.000
 5995.00    1.47266   1.41482   -1.000
 5996.00    1.46794   1.40978   -1.000
 5997.00    1.45394   1.40411   -1.000
 5998.00    1.44700   1.40162   -1.000
 5999.00    1.45229   1.40276   -1.000
 6000.00    1.45475   1.40455   -1.000
 6001.00    1.45193   1.40414   -1.000
 6002.00    1.45614   1.40145   -1.000
 6003.00    1.45711   1.39907   -1.000
 6004.00    1.44769   1.39834   -1.000
 6005.00    1.44564   1.39669   -1.000
 6006.00    1.43785   1.39131   -1.000
 6007.00    1.43355   1.38436   -1.000
 6008.00    1.42802   1.38195   -1.000
 6009.00    1.43117   1.38740   -1.000
 6010.00    1.43728   1.39609   -1.000
 6011.00    1.44637   1.40065   -1.000
 6012.00    1.45040   1.39944   -1.000
 6013.00    1.45320   1.39659   -1.000
 6014.00    1.44843   1.39582   -1.000
 6015.00    1.44879   1.39643   -1.000
 6016.00    1.45153   1.39621   -1.000
 6017.00    1.45569   1.39498   -1.000
 6018.00    1.44727   1.39289   -1.000
 6019.00    1.43706   1.38947   -1.000
 6020.00    1.43849   1.38594   -1.000
 6021.00    1.44206   1.38481   -1.000
 6022.00    1.44014   1.38679   -1.000
 6023.00    1.43334   1.39099   -1.000
 6024.00    1.44413   1.39658   -1.000
 6025.00    1.45224   1.40267   -1.000
 6026.00    1.45423   1.40789   -1.000
 6027.00    1.45678   1.41203   -1.000
 6028.00    1.46128   1.41584   -1.000
 6029.00    1.46625   1.41905   -1.000
 6030.00    1.46392   1.42117   -1.000
 6031.00    1.46422   1.42287   -1.000
 6032.00    1.46932   1.42479   -1.000
 6033.00    1.47583   1.42664   -1.000
 6034.00    1.47028   1.42825   -1.000
 6035.00    1.46866   1.42958   -1.000
 6036.00    1.46968   1.42975   -1.000
 6037.00    1.47594   1.42804   -1.000
 6038.00    1.47349   1.42471   -1.000
 6039.00    1.46629   1.42082   -1.000
 6040.00    1.46257   1.41774   -1.000
 6041.00    1.45457   1.41558   -1.000
 6042.00    1.45429   1.41405   -1.000
 6043.00    1.46257   1.41545   -1.000
 6044.00    1.46819   1.42119   -1.000
 6045.00    1.46942   1.42806   -1.000
 6046.00    1.47790   1.43249   -1.000
 6047.00    1.47732   1.43443   -1.000
 6048.00    1.46744   1.43510   -1.000
 6049.00    1.46857   1.43497   -1.000
 6050.00    1.46895   1.43413   -1.000
 6051.00    1.46835   1.43236   -1.000
 6052.00    1.47319   1.42937   -1.000
 6053.00    1.47104   1.42528   -1.000
 6054.00    1.46575   1.42070   -1.000
 6055.00    1.46113   1.41663   -1.000
 6056.00    1.46051   1.41449   -1.000
 6057.00    1.46139   1.41510   -1.000
 6058.00    1.46086   1.41778   -1.000
 6059.00    1.46553   1.42098   -1.000
 6060.00    1.46389   1.42260   -1.000
 6061.00    1.46309   1.42058   -1.000
 6062.00    1.43699   1.41380   34.285
 6063.00    1.24445   1.40350   -1.000
 6064.00    1.20942   1.39415   -1.000
 6065.00    1.40664   1.39154   28.292
 6066.00    0.96817   1.39853   -1.000
 6067.00    0.46090   1.41180   -1.000
 6068.00    0.85214   1.42447   -1.000
 6069.00    1.45159   1.43242   33.341
 6070.00    1.45440   1.43612   32.467
 6071.00    1.39623   1.43731   32.382
 6072.00    0.89605   1.43649   -1.000
 6073.00    0.59932   1.43513   -1.000
 6074.00    1.48203   1.43444   -1.000
 6075.00    1.47715   1.43248   -1.000
 6076.00    1.46228   1.42740   -1.000
 6077.00    1.45912   1.42053   -1.000
 6078.00    1.46143   1.41489   -1.000
 6079.00    1.46140   1.41179   -1.000
 6080.00    1.44149   1.40983   -1.000
 6081.00    1.43768   1.40749   34.233
 6082.00    1.44170   1.40541   -1.000
 6083.00    1.44141   1.40488   -1.000
 6084.00    1.44684   1.40589   -1.000
 6085.00    1.44613   1.40776   -1.000
 6086.00    1.44597   1.41028   -1.000
 6087.00    1.45054   1.41278   -1.000
 6088.00    1.45681   1.41332   -1.000
 6089.00    1.44729   1.41069   -1.000
 6090.00    1.43842   1.40656   -1.000
 6091.00    1.44082   1.40413   -1.000
 6092.00    1.44462   1.40517   -1.000
 6093.00    1.44760   1.40934   -1.000
 6094.00    1.45220   1.41489   -1.000
 6095.00    1.44912   1.41966   33.661
 6096.00    1.46059   1.42270   -1.000
 6097.00    1.45736   1.42480   -1.000
 6098.00    1.44664   1.42589   33.792
 6099.00    1.44905   1.42290   33.894
 6100.00    1.43814   1.41189   34.455
 6101.00    1.41899   1.39350   35.274
 6102.00    1.40524   1.37704   -1.000
 6103.00    1.40846   1.37315   -1.000
 6104.00    1.42627   1.38312   -1.000
 6105.00    1.44245   1.39834   -1.000
 6106.00    1.44205   1.41008   -1.000
 6107.00    1.43991   1.41655   34.198
 6108.00    1.44146   1.42044   34.248
 6109.00    1.44561   1.42317   34.209
 6110.00    1.44754   1.42414   34.110
 6111.00    1.44895   1.42373   33.988
 6112.00    1.45108   1.42398   33.954
 6113.00    1.44469   1.42557   33.776
 6114.00    1.44011   1.42678   33.763
 6115.00    1.44525   1.42624   33.939
 6116.00    1.45065   1.42480   34.127
 6117.00    1.44230   1.42256   34.183
 6118.00    1.43917   1.41639   34.449
 6119.00    1.43182   1.40411   34.973
 6120.00    1.41524   1.38792   35.385
 6121.00    1.40177   1.37380   35.632
 6122.00    1.40072   1.36972   -1.000
 6123.00    1.40792   1.37846   -1.000
 6124.00    1.42067   1.39287   34.549
 6125.00    1.43031   1.40359   34.637
 6126.00    1.43046   1.40759   34.795
 6127.00    1.42704   1.40753   34.712
 6128.00    1.42828   1.40789   34.584
 6129.00    1.43507   1.41198   34.266
 6130.00    1.43411   1.41937   34.005
 6131.00    1.44140   1.42631   33.997
 6132.00    1.44884   1.42846   34.139
 6133.00    1.43356   1.42168   34.604
 6134.00    1.41180   1.40294   35.499
 6135.00    1.38851   1.37484   36.536
 6136.00    1.36902   1.34983   37.227
 6137.00    1.36282   1.34206   36.978
 6138.00    1.37085   1.35368   35.920
 6139.00    1.39160   1.37189   35.061
 6140.00    1.40762   1.38283   34.854
 6141.00    1.40703   1.38629   34.955
 6142.00    1.40779   1.39103   34.900
 6143.00    1.41944   1.40092   34.486
 6144.00    1.42532   1.41151   34.163
 6145.00    1.43366   1.41727   34.205
 6146.00    1.44174   1.41683   34.396
 6147.00    1.42866   1.41216   34.627
 6148.00    1.41797   1.40618   34.869
 6149.00    1.41851   1.40160   35.015
 6150.00    1.41619   1.40036   34.962
 6151.00    1.42520   1.40246   34.792
 6152.00    1.43325   1.40552   34.588
 6153.00    1.42809   1.40614   34.656
 6154.00    1.43894   1.40333   -1.000
 6155.00    1.43450   1.39936   -1.000
 6156.00    1.42472   1.39635   -1.000
 6157.00    1.41936   1.39365   35.340
 6158.00    1.41239   1.38766   35.816
 6159.00    1.39498   1.37320   36.635
 6160.00    1.37037   1.34881   37.781
 6161.00    1.34462   1.32255   38.679
 6162.00    1.33579   1.30831   -1.000
 6163.00    1.34208   1.31287   -1.000
 6164.00    1.36042   1.33044   -1.000
 6165.00    1.36906   1.34911   36.553
 6166.00    1.37656   1.36027   36.498
 6167.00    1.36831   1.36117   36.715
 6168.00    1.35720   1.35434   37.209
 6169.00    1.34684   1.34738   37.398
 6170.00    1.35168   1.34856   36.934
 6171.00    1.37103   1.35896   36.227
 6172.00    1.38163   1.37181   35.890
 6173.00    1.38766   1.38104   35.981
 6174.00    1.39961   1.38612   35.969
 6175.00    1.40205   1.38877   35.873
 6176.00    1.39525   1.39049   35.802
 6177.00    1.39994   1.39257   35.680
 6178.00    1.41076   1.39523   35.506
 6179.00    1.40270   1.39766   35.389
 6180.00    1.40251   1.40013   35.263
 6181.00    1.40700   1.40329   35.112
 6182.00    1.41038   1.40625   35.074
 6183.00    1.41161   1.40731   35.176
 6184.00    1.41169   1.40559   35.345
 6185.00    1.40405   1.40093   35.674
 6186.00    1.40012   1.39415   36.070
 6187.00    1.39753   1.38668   36.430
 6188.00    1.38539   1.37810   36.752
 6189.00    1.37745   1.36676   37.064
 6190.00    1.36988   1.35483   37.517
 6191.00    1.35576   1.34953   37.547
 6192.00    1.36362   1.35613   36.918
 6193.00    1.38449   1.37166   36.032
 6194.00    1.39549   1.38782   35.586
 6195.00    1.39962   1.39867   35.447
 6196.00    1.40047   1.40275   35.482
 6197.00    1.39666   1.40031   35.795
 6198.00    1.39429   1.39307   36.198
 6199.00    1.38739   1.38633   36.388
 6200.00    1.37679   1.38582   36.228
 6201.00    1.37511   1.39221   35.801
 6202.00    1.38914   1.40122   35.438
 6203.00    1.40087   1.40835   35.410
 6204.00    1.40531   1.41208   35.401
 6205.00    1.41489   1.41373   35.347
 6206.00    1.41565   1.41502   35.392
 6207.00    1.41557   1.41606   35.509
 6208.00    1.41433   1.41569   35.526
 6209.00    1.40481   1.41282   35.752
 6210.00    1.39761   1.40688   36.086
 6211.00    1.39447   1.39724   36.377
 6212.00    1.39089   1.38430   36.797
 6213.00    1.37699   1.37146   37.334
 6214.00    1.36892   1.36339   37.608
 6215.00    1.37143   1.36207   37.520
 6216.00    1.37618   1.36494   37.041
 6217.00    1.38612   1.36722   37.034
 6218.00    1.38849   1.36615   37.256
 6219.00    1.37500   1.36356   37.020
 6220.00    1.37486   1.36375   36.870
 6221.00    1.38422   1.36831   37.796
 6222.00    1.39101   1.37450   39.860
 6223.00    1.36190   1.37914   37.847
 6224.00    1.21581   1.38181   -1.000
 6225.00    1.30682   1.38334   36.674
 6226.00    1.41848   1.38281   -1.000
 6227.00    1.38869   1.37739   37.037
 6228.00    1.37949   1.36509   37.605
 6229.00    1.36525   1.34858   38.202
 6230.00    1.35240   1.33576   38.499
 6231.00    1.35107   1.33399   38.156
 6232.00    1.36004   1.34429   37.526
 6233.00    1.37806   1.36114   36.826
 6234.00    1.39586   1.37690   36.354
 6235.00    1.40295   1.38556   36.342
 6236.00    1.39426   1.38531   36.661
 6237.00    1.38113   1.37858   37.042
 6238.00    1.37355   1.36964   37.422
 6239.00    1.36859   1.36218   37.761
 6240.00    1.37046   1.35778   37.842
 6241.00    1.36604   1.35489   37.889
 6242.00    1.35719   1.35072   38.198
 6243.00    1.35219   1.34505   38.368
 6244.00    1.34937   1.34040   38.254
 6245.00    1.35824   1.33989   37.953
 6246.00    1.37405   1.34571   -1.000
 6247.00    1.38030   1.35695   37.069
 6248.00    1.38396   1.36864   36.786
 6249.00    1.39279   1.37447   36.885
 6250.00    1.38172   1.37067   37.355
 6251.00    1.36109   1.35885   38.024
 6252.00    1.35446   1.34551   38.405
 6253.00    1.34632   1.33681   38.608
 6254.00    1.34395   1.33378   38.668
 6255.00    1.34241   1.33303   38.736
 6256.00    1.33709   1.33164   39.132
 6257.00    1.33539   1.33067   39.338
 6258.00    1.33980   1.33371   39.001
 6259.00    1.34957   1.34256   38.375
 6260.00    1.36697   1.35517   37.819
 6261.00    1.38194   1.36787   37.292
 6262.00    1.38395   1.37736   36.807
 6263.00    1.37876   1.38153   36.791
 6264.00    1.38223   1.38108   37.119
 6265.00    1.38645   1.37982   37.245
 6266.00    1.37212   1.38093   37.008
 6267.00    1.37095   1.38310   36.836
 6268.00    1.37559   1.38324   37.026
 6269.00    1.37300   1.38147   37.152
 6270.00    1.38045   1.38043   37.057
 6271.00    1.38369   1.38134   36.935
 6272.00    1.38041   1.38233   36.901
 6273.00    1.37870   1.38033   37.062
 6274.00    1.37288   1.37360   37.356
 6275.00    1.35383   1.36284   37.735
 6276.00    1.32985   1.34999   38.465
 6277.00    1.31088   1.33760   39.406
 6278.00    1.30141   1.32781   39.962
 6279.00    1.29073   1.32250   40.063
 6280.00    1.28572   1.32345   39.747
 6281.00    1.29461   1.33137   39.060
 6282.00    1.29859   1.34438   38.404
 6283.00    1.29996   1.35873   37.853
 6284.00    1.31206   1.37108   37.447
 6285.00    1.33396   1.38034   37.143
 6286.00    1.35556   1.38708   36.819
 6287.00    1.36511   1.39129   36.619
 6288.00    1.37749   1.39152   36.634
 6289.00    1.37803   1.38742   36.886
 6290.00    1.37726   1.38116   37.199
 6291.00    1.37197   1.37583   37.418
 6292.00    1.36858   1.37296   37.461
 6293.00    1.37196   1.37155   37.508
 6294.00    1.36894   1.36901   37.636
 6295.00    1.36160   1.36366   37.940
 6296.00    1.34543   1.35698   38.133
 6297.00    1.33529   1.35225   38.142
 6298.00    1.33160   1.35079   38.048
 6299.00    1.33017   1.35028   37.876
 6300.00    1.32621   1.34833   37.834
 6301.00    1.32658   1.34688   38.236
 6302.00    1.33765   1.35004   38.482
 6303.00    1.35993   1.35850   38.007
 6304.00    1.37892   1.36890   37.420
 6305.00    1.37986   1.37796   37.014
 6306.00    1.38381   1.38511   36.704
 6307.00    1.38831   1.39040   36.437
 6308.00    1.39304   1.39288   36.463
 6309.00    1.37908   1.39208   36.665
 6310.00    1.38426   1.38907   36.894
 6311.00    1.38617   1.38531   37.026
 6312.00    1.38470   1.38117   37.151
 6313.00    1.37618   1.37605   37.252
 6314.00    1.37100   1.37007   37.577
 6315.00    1.36332   1.36478   37.644
 6316.00    1.35261   1.36100   37.603
 6317.00    1.35180   1.35886   37.591
 6318.00    1.36504   1.36021   37.603
 6319.00    1.37265   1.36654   37.362
 6320.00    1.37549   1.37551   36.904
 6321.00    1.37972   1.38374   36.611
 6322.00    1.38209   1.39070   36.495
 6323.00    1.39192   1.39726   36.352
 6324.00    1.39954   1.40280   36.169
 6325.00    1.39764   1.40579   36.089
 6326.00    1.39813   1.40612   36.035
 6327.00    1.40199   1.40531   35.892
 6328.00    1.40440   1.40458   35.948
 6329.00    1.39352   1.40439   35.969
 6330.00    1.39595   1.40538   35.954
 6331.00    1.40344   1.40727   35.826
 6332.00    1.41104   1.40709   35.816
 6333.00    1.39917   1.40115   35.926
 6334.00    1.38218   1.38956   36.205
 6335.00    1.37417   1.37816   36.932
 6336.00    1.38111   1.37383   36.831
 6337.00    1.37722   1.37814   36.477
 6338.00    1.38580   1.38734   36.094
 6339.00    1.39519   1.39678   35.751
 6340.00    1.39451   1.40328   35.597
 6341.00    1.40214   1.40509   35.472
 6342.00    1.39653   1.40245   35.594
 6343.00    1.38969   1.39812   35.874
 6344.00    1.39370   1.39582   35.858
 6345.00    1.40078   1.39728   35.723
 6346.00    1.39841   1.40170   35.507
 6347.00    1.39986   1.40768   35.282
 6348.00    1.40457   1.41422   35.196
 6349.00    1.41004   1.41990   35.193
 6350.00    1.40952   1.42300   35.135
 6351.00    1.40753   1.42236   35.210
 6352.00    1.40125   1.41792   35.374
 6353.00    1.39367   1.41108   35.599
 6354.00    1.38771   1.40452   36.008
 6355.00    1.38655   1.40008   36.231
 6356.00    1.37948   1.39670   36.244
 6357.00    1.38151   1.39215   36.440
 6358.00    1.37870   1.38647   36.818
 6359.00    1.36716   1.38166   36.870
 6360.00    1.37467   1.37851   36.705
 6361.00    1.38159   1.37657   36.614
 6362.00    1.37408   1.37635   36.563
 6363.00    1.36377   1.37916   36.397
 6364.00    1.37711   1.38505   36.149
 6365.00    1.39316   1.39248   35.930
 6366.00    1.39456   1.39975   35.731
 6367.00    1.39665   1.40544   35.497
 6368.00    1.40170   1.40834   35.297
 6369.00    1.40177   1.40877   35.248
 6370.00    1.39749   1.40881   35.245
 6371.00    1.39968   1.41053   35.107
 6372.00    1.40016   1.41426   35.027
 6373.00    1.39635   1.41833   35.123
 6374.00    1.39319   1.42056   35.155
 6375.00    1.38946   1.42018   35.251
 6376.00    1.38457   1.41780   35.398
 6377.00    1.38916   1.41430   35.598
 6378.00    1.38566   1.41059   35.820
 6379.00    1.38369   1.40746   35.917
 6380.00    1.38057   1.40557   35.944
 6381.00    1.37270   1.40536   35.999
 6382.00    1.36498   1.40649   35.959
 6383.00    1.37068   1.40806   35.923
 6384.00    1.37120   1.40968   36.093
 6385.00    1.36380   1.41177   36.137
 6386.00    1.36069   1.41429   36.134
 6387.00    1.35479   1.41628   36.258
 6388.00    1.35474   1.41671   36.421
 6389.00    1.35373   1.41464   36.735
 6390.00    1.34566   1.40856   37.055
 6391.00    1.33050   1.39809   37.527
 6392.00    1.31732   1.38691   38.048
 6393.00    1.30499   1.38201   38.236
 6394.00    1.29959   1.38732   37.968
 6395.00    1.31128   1.39864   37.494
 6396.00    1.31096   1.40689   37.548
 6397.00    1.31428   1.40544   37.887
 6398.00    1.29960   1.39497   38.564
 6399.00    1.27335   1.38379   39.323
 6400.00    1.25841   1.38190   39.387
 6401.00    1.26286   1.39211   38.871
 6402.00    1.28015   1.40773   38.344
 6403.00    1.28094   1.41973   38.263
 6404.00    1.27752   1.42355   -1.000
 6405.00    1.26853   1.41947   -1.000
 6406.00    1.25804   1.41075   -1.000
 6407.00    1.24616   1.40228   -1.000
 6408.00    1.24480   1.39806   -1.000
 6409.00    1.23940   1.39814   -1.000
 6410.00    1.22198   1.39935   -1.000
 6411.00    1.20602   1.40012   -1.000
 6412.00    1.19308   1.40162   -1.000
 6413.00    1.19373   1.40453   -1.000
 6414.00    1.19634   1.40787   -1.000
 6415.00    1.19321   1.41060   -1.000
 6416.00    1.19272   1.41181   -1.000
 6417.00    1.18259   1.40979   -1.000
 6418.00    1.16414   1.40327   -1.000
 6419.00    1.14681   1.39432   -1.000
 6420.00    1.12669   1.38862   -1.000
 6421.00    1.11745   1.39121   -1.000
 6422.00    1.10924   1.40143   -1.000
 6423.00    1.11140   1.41368   -1.000
 6424.00    1.12183   1.42311   -1.000
 6425.00    1.11745   1.42876   -1.000
 6426.00    1.09733   1.43105   -1.000
 6427.00    1.08211   1.42863   -1.000
 6428.00    1.07773   1.41974   -1.000
