###################################################################
## OUTPUT of StarlightChains_v04.for    [Cid@UFSC - 01/Apr/2007] ##
###################################################################

## Some input info
NGC6528_a_2.cxt                          [arq_obs]
Base.BC03.S                              [arq_base]
NGC6528_a_2.msk                          [arq_masks]
StCv04.C11.config                        [arq_config]
  150                                    [N_base]
    0                                    [N_YAV_components = # of components with extra extinction!]
    0                                    [i_FitPowerLaw (1/0 = Yes/No)]
-9.99                                    [alpha_PowerLaw]
CCM                                      [red_law_option]
 1.458241                                [q_norm = A(l_norm)/A(V)]

## (Re)Sampling Parameters
 3359.00                                 [l_ini (A)]
 6428.00                                 [l_fin (A)]
    1.00                                 [dl    (A)]     (OBS: dl_cushion =    50.00 A)

## Normalization info
 4020.00                                 [l_norm (A) - for base]
 4010.00                                 [llow_norm (A) - window for f_obs]
 4060.00                                 [lupp_norm (A) - window for f_obs]
4.643135E-15                             [fobs_norm (in input units)]

## S/N
 4730.00                                 [llow_SN (A) - window for S/N]
 4780.00                                 [lupp_SN (A) - window for S/N]
  27.089                                 [S/N in S/N window]
  13.711                                 [S/N in norm. window]
 346.459                                 [S/N_err in S/N window]
 175.352                                 [S/N_err in norm. window]
  1.0000                                 [fscale_chi2]

## etc...
  2147483605                             [idum_orig]
  3068                                   [NOl_eff]
  1217                                   [Nl_eff]
  1851    NSIGMA                         [Ntot_cliped & clip_method]
  2388400                                [Nglobal_steps]
   7                                     [N_chains]
  34                                     [NEX0s_base = N_base in EX0s-fits]
 0   0   1      164   2.0   3.956E+02    [Clip-Bug, RC-Crash & Burn-In warning-flags, n_censored_weights, wei_nsig_threshold & wei_limit]
    83     83.617     83.613      0.004  [idt_all, wdt_TotTime, wdt_UsrTime & wdt_SysTime (sec)]

## Synthesis Results - Best model ##

 2.17480E+00                             [chi2/Nl_eff]
     1.86972                             [adev (%)]

    99.06323                             [sum-of-x (%)]
 4.41028E-14                             [Flux_tot (units of input spectrum!)]
 3.86451E-09                             [Mini_tot (???)]
 1.93464E-09                             [Mcor_tot (???)]

   7.74                                  [v0_min  (km/s)]
  20.66                                  [vd_min  (km/s)]
 1.6831                                  [AV_min  (mag)]
 0.0000                                  [YAV_min (mag)]

# j     x_j(%)      Mini_j(%)     Mcor_j(%)     age_j(yr)     Z_j      (L/M)_j    YAV?  Mstars   component_j        a/Fe...       SSP_chi2r SSP_adev(%)   SSP_AV   SSP_x(%)
  1      2.7832     3.9293E-03    7.8489E-03    1.000000E+06  0.00010  8.160E-03    0   1.0000   age020_m22            0.0000     3.4429E+03    45.0869   4.0000    93.9115
  2      6.2035     1.5017E-03    2.9997E-03    3.160000E+06  0.00010  4.759E-02    0   1.0000   age045_m22            0.0000     4.0592E+02    10.5823   4.0000   100.7218
  3      3.4131     2.0352E-03    3.8954E-03    5.010000E+06  0.00010  1.932E-02    0   0.9582   age055_m22            0.0000     7.3235E+02    14.3631   4.0000    93.1293
  4      0.8987     1.0381E-03    1.9278E-03    6.610000E+06  0.00010  9.973E-03    0   0.9297   age061_m22            0.0000     3.4058E+03    44.5363   4.0000    96.5787
  5      1.1058     1.6566E-03    2.9882E-03    8.710000E+06  0.00010  7.690E-03    0   0.9030   age067_m22            0.0000     3.3342E+03    44.2137   4.0000    97.0991
  6      1.5798     2.8548E-03    5.0764E-03    1.000000E+07  0.00010  6.375E-03    0   0.8902   age070_m22            0.0000     3.3089E+03    44.2532   4.0000    97.2794
  7      0.2514     5.9426E-04    1.0196E-03    1.445000E+07  0.00010  4.874E-03    0   0.8589   age078_m22            0.0000     2.7327E+03    40.3343   4.0000   100.7283
  8      0.0000     0.0000E+00    0.0000E+00    2.512000E+07  0.00010  4.103E-03    0   0.8174   age090_m22            0.0000     1.7216E+03    31.3531   4.0000   106.9488
  9      0.0000     0.0000E+00    0.0000E+00    4.000000E+07  0.00010  3.654E-03    0   0.7830   age104_m22            0.0000     1.2394E+03    24.5231   4.0000   110.0797
 10      0.0000     0.0000E+00    0.0000E+00    5.500000E+07  0.00010  3.093E-03    0   0.7597   age110_m22            0.0000     1.1094E+03    22.3078   4.0000   110.5743
 11      0.0000     0.0000E+00    0.0000E+00    1.015200E+08  0.00010  2.431E-03    0   0.7138   age116_m22            0.0000     8.8615E+02    16.4351   4.0000   109.8657
 12      0.0000     0.0000E+00    0.0000E+00    1.609000E+08  0.00010  1.319E-03    0   0.6775   age120_m22            0.0000     6.9269E+02    10.5811   4.0000   105.7892
 13      0.0000     0.0000E+00    0.0000E+00    2.861200E+08  0.00010  1.075E-03    0   0.6412   age125_m22            0.0000     1.0459E+03    13.8031   4.0000   108.5327
 14      0.0000     0.0000E+00    0.0000E+00    5.088000E+08  0.00010  7.183E-04    0   0.6083   age130_m22            0.0000     1.1405E+03    13.2745   3.9416   106.9905
 15      0.0000     0.0000E+00    0.0000E+00    9.047900E+08  0.00010  4.524E-04    0   0.5785   age135_m22            0.0000     1.1338E+03    13.3317   3.7310   108.2787
 16      0.0000     0.0000E+00    0.0000E+00    1.278050E+09  0.00010  3.018E-04    0   0.5588   age138_m22            0.0000     7.5279E+02    11.0658   3.2107   107.0081
 17      0.0000     0.0000E+00    0.0000E+00    1.434000E+09  0.00010  2.691E-04    0   0.5532   age139_m22            0.0000     6.8025E+02    10.6289   3.0576   106.4755
 18      0.0000     0.0000E+00    0.0000E+00    2.500000E+09  0.00010  1.582E-04    0   0.5296   age150_m22            0.0000     6.4580E+02    10.6442   2.9681   107.4769
 19      0.0000     0.0000E+00    0.0000E+00    4.250000E+09  0.00010  1.007E-04    0   0.5110   age158_m22            0.0000     5.0525E+02     9.9709   2.8338   106.0728
 20      0.0000     0.0000E+00    0.0000E+00    6.250000E+09  0.00010  6.869E-05    0   0.4985   age166_m22            0.0000     3.9618E+02     9.5505   2.7982   103.4656
 21      0.0000     0.0000E+00    0.0000E+00    7.500000E+09  0.00010  5.873E-05    0   0.4931   age171_m22            0.0000     3.8684E+02     9.7301   2.7982   102.9885
 22      0.0000     0.0000E+00    0.0000E+00    1.000000E+10  0.00010  4.481E-05    0   0.4854   age181_m22            0.0000     3.7781E+02     9.6019   2.7561   102.6278
 23      0.0000     0.0000E+00    0.0000E+00    1.300000E+10  0.00010  3.489E-05    0   0.4791   age193_m22            0.0000     3.5786E+02     9.3745   2.6954   102.0822
 24      0.0000     0.0000E+00    0.0000E+00    1.500000E+10  0.00010  3.035E-05    0   0.4766   age201_m22            0.0000     3.4509E+02     9.2609   2.6548   101.9487
 25      0.0000     0.0000E+00    0.0000E+00    1.800000E+10  0.00010  2.510E-05    0   0.4735   age213_m22            0.0000     3.1908E+02     9.0571   2.5862   101.4106
 26      1.5592     2.1236E-03    4.2421E-03    1.000000E+06  0.00040  8.458E-03    0   1.0000   age020_m32            0.0000     3.4693E+03    45.2863   4.0000    94.4728
 27      0.0000     0.0000E+00    0.0000E+00    3.160000E+06  0.00040  3.973E-02    0   1.0000   age045_m32            0.0000     1.6016E+03    29.5347   4.0000   106.6683
 28      0.0000     0.0000E+00    0.0000E+00    5.010000E+06  0.00040  1.935E-02    0   0.9532   age055_m32            0.0000     2.3252E+03    35.7681   4.0000   100.7240
 29      1.6344     1.5638E-03    2.8873E-03    6.610000E+06  0.00040  1.204E-02    0   0.9243   age061_m32            0.0000     2.9766E+03    41.6119   4.0000    99.0485
 30      0.0000     0.0000E+00    0.0000E+00    8.710000E+06  0.00040  9.433E-03    0   0.9001   age067_m32            0.0000     2.8397E+03    40.8002   4.0000   100.1247
 31      0.0000     0.0000E+00    0.0000E+00    1.000000E+07  0.00040  8.053E-03    0   0.8877   age070_m32            0.0000     2.7390E+03    40.0449   4.0000   100.6338
 32      0.0104     1.7042E-05    2.9201E-05    1.445000E+07  0.00040  7.027E-03    0   0.8578   age078_m32            0.0000     1.6417E+03    29.3057   4.0000   104.9162
 33      0.0000     0.0000E+00    0.0000E+00    2.512000E+07  0.00040  4.707E-03    0   0.8166   age090_m32            0.0000     1.1431E+03    22.6520   4.0000   106.9074
 34      0.0000     0.0000E+00    0.0000E+00    4.000000E+07  0.00040  3.714E-03    0   0.7827   age104_m32            0.0000     9.0777E+02    18.0097   4.0000   108.3123
 35      0.0000     0.0000E+00    0.0000E+00    5.500000E+07  0.00040  2.982E-03    0   0.7593   age110_m32            0.0000     8.6809E+02    16.8045   4.0000   108.6400
 36      0.0000     0.0000E+00    0.0000E+00    1.015200E+08  0.00040  2.188E-03    0   0.7143   age116_m32            0.0000     8.5043E+02    13.8783   4.0000   108.9108
 37      0.0000     0.0000E+00    0.0000E+00    1.609000E+08  0.00040  1.690E-03    0   0.6856   age120_m32            0.0000     9.3121E+02    12.8037   4.0000   108.1701
 38      0.0000     0.0000E+00    0.0000E+00    2.861200E+08  0.00040  1.152E-03    0   0.6509   age125_m32            0.0000     1.0502E+03    12.7350   3.9438   106.5813
 39      0.0000     0.0000E+00    0.0000E+00    5.088000E+08  0.00040  7.331E-04    0   0.6182   age130_m32            0.0000     1.0829E+03    13.0338   3.7561   107.2414
 40      0.0000     0.0000E+00    0.0000E+00    9.047900E+08  0.00040  3.960E-04    0   0.5890   age135_m32            0.0000     7.6618E+02    11.2180   3.2897   106.1554
 41      0.0000     0.0000E+00    0.0000E+00    1.278050E+09  0.00040  2.854E-04    0   0.5687   age138_m32            0.0000     6.7880E+02    10.7427   3.0207   108.5874
 42      0.0000     0.0000E+00    0.0000E+00    1.434000E+09  0.00040  2.531E-04    0   0.5632   age139_m32            0.0000     6.6662E+02    10.6799   2.9608   108.5454
 43      0.0000     0.0000E+00    0.0000E+00    2.500000E+09  0.00040  1.488E-04    0   0.5386   age150_m32            0.0000     5.4922E+02     9.9617   2.7087   106.7179
 44      0.0000     0.0000E+00    0.0000E+00    4.250000E+09  0.00040  9.082E-05    0   0.5199   age158_m32            0.0000     3.6639E+02     8.9517   2.6393   103.6236
 45      0.0000     0.0000E+00    0.0000E+00    6.250000E+09  0.00040  6.362E-05    0   0.5076   age166_m32            0.0000     2.7005E+02     8.7728   2.6319   100.6245
 46      0.0000     0.0000E+00    0.0000E+00    7.500000E+09  0.00040  5.289E-05    0   0.5027   age171_m32            0.0000     2.4848E+02     8.5754   2.5963    99.3305
 47      0.0000     0.0000E+00    0.0000E+00    1.000000E+10  0.00040  3.972E-05    0   0.4948   age181_m32            0.0000     2.2915E+02     8.2417   2.5278    97.8588
 48      0.0000     0.0000E+00    0.0000E+00    1.300000E+10  0.00040  3.283E-05    0   0.4870   age193_m32            0.0000     2.6328E+02     8.1016   2.4620   100.5736
 49      0.0000     0.0000E+00    0.0000E+00    1.500000E+10  0.00040  2.925E-05    0   0.4854   age201_m32            0.0000     2.9057E+02     8.1635   2.4301   102.1928
 50      0.0000     0.0000E+00    0.0000E+00    1.800000E+10  0.00040  2.469E-05    0   0.4819   age213_m32            0.0000     2.9699E+02     8.1059   2.3821   102.7157
 51      1.6045     1.6593E-03    3.3145E-03    1.000000E+06  0.00400  1.114E-02    0   1.0000   age020_m42            0.0000     3.2811E+03    43.9108   4.0000    95.0617
 52      0.8148     2.3046E-04    4.6031E-04    3.160000E+06  0.00400  4.073E-02    0   0.9999   age045_m42            0.0000     1.0702E+03    22.9163   4.0000   107.1688
 53      0.0000     0.0000E+00    0.0000E+00    5.010000E+06  0.00400  2.534E-02    0   0.9488   age055_m42            0.0000     1.8724E+03    32.2836   4.0000   103.0452
 54      0.7061     3.1492E-04    5.8000E-04    6.610000E+06  0.00400  2.583E-02    0   0.9220   age061_m42            0.0000     8.9210E+02    19.0559   4.0000   106.4148
 55      0.5214     3.5212E-04    6.3183E-04    8.710000E+06  0.00400  1.706E-02    0   0.8983   age067_m42            0.0000     7.8936E+02    16.1637   4.0000   103.3628
 56      0.6996     6.3411E-04    1.1225E-03    1.000000E+07  0.00400  1.271E-02    0   0.8862   age070_m42            0.0000     8.4788E+02    16.4774   4.0000   102.0058
 57      0.0000     0.0000E+00    0.0000E+00    1.445000E+07  0.00400  7.666E-03    0   0.8571   age078_m42            0.0000     1.3838E+03    25.2740   4.0000   101.6429
 58      0.0000     0.0000E+00    0.0000E+00    2.512000E+07  0.00400  5.070E-03    0   0.8174   age090_m42            0.0000     6.9154E+02    13.5553   4.0000   102.2915
 59      0.0000     0.0000E+00    0.0000E+00    4.000000E+07  0.00400  3.505E-03    0   0.7851   age104_m42            0.0000     4.4128E+02    10.3067   4.0000   101.0191
 60      0.0000     0.0000E+00    0.0000E+00    5.500000E+07  0.00400  3.059E-03    0   0.7629   age110_m42            0.0000     5.4088E+02     9.4442   4.0000   104.8893
 61      0.0000     0.0000E+00    0.0000E+00    1.015200E+08  0.00400  2.268E-03    0   0.7207   age116_m42            0.0000     8.0265E+02    11.3447   4.0000   107.5438
 62      0.0000     0.0000E+00    0.0000E+00    1.609000E+08  0.00400  1.720E-03    0   0.6930   age120_m42            0.0000     8.3077E+02    11.3835   3.9246   107.9245
 63      0.0000     0.0000E+00    0.0000E+00    2.861200E+08  0.00400  1.079E-03    0   0.6613   age125_m42            0.0000     8.1410E+02    11.1578   3.5469   108.3561
 64      0.0000     0.0000E+00    0.0000E+00    5.088000E+08  0.00400  6.261E-04    0   0.6313   age130_m42            0.0000     8.6485E+02    11.5467   3.3459   111.5611
 65      0.0000     0.0000E+00    0.0000E+00    9.047900E+08  0.00400  3.535E-04    0   0.6024   age135_m42            0.0000     6.0689E+02     9.8802   2.9408   112.1790
 66      0.0000     0.0000E+00    0.0000E+00    1.278050E+09  0.00400  2.677E-04    0   0.5837   age138_m42            0.0000     2.5488E+02     7.7751   2.2003   109.1416
 67      0.0000     0.0000E+00    0.0000E+00    1.434000E+09  0.00400  1.910E-04    0   0.5716   age139_m42            0.0000     3.3856E+02     8.2073   2.3807   110.1218
 68      0.0021     2.4685E-04    2.6937E-04    2.500000E+09  0.00400  9.818E-05    0   0.5463   age150_m42            0.0000     1.4999E+02     6.0938   2.1272   104.8985
 69      0.0000     0.0000E+00    0.0000E+00    4.250000E+09  0.00400  5.491E-05    0   0.5269   age158_m42            0.0000     8.8083E+01     4.9242   2.0199   101.9510
 70      0.0000     0.0000E+00    0.0000E+00    6.250000E+09  0.00400  3.857E-05    0   0.5151   age166_m42            0.0000     6.3214E+01     4.7738   1.8773   100.5533
 71      0.0000     0.0000E+00    0.0000E+00    7.500000E+09  0.00400  3.243E-05    0   0.5110   age171_m42            0.0000     5.5472E+01     4.9207   1.7869    99.9129
 72      0.7163     3.4044E-01    3.4193E-01    1.000000E+10  0.00400  2.424E-05    0   0.5028   age181_m42            0.0000     4.9181E+01     5.1123   1.6955    99.1661
 73      0.5927     3.6259E-01    3.5685E-01    1.300000E+10  0.00400  1.883E-05    0   0.4927   age193_m42            0.0000     4.5626E+01     5.2290   1.6517    98.7540
 74      0.5419     3.7052E-01    3.6407E-01    1.500000E+10  0.00400  1.685E-05    0   0.4919   age201_m42            0.0000     4.5156E+01     5.1304   1.6594    98.7846
 75      0.0000     0.0000E+00    0.0000E+00    1.800000E+10  0.00400  1.452E-05    0   0.4874   age213_m42            0.0000     4.4663E+01     4.9777   1.6805    99.0661
 76      1.3735     1.2304E-03    2.4577E-03    1.000000E+06  0.00800  1.286E-02    0   1.0000   age020_m52            0.0000     3.1282E+03    43.1517   4.0000    97.0292
 77      0.0000     0.0000E+00    0.0000E+00    3.160000E+06  0.00800  3.147E-02    0   0.9966   age045_m52            0.0000     2.9597E+03    41.6315   4.0000    98.7607
 78      0.0000     0.0000E+00    0.0000E+00    5.010000E+06  0.00800  2.664E-02    0   0.9443   age055_m52            0.0000     2.1500E+03    34.8435   4.0000   102.4323
 79      0.0000     0.0000E+00    0.0000E+00    6.610000E+06  0.00800  2.151E-02    0   0.9177   age061_m52            0.0000     4.3727E+02    10.9739   4.0000    99.2789
 80      0.0000     0.0000E+00    0.0000E+00    8.710000E+06  0.00800  1.628E-02    0   0.8948   age067_m52            0.0000     7.6766E+02    15.4813   4.0000   103.5408
 81      0.0000     0.0000E+00    0.0000E+00    1.000000E+07  0.00800  1.215E-02    0   0.8827   age070_m52            0.0000     1.1895E+03    23.0650   4.0000   104.5188
 82      0.0000     0.0000E+00    0.0000E+00    1.445000E+07  0.00800  8.739E-03    0   0.8552   age078_m52            0.0000     1.2042E+03    23.4969   4.0000   106.2093
 83      0.0000     0.0000E+00    0.0000E+00    2.512000E+07  0.00800  5.676E-03    0   0.8162   age090_m52            0.0000     7.9202E+02    15.0011   4.0000   107.1583
 84      0.0000     0.0000E+00    0.0000E+00    4.000000E+07  0.00800  3.939E-03    0   0.7841   age104_m52            0.0000     6.9772E+02    11.9439   4.0000   107.1449
 85      0.0000     0.0000E+00    0.0000E+00    5.500000E+07  0.00800  3.155E-03    0   0.7627   age110_m52            0.0000     7.1214E+02    11.7475   4.0000   108.0879
 86      0.0000     0.0000E+00    0.0000E+00    1.015200E+08  0.00800  2.206E-03    0   0.7226   age116_m52            0.0000     7.3410E+02    10.8756   4.0000   108.7882
 87      0.0000     0.0000E+00    0.0000E+00    1.609000E+08  0.00800  1.596E-03    0   0.6963   age120_m52            0.0000     7.6292E+02    10.9515   3.9164   108.2120
 88      0.0000     0.0000E+00    0.0000E+00    2.861200E+08  0.00800  1.002E-03    0   0.6665   age125_m52            0.0000     8.9610E+02    12.0139   3.5565   110.6841
 89      0.0000     0.0000E+00    0.0000E+00    5.088000E+08  0.00800  5.759E-04    0   0.6377   age130_m52            0.0000     8.7946E+02    12.6338   3.1610   114.8515
 90      0.0000     0.0000E+00    0.0000E+00    9.047900E+08  0.00800  2.972E-04    0   0.6086   age135_m52            0.0000     5.5315E+02    10.9757   2.6031   113.0869
 91      0.0000     0.0000E+00    0.0000E+00    1.278050E+09  0.00800  2.242E-04    0   0.5907   age138_m52            0.0000     2.2992E+02     8.3222   2.0007   111.3383
 92      0.0000     0.0000E+00    0.0000E+00    1.434000E+09  0.00800  1.645E-04    0   0.5787   age139_m52            0.0000     2.3117E+02     7.7259   2.1706   110.8164
 93      0.0000     0.0000E+00    0.0000E+00    2.500000E+09  0.00800  7.723E-05    0   0.5519   age150_m52            0.0000     1.0453E+02     6.1634   1.8440   106.8583
 94      0.0000     0.0000E+00    0.0000E+00    4.250000E+09  0.00800  4.151E-05    0   0.5320   age158_m52            0.0000     7.5295E+01     5.5043   1.7813   104.3510
 95      1.0909     4.1752E-01    4.3343E-01    6.250000E+09  0.00800  3.010E-05    0   0.5197   age166_m52            0.0000     5.6023E+01     5.6252   1.5699   102.7600
 96      0.9297     4.3413E-01    4.4564E-01    7.500000E+09  0.00800  2.467E-05    0   0.5139   age171_m52            0.0000     5.5036E+01     5.8133   1.5219   102.3047
 97      8.1574     5.0470E+00    5.0952E+00    1.000000E+10  0.00800  1.862E-05    0   0.5054   age181_m52            0.0000     5.9094E+01     6.6235   1.3689   101.7892
 98      0.0000     0.0000E+00    0.0000E+00    1.300000E+10  0.00800  1.433E-05    0   0.4988   age193_m52            0.0000     6.6167E+01     7.3966   1.2551   102.3315
 99      0.0000     0.0000E+00    0.0000E+00    1.500000E+10  0.00800  1.244E-05    0   0.4936   age201_m52            0.0000     7.0296E+01     7.7309   1.2195   102.7433
100      0.0000     0.0000E+00    0.0000E+00    1.800000E+10  0.00800  1.070E-05    0   0.4888   age213_m52            0.0000     7.4812E+01     8.0672   1.1766   102.5759
101      0.0000     0.0000E+00    0.0000E+00    1.000000E+06  0.02000  1.989E-02    0   1.0000   age020_m62            0.0000     3.2180E+03    43.1069   4.0000    95.7864
102      0.0000     0.0000E+00    0.0000E+00    3.160000E+06  0.02000  3.772E-02    0   0.9858   age045_m62            0.0000     2.8823E+03    40.5780   4.0000    98.4591
103      0.0000     0.0000E+00    0.0000E+00    5.010000E+06  0.02000  3.227E-02    0   0.9342   age055_m62            0.0000     1.5467E+03    28.7878   4.0000   105.7560
104      0.0000     0.0000E+00    0.0000E+00    6.610000E+06  0.02000  2.387E-02    0   0.9090   age061_m62            0.0000     1.3629E+03    24.8561   4.0000   103.7752
105      0.0000     0.0000E+00    0.0000E+00    8.710000E+06  0.02000  1.102E-02    0   0.8861   age067_m62            0.0000     1.3620E+03    19.9607   4.0000    97.1537
106      0.0000     0.0000E+00    0.0000E+00    1.000000E+07  0.02000  1.011E-02    0   0.8751   age070_m62            0.0000     1.1502E+03    18.7773   4.0000    99.3947
107      0.0000     0.0000E+00    0.0000E+00    1.445000E+07  0.02000  7.331E-03    0   0.8472   age078_m62            0.0000     1.0105E+03    18.2207   4.0000   100.6794
108      0.0000     0.0000E+00    0.0000E+00    2.512000E+07  0.02000  4.206E-03    0   0.8099   age090_m62            0.0000     9.2318E+02    16.3081   4.0000    99.4212
109      0.0000     0.0000E+00    0.0000E+00    4.000000E+07  0.02000  3.373E-03    0   0.7799   age104_m62            0.0000     6.1972E+02    11.0900   4.0000   105.0911
110      0.0000     0.0000E+00    0.0000E+00    5.500000E+07  0.02000  2.747E-03    0   0.7595   age110_m62            0.0000     6.4121E+02    10.1845   4.0000   107.0371
111      0.0000     0.0000E+00    0.0000E+00    1.015200E+08  0.02000  1.878E-03    0   0.7221   age116_m62            0.0000     7.9242E+02    10.7347   4.0000   108.9620
112      0.0000     0.0000E+00    0.0000E+00    1.609000E+08  0.02000  1.378E-03    0   0.6978   age120_m62            0.0000     9.2179E+02    11.5614   3.9521   109.2334
113      0.0000     0.0000E+00    0.0000E+00    2.861200E+08  0.02000  8.869E-04    0   0.6700   age125_m62            0.0000     1.1167E+03    12.9090   3.5240   113.4843
114      0.0000     0.0000E+00    0.0000E+00    5.088000E+08  0.02000  4.834E-04    0   0.6430   age130_m62            0.0000     9.4462E+02    13.0973   3.0207   116.0722
115      0.0000     0.0000E+00    0.0000E+00    9.047900E+08  0.02000  2.312E-04    0   0.6152   age135_m62            0.0000     4.9402E+02    10.4296   2.4131   115.0200
116      0.0000     0.0000E+00    0.0000E+00    1.278050E+09  0.02000  1.387E-04    0   0.5927   age138_m62            0.0000     2.4116E+02     7.8594   2.0577   110.1651
117      0.0000     0.0000E+00    0.0000E+00    1.434000E+09  0.02000  1.168E-04    0   0.5865   age139_m62            0.0000     2.0101E+02     7.3140   2.0391   108.4542
118      0.0000     0.0000E+00    0.0000E+00    2.500000E+09  0.02000  5.505E-05    0   0.5610   age150_m62            0.0000     9.2024E+01     6.5498   1.6517   105.2625
119      0.0000     0.0000E+00    0.0000E+00    4.250000E+09  0.02000  3.070E-05    0   0.5407   age158_m62            0.0000     8.5361E+01     8.0061   1.3118   104.8235
120      0.0000     0.0000E+00    0.0000E+00    6.250000E+09  0.02000  2.104E-05    0   0.5277   age166_m62            0.0000     9.4431E+01     8.9329   1.1597   105.1197
121      0.4119     2.6810E-01    2.7972E-01    7.500000E+09  0.02000  1.770E-05    0   0.5223   age171_m62            0.0000     1.0411E+02     9.5611   1.0552   105.4591
122      4.0119     3.5634E+00    3.6452E+00    1.000000E+10  0.02000  1.297E-05    0   0.5121   age181_m62            0.0000     1.2815E+02    10.8436   0.8646   105.8817
123      7.4441     8.8492E+00    8.9213E+00    1.300000E+10  0.02000  9.691E-06    0   0.5047   age193_m62            0.0000     1.4796E+02    11.7518   0.7591   106.1907
124     19.4928     2.6861E+01    2.6823E+01    1.500000E+10  0.02000  8.360E-06    0   0.4999   age201_m62            0.0000     1.6747E+02    12.5567   0.6654   106.4648
125     17.8216     2.9708E+01    2.9350E+01    1.800000E+10  0.02000  6.911E-06    0   0.4946   age213_m62            0.0000     1.9397E+02    13.5778   0.5595   106.8275
126      0.0000     0.0000E+00    0.0000E+00    1.000000E+06  0.05000  2.651E-02    0   0.9998   age020_m72            0.0000     3.1671E+03    42.7619   4.0000    97.0287
127      0.0000     0.0000E+00    0.0000E+00    3.160000E+06  0.05000  4.817E-02    0   0.9577   age045_m72            0.0000     2.4078E+03    36.8453   4.0000   102.5885
128      0.0000     0.0000E+00    0.0000E+00    5.010000E+06  0.05000  3.101E-02    0   0.9147   age055_m72            0.0000     1.7729E+03    30.0557   4.0000   104.3362
129      0.0000     0.0000E+00    0.0000E+00    6.610000E+06  0.05000  1.472E-02    0   0.8877   age061_m72            0.0000     1.5007E+03    22.9162   4.0000   100.1249
130      0.0000     0.0000E+00    0.0000E+00    8.710000E+06  0.05000  1.050E-02    0   0.8638   age067_m72            0.0000     1.8718E+03    29.9847   4.0000   102.3868
131      0.0000     0.0000E+00    0.0000E+00    1.000000E+07  0.05000  8.954E-03    0   0.8524   age070_m72            0.0000     2.1370E+03    34.3125   4.0000   103.5789
132      0.0000     0.0000E+00    0.0000E+00    1.445000E+07  0.05000  6.392E-03    0   0.8262   age078_m72            0.0000     1.9497E+03    32.8835   4.0000   104.5907
133      0.0000     0.0000E+00    0.0000E+00    2.512000E+07  0.05000  4.207E-03    0   0.7902   age090_m72            0.0000     1.2266E+03    24.6003   4.0000   107.3820
134      0.0000     0.0000E+00    0.0000E+00    4.000000E+07  0.05000  3.198E-03    0   0.7618   age104_m72            0.0000     7.7073E+02    14.1534   4.0000   110.0453
135      0.0000     0.0000E+00    0.0000E+00    5.500000E+07  0.05000  2.593E-03    0   0.7432   age110_m72            0.0000     8.0047E+02    13.4427   4.0000   110.5897
136      0.0000     0.0000E+00    0.0000E+00    1.015200E+08  0.05000  1.716E-03    0   0.7092   age116_m72            0.0000     8.8994E+02    12.1536   4.0000   110.1565
137      0.0000     0.0000E+00    0.0000E+00    1.609000E+08  0.05000  1.218E-03    0   0.6876   age120_m72            0.0000     9.9506E+02    11.7793   3.9032   109.6838
138      0.0000     0.0000E+00    0.0000E+00    2.861200E+08  0.05000  7.047E-04    0   0.6618   age125_m72            0.0000     1.0428E+03    13.2167   3.2824   113.7703
139      0.0000     0.0000E+00    0.0000E+00    5.088000E+08  0.05000  3.590E-04    0   0.6356   age130_m72            0.0000     7.7385E+02    12.9439   2.6342   116.6351
140      0.0000     0.0000E+00    0.0000E+00    9.047900E+08  0.05000  1.484E-04    0   0.6088   age135_m72            0.0000     2.6203E+02     9.3860   1.9120   109.3814
141      0.0000     0.0000E+00    0.0000E+00    1.278050E+09  0.05000  9.435E-05    0   0.5924   age138_m72            0.0000     1.4697E+02     9.0279   1.4758   106.2237
142      0.0069     1.0229E-03    1.1947E-03    1.434000E+09  0.05000  7.827E-05    0   0.5847   age139_m72            0.0000     1.2662E+02     8.4411   1.5055   105.5538
143      0.0000     0.0000E+00    0.0000E+00    2.500000E+09  0.05000  3.759E-05    0   0.5583   age150_m72            0.0000     1.0272E+02     9.0054   1.1656   104.5302
144      0.0000     0.0000E+00    0.0000E+00    4.250000E+09  0.05000  1.842E-05    0   0.5374   age158_m72            0.0000     1.2995E+02    11.0472   0.8125   103.6220
145      2.3168     2.2113E+00    2.3154E+00    6.250000E+09  0.05000  1.207E-05    0   0.5242   age166_m72            0.0000     1.7284E+02    13.1777   0.5044   103.4378
146      2.0288     2.3389E+00    2.4215E+00    7.500000E+09  0.05000  9.993E-06    0   0.5183   age171_m72            0.0000     1.8085E+02    13.5435   0.4474   103.4173
147      0.8720     1.3779E+00    1.3985E+00    1.000000E+10  0.05000  7.291E-06    0   0.5081   age181_m72            0.0000     2.2345E+02    15.2560   0.2571   103.6316
148      5.6631     1.2272E+01    1.2301E+01    1.300000E+10  0.05000  5.316E-06    0   0.5018   age193_m72            0.0000     2.9733E+02    17.7322  -0.0312   104.1789
149      0.0000     0.0000E+00    0.0000E+00    1.500000E+10  0.05000  4.497E-06    0   0.4972   age201_m72            0.0000     3.3916E+02    18.9730  -0.1604   104.8502
150      1.8029     5.5548E+00    5.4636E+00    1.800000E+10  0.05000  3.739E-06    0   0.4924   age213_m72            0.0000     3.9276E+02    20.4347  -0.3394   105.6573


## Synthesis Results - Average & Chains ##

# j      x_j: min, <> & last-chain-values for 1 ...  7 chains
  1      2.7832      2.1267      2.1102      2.2590      2.1558      2.0943      2.2239      2.1425      2.0216
  2      6.2035      4.7025      4.5531      4.6526      4.6942      4.9704      4.7988      4.7535      4.8455
  3      3.4131      2.7117      2.8167      2.8106      2.7185      2.7488      2.7031      2.8519      2.6584
  4      0.8987      1.0325      0.9325      1.0149      1.0112      0.9282      1.0604      0.9161      1.0956
  5      1.1058      1.5408      1.6183      1.6124      1.5703      1.4739      1.7452      1.5288      1.4620
  6      1.5798      1.4823      1.6258      1.5294      1.4596      1.4179      1.7080      1.4897      1.4362
  7      0.2514      0.6035      0.5848      0.5768      0.5075      0.5289      0.6712      0.4151      0.6246
  8      0.0000      0.0146      0.0000      0.0412      0.0000      0.1409      0.0675      0.1291      0.0000
  9      0.0000      0.0166      0.0476      0.0000      0.0000      0.0000      0.1255      0.0000      0.0176
 10      0.0000      0.0159      0.0389      0.0000      0.0000      0.0000      0.0406      0.0000      0.0000
 11      0.0000      0.0124      0.0000      0.0000      0.0000      0.0000      0.0000      0.0000      0.0000
 12      0.0000      0.0087      0.0000      0.0000      0.0000      0.0000      0.0000      0.0000      0.0394
 13      0.0000      0.0040      0.0000      0.0552      0.0000      0.0000      0.0125      0.0000      0.0000
 14      0.0000      0.0036      0.0000      0.0000      0.0000      0.0000      0.0000      0.0017      0.0000
 15      0.0000      0.0040      0.0000      0.0000      0.0395      0.0000      0.0000      0.0000      0.0000
 16      0.0000      0.0096      0.0000      0.0000      0.0000      0.0000      0.0000      0.0000      0.0000
 17      0.0000      0.0067      0.0000      0.0000      0.0000      0.0000      0.0000      0.0000      0.0000
 18      0.0000      0.0101      0.0000      0.0000      0.0000      0.0000      0.0000      0.0000      0.0000
 19      0.0000      0.0123      0.0068      0.0000      0.0000      0.0000      0.0038      0.0000      0.0000
 20      0.0000      0.0288      0.0000      0.0000      0.2447      0.0000      0.0000      0.0000      0.0000
 21      0.0000      0.0339      0.3711      0.0000      0.0000      0.0000      0.0000      0.0543      0.0000
 22      0.0000      0.0276      0.0186      0.0000      0.0000      0.0538      0.0723      0.0000      0.0000
 23      0.0000      0.0302      0.1575      0.2633      0.0000      0.0000      0.1171      0.0000      0.0000
 24      0.0000      0.0300      0.0000      0.0144      0.0000      0.0000      0.0313      0.0000      0.0000
 25      0.0000      0.0300      0.1022      0.0052      0.3692      0.0000      0.0000      0.0000      0.0000
 26      1.5592      1.3185      1.2956      1.4112      1.2303      1.3290      1.1605      1.4238      1.2819
 27      0.0000      0.0357      0.0000      0.0000      0.0755      0.2266      0.0173      0.0000      0.0000
 28      0.0000      0.0638      0.0000      0.0000      0.1713      0.1123      0.1136      0.0099      0.0000
 29      1.6344      1.8071      1.9785      1.8283      1.7104      1.7306      1.8217      1.7732      1.8474
 30      0.0000      0.1320      0.2194      0.0000      0.0889      0.2289      0.0768      0.2689      0.0930
 31      0.0000      0.0394      0.0000      0.0000      0.0000      0.1167      0.0000      0.0000      0.0000
 32      0.0104      0.3300      0.3781      0.3090      0.3162      0.4659      0.1536      0.3061      0.3236
 33      0.0000      0.0088      0.0000      0.0000      0.0000      0.0000      0.0000      0.0000      0.0585
 34      0.0000      0.0207      0.0000      0.0068      0.0000      0.0000      0.0000      0.0000      0.0612
 35      0.0000      0.0071      0.0000      0.0000      0.0000      0.0000      0.0000      0.0000      0.0000
 36      0.0000      0.0070      0.0000      0.0000      0.0000      0.0000      0.0000      0.0000      0.0000
 37      0.0000      0.0075      0.0000      0.0000      0.0000      0.0000      0.0000      0.0000      0.0000
 38      0.0000      0.0028      0.0000      0.0000      0.0484      0.0000      0.0000      0.0000      0.0000
 39      0.0000      0.0039      0.0000      0.0000      0.0000      0.0000      0.0000      0.0000      0.0000
 40      0.0000      0.0084      0.0000      0.0000      0.0000      0.0000      0.0000      0.0000      0.0000
 41      0.0000      0.0081      0.0000      0.0144      0.0000      0.0000      0.0000      0.0654      0.0214
 42      0.0000      0.0158      0.0000      0.0000      0.0000      0.0000      0.0000      0.0000      0.0000
 43      0.0000      0.0144      0.0000      0.0000      0.0000      0.0000      0.0000      0.0468      0.0000
 44      0.0000      0.0264      0.0000      0.0000      0.0000      0.0773      0.0000      0.0000      0.0000
 45      0.0000      0.0632      0.0228      0.0695      0.1089      0.0000      0.0953      0.6155      0.1597
 46      0.0000      0.0626      0.0000      0.2886      0.0317      0.0000      0.0233      0.0000      0.0002
 47      0.0000      0.0805      0.0000      0.0000      0.0000      0.2799      0.0000      0.0000      0.0359
 48      0.0000      0.0501      0.1435      0.0000      0.0000      0.0000      0.1105      0.2940      0.0438
 49      0.0000      0.0466      0.1314      0.2907      0.0000      0.0000      0.0000      0.0000      0.0000
 50      0.0000      0.0487      0.0000      0.0000      0.0000      0.2494      0.0000      0.0275      0.0000
 51      1.6045      1.5888      1.6067      1.5753      1.9204      1.3761      1.4100      1.6323      1.8952
 52      0.8148      0.6343      0.5830      0.8224      0.6324      0.5213      0.6261      0.6198      0.9105
 53      0.0000      0.0964      0.1104      0.0177      0.0000      0.2076      0.0138      0.0000      0.1119
 54      0.7061      0.4789      0.6482      0.5134      0.4233      0.4665      0.5444      0.5326      0.4072
 55      0.5214      0.4432      0.4421      0.4773      0.4163      0.4980      0.4459      0.3759      0.3993
 56      0.6996      0.7046      0.4772      0.7188      0.7274      0.7361      0.8408      0.6424      0.8405
 57      0.0000      0.0239      0.0000      0.0000      0.0000      0.0000      0.0000      0.0193      0.0557
 58      0.0000      0.0375      0.0055      0.0000      0.2440      0.0000      0.0507      0.0301      0.0000
 59      0.0000      0.0169      0.0000      0.0000      0.0000      0.0000      0.0000      0.0000      0.0000
 60      0.0000      0.0069      0.0000      0.0000      0.0000      0.0000      0.0000      0.0000      0.0000
 61      0.0000      0.0060      0.0000      0.0000      0.0000      0.0000      0.0000      0.0000      0.0000
 62      0.0000      0.0075      0.0000      0.0000      0.0000      0.0000      0.0000      0.0000      0.0000
 63      0.0000      0.0051      0.0000      0.0000      0.0000      0.0000      0.0000      0.0000      0.0000
 64      0.0000      0.0064      0.0000      0.0000      0.0000      0.0000      0.0000      0.0000      0.0000
 65      0.0000      0.0077      0.0000      0.0000      0.0000      0.0000      0.0000      0.0000      0.0000
 66      0.0000      0.0166      0.0000      0.0000      0.0000      0.0000      0.0000      0.0000      0.0124
 67      0.0000      0.0180      0.0000      0.0000      0.0000      0.0000      0.0000      0.0000      0.0009
 68      0.0021      0.0577      0.0000      0.0000      0.0000      0.0000      0.1393      0.0000      0.3017
 69      0.0000      0.1132      0.0793      0.3924      0.0000      0.0000      0.0803      0.0000      0.0151
 70      0.0000      0.1292      0.1978      0.0966      0.1327      0.0000      0.2495      0.0000      0.0000
 71      0.0000      0.2071      0.3480      0.4182      0.0000      0.1019      0.0655      0.0000      0.0483
 72      0.7163      0.3038      0.5472      0.5867      1.0016      0.2027      0.0818      0.4978      0.8049
 73      0.5927      0.2567      0.0000      0.0000      0.0000      0.7910      0.0000      0.1520      0.5268
 74      0.5419      0.2085      0.0000      0.1801      0.0000      0.0000      0.0000      0.0796      0.2234
 75      0.0000      0.2229      0.1778      0.0000      0.2832      0.0000      0.2375      0.0000      0.0000
 76      1.3735      1.5736      1.5068      1.4588      1.6433      1.5764      1.5363      1.6576      1.4665
 77      0.0000      0.0169      0.0000      0.0000      0.0693      0.0000      0.0000      0.0789      0.0000
 78      0.0000      0.0332      0.0000      0.0000      0.0679      0.0000      0.0000      0.1094      0.0000
 79      0.0000      0.0293      0.1344      0.0000      0.0000      0.0000      0.0948      0.1140      0.2018
 80      0.0000      0.0184      0.0000      0.0000      0.0000      0.0000      0.0000      0.0000      0.0000
 81      0.0000      0.0184      0.0084      0.1023      0.0000      0.0000      0.0542      0.0000      0.0000
 82      0.0000      0.0112      0.0000      0.0000      0.0124      0.0000      0.0030      0.0059      0.0000
 83      0.0000      0.0106      0.0000      0.0000      0.0253      0.0641      0.0098      0.0000      0.0000
 84      0.0000      0.0076      0.0000      0.0000      0.0000      0.0000      0.0000      0.0000      0.0000
 85      0.0000      0.0082      0.0000      0.0000      0.0000      0.0000      0.0000      0.0967      0.0000
 86      0.0000      0.0070      0.0000      0.0000      0.0000      0.0000      0.0075      0.0000      0.0000
 87      0.0000      0.0061      0.0000      0.0000      0.0000      0.0000      0.0000      0.0000      0.0000
 88      0.0000      0.0054      0.0000      0.0000      0.0000      0.0000      0.0000      0.0000      0.0000
 89      0.0000      0.0038      0.0046      0.0000      0.0000      0.0000      0.0000      0.0000      0.0000
 90      0.0000      0.0065      0.0000      0.0000      0.0000      0.0000      0.0000      0.0000      0.0000
 91      0.0000      0.0181      0.0000      0.0000      0.0000      0.0000      0.0000      0.0000      0.0000
 92      0.0000      0.0165      0.0000      0.0471      0.0000      0.0000      0.0000      0.0000      0.0000
 93      0.0000      0.0548      0.3052      0.0000      0.0000      0.0000      0.0000      0.0000      0.0000
 94      0.0000      0.1579      0.1523      0.0112      0.0639      0.2620      0.6353      0.0000      0.0000
 95      1.0909      0.6585      0.5448      0.8667      0.7331      0.0000      0.4899      0.7061      1.2700
 96      0.9297      0.4085      0.7328      0.6247      0.6326      0.5086      0.9242      0.5778      0.5863
 97      8.1574      7.9912      8.1763      8.1595      8.7002      8.7266      8.2029      8.4096      7.6935
 98      0.0000      0.2695      0.3931      0.0000      0.0000      0.0763      0.4367      0.3317      0.0401
 99      0.0000      0.1866      0.0873      0.0000      0.1663      0.4425      0.0000      0.0000      0.1102
100      0.0000      0.1647      0.0000      0.2721      0.0723      0.0000      0.6984      0.3366      0.1054
101      0.0000      0.0387      0.0000      0.0000      0.0000      0.1745      0.0000      0.0000      0.0000
102      0.0000      0.0157      0.0000      0.0000      0.0000      0.0000      0.0000      0.0000      0.0000
103      0.0000      0.0171      0.0000      0.0000      0.0000      0.0000      0.0000      0.0985      0.0000
104      0.0000      0.0171      0.0000      0.0356      0.0000      0.0560      0.0000      0.0937      0.0000
105      0.0000      0.0190      0.1115      0.0000      0.0000      0.0000      0.0000      0.0000      0.0021
106      0.0000      0.0254      0.0000      0.0000      0.0000      0.1719      0.0000      0.0395      0.0080
107      0.0000      0.0097      0.0000      0.0000      0.0000      0.0000      0.0458      0.0000      0.0000
108      0.0000      0.0131      0.0051      0.0000      0.0000      0.0000      0.0000      0.0000      0.0000
109      0.0000      0.0057      0.0595      0.0000      0.0000      0.0000      0.0000      0.0000      0.0000
110      0.0000      0.0091      0.0000      0.0000      0.0000      0.0000      0.0000      0.0000      0.0000
111      0.0000      0.0049      0.0000      0.0000      0.0000      0.0663      0.0000      0.0000      0.0000
112      0.0000      0.0045      0.0000      0.0000      0.0000      0.0000      0.0000      0.0000      0.0423
113      0.0000      0.0030      0.0000      0.0000      0.0000      0.0066      0.0107      0.0000      0.0000
114      0.0000      0.0049      0.0000      0.0000      0.0000      0.0000      0.0000      0.0000      0.0000
115      0.0000      0.0095      0.0000      0.0045      0.0000      0.0000      0.0000      0.0000      0.0284
116      0.0000      0.0194      0.0000      0.0112      0.0203      0.0000      0.0000      0.0000      0.0000
117      0.0000      0.0233      0.0000      0.0000      0.0000      0.1169      0.0110      0.0718      0.0099
118      0.0000      0.0908      0.3379      0.0000      0.0000      0.0640      0.0000      0.0000      0.0248
119      0.0000      0.1864      0.0000      0.0000      0.0000      0.0000      0.0732      0.0000      0.0000
120      0.0000      0.2239      0.1819      0.0000      0.8761      0.0902      0.4973      0.0000      0.0369
121      0.4119      0.2501      0.0000      0.5207      0.8863      0.2029      0.2169      0.0968      0.2994
122      4.0119      3.8659      4.1142      3.7703      3.9183      3.8307      3.5052      4.1504      4.2184
123      7.4441      7.3836      7.6555      7.7284      7.2485      7.3512      6.8642      7.3526      7.6650
124     19.4928     19.1912     19.3392     19.0114     19.1765     19.3900     19.1032     19.3613     19.0914
125     17.8216     16.6630     16.2448     17.2393     16.6569     17.1107     17.4068     16.6810     16.4771
126      0.0000      0.0167      0.0000      0.0000      0.0000      0.0424      0.0000      0.0068      0.0000
127      0.0000      0.0180      0.0000      0.0000      0.0000      0.0000      0.0446      0.0000      0.1961
128      0.0000      0.0318      0.0000      0.0000      0.0000      0.0127      0.0000      0.0000      0.0000
129      0.0000      0.0271      0.0816      0.0000      0.0000      0.0000      0.0000      0.0000      0.0207
130      0.0000      0.0153      0.0000      0.0397      0.0000      0.0000      0.0000      0.0000      0.0000
131      0.0000      0.0157      0.0000      0.1933      0.0000      0.0000      0.0000      0.0000      0.0221
132      0.0000      0.0079      0.0000      0.0000      0.0000      0.0399      0.0000      0.0000      0.0000
133      0.0000      0.0106      0.0000      0.0032      0.0186      0.0196      0.0000      0.0000      0.0000
134      0.0000      0.0042      0.0000      0.0000      0.0000      0.0000      0.0000      0.0000      0.0000
135      0.0000      0.0048      0.0000      0.0000      0.0000      0.0000      0.0000      0.0000      0.0000
136      0.0000      0.0049      0.0000      0.0000      0.0000      0.0000      0.0000      0.0000      0.0000
137      0.0000      0.0023      0.0000      0.0000      0.0000      0.0000      0.0000      0.0000      0.0000
138      0.0000      0.0042      0.0000      0.0000      0.0000      0.0000      0.0000      0.0000      0.0000
139      0.0000      0.0075      0.0000      0.0000      0.0000      0.0000      0.0000      0.0000      0.0042
140      0.0000      0.0307      0.0000      0.0000      0.0000      0.0000      0.0070      0.0000      0.0000
141      0.0000      0.0784      0.0000      0.0000      0.0000      0.0000      0.0000      0.0591      0.0000
142      0.0069      0.0702      0.0000      0.2642      0.0000      0.0000      0.4433      0.6119      0.4221
143      0.0000      0.0980      0.0715      0.0000      0.0776      0.0000      0.0000      0.0000      0.1626
144      0.0000      0.1358      0.0000      0.0000      0.0000      0.0000      0.0619      0.0000      0.0815
145      2.3168      3.2583      3.4497      2.8261      3.2984      3.4989      3.0264      3.5024      2.8954
146      2.0288      2.6399      2.4635      2.4567      2.3261      2.7926      2.5718      2.5933      2.6142
147      0.8720      1.2260      1.2720      1.1428      1.3868      1.2230      0.9656      1.2058      1.1860
148      5.6631      5.5624      5.5343      5.8312      5.1094      5.5322      5.6487      5.4971      5.6718
149      0.0000      0.1363      0.2251      0.0659      0.0000      0.0000      0.1775      0.0000      0.0754
150      1.8029      1.6066      1.5076      1.5074      1.5599      1.5545      1.5856      1.5524      1.6670

# j      m_j: min, <> & last-chain-values for 1 ...  7 chains
  1  7.8489E-03  6.0292E-03  6.0011E-03  6.3925E-03  6.1651E-03  5.9064E-03  6.2916E-03  6.0935E-03  5.7490E-03
  2  2.9997E-03  2.2859E-03  2.2202E-03  2.2575E-03  2.3018E-03  2.4035E-03  2.3279E-03  2.3181E-03  2.3627E-03
  3  3.8954E-03  3.1112E-03  3.2419E-03  3.2189E-03  3.1463E-03  3.1374E-03  3.0949E-03  3.2826E-03  3.0595E-03
  4  1.9278E-03  2.2266E-03  2.0174E-03  2.1847E-03  2.1997E-03  1.9913E-03  2.2820E-03  1.9819E-03  2.3700E-03
  5  2.9882E-03  4.1856E-03  4.4098E-03  4.3721E-03  4.3029E-03  3.9829E-03  4.7310E-03  4.1663E-03  3.9838E-03
  6  5.0764E-03  4.7882E-03  5.2684E-03  4.9316E-03  4.7564E-03  4.5564E-03  5.5060E-03  4.8275E-03  4.6538E-03
  7  1.0196E-03  2.4602E-03  2.3915E-03  2.3472E-03  2.0869E-03  2.1447E-03  2.7304E-03  1.6974E-03  2.5542E-03
  8  0.0000E+00  6.7071E-05  0.0000E+00  1.8961E-04  0.0000E+00  6.4618E-04  3.1048E-04  5.9684E-04  0.0000E+00
  9  0.0000E+00  8.2063E-05  2.3671E-04  0.0000E+00  0.0000E+00  0.0000E+00  6.2102E-04  0.0000E+00  8.7703E-05
 10  0.0000E+00  9.0082E-05  2.2191E-04  0.0000E+00  0.0000E+00  0.0000E+00  2.3037E-04  0.0000E+00  0.0000E+00
 11  0.0000E+00  8.3983E-05  0.0000E+00  0.0000E+00  0.0000E+00  0.0000E+00  0.0000E+00  0.0000E+00  0.0000E+00
 12  0.0000E+00  1.0365E-04  0.0000E+00  0.0000E+00  0.0000E+00  0.0000E+00  0.0000E+00  0.0000E+00  4.6978E-04
 13  0.0000E+00  5.4730E-05  0.0000E+00  7.6031E-04  0.0000E+00  0.0000E+00  1.7236E-04  0.0000E+00  0.0000E+00
 14  0.0000E+00  7.0898E-05  0.0000E+00  0.0000E+00  0.0000E+00  0.0000E+00  0.0000E+00  3.3260E-05  0.0000E+00
 15  0.0000E+00  1.1690E-04  0.0000E+00  0.0000E+00  1.1794E-03  0.0000E+00  0.0000E+00  0.0000E+00  0.0000E+00
 16  0.0000E+00  4.0994E-04  0.0000E+00  0.0000E+00  0.0000E+00  0.0000E+00  0.0000E+00  0.0000E+00  0.0000E+00
 17  0.0000E+00  3.1847E-04  0.0000E+00  0.0000E+00  0.0000E+00  0.0000E+00  0.0000E+00  0.0000E+00  0.0000E+00
 18  0.0000E+00  7.8591E-04  0.0000E+00  0.0000E+00  0.0000E+00  0.0000E+00  0.0000E+00  0.0000E+00  0.0000E+00
 19  0.0000E+00  1.4465E-03  7.9659E-04  0.0000E+00  0.0000E+00  0.0000E+00  4.4151E-04  0.0000E+00  0.0000E+00
 20  0.0000E+00  4.8283E-03  0.0000E+00  0.0000E+00  4.1447E-02  0.0000E+00  0.0000E+00  0.0000E+00  0.0000E+00
 21  0.0000E+00  6.5871E-03  7.2299E-02  0.0000E+00  0.0000E+00  0.0000E+00  0.0000E+00  1.0574E-02  0.0000E+00
 22  0.0000E+00  6.9065E-03  4.6741E-03  0.0000E+00  0.0000E+00  1.3417E-02  1.8088E-02  0.0000E+00  0.0000E+00
 23  0.0000E+00  9.6018E-03  5.0182E-02  8.3490E-02  0.0000E+00  0.0000E+00  3.7124E-02  0.0000E+00  0.0000E+00
 24  0.0000E+00  1.0901E-02  0.0000E+00  5.2135E-03  0.0000E+00  0.0000E+00  1.1362E-02  0.0000E+00  0.0000E+00
 25  0.0000E+00  1.3097E-02  4.4736E-02  2.2838E-03  1.6253E-01  0.0000E+00  0.0000E+00  0.0000E+00  0.0000E+00
 26  4.2421E-03  3.6064E-03  3.5547E-03  3.8527E-03  3.3945E-03  3.6159E-03  3.1676E-03  3.9068E-03  3.5170E-03
 27  0.0000E+00  2.0785E-05  0.0000E+00  0.0000E+00  4.4333E-05  1.3128E-04  1.0061E-05  0.0000E+00  0.0000E+00
 28  0.0000E+00  7.2666E-05  0.0000E+00  0.0000E+00  1.9693E-04  1.2731E-04  1.2916E-04  1.1347E-05  0.0000E+00
 29  2.8873E-03  3.2093E-03  3.5248E-03  3.2410E-03  3.0642E-03  3.0574E-03  3.2285E-03  3.1592E-03  3.2911E-03
 30  0.0000E+00  2.9127E-04  4.8585E-04  0.0000E+00  1.9785E-04  5.0254E-04  1.6919E-04  5.9546E-04  2.0602E-04
 31  0.0000E+00  1.0048E-04  0.0000E+00  0.0000E+00  0.0000E+00  2.9597E-04  0.0000E+00  0.0000E+00  0.0000E+00
 32  2.9201E-05  9.3194E-04  1.0710E-03  8.7108E-04  9.0080E-04  1.3089E-03  4.3276E-04  8.6726E-04  9.1662E-04
 33  0.0000E+00  3.5216E-05  0.0000E+00  0.0000E+00  0.0000E+00  0.0000E+00  0.0000E+00  0.0000E+00  2.3539E-04
 34  0.0000E+00  1.0088E-04  0.0000E+00  3.3130E-05  0.0000E+00  0.0000E+00  0.0000E+00  0.0000E+00  2.9952E-04
 35  0.0000E+00  4.1682E-05  0.0000E+00  0.0000E+00  0.0000E+00  0.0000E+00  0.0000E+00  0.0000E+00  0.0000E+00
 36  0.0000E+00  5.2897E-05  0.0000E+00  0.0000E+00  0.0000E+00  0.0000E+00  0.0000E+00  0.0000E+00  0.0000E+00
 37  0.0000E+00  7.0319E-05  0.0000E+00  0.0000E+00  0.0000E+00  0.0000E+00  0.0000E+00  0.0000E+00  0.0000E+00
 38  0.0000E+00  3.6993E-05  0.0000E+00  0.0000E+00  6.3828E-04  0.0000E+00  0.0000E+00  0.0000E+00  0.0000E+00
 39  0.0000E+00  7.6251E-05  0.0000E+00  0.0000E+00  0.0000E+00  0.0000E+00  0.0000E+00  0.0000E+00  0.0000E+00
 40  0.0000E+00  2.9049E-04  0.0000E+00  0.0000E+00  0.0000E+00  0.0000E+00  0.0000E+00  0.0000E+00  0.0000E+00
 41  0.0000E+00  3.7210E-04  0.0000E+00  6.6253E-04  0.0000E+00  0.0000E+00  0.0000E+00  3.0255E-03  9.9079E-04
 42  0.0000E+00  8.1121E-04  0.0000E+00  0.0000E+00  0.0000E+00  0.0000E+00  0.0000E+00  0.0000E+00  0.0000E+00
 43  0.0000E+00  1.2081E-03  0.0000E+00  0.0000E+00  0.0000E+00  0.0000E+00  0.0000E+00  3.9280E-03  0.0000E+00
 44  0.0000E+00  3.4902E-03  0.0000E+00  0.0000E+00  0.0000E+00  1.0180E-02  0.0000E+00  0.0000E+00  0.0000E+00
 45  0.0000E+00  1.1671E-02  4.2172E-03  1.2808E-02  2.0268E-02  0.0000E+00  1.7547E-02  1.1397E-01  2.9572E-02
 46  0.0000E+00  1.3754E-02  0.0000E+00  6.3331E-02  7.0353E-03  0.0000E+00  5.1216E-03  0.0000E+00  4.2347E-05
 47  0.0000E+00  2.3207E-02  0.0000E+00  0.0000E+00  0.0000E+00  8.0232E-02  0.0000E+00  0.0000E+00  1.0371E-02
 48  0.0000E+00  1.7206E-02  4.9383E-02  0.0000E+00  0.0000E+00  0.0000E+00  3.7850E-02  1.0122E-01  1.5076E-02
 49  0.0000E+00  1.7886E-02  5.0603E-02  1.1139E-01  0.0000E+00  0.0000E+00  0.0000E+00  0.0000E+00  0.0000E+00
 50  0.0000E+00  2.2002E-02  0.0000E+00  0.0000E+00  0.0000E+00  1.1200E-01  0.0000E+00  1.2445E-02  0.0000E+00
 51  3.3145E-03  3.2993E-03  3.3469E-03  3.2653E-03  4.0228E-03  2.8427E-03  2.9220E-03  3.4005E-03  3.9478E-03
 52  4.6031E-04  3.6024E-04  3.3212E-04  4.6621E-04  3.6228E-04  2.9449E-04  3.5482E-04  3.5311E-04  5.1869E-04
 53  0.0000E+00  8.3533E-05  9.5963E-05  1.5272E-05  0.0000E+00  1.7891E-04  1.1935E-05  0.0000E+00  9.7214E-05
 54  5.8000E-04  3.9547E-04  5.3695E-04  4.2320E-04  3.5263E-04  3.8317E-04  4.4864E-04  4.4118E-04  3.3731E-04
 55  6.3183E-04  5.3984E-04  5.4018E-04  5.8038E-04  5.1149E-04  6.0347E-04  5.4204E-04  4.5938E-04  4.8787E-04
 56  1.1225E-03  1.1364E-03  7.7215E-04  1.1573E-03  1.1835E-03  1.1811E-03  1.3534E-03  1.0394E-03  1.3599E-03
 57  0.0000E+00  6.1778E-05  0.0000E+00  0.0000E+00  0.0000E+00  0.0000E+00  0.0000E+00  5.0118E-05  1.4443E-04
 58  0.0000E+00  1.3971E-04  2.0591E-05  0.0000E+00  9.1794E-04  0.0000E+00  1.8887E-04  1.1262E-04  0.0000E+00
 59  0.0000E+00  8.7412E-05  0.0000E+00  0.0000E+00  0.0000E+00  0.0000E+00  0.0000E+00  0.0000E+00  0.0000E+00
 60  0.0000E+00  3.9615E-05  0.0000E+00  0.0000E+00  0.0000E+00  0.0000E+00  0.0000E+00  0.0000E+00  0.0000E+00
 61  0.0000E+00  4.4047E-05  0.0000E+00  0.0000E+00  0.0000E+00  0.0000E+00  0.0000E+00  0.0000E+00  0.0000E+00
 62  0.0000E+00  6.9644E-05  0.0000E+00  0.0000E+00  0.0000E+00  0.0000E+00  0.0000E+00  0.0000E+00  0.0000E+00
 63  0.0000E+00  7.2945E-05  0.0000E+00  0.0000E+00  0.0000E+00  0.0000E+00  0.0000E+00  0.0000E+00  0.0000E+00
 64  0.0000E+00  1.4957E-04  0.0000E+00  0.0000E+00  0.0000E+00  0.0000E+00  0.0000E+00  0.0000E+00  0.0000E+00
 65  0.0000E+00  3.0406E-04  0.0000E+00  0.0000E+00  0.0000E+00  0.0000E+00  0.0000E+00  0.0000E+00  0.0000E+00
 66  0.0000E+00  8.3689E-04  0.0000E+00  0.0000E+00  0.0000E+00  0.0000E+00  0.0000E+00  0.0000E+00  6.2866E-04
 67  0.0000E+00  1.2431E-03  0.0000E+00  0.0000E+00  0.0000E+00  0.0000E+00  0.0000E+00  0.0000E+00  5.9271E-05
 68  2.6937E-04  7.4228E-03  0.0000E+00  0.0000E+00  0.0000E+00  0.0000E+00  1.7900E-02  0.0000E+00  3.8953E-02
 69  0.0000E+00  2.5118E-02  1.7654E-02  8.6951E-02  0.0000E+00  0.0000E+00  1.7788E-02  0.0000E+00  3.3554E-03
 70  0.0000E+00  3.9904E-02  6.1292E-02  2.9776E-02  4.1344E-02  0.0000E+00  7.6926E-02  0.0000E+00  0.0000E+00
 71  0.0000E+00  7.5502E-02  1.2725E-01  1.5218E-01  0.0000E+00  3.6964E-02  2.3844E-02  0.0000E+00  1.7672E-02
 72  3.4193E-01  1.4579E-01  2.6338E-01  2.8101E-01  4.8482E-01  9.6774E-02  3.9185E-02  2.3965E-01  3.8741E-01
 73  3.5685E-01  1.5538E-01  0.0000E+00  0.0000E+00  0.0000E+00  4.7629E-01  0.0000E+00  9.2272E-02  3.1985E-01
 74  3.6407E-01  1.4082E-01  0.0000E+00  1.2141E-01  0.0000E+00  0.0000E+00  0.0000E+00  5.3950E-02  1.5135E-01
 75  0.0000E+00  1.7313E-01  1.3853E-01  0.0000E+00  2.2186E-01  0.0000E+00  1.8404E-01  0.0000E+00  0.0000E+00
 76  2.4577E-03  2.8307E-03  2.7191E-03  2.6193E-03  2.9820E-03  2.8209E-03  2.7578E-03  2.9914E-03  2.6462E-03
 77  0.0000E+00  1.2405E-05  0.0000E+00  0.0000E+00  5.1214E-05  0.0000E+00  0.0000E+00  5.8022E-05  0.0000E+00
 78  0.0000E+00  2.7248E-05  0.0000E+00  0.0000E+00  5.6192E-05  0.0000E+00  0.0000E+00  8.9994E-05  0.0000E+00
 79  0.0000E+00  2.8965E-05  1.3302E-04  0.0000E+00  0.0000E+00  0.0000E+00  9.3382E-05  1.1284E-04  1.9976E-04
 80  0.0000E+00  2.3420E-05  0.0000E+00  0.0000E+00  0.0000E+00  0.0000E+00  0.0000E+00  0.0000E+00  0.0000E+00
 81  0.0000E+00  3.0858E-05  1.4171E-05  1.7156E-04  0.0000E+00  0.0000E+00  9.0844E-05  0.0000E+00  0.0000E+00
 82  0.0000E+00  2.5367E-05  0.0000E+00  0.0000E+00  2.8216E-05  0.0000E+00  6.8723E-06  1.3353E-05  0.0000E+00
 83  0.0000E+00  3.5303E-05  0.0000E+00  0.0000E+00  8.4885E-05  2.1217E-04  3.2388E-05  0.0000E+00  0.0000E+00
 84  0.0000E+00  3.4890E-05  0.0000E+00  0.0000E+00  0.0000E+00  0.0000E+00  0.0000E+00  0.0000E+00  0.0000E+00
 85  0.0000E+00  4.6071E-05  0.0000E+00  0.0000E+00  0.0000E+00  0.0000E+00  0.0000E+00  5.4239E-04  0.0000E+00
 86  0.0000E+00  5.2734E-05  0.0000E+00  0.0000E+00  0.0000E+00  0.0000E+00  5.7043E-05  0.0000E+00  0.0000E+00
 87  0.0000E+00  6.1806E-05  0.0000E+00  0.0000E+00  0.0000E+00  0.0000E+00  0.0000E+00  0.0000E+00  0.0000E+00
 88  0.0000E+00  8.3087E-05  0.0000E+00  0.0000E+00  0.0000E+00  0.0000E+00  0.0000E+00  0.0000E+00  0.0000E+00
 89  0.0000E+00  9.6422E-05  1.1712E-04  0.0000E+00  0.0000E+00  0.0000E+00  0.0000E+00  0.0000E+00  0.0000E+00
 90  0.0000E+00  3.0824E-04  0.0000E+00  0.0000E+00  0.0000E+00  0.0000E+00  0.0000E+00  0.0000E+00  0.0000E+00
 91  0.0000E+00  1.1015E-03  0.0000E+00  0.0000E+00  0.0000E+00  0.0000E+00  0.0000E+00  0.0000E+00  0.0000E+00
 92  0.0000E+00  1.3409E-03  0.0000E+00  3.8291E-03  0.0000E+00  0.0000E+00  0.0000E+00  0.0000E+00  0.0000E+00
 93  0.0000E+00  9.0609E-03  5.0611E-02  0.0000E+00  0.0000E+00  0.0000E+00  0.0000E+00  0.0000E+00  0.0000E+00
 94  0.0000E+00  4.6827E-02  4.5287E-02  3.3266E-03  1.9099E-02  7.7259E-02  1.8797E-01  0.0000E+00  0.0000E+00
 95  4.3343E-01  2.6303E-01  2.1827E-01  3.4553E-01  2.9537E-01  0.0000E+00  1.9528E-01  2.8294E-01  5.0884E-01
 96  4.4564E-01  1.9686E-01  3.5425E-01  3.0051E-01  3.0753E-01  2.4380E-01  4.4445E-01  2.7934E-01  2.8342E-01
 97  5.0952E+00  5.0177E+00  5.1501E+00  5.1141E+00  5.5108E+00  5.4509E+00  5.1400E+00  5.2974E+00  4.8458E+00
 98  0.0000E+00  2.1699E-01  3.1753E-01  0.0000E+00  0.0000E+00  6.1127E-02  3.5091E-01  2.6794E-01  3.2400E-02
 99  0.0000E+00  1.7127E-01  8.0389E-02  0.0000E+00  1.5397E-01  4.0404E-01  0.0000E+00  0.0000E+00  1.0150E-01
100  0.0000E+00  1.7408E-01  0.0000E+00  2.8707E-01  7.7049E-02  0.0000E+00  7.3652E-01  3.5689E-01  1.1176E-01
101  0.0000E+00  4.5056E-05  0.0000E+00  0.0000E+00  0.0000E+00  2.0187E-04  0.0000E+00  0.0000E+00  0.0000E+00
102  0.0000E+00  9.4713E-06  0.0000E+00  0.0000E+00  0.0000E+00  0.0000E+00  0.0000E+00  0.0000E+00  0.0000E+00
103  0.0000E+00  1.1445E-05  0.0000E+00  0.0000E+00  0.0000E+00  0.0000E+00  0.0000E+00  6.6157E-05  0.0000E+00
104  0.0000E+00  1.5079E-05  0.0000E+00  3.1284E-05  0.0000E+00  4.9036E-05  0.0000E+00  8.2825E-05  0.0000E+00
105  0.0000E+00  3.5426E-05  2.0798E-04  0.0000E+00  0.0000E+00  0.0000E+00  0.0000E+00  0.0000E+00  3.8414E-06
106  0.0000E+00  5.0860E-05  0.0000E+00  0.0000E+00  0.0000E+00  3.4242E-04  0.0000E+00  7.9435E-05  1.6108E-05
107  0.0000E+00  2.5827E-05  0.0000E+00  0.0000E+00  0.0000E+00  0.0000E+00  1.2231E-04  0.0000E+00  0.0000E+00
108  0.0000E+00  5.8484E-05  2.2876E-05  0.0000E+00  0.0000E+00  0.0000E+00  0.0000E+00  0.0000E+00  0.0000E+00
109  0.0000E+00  3.0756E-05  3.1937E-04  0.0000E+00  0.0000E+00  0.0000E+00  0.0000E+00  0.0000E+00  0.0000E+00
110  0.0000E+00  5.8173E-05  0.0000E+00  0.0000E+00  0.0000E+00  0.0000E+00  0.0000E+00  0.0000E+00  0.0000E+00
111  0.0000E+00  4.3856E-05  0.0000E+00  0.0000E+00  0.0000E+00  5.8700E-04  0.0000E+00  0.0000E+00  0.0000E+00
112  0.0000E+00  5.2515E-05  0.0000E+00  0.0000E+00  0.0000E+00  0.0000E+00  0.0000E+00  0.0000E+00  4.9755E-04
113  0.0000E+00  5.2379E-05  0.0000E+00  0.0000E+00  0.0000E+00  1.1487E-04  1.8603E-04  0.0000E+00  0.0000E+00
114  0.0000E+00  1.5096E-04  0.0000E+00  0.0000E+00  0.0000E+00  0.0000E+00  0.0000E+00  0.0000E+00  0.0000E+00
115  0.0000E+00  5.8580E-04  0.0000E+00  2.7850E-04  0.0000E+00  0.0000E+00  0.0000E+00  0.0000E+00  1.7513E-03
116  0.0000E+00  1.9144E-03  0.0000E+00  1.1060E-03  2.0216E-03  0.0000E+00  0.0000E+00  0.0000E+00  0.0000E+00
117  0.0000E+00  2.7124E-03  0.0000E+00  0.0000E+00  0.0000E+00  1.3507E-02  1.2809E-03  8.3679E-03  1.1491E-03
118  0.0000E+00  2.1396E-02  7.9899E-02  0.0000E+00  0.0000E+00  1.5003E-02  0.0000E+00  0.0000E+00  5.8693E-03
119  0.0000E+00  7.5934E-02  0.0000E+00  0.0000E+00  0.0000E+00  0.0000E+00  2.9761E-02  0.0000E+00  0.0000E+00
120  0.0000E+00  1.2994E-01  1.0586E-01  0.0000E+00  5.1276E-01  5.2037E-02  2.8793E-01  0.0000E+00  2.1496E-02
121  2.7972E-01  1.7076E-01  0.0000E+00  3.5480E-01  6.1028E-01  1.3781E-01  1.4778E-01  6.6295E-02  2.0498E-01
122  3.6452E+00  3.5311E+00  3.7697E+00  3.4375E+00  3.6103E+00  3.4807E+00  3.1950E+00  3.8031E+00  3.8650E+00
123  8.9213E+00  8.8956E+00  9.2521E+00  9.2940E+00  8.8092E+00  8.8104E+00  8.2527E+00  8.8865E+00  9.2632E+00
124  2.6823E+01  2.6547E+01  2.6836E+01  2.6251E+01  2.6759E+01  2.6683E+01  2.6371E+01  2.6868E+01  2.6491E+01
125  2.9350E+01  2.7587E+01  2.6979E+01  2.8489E+01  2.7819E+01  2.8181E+01  2.8759E+01  2.7705E+01  2.7364E+01
126  0.0000E+00  1.4590E-05  0.0000E+00  0.0000E+00  0.0000E+00  3.6805E-05  0.0000E+00  5.9173E-06  0.0000E+00
127  0.0000E+00  8.2881E-06  0.0000E+00  0.0000E+00  0.0000E+00  0.0000E+00  2.0482E-05  0.0000E+00  9.0490E-05
128  0.0000E+00  2.1728E-05  0.0000E+00  0.0000E+00  0.0000E+00  8.6516E-06  0.0000E+00  0.0000E+00  0.0000E+00
129  0.0000E+00  3.7795E-05  1.1415E-04  0.0000E+00  0.0000E+00  0.0000E+00  0.0000E+00  0.0000E+00  2.8967E-05
130  0.0000E+00  2.9096E-05  0.0000E+00  7.5420E-05  0.0000E+00  0.0000E+00  0.0000E+00  0.0000E+00  0.0000E+00
131  0.0000E+00  3.4623E-05  0.0000E+00  4.2498E-04  0.0000E+00  0.0000E+00  0.0000E+00  0.0000E+00  4.8903E-05
132  0.0000E+00  2.3662E-05  0.0000E+00  0.0000E+00  0.0000E+00  1.1875E-04  0.0000E+00  0.0000E+00  0.0000E+00
133  0.0000E+00  4.5916E-05  0.0000E+00  1.4073E-05  8.1641E-05  8.4704E-05  0.0000E+00  0.0000E+00  0.0000E+00
134  0.0000E+00  2.3033E-05  0.0000E+00  0.0000E+00  0.0000E+00  0.0000E+00  0.0000E+00  0.0000E+00  0.0000E+00
135  0.0000E+00  3.1794E-05  0.0000E+00  0.0000E+00  0.0000E+00  0.0000E+00  0.0000E+00  0.0000E+00  0.0000E+00
136  0.0000E+00  4.6676E-05  0.0000E+00  0.0000E+00  0.0000E+00  0.0000E+00  0.0000E+00  0.0000E+00  0.0000E+00
137  0.0000E+00  2.9537E-05  0.0000E+00  0.0000E+00  0.0000E+00  0.0000E+00  0.0000E+00  0.0000E+00  0.0000E+00
138  0.0000E+00  9.1734E-05  0.0000E+00  0.0000E+00  0.0000E+00  0.0000E+00  0.0000E+00  0.0000E+00  0.0000E+00
139  0.0000E+00  3.0820E-04  0.0000E+00  0.0000E+00  0.0000E+00  0.0000E+00  0.0000E+00  0.0000E+00  1.7379E-04
140  0.0000E+00  2.9164E-03  0.0000E+00  0.0000E+00  0.0000E+00  0.0000E+00  6.6312E-04  0.0000E+00  0.0000E+00
141  0.0000E+00  1.1386E-02  0.0000E+00  0.0000E+00  0.0000E+00  0.0000E+00  0.0000E+00  8.6122E-03  0.0000E+00
142  1.1947E-03  1.2126E-02  0.0000E+00  4.5578E-02  0.0000E+00  0.0000E+00  7.6458E-02  1.0608E-01  7.3176E-02
143  0.0000E+00  3.3681E-02  2.4650E-02  0.0000E+00  2.6894E-02  0.0000E+00  0.0000E+00  0.0000E+00  5.6046E-02
144  0.0000E+00  9.1673E-02  0.0000E+00  0.0000E+00  0.0000E+00  0.0000E+00  4.1671E-02  0.0000E+00  5.5159E-02
145  2.3154E+00  3.2736E+00  3.4767E+00  2.8341E+00  3.3429E+00  3.4970E+00  3.0343E+00  3.5301E+00  2.9180E+00
146  2.4215E+00  3.1675E+00  2.9651E+00  2.9423E+00  2.8154E+00  3.3332E+00  3.0794E+00  3.1215E+00  3.1463E+00
147  1.3985E+00  1.9765E+00  2.0572E+00  1.8390E+00  2.2553E+00  1.9615E+00  1.5534E+00  1.9501E+00  1.9179E+00
148  1.2301E+01  1.2146E+01  1.2123E+01  1.2710E+01  1.1255E+01  1.2017E+01  1.2309E+01  1.2042E+01  1.2424E+01
149  0.0000E+00  3.4863E-01  5.7754E-01  1.6815E-01  0.0000E+00  0.0000E+00  4.5295E-01  0.0000E+00  1.9353E-01
150  5.4636E+00  4.8944E+00  4.6073E+00  4.5839E+00  4.7939E+00  4.7112E+00  4.8204E+00  4.7444E+00  5.0944E+00

# AV, chi2 & Mass for <> & i_chain = 1 ...  7 solutions
AV       1.6831      1.6723      1.6743      1.6759      1.6764      1.6716      1.6739      1.6742      1.6774
chi2 2.1748E+00  2.2173E+00  2.2134E+00  2.2071E+00  2.2075E+00  2.2115E+00  2.2101E+00  2.2107E+00  2.2064E+00
Mass 1.9346E-09  1.8968E-09  1.8959E-09  1.9095E-09  1.8907E-09  1.9049E-09  1.9049E-09  1.8956E-09  1.9039E-09
   7.74                                  [v0_min (km/s) before EX0s...]
  20.66                                  [vd_min (km/s) before EX0s...]


## Synthetic spectrum (Best Model) ##l_obs f_obs f_syn wei
 3070    [Nl_obs]
 3359.00    0.29773   0.42273   -1.000
 3360.00    0.30265   0.39947   -1.000
 3361.00    0.28717   0.39920   -1.000
 3362.00    0.31851   0.42499   -1.000
 3363.00    0.27417   0.46012   -1.000
 3364.00    0.30526   0.48635   -1.000
 3365.00    0.34605   0.48946   -1.000
 3366.00    0.37178   0.46931   -1.000
 3367.00    0.32110   0.44672   -1.000
 3368.00    0.31028   0.42494   -1.000
 3369.00    0.30949   0.41406   -1.000
 3370.00    0.30519   0.40948   -1.000
 3371.00    0.27007   0.40738   -1.000
 3372.00    0.30110   0.41156   -1.000
 3373.00    0.33111   0.42864   -1.000
 3374.00    0.34404   0.45506   -1.000
 3375.00    0.34606   0.48384   -1.000
 3376.00    0.34576   0.50379   -1.000
 3377.00    0.34424   0.50177   -1.000
 3378.00    0.33607   0.48002   -1.000
 3379.00    0.32482   0.45743   -1.000
 3380.00    0.34129   0.44435   -1.000
 3381.00    0.34326   0.45247   -1.000
 3382.00    0.38265   0.46687   -1.000
 3383.00    0.40810   0.48228   -1.000
 3384.00    0.39560   0.49118   -1.000
 3385.00    0.38193   0.50124   -1.000
 3386.00    0.37620   0.50580   -1.000
 3387.00    0.36068   0.50630   -1.000
 3388.00    0.35719   0.50440   -1.000
 3389.00    0.36556   0.50243   -1.000
 3390.00    0.38436   0.49788   -1.000
 3391.00    0.39057   0.48289   -1.000
 3392.00    0.38334   0.46790   -1.000
 3393.00    0.36767   0.46495   -1.000
 3394.00    0.36587   0.47628   -1.000
 3395.00    0.39685   0.49854   -1.000
 3396.00    0.41043   0.51438   -1.000
 3397.00    0.41913   0.52930   -1.000
 3398.00    0.43695   0.54280   -1.000
 3399.00    0.45780   0.54727   -1.000
 3400.00    0.45183   0.54427   -1.000
 3401.00    0.47286   0.53607   -1.000
 3402.00    0.47707   0.52094   52.713
 3403.00    0.45347   0.50875   -1.000
 3404.00    0.45751   0.50067   54.458
 3405.00    0.44892   0.49385   54.774
 3406.00    0.41023   0.48616   -1.000
 3407.00    0.42164   0.47860   -1.000
 3408.00    0.42900   0.47842   55.268
 3409.00    0.43778   0.48374   53.723
 3410.00    0.43945   0.49442   53.669
 3411.00    0.45464   0.49366   55.890
 3412.00    0.47506   0.47901   56.740
 3413.00    0.43882   0.46076   56.418
 3414.00    0.42383   0.44672   54.849
 3415.00    0.43586   0.45332   52.437
 3416.00    0.43148   0.47023   49.925
 3417.00    0.42955   0.49651   -1.000
 3418.00    0.44652   0.51806   -1.000
 3419.00    0.45496   0.53877   -1.000
 3420.00    0.48564   0.54632   47.729
 3421.00    0.49323   0.53981   49.112
 3422.00    0.48897   0.51679   49.866
 3423.00    0.48503   0.50417   48.410
 3424.00    0.47453   0.50176   47.275
 3425.00    0.49186   0.50480   53.577
 3426.00    0.48716   0.50896   -1.000
 3427.00    0.49728   0.51464   -1.000
 3428.00    0.50829   0.52962   -1.000
 3429.00    0.54138   0.55378   -1.000
 3430.00    0.53502   0.55567   -1.000
 3431.00    0.50628   0.54054   47.223
 3432.00    0.47392   0.51511   53.666
 3433.00    0.45700   0.50116   -1.000
 3434.00    0.47175   0.50846   -1.000
 3435.00    0.48798   0.51760   47.230
 3436.00    0.49699   0.51834   49.556
 3437.00    0.48648   0.50524   52.686
 3438.00    0.48155   0.48222   56.614
 3439.00    0.45198   0.44888   58.553
 3440.00    0.41513   0.42008   58.576
 3441.00    0.39543   0.39803   58.005
 3442.00    0.39337   0.39685   55.542
 3443.00    0.40784   0.40837   52.483
 3444.00    0.40116   0.42524   49.741
 3445.00    0.40394   0.43878   55.635
 3446.00    0.42897   0.45548   -1.000
 3447.00    0.46629   0.47226  395.561
 3448.00    0.49078   0.49485  395.561
 3449.00    0.50560   0.51754   -1.000
 3450.00    0.48830   0.52323   -1.000
 3451.00    0.49643   0.50866   -1.000
 3452.00    0.47915   0.49558   -1.000
 3453.00    0.47862   0.49125   -1.000
 3454.00    0.51711   0.50258   -1.000
 3455.00    0.51048   0.51232  395.561
 3456.00    0.52436   0.50713   -1.000
 3457.00    0.51893   0.49140   47.166
 3458.00    0.51398   0.46678   47.659
 3459.00    0.48014   0.45222   55.127
 3460.00    0.49709   0.44304   -1.000
 3461.00    0.49422   0.44625   -1.000
 3462.00    0.48235   0.46263   -1.000
 3463.00    0.52805   0.49227   -1.000
 3464.00    0.53818   0.49738   -1.000
 3465.00    0.49874   0.49161  395.561
 3466.00    0.51121   0.48813   -1.000
 3467.00    0.51393   0.49373   -1.000
 3468.00    0.52012   0.51178   -1.000
 3469.00    0.54840   0.52656   -1.000
 3470.00    0.55012   0.53403   -1.000
 3471.00    0.52681   0.52247  395.561
 3472.00    0.50533   0.50172  187.917
 3473.00    0.51618   0.47453   47.748
 3474.00    0.49606   0.45045   49.075
 3475.00    0.44990   0.43015   56.547
 3476.00    0.44548   0.43134   -1.000
 3477.00    0.45784   0.44663   -1.000
 3478.00    0.47368   0.46983  395.561
 3479.00    0.51648   0.48864   -1.000
 3480.00    0.52921   0.50025   -1.000
 3481.00    0.52417   0.50084   -1.000
 3482.00    0.52745   0.49074   -1.000
 3483.00    0.51227   0.47824   -1.000
 3484.00    0.51320   0.47612   -1.000
 3485.00    0.50976   0.49350   -1.000
 3486.00    0.53199   0.51239   -1.000
 3487.00    0.55592   0.52362   -1.000
 3488.00    0.52670   0.51094   -1.000
 3489.00    0.48719   0.48407  395.561
 3490.00    0.48686   0.45854   -1.000
 3491.00    0.48369   0.45042   -1.000
 3492.00    0.49150   0.46082   -1.000
 3493.00    0.52160   0.47533   -1.000
 3494.00    0.50385   0.48677   -1.000
 3495.00    0.46825   0.48120   -1.000
 3496.00    0.47459   0.46985  395.561
 3497.00    0.49127   0.46973   -1.000
 3498.00    0.49185   0.49287  375.328
 3499.00    0.50118   0.52738   -1.000
 3500.00    0.53895   0.54065  366.690
 3501.00    0.55475   0.54446   -1.000
 3502.00    0.55240   0.55306  376.014
 3503.00    0.57473   0.55950   -1.000
 3504.00    0.57484   0.55666   -1.000
 3505.00    0.54697   0.54323  381.597
 3506.00    0.53420   0.53125  379.021
 3507.00    0.54908   0.52969   -1.000
 3508.00    0.54697   0.52790   -1.000
 3509.00    0.54617   0.51565   -1.000
 3510.00    0.53735   0.50322   -1.000
 3511.00    0.53839   0.49006   -1.000
 3512.00    0.52059   0.47737   -1.000
 3513.00    0.48456   0.46464   -1.000
 3514.00    0.49095   0.45845   -1.000
 3515.00    0.45997   0.47520   -1.000
 3516.00    0.48764   0.51245   -1.000
 3517.00    0.53606   0.54329  386.803
 3518.00    0.56439   0.55784  395.561
 3519.00    0.56837   0.54462   -1.000
 3520.00    0.56247   0.52090   -1.000
 3521.00    0.52293   0.49032   -1.000
 3522.00    0.50277   0.47019   47.372
 3523.00    0.49376   0.45096   48.689
 3524.00    0.46281   0.43333   58.770
 3525.00    0.43893   0.42480   -1.000
 3526.00    0.45750   0.43798   -1.000
 3527.00    0.46225   0.46674  395.527
 3528.00    0.49888   0.50473  392.351
 3529.00    0.52509   0.52908  395.561
 3530.00    0.55215   0.53596   -1.000
 3531.00    0.54030   0.52562   -1.000
 3532.00    0.51313   0.52206   -1.000
 3533.00    0.51445   0.52839   -1.000
 3534.00    0.54317   0.54033  376.703
 3535.00    0.55917   0.55010   -1.000
 3536.00    0.56169   0.54996   -1.000
 3537.00    0.51495   0.55094   -1.000
 3538.00    0.51898   0.56084   -1.000
 3539.00    0.57464   0.56627  380.650
 3540.00    0.55737   0.56386  382.671
 3541.00    0.54041   0.55201   -1.000
 3542.00    0.52716   0.54723   -1.000
 3543.00    0.52485   0.55639   -1.000
 3544.00    0.55279   0.56641   -1.000
 3545.00    0.55215   0.57157   -1.000
 3546.00    0.56567   0.56377  390.879
 3547.00    0.54222   0.55629   -1.000
 3548.00    0.50191   0.55536   -1.000
 3549.00    0.50799   0.55760   -1.000
 3550.00    0.52750   0.55669   -1.000
 3551.00    0.51247   0.54742   -1.000
 3552.00    0.51457   0.53275   -1.000
 3553.00    0.51301   0.51699  395.561
 3554.00    0.50093   0.51208   -1.000
 3555.00    0.48462   0.51854   -1.000
 3556.00    0.47865   0.52327   -1.000
 3557.00    0.50037   0.52465   -1.000
 3558.00    0.48214   0.51872   -1.000
 3559.00    0.47241   0.51645   -1.000
 3560.00    0.49562   0.52508   -1.000
 3561.00    0.51112   0.53860   -1.000
 3562.00    0.51892   0.54976   -1.000
 3563.00    0.51628   0.53559   47.948
 3564.00    0.50323   0.50212   49.351
 3565.00    0.46939   0.46069   48.825
 3566.00    0.44927   0.44597   48.985
 3567.00    0.43896   0.44887   50.510
 3568.00    0.43581   0.44701   50.847
 3569.00    0.43731   0.43601   49.067
 3570.00    0.42759   0.42442   59.357
 3571.00    0.42647   0.42542  395.561
 3572.00    0.44977   0.44634  395.561
 3573.00    0.47144   0.46299   -1.000
 3574.00    0.46466   0.47484   -1.000
 3575.00    0.45649   0.48139   -1.000
 3576.00    0.46706   0.48165  157.875
 3577.00    0.47604   0.46963   49.976
 3578.00    0.46068   0.44993   53.706
 3579.00    0.42591   0.41930   56.037
 3580.00    0.39030   0.39578   56.345
 3581.00    0.37489   0.38300   56.852
 3582.00    0.37641   0.38741   58.408
 3583.00    0.38959   0.39471   60.086
 3584.00    0.40260   0.39633   59.964
 3585.00    0.38727   0.38997   56.851
 3586.00    0.38251   0.38563   53.886
 3587.00    0.37908   0.39333   50.711
 3588.00    0.39869   0.40948   59.863
 3589.00    0.42032   0.43831   -1.000
 3590.00    0.42986   0.46938   -1.000
 3591.00    0.44970   0.49776   -1.000
 3592.00    0.47612   0.50468   -1.000
 3593.00    0.47487   0.50452   -1.000
 3594.00    0.46755   0.51019   -1.000
 3595.00    0.49115   0.52773   -1.000
 3596.00    0.51485   0.55309   -1.000
 3597.00    0.54405   0.56681   -1.000
 3598.00    0.57985   0.57750  361.358
 3599.00    0.58262   0.59006   -1.000
 3600.00    0.58162   0.59191   -1.000
 3601.00    0.58618   0.57286   -1.000
 3602.00    0.54673   0.54354  395.561
 3603.00    0.51251   0.51095  395.561
 3604.00    0.49514   0.49124  395.561
 3605.00    0.50328   0.48510   -1.000
 3606.00    0.48360   0.48411  395.561
 3607.00    0.47047   0.47466  395.561
 3608.00    0.46176   0.45790  395.561
 3609.00    0.45818   0.45104   -1.000
 3610.00    0.45387   0.46012  395.561
 3611.00    0.48848   0.48653  395.561
 3612.00    0.50699   0.50430  394.106
 3613.00    0.51363   0.51765  383.511
 3614.00    0.52659   0.53246  392.404
 3615.00    0.54309   0.54505  395.561
 3616.00    0.53690   0.53789  141.688
 3617.00    0.50475   0.50683   60.617
 3618.00    0.46050   0.45690  395.561
 3619.00    0.43585   0.44466   -1.000
 3620.00    0.46397   0.46200  375.706
 3621.00    0.50908   0.50421  367.990
 3622.00    0.52172   0.54110   -1.000
 3623.00    0.54162   0.56353   -1.000
 3624.00    0.57146   0.58057   -1.000
 3625.00    0.58248   0.60809   -1.000
 3626.00    0.59837   0.63825   -1.000
 3627.00    0.64388   0.65564   -1.000
 3628.00    0.64052   0.64381  395.561
 3629.00    0.60235   0.60238  395.561
 3630.00    0.54595   0.53457   -1.000
 3631.00    0.49553   0.49254  395.561
 3632.00    0.47841   0.47601  395.561
 3633.00    0.48831   0.49199  395.561
 3634.00    0.50104   0.51577   -1.000
 3635.00    0.50846   0.53895   -1.000
 3636.00    0.54627   0.55036  348.530
 3637.00    0.56951   0.56692  339.949
 3638.00    0.58271   0.59277   -1.000
 3639.00    0.61182   0.61451  351.653
 3640.00    0.62639   0.62649  365.533
 3641.00    0.62510   0.61942  383.109
 3642.00    0.58075   0.59707   -1.000
 3643.00    0.55113   0.57222   -1.000
 3644.00    0.54184   0.54851  395.561
 3645.00    0.52602   0.52877  395.561
 3646.00    0.50546   0.51125  395.561
 3647.00    0.52185   0.49165   -1.000
 3648.00    0.51000   0.48853   -1.000
 3649.00    0.49950   0.50148  360.775
 3650.00    0.51682   0.53413   -1.000
 3651.00    0.54779   0.56888   -1.000
 3652.00    0.58357   0.60650   -1.000
 3653.00    0.60502   0.62299   -1.000
 3654.00    0.62139   0.63178   -1.000
 3655.00    0.63105   0.63964   -1.000
 3656.00    0.62710   0.65172   -1.000
 3657.00    0.63862   0.67071   -1.000
 3658.00    0.65623   0.68191   -1.000
 3659.00    0.66757   0.68722   -1.000
 3660.00    0.66398   0.68371   -1.000
 3661.00    0.66716   0.67301  336.574
 3662.00    0.64678   0.65373  337.149
 3663.00    0.62657   0.64117   -1.000
 3664.00    0.62263   0.63556   -1.000
 3665.00    0.62975   0.63793   -1.000
 3666.00    0.62603   0.63892   -1.000
 3667.00    0.62305   0.62963  353.317
 3668.00    0.61850   0.61378  347.551
 3669.00    0.61201   0.59926   -1.000
 3670.00    0.60506   0.60720  331.070
 3671.00    0.60744   0.62988   -1.000
 3672.00    0.60386   0.64865   -1.000
 3673.00    0.64020   0.65749   -1.000
 3674.00    0.65884   0.65659  344.593
 3675.00    0.63533   0.64706   -1.000
 3676.00    0.62242   0.62681  365.533
 3677.00    0.61606   0.59860   -1.000
 3678.00    0.59998   0.56917   -1.000
 3679.00    0.56573   0.54859   -1.000
 3680.00    0.55154   0.54826  349.551
 3681.00    0.56672   0.56665  349.900
 3682.00    0.59274   0.58758  360.368
 3683.00    0.59717   0.60149  375.332
 3684.00    0.59834   0.59385  388.193
 3685.00    0.57879   0.56998   -1.000
 3686.00    0.53591   0.53373  373.515
 3687.00    0.51908   0.52009  348.515
 3688.00    0.52339   0.53196   -1.000
 3689.00    0.54914   0.57307   -1.000
 3690.00    0.60101   0.61945   -1.000
 3691.00    0.63573   0.65490   -1.000
 3692.00    0.64230   0.65600   -1.000
 3693.00    0.63634   0.63559  336.357
 3694.00    0.63075   0.61947   -1.000
 3695.00    0.61631   0.61228  326.695
 3696.00    0.61303   0.61838  316.610
 3697.00    0.62352   0.63366   -1.000
 3698.00    0.64510   0.66119   -1.000
 3699.00    0.67720   0.68175  317.445
 3700.00    0.70044   0.69188  336.856
 3701.00    0.68827   0.67966   -1.000
 3702.00    0.64708   0.64592  395.561
 3703.00    0.60160   0.58553   -1.000
 3704.00    0.55155   0.53270   -1.000
 3705.00    0.51924   0.49017   -1.000
 3706.00    0.49972   0.48171   -1.000
 3707.00    0.49756   0.48733   -1.000
 3708.00    0.52372   0.49741   -1.000
 3709.00    0.52967   0.51517   -1.000
 3710.00    0.55635   0.55021  323.342
 3711.00    0.60061   0.58903   -1.000
 3712.00    0.63391   0.63082  304.902
 3713.00    0.67653   0.66456   -1.000
 3714.00    0.68212   0.67814  316.993
 3715.00    0.66640   0.66891  336.300
 3716.00    0.66814   0.64525   -1.000
 3717.00    0.62407   0.60296   -1.000
 3718.00    0.54227   0.54577  122.994
 3719.00    0.49458   0.48429   66.746
 3720.00    0.45763   0.42690   -1.000
 3721.00    0.42174   0.41191   -1.000
 3722.00    0.44928   0.43450   -1.000
 3723.00    0.51491   0.48255   -1.000
 3724.00    0.57387   0.53744   -1.000
 3725.00    0.59953   0.57534   -1.000
 3726.00    0.60020   0.57693   -1.000
 3727.00    0.57759   0.56010   -1.000
 3728.00    0.55011   0.55927   -1.000
 3729.00    0.57731   0.56558   -1.000
 3730.00    0.57642   0.56275  116.569
 3731.00    0.54429   0.53698   48.607
 3732.00    0.51501   0.48040   53.210
 3733.00    0.47473   0.42816   53.585
 3734.00    0.42053   0.38252   50.032
 3735.00    0.38289   0.36516   66.114
 3736.00    0.38826   0.37524   -1.000
 3737.00    0.41634   0.41574  364.986
 3738.00    0.47211   0.46663  350.387
 3739.00    0.53066   0.52891  353.826
 3740.00    0.57690   0.56757   -1.000
 3741.00    0.58567   0.57757   -1.000
 3742.00    0.56871   0.55178   -1.000
 3743.00    0.51939   0.51681  395.561
 3744.00    0.48829   0.47693  117.749
 3745.00    0.46706   0.45641   48.550
 3746.00    0.44100   0.43945   50.832
 3747.00    0.43548   0.41711   72.979
 3748.00    0.42711   0.39684   -1.000
 3749.00    0.41065   0.38976   -1.000
 3750.00    0.43779   0.41483   -1.000
 3751.00    0.48452   0.47015   -1.000
 3752.00    0.52549   0.52592  316.009
 3753.00    0.57695   0.57453  318.012
 3754.00    0.62615   0.61811   -1.000
 3755.00    0.64747   0.62779   -1.000
 3756.00    0.61891   0.59856   -1.000
 3757.00    0.55576   0.54386   -1.000
 3758.00    0.50818   0.49507   -1.000
 3759.00    0.49482   0.48796  367.501
 3760.00    0.51183   0.50333   -1.000
 3761.00    0.53007   0.52431  358.536
 3762.00    0.53897   0.53005   -1.000
 3763.00    0.54285   0.52694   -1.000
 3764.00    0.53687   0.52563   -1.000
 3765.00    0.54903   0.52189   -1.000
 3766.00    0.54654   0.51333   -1.000
 3767.00    0.52179   0.51225   -1.000
 3768.00    0.52717   0.52150  367.171
 3769.00    0.57293   0.53278   -1.000
 3770.00    0.57306   0.54418   -1.000
 3771.00    0.58027   0.56333   -1.000
 3772.00    0.59935   0.58603   -1.000
 3773.00    0.62997   0.60846   -1.000
 3774.00    0.63797   0.61632   -1.000
 3775.00    0.63224   0.61729   -1.000
 3776.00    0.64405   0.62027   -1.000
 3777.00    0.63021   0.62708  304.986
 3778.00    0.63353   0.63999  299.761
 3779.00    0.65682   0.65414  297.883
 3780.00    0.67449   0.66877  296.795
 3781.00    0.69088   0.67811   -1.000
 3782.00    0.68173   0.68361  309.695
 3783.00    0.68459   0.68534  328.847
 3784.00    0.68171   0.67187   -1.000
 3785.00    0.64262   0.63767  364.257
 3786.00    0.58512   0.59518   -1.000
 3787.00    0.54058   0.55658   -1.000
 3788.00    0.51807   0.53202   -1.000
 3789.00    0.51600   0.53050   -1.000
 3790.00    0.54321   0.54484  368.329
 3791.00    0.55717   0.55828  381.977
 3792.00    0.56266   0.56123  394.546
 3793.00    0.55022   0.54146   -1.000
 3794.00    0.52008   0.51805  395.561
 3795.00    0.50752   0.49737   -1.000
 3796.00    0.49147   0.47786   -1.000
 3797.00    0.48226   0.45418   -1.000
 3798.00    0.47554   0.43829   -1.000
 3799.00    0.46810   0.44927   -1.000
 3800.00    0.48422   0.49543   -1.000
 3801.00    0.51971   0.54439   -1.000
 3802.00    0.55040   0.59057   -1.000
 3803.00    0.57616   0.61696   -1.000
 3804.00    0.58515   0.62632   -1.000
 3805.00    0.57637   0.61321   -1.000
 3806.00    0.55133   0.59236   -1.000
 3807.00    0.52949   0.57896   -1.000
 3808.00    0.54206   0.58991   -1.000
 3809.00    0.57501   0.61248   -1.000
 3810.00    0.59329   0.62742   -1.000
 3811.00    0.58685   0.62098   -1.000
 3812.00    0.57081   0.58771   -1.000
 3813.00    0.53204   0.54936   -1.000
 3814.00    0.49113   0.51074   -1.000
 3815.00    0.46610   0.49143   -1.000
 3816.00    0.45738   0.49049   -1.000
 3817.00    0.47092   0.50028   -1.000
 3818.00    0.47769   0.49523   -1.000
 3819.00    0.45304   0.46895   -1.000
 3820.00    0.42554   0.44912   -1.000
 3821.00    0.42340   0.44844   -1.000
 3822.00    0.43742   0.46825   -1.000
 3823.00    0.45137   0.47297   49.560
 3824.00    0.43782   0.44995   50.028
 3825.00    0.41328   0.42755   49.424
 3826.00    0.41061   0.41450   48.613
 3827.00    0.41140   0.41770   48.364
 3828.00    0.41287   0.42905   49.613
 3829.00    0.42637   0.44082   52.570
 3830.00    0.42485   0.44324   55.817
 3831.00    0.40780   0.43120   56.353
 3832.00    0.38287   0.40801   54.718
 3833.00    0.37450   0.38545   52.892
 3834.00    0.38088   0.37697   52.653
 3835.00    0.39813   0.37960   53.878
 3836.00    0.41648   0.39181   54.269
 3837.00    0.41243   0.39869   52.375
 3838.00    0.39887   0.39816   77.636
 3839.00    0.38035   0.40125   -1.000
 3840.00    0.38810   0.41596   -1.000
 3841.00    0.42088   0.45146   -1.000
 3842.00    0.45470   0.49055   -1.000
 3843.00    0.48054   0.53042   -1.000
 3844.00    0.51153   0.55127   -1.000
 3845.00    0.51345   0.55912   -1.000
 3846.00    0.49949   0.56073   -1.000
 3847.00    0.50273   0.55977   -1.000
 3848.00    0.50126   0.55030   -1.000
 3849.00    0.49582   0.53652   -1.000
 3850.00    0.49160   0.52781   -1.000
 3851.00    0.47826   0.53708   -1.000
 3852.00    0.48873   0.54855   -1.000
 3853.00    0.49850   0.55036   -1.000
 3854.00    0.48136   0.53797   -1.000
 3855.00    0.46530   0.52066   -1.000
 3856.00    0.46039   0.50664   47.714
 3857.00    0.44786   0.49003   49.043
 3858.00    0.43232   0.46789   75.527
 3859.00    0.41765   0.45799   -1.000
 3860.00    0.41637   0.46500   -1.000
 3861.00    0.43551   0.49902   -1.000
 3862.00    0.47948   0.53531   -1.000
 3863.00    0.52011   0.55690   -1.000
 3864.00    0.53533   0.55509   -1.000
 3865.00    0.52948   0.54359   -1.000
 3866.00    0.50694   0.53815   -1.000
 3867.00    0.49418   0.53773   -1.000
 3868.00    0.48864   0.53476   -1.000
 3869.00    0.47146   0.52541   -1.000
 3870.00    0.44410   0.50259   -1.000
 3871.00    0.43399   0.48774   -1.000
 3872.00    0.46020   0.48662   -1.000
 3873.00    0.48956   0.51157   -1.000
 3874.00    0.51314   0.54573   -1.000
 3875.00    0.54414   0.57467   -1.000
 3876.00    0.55361   0.56525   -1.000
 3877.00    0.52156   0.53240   -1.000
 3878.00    0.48504   0.51189   -1.000
 3879.00    0.47371   0.50725   -1.000
 3880.00    0.47303   0.51400   -1.000
 3881.00    0.46410   0.51917   -1.000
 3882.00    0.47311   0.52299   -1.000
 3883.00    0.51029   0.53652   -1.000
 3884.00    0.54028   0.54436  395.561
 3885.00    0.53829   0.52035   -1.000
 3886.00    0.51810   0.48486   -1.000
 3887.00    0.51525   0.45480   -1.000
 3888.00    0.52261   0.45249   -1.000
 3889.00    0.54557   0.47959   -1.000
 3890.00    0.59006   0.53067   -1.000
 3891.00    0.63110   0.58568   -1.000
 3892.00    0.65503   0.62953   -1.000
 3893.00    0.66900   0.64073   -1.000
 3894.00    0.65889   0.63034   -1.000
 3895.00    0.63848   0.62473   -1.000
 3896.00    0.63602   0.62710  313.024
 3897.00    0.64852   0.63384   -1.000
 3898.00    0.65661   0.63287   -1.000
 3899.00    0.65234   0.62422   -1.000
 3900.00    0.65263   0.62606   -1.000
 3901.00    0.65349   0.63374   -1.000
 3902.00    0.65045   0.63427   -1.000
 3903.00    0.64067   0.62504   -1.000
 3904.00    0.61801   0.60743   -1.000
 3905.00    0.60945   0.59906   -1.000
 3906.00    0.62965   0.60375   -1.000
 3907.00    0.64827   0.63272   -1.000
 3908.00    0.68032   0.67014   -1.000
 3909.00    0.70748   0.70136  284.779
 3910.00    0.72799   0.71513   -1.000
 3911.00    0.74648   0.72447   -1.000
 3912.00    0.75926   0.72824   -1.000
 3913.00    0.74891   0.72583   -1.000
 3914.00    0.73667   0.71645   -1.000
 3915.00    0.73190   0.70624   -1.000
 3916.00    0.70726   0.69368   -1.000
 3917.00    0.69253   0.67841   -1.000
 3918.00    0.67729   0.65641   -1.000
 3919.00    0.64588   0.62371   -1.000
 3920.00    0.61072   0.59564   -1.000
 3921.00    0.58918   0.57553   -1.000
 3922.00    0.58348   0.57677  355.084
 3923.00    0.60443   0.58846   -1.000
 3924.00    0.61419   0.59481   -1.000
 3925.00    0.60861   0.58925  101.916
 3926.00    0.57511   0.56054   55.725
 3927.00    0.51256   0.52313   65.288
 3928.00    0.46089   0.47899   76.755
 3929.00    0.40438   0.44304   -1.000
 3930.00    0.34298   0.41276   -1.000
 3931.00    0.30447   0.37984   -1.000
 3932.00    0.29931   0.34453   -1.000
 3933.00    0.29561   0.31198   81.628
 3934.00    0.28778   0.31205   67.221
 3935.00    0.31283   0.34339   55.844
 3936.00    0.34603   0.38711   -1.000
 3937.00    0.38532   0.42978   -1.000
 3938.00    0.45314   0.47983   -1.000
 3939.00    0.51121   0.51761  395.561
 3940.00    0.54997   0.54736  395.561
 3941.00    0.56111   0.56109  389.405
 3942.00    0.54467   0.55878   -1.000
 3943.00    0.53315   0.55247   -1.000
 3944.00    0.54450   0.56387   -1.000
 3945.00    0.57861   0.59153   -1.000
 3946.00    0.63395   0.62203   -1.000
 3947.00    0.67324   0.64348   -1.000
 3948.00    0.68124   0.65588   -1.000
 3949.00    0.69411   0.67291   -1.000
 3950.00    0.72740   0.69656   -1.000
 3951.00    0.73895   0.70154   -1.000
 3952.00    0.73709   0.69960   -1.000
 3953.00    0.74300   0.70658   -1.000
 3954.00    0.74968   0.71440   -1.000
 3955.00    0.73797   0.71269   -1.000
 3956.00    0.71314   0.69838   -1.000
 3957.00    0.70196   0.68434   -1.000
 3958.00    0.70465   0.68229   -1.000
 3959.00    0.70164   0.67041   -1.000
 3960.00    0.65314   0.62138   -1.000
 3961.00    0.58488   0.56820   92.946
 3962.00    0.52463   0.51943   52.647
 3963.00    0.47724   0.49574   63.187
 3964.00    0.45089   0.47969   77.742
 3965.00    0.41598   0.44610   90.919
 3966.00    0.36057   0.39956   -1.000
 3967.00    0.31487   0.34023   80.570
 3968.00    0.30569   0.29973   66.233
 3969.00    0.30538   0.29282   54.925
 3970.00    0.32602   0.32164   86.580
 3971.00    0.38374   0.36817   -1.000
 3972.00    0.43801   0.42865   -1.000
 3973.00    0.48460   0.48552  331.551
 3974.00    0.55266   0.54483  308.847
 3975.00    0.61873   0.59657   -1.000
 3976.00    0.65532   0.64241   -1.000
 3977.00    0.69871   0.68767   -1.000
 3978.00    0.76044   0.72687   -1.000
 3979.00    0.80320   0.76672   -1.000
 3980.00    0.82101   0.78390   -1.000
 3981.00    0.82614   0.78568   -1.000
 3982.00    0.80797   0.77495   -1.000
 3983.00    0.79079   0.76942   -1.000
 3984.00    0.81196   0.77963   -1.000
 3985.00    0.83310   0.79709   -1.000
 3986.00    0.83810   0.81538   -1.000
 3987.00    0.86647   0.83421   -1.000
 3988.00    0.88922   0.84901   -1.000
 3989.00    0.88216   0.85041   -1.000
 3990.00    0.88740   0.85044   -1.000
 3991.00    0.91145   0.85832   -1.000
 3992.00    0.92329   0.87411   -1.000
 3993.00    0.91557   0.88506   -1.000
 3994.00    0.89401   0.87960   -1.000
 3995.00    0.87377   0.86076   -1.000
 3996.00    0.86280   0.83678   -1.000
 3997.00    0.85553   0.83117   -1.000
 3998.00    0.87101   0.84553   -1.000
 3999.00    0.91846   0.87825   -1.000
 4000.00    0.96751   0.90675   -1.000
 4001.00    0.99181   0.92931   -1.000
 4002.00    0.99361   0.93580   -1.000
 4003.00    0.98457   0.91981   -1.000
 4004.00    0.93638   0.87033   -1.000
 4005.00    0.85907   0.82472   -1.000
 4006.00    0.84218   0.81537   -1.000
 4007.00    0.88728   0.84718   -1.000
 4008.00    0.94818   0.89814   -1.000
 4009.00    0.96837   0.92556   -1.000
 4010.00    0.97469   0.93805   -1.000
 4011.00    0.99977   0.94486   -1.000
 4012.00    0.99796   0.94825   -1.000
 4013.00    0.99532   0.95444   -1.000
 4014.00    0.99935   0.96424   -1.000
 4015.00    1.00244   0.96886   -1.000
 4016.00    1.00844   0.96506   -1.000
 4017.00    1.00721   0.96219   -1.000
 4018.00    1.01150   0.96963   -1.000
 4019.00    1.02812   0.98065   -1.000
 4020.00    1.03582   0.98856   -1.000
 4021.00    1.02988   0.98201   -1.000
 4022.00    1.01935   0.97070   -1.000
 4023.00    1.01319   0.95724   -1.000
 4024.00    1.00257   0.94506   -1.000
 4025.00    1.00402   0.94283   -1.000
 4026.00    1.02695   0.96457   -1.000
 4027.00    1.05816   0.99602   -1.000
 4028.00    1.06444   1.00548   -1.000
 4029.00    1.01739   0.96990   -1.000
 4030.00    0.95049   0.89563   -1.000
 4031.00    0.89135   0.83416   -1.000
 4032.00    0.85082   0.79751   -1.000
 4033.00    0.83804   0.79416   -1.000
 4034.00    0.85360   0.81988   -1.000
 4035.00    0.91060   0.87917   -1.000
 4036.00    0.98894   0.94636   -1.000
 4037.00    1.05598   1.01094   -1.000
 4038.00    1.08795   1.03694   -1.000
 4039.00    1.07949   1.02914   -1.000
 4040.00    1.04153   1.00445   -1.000
 4041.00    1.02601   0.99325   -1.000
 4042.00    1.02937   0.97536   -1.000
 4043.00    0.97492   0.91982   -1.000
 4044.00    0.86228   0.83093   -1.000
 4045.00    0.76602   0.74971   -1.000
 4046.00    0.76136   0.74651   -1.000
 4047.00    0.84943   0.82500   -1.000
 4048.00    0.95948   0.91079   -1.000
 4049.00    1.02955   0.98188   -1.000
 4050.00    1.05739   1.01282   -1.000
 4051.00    1.06276   1.01832   -1.000
 4052.00    1.03330   1.00336   -1.000
 4053.00    0.99340   0.97844   -1.000
 4054.00    0.96863   0.95256   -1.000
 4055.00    0.95204   0.93312   -1.000
 4056.00    0.93693   0.91555   -1.000
 4057.00    0.91999   0.89820   -1.000
 4058.00    0.91947   0.90364   -1.000
 4059.00    0.95719   0.93094   -1.000
 4060.00    1.00000   0.95098   -1.000
 4061.00    0.97614   0.93245   -1.000
 4062.00    0.88620   0.86386   -1.000
 4063.00    0.81440   0.81020  239.737
 4064.00    0.81468   0.79507   -1.000
 4065.00    0.87198   0.81445   -1.000
 4066.00    0.92662   0.85848   -1.000
 4067.00    0.95449   0.90172   -1.000
 4068.00    0.98731   0.93245   -1.000
 4069.00    1.01553   0.94319   -1.000
 4070.00    0.98836   0.91387   -1.000
 4071.00    0.92532   0.86473   -1.000
 4072.00    0.90963   0.85818   -1.000
 4073.00    0.94895   0.88804   -1.000
 4074.00    0.97786   0.92162   -1.000
 4075.00    0.96223   0.90714   -1.000
 4076.00    0.90347   0.85227   -1.000
 4077.00    0.85047   0.82269   -1.000
 4078.00    0.85436   0.83711   -1.000
 4079.00    0.91514   0.90436  219.503
 4080.00    0.99842   0.97464   -1.000
 4081.00    1.04951   1.02222   -1.000
 4082.00    1.04222   1.02071   -1.000
 4083.00    1.01043   0.99169   -1.000
 4084.00    0.98337   0.96730   -1.000
 4085.00    0.98901   0.97026   -1.000
 4086.00    1.02517   1.00859   -1.000
 4087.00    1.08268   1.05315   -1.000
 4088.00    1.12702   1.09116   -1.000
 4089.00    1.12823   1.09899   -1.000
 4090.00    1.11410   1.08183   -1.000
 4091.00    1.08757   1.05478   -1.000
 4092.00    1.06910   1.04237   -1.000
 4093.00    1.06448   1.03142   -1.000
 4094.00    1.05336   1.01013   -1.000
 4095.00    1.00523   0.97334   -1.000
 4096.00    0.96188   0.93034   -1.000
 4097.00    0.93774   0.90544   -1.000
 4098.00    0.92696   0.88896   -1.000
 4099.00    0.90968   0.85517   -1.000
 4100.00    0.85887   0.80186   -1.000
 4101.00    0.80427   0.76077   -1.000
 4102.00    0.78994   0.75749   -1.000
 4103.00    0.83311   0.80939   -1.000
 4104.00    0.90520   0.87733   -1.000
 4105.00    0.95455   0.94214  229.820
 4106.00    0.99157   0.98127  233.410
 4107.00    1.02183   0.99944   -1.000
 4108.00    1.01725   0.99680   -1.000
 4109.00    0.97541   0.98091  232.633
 4110.00    0.95145   0.96365  228.062
 4111.00    0.96011   0.96219  224.403
 4112.00    0.97854   0.97482  221.691
 4113.00    0.99407   0.99952  221.447
 4114.00    1.02041   1.02616  224.711
 4115.00    1.04756   1.04554  231.233
 4116.00    1.05793   1.04304   -1.000
 4117.00    1.04244   1.02059   -1.000
 4118.00    0.99349   0.99083  232.709
 4119.00    0.96611   0.97187  231.866
 4120.00    0.98223   0.97475  230.529
 4121.00    0.99183   0.98562  227.031
 4122.00    0.98619   0.99282  224.896
 4123.00    0.99233   1.00142  226.424
 4124.00    1.01086   1.01688  230.645
 4125.00    1.02635   1.03028  233.856
 4126.00    1.03340   1.02669  235.296
 4127.00    1.00609   1.00670  237.527
 4128.00    0.98062   0.98775  243.225
 4129.00    0.97728   0.97421  251.023
 4130.00    0.95377   0.95179  254.647
 4131.00    0.91429   0.92019  249.727
 4132.00    0.87885   0.88440  238.645
 4133.00    0.87610   0.88119  229.093
 4134.00    0.90636   0.91662  223.950
 4135.00    0.95840   0.96867  220.452
 4136.00    1.01085   1.01655  218.550
 4137.00    1.02927   1.04819   -1.000
 4138.00    1.03605   1.06169   -1.000
 4139.00    1.03744   1.06871   -1.000
 4140.00    1.02704   1.05390   -1.000
 4141.00    0.99066   1.00250  262.243
 4142.00    0.91124   0.91929  248.447
 4143.00    0.83233   0.86066   -1.000
 4144.00    0.82880   0.85675   -1.000
 4145.00    0.89065   0.90510   -1.000
 4146.00    0.96022   0.96936  239.607
 4147.00    0.98360   0.99801   -1.000
 4148.00    0.96537   0.99535   -1.000
 4149.00    0.94603   0.97861   -1.000
 4150.00    0.92908   0.96878   -1.000
 4151.00    0.92019   0.96709   -1.000
 4152.00    0.92186   0.96483   -1.000
 4153.00    0.93298   0.95730   -1.000
 4154.00    1.07378   0.94714   -1.000
 4155.00    1.14666   0.94290   -1.000
 4156.00    0.85556   0.95459   -1.000
 4157.00    0.73254   0.97745   -1.000
 4158.00    0.91413   1.00924   -1.000
 4159.00    1.02385   1.04170   -1.000
 4160.00    1.03144   1.06124   -1.000
 4161.00    1.03202   1.07748   -1.000
 4162.00    1.04239   1.09031   -1.000
 4163.00    1.04712   1.09535   -1.000
 4164.00    1.03366   1.08257   -1.000
 4165.00    1.01171   1.05683   -1.000
 4166.00    0.98189   1.02337   -1.000
 4167.00    0.95989   1.01017   -1.000
 4168.00    0.96270   1.01454   -1.000
 4169.00    0.98016   1.02801   -1.000
 4170.00    0.99086   1.02244   -1.000
 4171.00    0.94776   0.97945   -1.000
 4172.00    0.89216   0.93283   -1.000
 4173.00    0.87493   0.90641   -1.000
 4174.00    0.88934   0.91812   -1.000
 4175.00    0.90896   0.94612   -1.000
 4176.00    0.92089   0.96228   -1.000
 4177.00    0.91890   0.96909   -1.000
 4178.00    0.93131   0.98204   -1.000
 4179.00    0.94918   0.99593   -1.000
 4180.00    0.94241   1.00325   -1.000
 4181.00    0.93548   0.99741   -1.000
 4182.00    0.95298   0.99448   -1.000
 4183.00    0.98220   1.01777   -1.000
 4184.00    1.01258   1.04289   -1.000
 4185.00    1.03135   1.04909   -1.000
 4186.00    1.01199   1.02262  240.742
 4187.00    0.96394   0.99001   -1.000
 4188.00    0.95206   0.98804   -1.000
 4189.00    0.97753   1.00763   -1.000
 4190.00    0.98693   1.02797   -1.000
 4191.00    0.99618   1.04103   -1.000
 4192.00    1.02609   1.05626   -1.000
 4193.00    1.06416   1.06999  250.347
 4194.00    1.04472   1.06002   -1.000
 4195.00    0.97431   1.01089   -1.000
 4196.00    0.90851   0.96135   -1.000
 4197.00    0.89454   0.92386   -1.000
 4198.00    0.90467   0.91031  250.673
 4199.00    0.93178   0.90742   -1.000
 4200.00    0.94987   0.91369   -1.000
 4201.00    0.94044   0.92162   -1.000
 4202.00    0.93991   0.93506  240.067
 4203.00    0.97087   0.96369  234.448
 4204.00    0.99822   1.00711  229.400
 4205.00    1.02773   1.04995   -1.000
 4206.00    1.05446   1.08210   -1.000
 4207.00    1.07505   1.10740   -1.000
 4208.00    1.08614   1.11322   -1.000
 4209.00    1.06623   1.10375   -1.000
 4210.00    1.05063   1.09400   -1.000
 4211.00    1.06250   1.09555   -1.000
 4212.00    1.05906   1.10065   -1.000
 4213.00    1.03530   1.07789   -1.000
 4214.00    0.99601   1.02623   -1.000
 4215.00    0.96274   0.99249   -1.000
 4216.00    0.98542   1.00286   -1.000
 4217.00    1.06621   1.07156  210.163
 4218.00    1.13709   1.13537  210.692
 4219.00    1.19689   1.17877   -1.000
 4220.00    1.22356   1.18571   -1.000
 4221.00    1.20678   1.16516   -1.000
 4222.00    1.14329   1.10887   -1.000
 4223.00    1.05479   1.02540   -1.000
 4224.00    0.96020   0.90474   -1.000
 4225.00    0.83571   0.79729   -1.000
 4226.00    0.72591   0.72534  239.368
 4227.00    0.73512   0.74906   -1.000
 4228.00    0.85336   0.84877  218.186
 4229.00    1.01240   0.99052   -1.000
 4230.00    1.10918   1.07610   -1.000
 4231.00    1.13258   1.10851   -1.000
 4232.00    1.12318   1.09520   -1.000
 4233.00    1.10491   1.06508   -1.000
 4234.00    1.08168   1.03362   -1.000
 4235.00    1.05538   1.01923   -1.000
 4236.00    1.03619   1.01483   -1.000
 4237.00    1.02554   1.02527  226.833
 4238.00    1.05984   1.05014  223.326
 4239.00    1.09850   1.08118   -1.000
 4240.00    1.10976   1.10968  218.836
 4241.00    1.14989   1.14091  214.425
 4242.00    1.17794   1.16845  214.450
 4243.00    1.19487   1.20206  221.989
 4244.00    1.21612   1.23456   -1.000
 4245.00    1.22708   1.24081   -1.000
 4246.00    1.21374   1.20343  241.432
 4247.00    1.15968   1.14124   -1.000
 4248.00    1.09641   1.07218   -1.000
 4249.00    1.04681   1.03091   -1.000
 4250.00    1.02899   1.01788  228.910
 4251.00    1.04204   1.03776  233.752
 4252.00    1.06689   1.05696  233.778
 4253.00    1.06647   1.05209   -1.000
 4254.00    1.05576   1.03399   -1.000
 4255.00    1.06857   1.04459   -1.000
 4256.00    1.12182   1.09760   -1.000
 4257.00    1.15141   1.13098   -1.000
 4258.00    1.12518   1.10090   -1.000
 4259.00    1.05021   1.03697   -1.000
 4260.00    0.98861   0.99290  217.410
 4261.00    1.01899   1.02214  210.778
 4262.00    1.11190   1.10326  208.979
 4263.00    1.18464   1.19923   -1.000
 4264.00    1.24390   1.25374  217.264
 4265.00    1.29140   1.26708   -1.000
 4266.00    1.27753   1.25193   -1.000
 4267.00    1.21974   1.21433  245.612
 4268.00    1.15780   1.15041  261.308
 4269.00    1.08340   1.07534  268.168
 4270.00    0.99048   0.98321  264.556
 4271.00    0.90539   0.91545  257.974
 4272.00    0.87773   0.88419  247.864
 4273.00    0.90468   0.89848  233.056
 4274.00    0.92813   0.93803  220.868
 4275.00    0.97051   1.00002   -1.000
 4276.00    1.06372   1.07899   -1.000
 4277.00    1.15925   1.16427  233.375
 4278.00    1.20196   1.19731  236.197
 4279.00    1.19304   1.18180  233.882
 4280.00    1.14315   1.14229  231.339
 4281.00    1.11102   1.12668   -1.000
 4282.00    1.13044   1.13739  238.675
 4283.00    1.14476   1.14388  245.088
 4284.00    1.14401   1.13722  249.354
 4285.00    1.12292   1.11975  257.114
 4286.00    1.09535   1.10381  269.280
 4287.00    1.06982   1.08188  273.698
 4288.00    1.02839   1.03892  263.716
 4289.00    0.97651   0.98079  247.611
 4290.00    0.94647   0.95283  239.660
 4291.00    0.98164   0.98150  240.089
 4292.00    1.05566   1.04565  243.674
 4293.00    1.09895   1.08416   -1.000
 4294.00    1.09151   1.08717  259.461
 4295.00    1.07336   1.07087  279.406
 4296.00    1.05597   1.04728   -1.000
 4297.00    1.01583   0.99886   -1.000
 4298.00    0.94180   0.93179   -1.000
 4299.00    0.85981   0.86215  298.679
 4300.00    0.82476   0.83155  294.210
 4301.00    0.84284   0.83829  290.391
 4302.00    0.86723   0.86177  290.310
 4303.00    0.87817   0.87827  297.979
 4304.00    0.88502   0.88884  312.661
 4305.00    0.87732   0.88226  323.191
 4306.00    0.84633   0.84625  320.569
 4307.00    0.80084   0.79743  305.922
 4308.00    0.76080   0.76958  286.630
 4309.00    0.76440   0.78719   -1.000
 4310.00    0.82859   0.84071  259.363
 4311.00    0.90615   0.91488  245.573
 4312.00    0.97833   0.98467  225.836
 4313.00    1.04006   1.05612   -1.000
 4314.00    1.10315   1.14835   -1.000
 4315.00    1.21624   1.24821   -1.000
 4316.00    1.34908   1.35672  199.058
 4317.00    1.41094   1.42069  203.261
 4318.00    1.41786   1.42927  209.574
 4319.00    1.41973   1.40091   -1.000
 4320.00    1.37569   1.36615  233.912
 4321.00    1.32155   1.31361  254.112
 4322.00    1.26379   1.23905   -1.000
 4323.00    1.14364   1.12419   -1.000
 4324.00    1.01716   1.00706  232.407
 4325.00    0.92951   0.94987   -1.000
 4326.00    0.96839   0.99948   -1.000
 4327.00    1.13083   1.12653  206.442
 4328.00    1.26935   1.27439  205.895
 4329.00    1.35158   1.35028  202.861
 4330.00    1.36665   1.36843  200.363
 4331.00    1.36580   1.36381  199.541
 4332.00    1.36503   1.37688  202.003
 4333.00    1.38904   1.40302  212.586
 4334.00    1.41558   1.41757  231.662
 4335.00    1.41697   1.39751   -1.000
 4336.00    1.34450   1.32202   -1.000
 4337.00    1.22217   1.20240   -1.000
 4338.00    1.10850   1.06573   -1.000
 4339.00    1.03180   0.98970   -1.000
 4340.00    1.00027   0.97981   -1.000
 4341.00    1.04820   1.03864  219.648
 4342.00    1.14391   1.13395  213.532
 4343.00    1.23518   1.22634  209.387
 4344.00    1.28147   1.28056  206.888
 4345.00    1.32060   1.31990  203.788
 4346.00    1.34903   1.35248  203.370
 4347.00    1.36395   1.38668   -1.000
 4348.00    1.41556   1.41907  227.213
 4349.00    1.42595   1.41248   -1.000
 4350.00    1.33246   1.33915  227.121
 4351.00    1.21269   1.24231   -1.000
 4352.00    1.15458   1.18019   -1.000
 4353.00    1.18703   1.19958  204.590
 4354.00    1.26988   1.26221  203.672
 4355.00    1.32873   1.32661  207.163
 4356.00    1.35991   1.36149  210.271
 4357.00    1.37894   1.37277  207.725
 4358.00    1.36580   1.35997  201.783
 4359.00    1.35110   1.34858  198.595
 4360.00    1.35469   1.36734  197.530
 4361.00    1.40582   1.40501  195.642
 4362.00    1.43117   1.44163  194.973
 4363.00    1.46827   1.46409  199.599
 4364.00    1.48837   1.48194  206.796
 4365.00    1.49273   1.48719  210.341
 4366.00    1.45720   1.45567  209.177
 4367.00    1.37642   1.39493   -1.000
 4368.00    1.34565   1.35627  207.221
 4369.00    1.34775   1.34707  208.799
 4370.00    1.34625   1.35223  215.915
 4371.00    1.35210   1.34623  224.711
 4372.00    1.33978   1.31645   -1.000
 4373.00    1.28812   1.26637   -1.000
 4374.00    1.23374   1.21007   -1.000
 4375.00    1.20948   1.19373   -1.000
 4376.00    1.25295   1.23382   -1.000
 4377.00    1.34194   1.30693   -1.000
 4378.00    1.39938   1.35108   -1.000
 4379.00    1.39615   1.34915   -1.000
 4380.00    1.37120   1.29756   -1.000
 4381.00    1.28646   1.19566   -1.000
 4382.00    1.14165   1.05218   -1.000
 4383.00    0.97780   0.93873   -1.000
 4384.00    0.91752   0.90998  217.593
 4385.00    1.02236   0.98962   -1.000
 4386.00    1.17262   1.12028   -1.000
 4387.00    1.26281   1.20549   -1.000
 4388.00    1.27598   1.22924   -1.000
 4389.00    1.25483   1.22300   -1.000
 4390.00    1.24503   1.22323   -1.000
 4391.00    1.24760   1.24024  215.624
 4392.00    1.29775   1.26555   -1.000
 4393.00    1.31947   1.28107   -1.000
 4394.00    1.29668   1.28350  200.969
 4395.00    1.31356   1.30248  202.026
 4396.00    1.38809   1.35621   -1.000
 4397.00    1.45967   1.40585   -1.000
 4398.00    1.47230   1.40908   -1.000
 4399.00    1.40169   1.36220   -1.000
 4400.00    1.34197   1.32179   -1.000
 4401.00    1.33409   1.30180   -1.000
 4402.00    1.32985   1.28047   -1.000
 4403.00    1.26296   1.21922   -1.000
 4404.00    1.15280   1.13242   -1.000
 4405.00    1.10276   1.09109  219.535
 4406.00    1.14464   1.12420   -1.000
 4407.00    1.19993   1.18218   -1.000
 4408.00    1.24020   1.24292  196.065
 4409.00    1.31080   1.30895  192.924
 4410.00    1.40324   1.39520  196.711
 4411.00    1.47206   1.47004  207.021
 4412.00    1.48944   1.47683   -1.000
 4413.00    1.43908   1.41553   -1.000
 4414.00    1.34492   1.32877   -1.000
 4415.00    1.26825   1.25754  200.917
 4416.00    1.25918   1.26304  194.714
 4417.00    1.32337   1.33656  194.606
 4418.00    1.40102   1.43319   -1.000
 4419.00    1.45800   1.49128   -1.000
 4420.00    1.45682   1.49742   -1.000
 4421.00    1.39474   1.45391   -1.000
 4422.00    1.34650   1.39986   -1.000
 4423.00    1.32996   1.37421   -1.000
 4424.00    1.33825   1.38445   -1.000
 4425.00    1.35885   1.40079   -1.000
 4426.00    1.37272   1.40701   -1.000
 4427.00    1.37758   1.41576   -1.000
 4428.00    1.38351   1.42386   -1.000
 4429.00    1.37715   1.42198   -1.000
 4430.00    1.36884   1.41138   -1.000
 4431.00    1.37915   1.40703   -1.000
 4432.00    1.40002   1.41125  218.773
 4433.00    1.36597   1.38422   -1.000
 4434.00    1.29972   1.32685   -1.000
 4435.00    1.27534   1.29616   -1.000
 4436.00    1.32573   1.33220  188.447
 4437.00    1.41993   1.43404  193.360
 4438.00    1.52401   1.52039  202.225
 4439.00    1.56887   1.55151   -1.000
 4440.00    1.53230   1.51058   -1.000
 4441.00    1.43764   1.43780  206.599
 4442.00    1.36464   1.37862  197.850
 4443.00    1.37004   1.37885  193.266
 4444.00    1.43710   1.44374  192.756
 4445.00    1.51337   1.52176  193.122
 4446.00    1.57579   1.57211  194.972
 4447.00    1.58696   1.58008  196.972
 4448.00    1.57576   1.57329  196.055
 4449.00    1.55308   1.57093   -1.000
 4450.00    1.54554   1.56332   -1.000
 4451.00    1.54985   1.54684  212.351
 4452.00    1.53463   1.51552   -1.000
 4453.00    1.47726   1.45941   -1.000
 4454.00    1.40489   1.37510   -1.000
 4455.00    1.34977   1.32234   -1.000
 4456.00    1.34953   1.31343   -1.000
 4457.00    1.35452   1.33170   -1.000
 4458.00    1.37999   1.34274   -1.000
 4459.00    1.36224   1.33343   -1.000
 4460.00    1.33217   1.32104  204.814
 4461.00    1.32591   1.32450  199.412
 4462.00    1.36169   1.36005  198.449
 4463.00    1.41320   1.42144  198.571
 4464.00    1.47669   1.47633  200.501
 4465.00    1.50600   1.50161  204.167
 4466.00    1.51298   1.49847   -1.000
 4467.00    1.51081   1.48467   -1.000
 4468.00    1.47712   1.47209  197.665
 4469.00    1.45255   1.46319  190.865
 4470.00    1.47922   1.47449  185.454
 4471.00    1.52984   1.52190  183.353
 4472.00    1.58677   1.57567  183.443
 4473.00    1.62404   1.62209  182.153
 4474.00    1.63990   1.64577  180.979
 4475.00    1.67207   1.66013  182.206
 4476.00    1.70911   1.68372   -1.000
 4477.00    1.73667   1.70405   -1.000
 4478.00    1.71878   1.68611   -1.000
 4479.00    1.65010   1.61573   -1.000
 4480.00    1.55642   1.52118   -1.000
 4481.00    1.48952   1.46954   -1.000
 4482.00    1.50082   1.48710  181.955
 4483.00    1.57807   1.56738  181.637
 4484.00    1.66966   1.65221   -1.000
 4485.00    1.71585   1.71712  192.025
 4486.00    1.73478   1.72787  196.945
 4487.00    1.71375   1.68720   -1.000
 4488.00    1.62676   1.60822   -1.000
 4489.00    1.54053   1.55361  187.470
 4490.00    1.51926   1.54849   -1.000
 4491.00    1.56162   1.58430   -1.000
 4492.00    1.61480   1.61584  199.450
 4493.00    1.60505   1.59474  198.176
 4494.00    1.52242   1.54681   -1.000
 4495.00    1.47722   1.51379   -1.000
 4496.00    1.50055   1.53396   -1.000
 4497.00    1.55518   1.59284   -1.000
 4498.00    1.62909   1.64838   -1.000
 4499.00    1.67685   1.67631  182.729
 4500.00    1.66611   1.67175  176.565
 4501.00    1.64146   1.66798   -1.000
 4502.00    1.68886   1.69063  173.648
 4503.00    1.78671   1.74137   -1.000
 4504.00    1.84131   1.79765   -1.000
 4505.00    1.84531   1.83025  179.311
 4506.00    1.82644   1.82007  178.118
 4507.00    1.79065   1.79007  176.840
 4508.00    1.76315   1.77267  177.982
 4509.00    1.78120   1.77389  181.284
 4510.00    1.81886   1.78400   -1.000
 4511.00    1.80273   1.78226   -1.000
 4512.00    1.75060   1.75352  185.356
 4513.00    1.70046   1.71170  185.098
 4514.00    1.67235   1.68092  187.064
 4515.00    1.67959   1.67247  188.341
 4516.00    1.68910   1.67929  185.667
 4517.00    1.69516   1.68178  182.013
 4518.00    1.68676   1.67973  182.030
 4519.00    1.71535   1.69377   -1.000
 4520.00    1.77259   1.72638   -1.000
 4521.00    1.78631   1.75234   -1.000
 4522.00    1.75443   1.74731  194.732
 4523.00    1.70294   1.71119  200.397
 4524.00    1.67843   1.66585  206.162
 4525.00    1.62217   1.62030  209.051
 4526.00    1.54786   1.56044  207.987
 4527.00    1.48554   1.49109  204.539
 4528.00    1.43474   1.43748  200.796
 4529.00    1.43121   1.41988  199.483
 4530.00    1.46470   1.44403   -1.000
 4531.00    1.50750   1.48788   -1.000
 4532.00    1.53863   1.52351   -1.000
 4533.00    1.54338   1.52886   -1.000
 4534.00    1.48714   1.50873   -1.000
 4535.00    1.47677   1.50011   -1.000
 4536.00    1.56280   1.54061   -1.000
 4537.00    1.67805   1.62666   -1.000
 4538.00    1.75042   1.70504   -1.000
 4539.00    1.73863   1.72875  185.403
 4540.00    1.69048   1.70246  184.624
 4541.00    1.68296   1.67054   -1.000
 4542.00    1.66643   1.66872   94.243
 4543.00    0.54013   1.68273   -1.000
 4544.00    0.00233   1.68920   -1.000
 4545.00    0.04571   1.67505   -1.000
 4546.00    1.13731   1.65738   -1.000
 4547.00    0.57801   1.65113   -1.000
 4548.00    1.09083   1.64275   -1.000
 4549.00    1.61688   1.62851  193.362
 4550.00    1.62613   1.62567  196.191
 4551.00    1.63560   1.64666  198.163
 4552.00    1.65715   1.66286  195.683
 4553.00    1.65169   1.64961  188.922
 4554.00    1.64088   1.62247   -1.000
 4555.00    1.65074   1.61571   -1.000
 4556.00    1.69547   1.65256   -1.000
 4557.00    1.78473   1.72389   -1.000
 4558.00    1.83798   1.79426   -1.000
 4559.00    1.84162   1.82878  182.096
 4560.00    1.84677   1.84183  186.660
 4561.00    1.84579   1.83749  190.014
 4562.00    1.83687   1.81915   -1.000
 4563.00    1.78184   1.77512  183.892
 4564.00    1.71480   1.72327  179.019
 4565.00    1.69099   1.69307  176.922
 4566.00    1.72811   1.71152   -1.000
 4567.00    1.81171   1.76493   -1.000
 4568.00    1.85906   1.82246   -1.000
 4569.00    1.86037   1.83741   -1.000
 4570.00    1.79977   1.81128  181.625
 4571.00    1.71655   1.76648   -1.000
 4572.00    1.73357   1.74236  178.584
 4573.00    1.80526   1.76701   -1.000
 4574.00    1.84274   1.81144   -1.000
 4575.00    1.85049   1.83831  183.287
 4576.00    1.83002   1.83671  188.595
 4577.00    1.79283   1.82170   -1.000
 4578.00    1.78394   1.78887  192.563
 4579.00    1.74175   1.73537  190.005
 4580.00    1.66511   1.67859  188.468
 4581.00    1.66927   1.65641  188.860
 4582.00    1.70863   1.66902   -1.000
 4583.00    1.75067   1.69488   -1.000
 4584.00    1.73774   1.70693   -1.000
 4585.00    1.69138   1.69766  178.974
 4586.00    1.70486   1.69559  178.397
 4587.00    1.75816   1.72649   -1.000
 4588.00    1.83434   1.78063   -1.000
 4589.00    1.86530   1.82407   -1.000
 4590.00    1.82985   1.83156  187.832
 4591.00    1.78587   1.80341  186.360
 4592.00    1.73177   1.75845   -1.000
 4593.00    1.70676   1.72614   -1.000
 4594.00    1.70403   1.71063  183.908
 4595.00    1.71083   1.70552  183.496
 4596.00    1.71298   1.70580  184.948
 4597.00    1.71176   1.71666  186.625
 4598.00    1.74652   1.73284   -1.000
 4599.00    1.75902   1.74418   -1.000
 4600.00    1.75229   1.74457  183.354
 4601.00    1.73275   1.73979  183.470
 4602.00    1.74667   1.74126  183.226
 4603.00    1.76585   1.74601   -1.000
 4604.00    1.78824   1.74474   -1.000
 4605.00    1.76084   1.74400   -1.000
 4606.00    1.76880   1.76182  171.886
 4607.00    1.85892   1.80749   -1.000
 4608.00    1.95008   1.86896   -1.000
 4609.00    1.98067   1.92793   -1.000
 4610.00    1.96437   1.94204   -1.000
 4611.00    1.92106   1.91930  177.189
 4612.00    1.89313   1.88366  175.643
 4613.00    1.87210   1.86010  174.873
 4614.00    1.88875   1.86219   -1.000
 4615.00    1.92868   1.88426   -1.000
 4616.00    1.94717   1.90616   -1.000
 4617.00    1.94118   1.91682   -1.000
 4618.00    1.92583   1.91852  172.829
 4619.00    1.90363   1.91412  172.591
 4620.00    1.92134   1.91239  173.011
 4621.00    1.94679   1.92132   -1.000
 4622.00    1.95110   1.93244   -1.000
 4623.00    1.93851   1.93290  175.390
 4624.00    1.93123   1.92300  175.324
 4625.00    1.92086   1.91238  176.383
 4626.00    1.91338   1.90022  176.815
 4627.00    1.91549   1.89226   -1.000
 4628.00    1.91803   1.89328   -1.000
 4629.00    1.90580   1.89921  174.626
 4630.00    1.91459   1.90660  177.101
 4631.00    1.95035   1.91745   -1.000
 4632.00    1.94589   1.92023   -1.000
 4633.00    1.89488   1.90223  180.415
 4634.00    1.86010   1.87208  182.775
 4635.00    1.86166   1.85232  183.624
 4636.00    1.85997   1.83828   -1.000
 4637.00    1.82019   1.81589  180.439
 4638.00    1.78197   1.78650  176.061
 4639.00    1.77455   1.76474  173.538
 4640.00    1.78040   1.76387   -1.000
 4641.00    1.83192   1.79051   -1.000
 4642.00    1.87909   1.82479   -1.000
 4643.00    1.86993   1.84115   -1.000
 4644.00    1.85068   1.81607   -1.000
 4645.00    1.77943   1.76489   -1.000
 4646.00    1.69671   1.69988  180.788
 4647.00    1.65948   1.65403  178.223
 4648.00    1.69970   1.65766   -1.000
 4649.00    1.76730   1.70579   -1.000
 4650.00    1.80670   1.77459   -1.000
 4651.00    1.85943   1.83244   -1.000
 4652.00    1.89425   1.86406   -1.000
 4653.00    1.88979   1.86572   -1.000
 4654.00    1.85598   1.84015   -1.000
 4655.00    1.78832   1.80654  171.789
 4656.00    1.80484   1.79966  167.812
 4657.00    1.86282   1.83231   -1.000
 4658.00    1.95078   1.90499   -1.000
 4659.00    2.03493   1.98030   -1.000
 4660.00    2.03997   2.02225   -1.000
 4661.00    1.98089   2.00747   -1.000
 4662.00    1.92672   1.95742   -1.000
 4663.00    1.87066   1.89776   -1.000
 4664.00    1.82720   1.84583  195.962
 4665.00    1.79759   1.79237  196.450
 4666.00    1.71952   1.72298  190.588
 4667.00    1.62086   1.65113   -1.000
 4668.00    1.59018   1.62090   -1.000
 4669.00    1.67332   1.65527   -1.000
 4670.00    1.79257   1.73921   -1.000
 4671.00    1.86791   1.81685   -1.000
 4672.00    1.90380   1.86070   -1.000
 4673.00    1.87252   1.86248  171.492
 4674.00    1.86695   1.85924  172.259
 4675.00    1.88754   1.87177   -1.000
 4676.00    1.91143   1.89596   -1.000
 4677.00    1.92707   1.90628   -1.000
 4678.00    1.88903   1.88237  184.239
 4679.00    1.83099   1.83953  182.037
 4680.00    1.79567   1.79772  177.467
 4681.00    1.77503   1.77509  175.080
 4682.00    1.80314   1.77871   -1.000
 4683.00    1.85424   1.80711   -1.000
 4684.00    1.89361   1.84205   -1.000
 4685.00    1.90332   1.85977   -1.000
 4686.00    1.89527   1.86084   -1.000
 4687.00    1.87988   1.84929   -1.000
 4688.00    1.87608   1.84007   -1.000
 4689.00    1.88339   1.83825   -1.000
 4690.00    1.88541   1.83993   -1.000
 4691.00    1.87016   1.83739   -1.000
 4692.00    1.87323   1.83768   -1.000
 4693.00    1.89892   1.85204   -1.000
 4694.00    1.94703   1.87974   -1.000
 4695.00    2.00495   1.90788   -1.000
 4696.00    2.00662   1.92334   -1.000
 4697.00    1.94155   1.90580   -1.000
 4698.00    1.86968   1.85865  180.509
 4699.00    1.82598   1.80580   -1.000
 4700.00    1.82420   1.77740   -1.000
 4701.00    1.84405   1.76350   -1.000
 4702.00    1.81465   1.75438   -1.000
 4703.00    1.80533   1.75486   -1.000
 4704.00    1.84279   1.77751   -1.000
 4705.00    1.88034   1.80928   -1.000
 4706.00    1.89170   1.82237   -1.000
 4707.00    1.84999   1.80670   -1.000
 4708.00    1.79844   1.78118   -1.000
 4709.00    1.79731   1.77850   -1.000
 4710.00    1.86180   1.80524   -1.000
 4711.00    1.91745   1.84504   -1.000
 4712.00    1.93241   1.87027   -1.000
 4713.00    1.90242   1.86556   -1.000
 4714.00    1.85730   1.84360   -1.000
 4715.00    1.84800   1.84101  170.336
 4716.00    1.91873   1.87604   -1.000
 4717.00    1.98828   1.93287   -1.000
 4718.00    2.03313   1.98642   -1.000
 4719.00    2.04110   2.02032   -1.000
 4720.00    2.05395   2.04075  170.808
 4721.00    2.03829   2.04218  168.943
 4722.00    1.99514   2.02651   -1.000
 4723.00    1.99987   2.01560  173.361
 4724.00    2.01216   2.02593  180.005
 4725.00    2.05491   2.03093   -1.000
 4726.00    2.00329   2.00051  183.324
 4727.00    1.88676   1.92703   -1.000
 4728.00    1.80677   1.83556   -1.000
 4729.00    1.78737   1.78237  177.822
 4730.00    1.81370   1.77760   -1.000
 4731.00    1.84219   1.81274   -1.000
 4732.00    1.89826   1.85998   -1.000
 4733.00    1.93331   1.90207   -1.000
 4734.00    1.95894   1.92579   -1.000
 4735.00    1.96304   1.92909   -1.000
 4736.00    1.93883   1.92500   -1.000
 4737.00    1.94580   1.92574   -1.000
 4738.00    1.99302   1.94230   -1.000
 4739.00    2.02274   1.96935   -1.000
 4740.00    2.01000   1.98351   -1.000
 4741.00    1.98358   1.97752  172.504
 4742.00    2.00116   1.97482   -1.000
 4743.00    2.03043   1.98206   -1.000
 4744.00    2.05027   1.98968   -1.000
 4745.00    2.04498   2.00376   -1.000
 4746.00    2.03831   2.02340   -1.000
 4747.00    2.05212   2.04811  169.637
 4748.00    2.06115   2.06547  170.901
 4749.00    2.05700   2.07489  172.863
 4750.00    2.05684   2.08055   -1.000
 4751.00    2.04666   2.07572   -1.000
 4752.00    2.00152   2.05347   -1.000
 4753.00    1.97027   2.02068   -1.000
 4754.00    1.96943   1.98666  177.183
 4755.00    1.98262   1.96776   -1.000
 4756.00    1.98424   1.96871   -1.000
 4757.00    1.95017   1.98057   -1.000
 4758.00    1.96131   1.99928   -1.000
 4759.00    1.97547   2.01876   -1.000
 4760.00    1.96518   2.02936   -1.000
 4761.00    1.96183   2.01370   -1.000
 4762.00    1.90102   1.97210   -1.000
 4763.00    1.87357   1.91887   -1.000
 4764.00    1.85356   1.87886   -1.000
 4765.00    1.81469   1.85429   -1.000
 4766.00    1.81059   1.83482   -1.000
 4767.00    1.84918   1.83857  174.900
 4768.00    1.90079   1.88806   -1.000
 4769.00    1.95399   1.96202  177.995
 4770.00    1.99077   2.01422   -1.000
 4771.00    1.99255   2.01963   -1.000
 4772.00    1.94975   1.99851   -1.000
 4773.00    2.01340   2.00120  171.070
 4774.00    2.07186   2.03771   -1.000
 4775.00    2.06640   2.08449  172.734
 4776.00    2.07424   2.11091   -1.000
 4777.00    2.05610   2.11749   -1.000
 4778.00    2.05781   2.11840   -1.000
 4779.00    2.03940   2.10953   -1.000
 4780.00    2.03145   2.08922   -1.000
 4781.00    2.03773   2.06388   -1.000
 4782.00    1.99974   2.03395   -1.000
 4783.00    1.95317   1.99665   -1.000
 4784.00    1.95531   1.97224  181.814
 4785.00    1.92844   1.97079   -1.000
 4786.00    1.94946   1.97523   -1.000
 4787.00    1.95270   1.97191  179.529
 4788.00    1.96177   1.97155  177.618
 4789.00    1.97769   1.97587  174.650
 4790.00    1.95872   1.98309   -1.000
 4791.00    1.97404   1.99969   -1.000
 4792.00    2.01568   2.03935   -1.000
 4793.00    2.08878   2.10140  169.098
 4794.00    2.14766   2.16899   -1.000
 4795.00    2.18678   2.21920   -1.000
 4796.00    2.17562   2.23003   -1.000
 4797.00    2.12204   2.19486   -1.000
 4798.00    2.05451   2.13390   -1.000
 4799.00    2.00809   2.07857   -1.000
 4800.00    2.01482   2.05537   -1.000
 4801.00    2.06800   2.07768  172.812
 4802.00    2.13696   2.13072  175.018
 4803.00    2.14978   2.18249   -1.000
 4804.00    2.11361   2.18570   -1.000
 4805.00    2.05706   2.14707   -1.000
 4806.00    2.01704   2.09895   -1.000
 4807.00    2.00588   2.06647   -1.000
 4808.00    1.98332   2.05131   -1.000
 4809.00    2.00023   2.06058   -1.000
 4810.00    2.03832   2.08812   -1.000
 4811.00    2.08476   2.11698   -1.000
 4812.00    2.08599   2.13050   -1.000
 4813.00    2.07042   2.13128   -1.000
 4814.00    2.04436   2.13365   -1.000
 4815.00    2.09031   2.14620   -1.000
 4816.00    2.13169   2.16856   -1.000
 4817.00    2.17769   2.19456  167.435
 4818.00    2.20252   2.22102  169.015
 4819.00    2.20711   2.24189   -1.000
 4820.00    2.19031   2.24981   -1.000
 4821.00    2.17408   2.23147   -1.000
 4822.00    2.10781   2.18314   -1.000
 4823.00    2.03983   2.11501   -1.000
 4824.00    2.02205   2.06213   -1.000
 4825.00    2.05533   2.06032  173.436
 4826.00    2.11527   2.10711  174.446
 4827.00    2.11799   2.14648   -1.000
 4828.00    2.08018   2.14447   -1.000
 4829.00    2.07779   2.12445   -1.000
 4830.00    2.07227   2.10932   -1.000
 4831.00    2.03428   2.09192   -1.000
 4832.00    2.01928   2.06648   -1.000
 4833.00    2.02790   2.06219   -1.000
 4834.00    2.10572   2.08863   -1.000
 4835.00    2.11613   2.13350  174.130
 4836.00    2.10219   2.16183   -1.000
 4837.00    2.12050   2.16515   -1.000
 4838.00    2.11022   2.14838   -1.000
 4839.00    2.04441   2.11399   -1.000
 4840.00    2.01478   2.08091   -1.000
 4841.00    2.03392   2.06668   -1.000
 4842.00    2.03978   2.06812   -1.000
 4843.00    2.02953   2.07102   -1.000
 4844.00    2.06903   2.08287  172.954
 4845.00    2.13134   2.12125  175.425
 4846.00    2.17027   2.16597  175.212
 4847.00    2.13814   2.17936   -1.000
 4848.00    2.08816   2.15199   -1.000
 4849.00    2.06156   2.11979   -1.000
 4850.00    2.08018   2.12275   -1.000
 4851.00    2.12310   2.14554  180.529
 4852.00    2.11883   2.16103   -1.000
 4853.00    2.08955   2.14425   -1.000
 4854.00    2.02243   2.09143   -1.000
 4855.00    1.93643   2.01972   -1.000
 4856.00    1.92867   1.97149   -1.000
 4857.00    1.96710   1.97143  230.086
 4858.00    1.95532   1.97744   -1.000
 4859.00    1.85418   1.92527   -1.000
 4860.00    1.68802   1.77896   -1.000
 4861.00    1.57219   1.62953   -1.000
 4862.00    1.61067   1.57845   -1.000
 4863.00    1.73058   1.65901   -1.000
 4864.00    1.85748   1.79500   -1.000
 4865.00    1.90356   1.90752  179.561
 4866.00    1.95718   1.98436   -1.000
 4867.00    1.97986   2.03476   -1.000
 4868.00    2.00585   2.05870   -1.000
 4869.00    1.98224   2.05309   -1.000
 4870.00    1.92037   2.00504   -1.000
 4871.00    1.81453   1.91854   -1.000
 4872.00    1.80488   1.84510   -1.000
 4873.00    1.85921   1.85944  178.138
 4874.00    1.92512   1.94695  177.477
 4875.00    1.96508   2.02642   -1.000
 4876.00    1.96937   2.06997   -1.000
 4877.00    2.00912   2.09670   -1.000
 4878.00    2.06249   2.13219   -1.000
 4879.00    2.09849   2.17081   -1.000
 4880.00    2.08898   2.19583   -1.000
 4881.00    2.05365   2.18352   -1.000
 4882.00    2.01055   2.14414   -1.000
 4883.00    2.04426   2.11918   -1.000
 4884.00    2.04330   2.11041   -1.000
 4885.00    1.97571   2.07808   -1.000
 4886.00    1.93119   2.02648   -1.000
 4887.00    1.95691   2.00056   -1.000
 4888.00    1.96896   2.00593   -1.000
 4889.00    1.93913   2.00018   -1.000
 4890.00    1.89001   1.95700   -1.000
 4891.00    1.87449   1.89711   -1.000
 4892.00    1.93667   1.90470   -1.000
 4893.00    2.10211   2.00909   -1.000
 4894.00    2.22729   2.17268   16.278
 4895.00    2.27922   2.30974   16.648
 4896.00    2.31470   2.37322   17.033
 4897.00    2.32507   2.38483   17.198
 4898.00    2.29672   2.36735   17.109
 4899.00    2.23747   2.32867   17.148
 4900.00    2.19661   2.28141   17.346
 4901.00    2.18695   2.25194   17.130
 4902.00    2.17576   2.23523   16.768
 4903.00    2.14592   2.21611   16.663
 4904.00    2.16054   2.20546   16.844
 4905.00    2.23039   2.23389   17.267
 4906.00    2.28343   2.29753   17.756
 4907.00    2.28952   2.33152   17.942
 4908.00    2.20001   2.29537   17.683
 4909.00    2.12907   2.21708   17.363
 4910.00    2.09267   2.13756   17.129
 4911.00    2.09387   2.10315   16.910
 4912.00    2.16655   2.12788   16.778
 4913.00    2.18317   2.18983   16.899
 4914.00    2.23365   2.25057   17.533
 4915.00    2.29269   2.29852   18.506
 4916.00    2.28169   2.31699   19.342
 4917.00    2.20528   2.27543   19.481
 4918.00    2.06517   2.13965   18.812
 4919.00    1.91059   1.96215   18.153
 4920.00    1.82321   1.82123   17.914
 4921.00    1.88194   1.79502   17.891
 4922.00    2.01174   1.88130   17.637
 4923.00    2.08567   2.00173   17.176
 4924.00    2.11897   2.07989   16.885
 4925.00    2.11990   2.11397   16.734
 4926.00    2.17889   2.16099   16.622
 4927.00    2.25983   2.23406   16.541
 4928.00    2.30393   2.30427   16.735
 4929.00    2.34782   2.36430   17.215
 4930.00    2.36854   2.40421   17.806
 4931.00    2.35583   2.40589   17.802
 4932.00    2.29032   2.35892   17.492
 4933.00    2.19436   2.28131   17.531
 4934.00    2.15335   2.21233   18.067
 4935.00    2.18367   2.19865   18.514
 4936.00    2.20646   2.21288   18.293
 4937.00    2.13177   2.18375   17.655
 4938.00    2.04031   2.09840   17.108
 4939.00    2.02756   2.02848   16.812
 4940.00    2.12570   2.05604   16.677
 4941.00    2.24578   2.16179   16.704
 4942.00    2.31022   2.27873   16.820
 4943.00    2.34611   2.35116   16.838
 4944.00    2.35912   2.37726   16.675
 4945.00    2.35696   2.37396   16.488
 4946.00    2.35952   2.35767   16.441
 4947.00    2.36478   2.35566   16.384
 4948.00    2.39218   2.38187   16.478
 4949.00    2.41270   2.41831   16.599
 4950.00    2.41184   2.43966   16.796
 4951.00    2.41774   2.44864   17.027
 4952.00    2.39983   2.44195   17.529
 4953.00    2.34501   2.42006   18.437
 4954.00    2.29065   2.38621   19.072
 4955.00    2.24038   2.31715   18.585
 4956.00    2.11383   2.19219   17.535
 4957.00    1.96835   2.02196   16.987
 4958.00    1.94390   1.91667   16.889
 4959.00    2.06129   1.97992   16.980
 4960.00    2.22104   2.13705   17.124
 4961.00    2.28374   2.27911   17.344
 4962.00    2.28608   2.33501   17.706
 4963.00    2.27130   2.33084   17.910
 4964.00    2.24415   2.29750   17.902
 4965.00    2.17895   2.23721   17.840
 4966.00    2.12346   2.17308   17.699
 4967.00    2.10488   2.14175   17.508
 4968.00    2.13344   2.14199   17.317
 4969.00    2.15375   2.16043   17.114
 4970.00    2.18731   2.19547   16.963
 4971.00    2.22399   2.23874   16.915
 4972.00    2.26058   2.29033   17.045
 4973.00    2.30601   2.33607   17.233
 4974.00    2.33198   2.35907   17.474
 4975.00    2.34079   2.36225   17.754
 4976.00    2.28865   2.34683   17.974
 4977.00    2.24018   2.30890   18.265
 4978.00    2.18817   2.25804   18.879
 4979.00    2.16151   2.21176   19.428
 4980.00    2.13628   2.17475   19.371
 4981.00    2.06632   2.12287   18.975
 4982.00    1.98326   2.03508   18.428
 4983.00    1.93995   1.94280   17.855
 4984.00    1.96120   1.91346   17.465
 4985.00    2.02017   1.96087   17.520
 4986.00    2.12087   2.05875   17.778
 4987.00    2.21301   2.16263   17.939
 4988.00    2.24629   2.24246   17.923
 4989.00    2.24130   2.26394   17.767
 4990.00    2.22114   2.23886   17.702
 4991.00    2.21693   2.21545   17.686
 4992.00    2.21013   2.21629   17.593
 4993.00    2.21386   2.23393   17.528
 4994.00    2.23195   2.24623   17.655
 4995.00    2.25833   2.25135   17.910
 4996.00    2.27413   2.26847   18.261
 4997.00    2.25515   2.28651   18.460
 4998.00    2.22691   2.26515   18.445
 4999.00    2.16339   2.20591   18.270
 5000.00    2.10688   2.12572   18.197
 5001.00    2.08160   2.07192   18.494
 5002.00    2.09835   2.06257   18.929
 5003.00    2.10429   2.07530   18.954
 5004.00    2.08689   2.07309   18.459
 5005.00    2.04352   2.03021   17.937
 5006.00    2.01217   1.97465   17.808
 5007.00    2.03301   1.96231   18.091
 5008.00    2.12201   2.03122   18.662
 5009.00    2.18723   2.12901   19.336
 5010.00    2.19800   2.18270   19.710
 5011.00    2.12896   2.16542   19.556
 5012.00    2.04722   2.09003   19.115
 5013.00    1.97289   1.99835   18.757
 5014.00    1.95475   1.93464   18.697
 5015.00    1.98188   1.93658   18.675
 5016.00    2.03184   1.97934   18.464
 5017.00    2.05587   2.02060   18.345
 5018.00    2.05301   2.04106   18.427
 5019.00    2.07624   2.05730   18.447
 5020.00    2.10145   2.08635   18.325
 5021.00    2.10845   2.09897   18.138
 5022.00    2.09843   2.08650   18.046
 5023.00    2.11119   2.08437   18.139
 5024.00    2.14808   2.12043   18.191
 5025.00    2.17749   2.17497   17.993
 5026.00    2.18002   2.20301   17.659
 5027.00    2.16276   2.18150   17.404
 5028.00    2.15029   2.15344   17.131
 5029.00    2.20161   2.16338   16.968
 5030.00    2.25628   2.21709   17.073
 5031.00    2.29877   2.28684   17.656
 5032.00    2.35372   2.35017   18.308
 5033.00    2.36338   2.39609   18.565
 5034.00    2.32393   2.39141   18.647
 5035.00    2.24704   2.32385   18.954
 5036.00    2.17085   2.22845   19.722
 5037.00    2.13877   2.17187   20.413
 5038.00    2.12156   2.15011   20.248
 5039.00    2.04989   2.10191   19.197
 5040.00    1.93390   1.99875   18.060
 5041.00    1.89633   1.89643   17.388
 5042.00    1.99466   1.89869   16.986
 5043.00    2.14847   2.02089   16.495
 5044.00    1.33623   2.20027   -1.000
 5045.00    0.06923   2.35157   -1.000
 5046.00    0.08196   2.42733   -1.000
 5047.00    0.66275   2.42361   -1.000
 5048.00    1.92156   2.34906   -1.000
 5049.00    2.16943   2.23990   17.826
 5050.00    2.12171   2.15421   17.393
 5051.00    2.15098   2.13054   17.103
 5052.00    2.20288   2.14974   16.962
 5053.00    2.26568   2.20210   16.924
 5054.00    2.32367   2.27754   16.958
 5055.00    2.38308   2.34249   16.983
 5056.00    2.41278   2.37514   16.958
 5057.00    2.40218   2.39288   16.858
 5058.00    2.44216   2.40675   16.906
 5059.00    2.45323   2.42987   17.184
 5060.00    2.46881   2.46162   17.713
 5061.00    2.48723   2.49232   18.282
 5062.00    2.46186   2.50197   18.408
 5063.00    2.38950   2.45310   18.161
 5064.00    2.27591   2.35128   17.919
 5065.00    2.19782   2.24288   17.865
 5066.00    2.20528   2.19319   17.773
 5067.00    2.23175   2.19770   17.697
 5068.00    2.24023   2.21910   17.850
 5069.00    2.27224   2.24100   17.930
 5070.00    2.30612   2.27046   17.710
 5071.00    2.29750   2.28872   17.594
 5072.00    2.27805   2.27665   17.576
 5073.00    2.29819   2.25591   17.593
 5074.00    2.32519   2.26435   17.845
 5075.00    2.34831   2.28663   18.524
 5076.00    2.34810   2.29940   19.305
 5077.00    2.32204   2.29656   19.394
 5078.00    2.25927   2.25952   18.963
 5079.00    2.14389   2.17110   18.584
 5080.00    2.05702   2.06679   18.321
 5081.00    2.07146   2.03166   17.976
 5082.00    2.12723   2.06626   17.700
 5083.00    2.18224   2.11904   17.598
 5084.00    2.23915   2.16885   17.566
 5085.00    2.28172   2.22034   17.468
 5086.00    2.32841   2.27266   17.345
 5087.00    2.33917   2.31286   17.252
 5088.00    2.33479   2.33358   17.142
 5089.00    2.36681   2.34732   16.948
 5090.00    2.38046   2.35933   16.852
 5091.00    2.42007   2.37716   17.053
 5092.00    2.45933   2.41144   17.420
 5093.00    2.48689   2.45313   17.806
 5094.00    2.48682   2.47472   18.230
 5095.00    2.42367   2.44453   18.551
 5096.00    2.34837   2.36803   18.501
 5097.00    2.28218   2.27702   18.012
 5098.00    2.18896   2.19727   17.554
 5099.00    2.15289   2.14338   17.461
 5100.00    2.21095   2.15653   17.597
 5101.00    2.30583   2.22888   17.833
 5102.00    2.36853   2.31407   18.057
 5103.00    2.36291   2.34967   18.279
 5104.00    2.33202   2.33418   18.460
 5105.00    2.30293   2.30318   18.405
 5106.00    2.25561   2.27049   18.281
 5107.00    2.22347   2.23634   18.123
 5108.00    2.22702   2.20321   17.865
 5109.00    2.22013   2.18067   17.647
 5110.00    2.23999   2.18575   17.443
 5111.00    2.27894   2.21846   17.300
 5112.00    2.31980   2.27329   17.192
 5113.00    2.37007   2.32247   17.014
 5114.00    2.41017   2.35696   16.911
 5115.00    2.43554   2.39142   17.002
 5116.00    2.46674   2.42924   17.239
 5117.00    2.50306   2.46459   17.505
 5118.00    2.51426   2.48743   17.827
 5119.00    2.50079   2.48152   18.310
 5120.00    2.43899   2.44382   18.782
 5121.00    2.37827   2.38573   18.835
 5122.00    2.30568   2.31510   18.671
 5123.00    2.21532   2.23489   18.579
 5124.00    2.17744   2.16761   18.495
 5125.00    2.18562   2.13755   18.519
 5126.00    2.21695   2.14985   18.453
 5127.00    2.23638   2.17291   18.188
 5128.00    2.23728   2.18169   17.908
 5129.00    2.23884   2.18475   17.764
 5130.00    2.25678   2.20027   17.596
 5131.00    2.31940   2.24153   17.464
 5132.00    2.37754   2.29368   17.497
 5133.00    2.41554   2.33203   17.851
 5134.00    2.43687   2.35754   18.261
 5135.00    2.44744   2.37995   18.490
 5136.00    2.42951   2.39149   18.463
 5137.00    2.36650   2.35610   18.354
 5138.00    2.27695   2.27340   18.538
 5139.00    2.23847   2.21658   18.759
 5140.00    2.26411   2.21270   18.588
 5141.00    2.27926   2.23342   18.320
 5142.00    2.26627   2.23776   18.317
 5143.00    2.24682   2.22573   18.471
 5144.00    2.25007   2.23479   18.451
 5145.00    2.27666   2.25776   18.240
 5146.00    2.25519   2.23988   18.214
 5147.00    2.23462   2.20304   18.478
 5148.00    2.22771   2.19561   18.773
 5149.00    2.25820   2.22179   18.839
 5150.00    2.26766   2.24474   18.675
 5151.00    2.24450   2.23123   18.280
 5152.00    2.22706   2.19973   17.810
 5153.00    2.23957   2.17979   17.384
 5154.00    2.26016   2.17996   17.108
 5155.00    2.32932   2.21782   17.017
 5156.00    2.41178   2.29403   17.033
 5157.00    2.48454   2.38226   17.101
 5158.00    2.52581   2.44242   17.223
 5159.00    2.51687   2.46832   17.439
 5160.00    2.49660   2.47090   17.801
 5161.00    2.44945   2.45627   18.672
 5162.00    2.41243   2.41824   20.346
 5163.00    2.36740   2.35163   22.334
 5164.00    2.26638   2.26307   23.343
 5165.00    2.09409   2.14557   22.578
 5166.00    1.86404   1.95971   21.475
 5167.00    1.67744   1.73179   21.602
 5168.00    1.64559   1.61647   23.093
 5169.00    1.76003   1.66058   24.062
 5170.00    1.86561   1.77435   22.549
 5171.00    1.79477   1.78824   20.189
 5172.00    1.62630   1.65883   18.764
 5173.00    1.61531   1.57504   18.211
 5174.00    1.81949   1.65182   -1.000
 5175.00    2.08120   1.88085   -1.000
 5176.00    2.24254   2.09907   18.379
 5177.00    2.30053   2.20942   19.202
 5178.00    2.31823   2.25017   20.819
 5179.00    2.28548   2.25371   23.112
 5180.00    2.21180   2.21514   24.160
 5181.00    2.05756   2.10497   22.496
 5182.00    1.82599   1.88799   20.066
 5183.00    1.62675   1.66354   18.631
 5184.00    1.62592   1.55183   18.191
 5185.00    1.85403   1.66661   -1.000
 5186.00    2.14763   1.92618   -1.000
 5187.00    2.33105   2.15693   -1.000
 5188.00    2.39815   2.28817   18.947
 5189.00    2.42540   2.34067   19.300
 5190.00    2.41909   2.34437   19.076
 5191.00    2.32678   2.28425   18.752
 5192.00    2.21505   2.17518   18.477
 5193.00    2.19888   2.09998   18.181
 5194.00    2.26936   2.12631   17.825
 5195.00    2.32096   2.17902   17.564
 5196.00    2.36708   2.22734   17.459
 5197.00    2.43309   2.28672   17.488
 5198.00    2.45946   2.35770   17.681
 5199.00    2.50144   2.42065   18.032
 5200.00    2.52433   2.45620   18.489
 5201.00    2.51540   2.45845   19.077
 5202.00    2.46979   2.42417   19.531
 5203.00    2.40358   2.35852   19.586
 5204.00    2.29957   2.24925   19.696
 5205.00    2.17943   2.11466   19.709
 5206.00    2.12722   2.00879   19.307
 5207.00    2.12011   1.96089   -1.000
 5208.00    2.10848   1.95495   17.870
 5209.00    2.14780   1.97130   -1.000
 5210.00    2.25992   2.03878   -1.000
 5211.00    2.39169   2.17476   -1.000
 5212.00    2.50978   2.33035   -1.000
 5213.00    2.59165   2.45196   17.809
 5214.00    2.58792   2.48644   17.579
 5215.00    2.52574   2.44194   17.219
 5216.00    2.48658   2.37302   16.998
 5217.00    2.49796   2.35441   16.890
 5218.00    2.56550   2.41154   16.901
 5219.00    2.63008   2.49807   17.214
 5220.00    2.66110   2.57096   17.805
 5221.00    2.67693   2.60443   18.578
 5222.00    2.64940   2.59568   19.360
 5223.00    2.55269   2.53350   19.616
 5224.00    2.44992   2.42160   18.962
 5225.00    2.32162   2.27130   17.954
 5226.00    2.21068   2.12804   17.348
 5227.00    2.22679   2.06098   17.136
 5228.00    2.36358   2.12680   -1.000
 5229.00    2.54031   2.29319   -1.000
 5230.00    2.63985   2.46476   -1.000
 5231.00    2.64903   2.52816   17.633
 5232.00    2.59178   2.48740   17.206
 5233.00    2.51226   2.40172   16.855
 5234.00    2.48665   2.35349   16.725
 5235.00    2.57104   2.39854   -1.000
 5236.00    2.66191   2.49363   -1.000
 5237.00    2.73338   2.59755   16.716
 5238.00    2.74807   2.65912   16.649
 5239.00    2.72930   2.67046   16.664
 5240.00    2.71159   2.65717   16.629
 5241.00    2.71811   2.63976   16.705
 5242.00    2.72855   2.62943   17.113
 5243.00    2.73329   2.63691   17.622
 5244.00    2.75847   2.66125   17.919
 5245.00    2.74000   2.66459   17.943
 5246.00    2.65042   2.60704   18.001
 5247.00    2.54777   2.50705   18.062
 5248.00    2.52209   2.43299   17.917
 5249.00    2.53309   2.41165   17.681
 5250.00    2.52284   2.40858   17.562
 5251.00    2.52135   2.41064   17.536
 5252.00    2.55590   2.44141   17.317
 5253.00    2.59546   2.47840   16.879
 5254.00    2.59417   2.48938   16.511
 5255.00    2.58669   2.48380   16.469
 5256.00    2.65096   2.51464   16.725
 5257.00    2.76472   2.61775   17.273
 5258.00    2.82494   2.71893   18.047
 5259.00    2.81309   2.75875   18.844
 5260.00    2.74831   2.72042   19.406
 5261.00    2.62913   2.61462   19.690
 5262.00    2.48449   2.46399   19.606
 5263.00    2.33456   2.30454   19.242
 5264.00    2.24500   2.16600   19.126
 5265.00    2.20403   2.08097   19.689
 5266.00    2.21214   2.06059   -1.000
 5267.00    2.28196   2.09402   -1.000
 5268.00    2.27631   2.11119   -1.000
 5269.00    2.16595   2.03655   17.799
 5270.00    2.13677   1.95180   -1.000
 5271.00    2.28106   1.98385   -1.000
 5272.00    2.48525   2.17026   -1.000
 5273.00    2.57197   2.36779   -1.000
 5274.00    2.58255   2.42611   16.616
 5275.00    2.58402   2.43167   16.447
 5276.00    2.65689   2.46589   -1.000
 5277.00    2.77713   2.56336   -1.000
 5278.00    2.85992   2.68380   -1.000
 5279.00    2.86826   2.73667   17.731
 5280.00    2.79758   2.70592   17.665
 5281.00    2.70849   2.61764   17.227
 5282.00    2.62097   2.52044   16.686
 5283.00    2.56045   2.44598   16.286
 5284.00    2.64655   2.45203   -1.000
 5285.00    2.78948   2.55299   -1.000
 5286.00    2.91000   2.71216   -1.000
 5287.00    2.97498   2.82122   16.199
 5288.00    2.97353   2.84809   16.209
 5289.00    2.96935   2.84213   16.330
 5290.00    2.98629   2.84585   16.507
 5291.00    2.99911   2.86379   16.803
 5292.00    2.99067   2.86280   17.332
 5293.00    2.95073   2.83695   17.946
 5294.00    2.88433   2.80994   18.224
 5295.00    2.80709   2.76577   17.966
 5296.00    2.69989   2.66036   17.533
 5297.00    2.57663   2.51342   17.283
 5298.00    2.54163   2.40631   17.150
 5299.00    2.62408   2.41277   -1.000
 5300.00    2.73096   2.50146   -1.000
 5301.00    2.77693   2.57645   -1.000
 5302.00    2.80463   2.62487   -1.000
 5303.00    2.89701   2.68731   -1.000
 5304.00    2.99287   2.78515   -1.000
 5305.00    3.03065   2.88104   16.335
 5306.00    3.02947   2.90646   16.183
 5307.00    3.01865   2.87834   16.123
 5308.00    3.03122   2.85644   -1.000
 5309.00    3.04931   2.87101   -1.000
 5310.00    3.06517   2.91002   16.343
 5311.00    3.06760   2.92564   16.479
 5312.00    3.04202   2.90799   16.639
 5313.00    3.03140   2.88012   16.738
 5314.00    3.00584   2.85094   16.692
 5315.00    2.98224   2.82438   16.579
 5316.00    2.94006   2.79615   16.556
 5317.00    2.91012   2.77290   16.643
 5318.00    2.92067   2.77620   16.790
 5319.00    2.93486   2.78952   17.025
 5320.00    2.93906   2.79460   17.281
 5321.00    2.94561   2.78941   17.376
 5322.00    2.90311   2.76369   17.525
 5323.00    2.83278   2.70427   18.250
 5324.00    2.76235   2.62536   19.267
 5325.00    2.73745   2.55800   -1.000
 5326.00    2.68512   2.48854   -1.000
 5327.00    2.52160   2.34747   -1.000
 5328.00    2.37413   2.19906   -1.000
 5329.00    2.40152   2.14377   -1.000
 5330.00    2.60022   2.28455   -1.000
 5331.00    2.78851   2.50886   -1.000
 5332.00    2.86591   2.65663   -1.000
 5333.00    2.89963   2.71825   -1.000
 5334.00    2.95437   2.75826   -1.000
 5335.00    3.00896   2.81673   -1.000
 5336.00    3.02056   2.86429   17.495
 5337.00    2.98655   2.86263   17.634
 5338.00    2.92994   2.81853   17.345
 5339.00    2.85256   2.72814   16.917
 5340.00    2.75839   2.61458   16.730
 5341.00    2.72756   2.53836   -1.000
 5342.00    2.80997   2.58162   -1.000
 5343.00    2.90946   2.68182   -1.000
 5344.00    2.94242   2.75029   -1.000
 5345.00    2.93229   2.75889   -1.000
 5346.00    2.91759   2.73348   -1.000
 5347.00    2.90850   2.70459   -1.000
 5348.00    2.88930   2.67573   -1.000
 5349.00    2.87193   2.64813   -1.000
 5350.00    2.91997   2.66366   -1.000
 5351.00    2.99408   2.73867   -1.000
 5352.00    3.05004   2.82767   -1.000
 5353.00    3.07779   2.90064   -1.000
 5354.00    3.11151   2.94213   15.887
 5355.00    3.16071   2.98494   15.924
 5356.00    3.19512   3.02949   16.031
 5357.00    3.21625   3.04879   16.257
 5358.00    3.20118   3.04731   16.521
 5359.00    3.17602   3.03527   16.715
 5360.00    3.13047   3.00580   16.819
 5361.00    3.07302   2.95496   16.917
 5362.00    3.03012   2.90258   16.962
 5363.00    3.01362   2.86124   16.920
 5364.00    3.00076   2.82813   -1.000
 5365.00    2.96804   2.79613   -1.000
 5366.00    2.94033   2.76780   -1.000
 5367.00    2.94495   2.75970   -1.000
 5368.00    2.92682   2.75310   -1.000
 5369.00    2.82761   2.68837   17.103
 5370.00    2.71614   2.56378   16.448
 5371.00    2.66306   2.45220   -1.000
 5372.00    2.75739   2.44586   -1.000
 5373.00    2.94241   2.58249   -1.000
 5374.00    3.08829   2.75968   -1.000
 5375.00    3.15156   2.89501   -1.000
 5376.00    3.14285   2.93423   -1.000
 5377.00    3.11580   2.92065   -1.000
 5378.00    3.11772   2.91503   -1.000
 5379.00    3.11946   2.92874   -1.000
 5380.00    3.09713   2.93581   16.658
 5381.00    3.05668   2.91000   16.537
 5382.00    3.02055   2.86519   16.410
 5383.00    3.02310   2.83317   -1.000
 5384.00    3.04994   2.83095   -1.000
 5385.00    3.07571   2.85841   -1.000
 5386.00    3.09430   2.89634   -1.000
 5387.00    3.08272   2.91409   -1.000
 5388.00    3.03644   2.88712   17.162
 5389.00    2.97091   2.82958   17.184
 5390.00    2.91405   2.76235   17.269
 5391.00    2.89779   2.71412   -1.000
 5392.00    2.90469   2.69527   -1.000
 5393.00    2.91121   2.69622   -1.000
 5394.00    2.89566   2.69888   -1.000
 5395.00    2.83827   2.67753   -1.000
 5396.00    2.76440   2.61979   16.843
 5397.00    2.73944   2.54898   -1.000
 5398.00    2.80611   2.54061   -1.000
 5399.00    2.90813   2.62026   -1.000
 5400.00    2.96413   2.72425   -1.000
 5401.00    2.97371   2.78981   -1.000
 5402.00    2.96827   2.80501   -1.000
 5403.00    2.90006   2.76152   17.967
 5404.00    2.75475   2.64869   17.668
 5405.00    2.64673   2.49526   17.653
 5406.00    2.64760   2.40533   -1.000
 5407.00    2.72867   2.45673   -1.000
 5408.00    2.80520   2.54878   -1.000
 5409.00    2.81052   2.59951   -1.000
 5410.00    2.81837   2.59258   -1.000
 5411.00    2.90106   2.61643   -1.000
 5412.00    3.01415   2.72047   -1.000
 5413.00    3.07965   2.81876   -1.000
 5414.00    3.07960   2.86340   -1.000
 5415.00    3.07345   2.87681   -1.000
 5416.00    3.09759   2.90595   -1.000
 5417.00    3.13437   2.96080   -1.000
 5418.00    3.14942   2.98784   16.643
 5419.00    3.12346   2.96349   16.701
 5420.00    3.08536   2.92181   -1.000
 5421.00    3.07033   2.89239   -1.000
 5422.00    3.08505   2.88882   -1.000
 5423.00    3.07957   2.88016   -1.000
 5424.00    3.04783   2.84369   -1.000
 5425.00    3.06686   2.84618   -1.000
 5426.00    3.14211   2.91319   -1.000
 5427.00    3.16606   2.97949   -1.000
 5428.00    3.06627   2.95784   17.283
 5429.00    2.91706   2.81731   17.402
 5430.00    2.85964   2.69148   -1.000
 5431.00    2.90976   2.67310   -1.000
 5432.00    2.95057   2.72117   -1.000
 5433.00    2.92107   2.73944   -1.000
 5434.00    2.87045   2.68289   -1.000
 5435.00    2.87307   2.63267   -1.000
 5436.00    2.93055   2.65588   -1.000
 5437.00    3.00946   2.75117   -1.000
 5438.00    3.10292   2.88312   -1.000
 5439.00    3.20818   2.99431   -1.000
 5440.00    3.28625   3.06935   -1.000
 5441.00    3.29122   3.10018   -1.000
 5442.00    3.25852   3.11280   17.689
 5443.00    3.21827   3.10790   17.953
 5444.00    3.12436   3.05459   17.584
 5445.00    2.98427   2.93068   17.027
 5446.00    2.82834   2.75617   16.694
 5447.00    2.77640   2.63489   16.623
 5448.00    2.85613   2.63968   -1.000
 5449.00    2.97354   2.75098   -1.000
 5450.00    3.06383   2.88261   -1.000
 5451.00    3.08184   2.93310   17.857
 5452.00    3.04948   2.92192   17.950
 5453.00    2.98147   2.87059   17.490
 5454.00    2.89303   2.77694   16.923
 5455.00    2.83067   2.65809   -1.000
 5456.00    2.85508   2.60390   -1.000
 5457.00    2.96770   2.66678   -1.000
 5458.00    3.09389   2.82911   -1.000
 5459.00    3.12971   2.94486   -1.000
 5460.00    3.08396   2.95897   17.350
 5461.00    3.03916   2.90178   17.123
 5462.00    2.99992   2.82014   -1.000
 5463.00    2.96323   2.76664   -1.000
 5464.00    2.98064   2.76907   -1.000
 5465.00    3.04287   2.81977   -1.000
 5466.00    3.08799   2.87232   -1.000
 5467.00    3.10857   2.90885   -1.000
 5468.00    3.11575   2.92768   -1.000
 5469.00    3.10532   2.92585   -1.000
 5470.00    3.07212   2.90220   -1.000
 5471.00    3.03583   2.87081   -1.000
 5472.00    3.02745   2.84655   -1.000
 5473.00    3.00153   2.83122   -1.000
 5474.00    2.95949   2.80322   -1.000
 5475.00    2.91253   2.74114   -1.000
 5476.00    2.83546   2.66319   -1.000
 5477.00    2.82859   2.60645   -1.000
 5478.00    2.91133   2.65577   -1.000
 5479.00    2.99907   2.76872   -1.000
 5480.00    2.99692   2.82046   -1.000
 5481.00    2.92374   2.78995   16.762
 5482.00    2.89052   2.73326   16.770
 5483.00    2.94746   2.75744   -1.000
 5484.00    3.04313   2.86285   -1.000
 5485.00    3.10590   2.95230   17.214
 5486.00    3.11945   2.97561   17.154
 5487.00    3.07103   2.92060   17.024
 5488.00    3.02789   2.85885   -1.000
 5489.00    3.04467   2.83576   -1.000
 5490.00    3.08276   2.86983   -1.000
 5491.00    3.11168   2.91662   -1.000
 5492.00    3.12051   2.93764   -1.000
 5493.00    3.12685   2.93412   -1.000
 5494.00    3.13860   2.92174   -1.000
 5495.00    3.13993   2.92023   -1.000
 5496.00    3.11571   2.91531   -1.000
 5497.00    3.08521   2.89329   -1.000
 5498.00    3.09793   2.88979   -1.000
 5499.00    3.14140   2.92572   -1.000
 5500.00    3.14675   2.94858   -1.000
 5501.00    3.07328   2.92154   17.273
 5502.00    3.03541   2.86033   -1.000
 5503.00    3.04552   2.82537   -1.000
 5504.00    3.04527   2.83975   -1.000
 5505.00    3.03439   2.83885   -1.000
 5506.00    3.01702   2.80368   -1.000
 5507.00    3.04217   2.78223   -1.000
 5508.00    3.10048   2.81515   -1.000
 5509.00    3.11822   2.88915   -1.000
 5510.00    3.09409   2.92144   -1.000
 5511.00    3.05026   2.87496   -1.000
 5512.00    2.98583   2.79412   -1.000
 5513.00    2.94287   2.72495   -1.000
 5514.00    2.96588   2.71394   -1.000
 5515.00    3.02011   2.74438   -1.000
 5516.00    3.07360   2.79758   -1.000
 5517.00    3.15050   2.86143   -1.000
 5518.00    3.22673   2.93828   -1.000
 5519.00    3.25369   3.01085   -1.000
 5520.00    3.25960   3.05337   -1.000
 5521.00    3.25320   3.04894   -1.000
 5522.00    3.23809   3.03617   -1.000
 5523.00    3.23327   3.03473   -1.000
 5524.00    3.20809   3.03620   -1.000
 5525.00    3.17067   3.01902   -1.000
 5526.00    3.11642   2.95503   -1.000
 5527.00    3.03521   2.86100   -1.000
 5528.00    2.98253   2.76528   -1.000
 5529.00    3.01690   2.75381   -1.000
 5530.00    3.10131   2.83544   -1.000
 5531.00    3.16385   2.93725   -1.000
 5532.00    3.17272   2.99037   -1.000
 5533.00    3.15512   2.98228   -1.000
 5534.00    3.14588   2.95813   -1.000
 5535.00    3.16147   2.93980   -1.000
 5536.00    3.16344   2.93242   -1.000
 5537.00    3.16579   2.93926   -1.000
 5538.00    3.20262   2.96068   -1.000
 5539.00    3.25792   2.99049   -1.000
 5540.00    3.30132   3.03571   -1.000
 5541.00    3.33012   3.07190   -1.000
 5542.00    3.29912   3.07353   -1.000
 5543.00    3.24439   3.03976   -1.000
 5544.00    3.23626   3.00687   -1.000
 5545.00    3.25950   2.99624   -1.000
 5546.00    3.27130   3.00198   -1.000
 5547.00    3.28146   3.01835   -1.000
 5548.00    3.33062   3.05815   -1.000
 5549.00    3.38716   3.11191   -1.000
 5550.00    3.39078   3.14563   -1.000
 5551.00    3.37585   3.14962   -1.000
 5552.00    3.35366   3.12798   -1.000
 5553.00    3.31530   3.08657   -1.000
 5554.00    3.28641   3.04452   -1.000
 5555.00    3.27698   3.02590   -1.000
 5556.00    3.27604   3.03009   -1.000
 5557.00    3.28152   3.04064   -1.000
 5558.00    3.29099   3.03986   -1.000
 5559.00    3.30298   3.03982   -1.000
 5560.00    3.30771   3.04589   -1.000
 5561.00    3.29039   3.03948   -1.000
 5562.00    3.25389   3.00822   -1.000
 5563.00    3.22035   2.97880   -1.000
 5564.00    3.21008   2.96535   -1.000
 5565.00    3.20364   2.96237   -1.000
 5566.00    3.18943   2.95029   -1.000
 5567.00    3.17262   2.93386   -1.000
 5568.00    3.16498   2.92757   -1.000
 5569.00    3.19555   2.93244   -1.000
 5570.00    3.20132   2.94563   -1.000
 5571.00    3.08988   2.96106   16.934
 5572.00    2.89953   2.96154   16.738
 5573.00    3.03676   2.94716   16.469
 5574.00    3.93463   2.94190   -1.000
 5575.00    4.73670   2.98196   -1.000
 5576.00    4.54633   3.03027   -1.000
 5577.00    3.91144   3.04223   -1.000
 5578.00    3.47214   3.04948   -1.000
 5579.00    3.33770   3.07338   -1.000
 5580.00    3.32825   3.08735   -1.000
 5581.00    3.32046   3.08646   -1.000
 5582.00    3.31011   3.06781   -1.000
 5583.00    3.29417   3.04108   -1.000
 5584.00    3.26142   3.02403   -1.000
 5585.00    3.19799   2.97546   -1.000
 5586.00    3.09759   2.87837   -1.000
 5587.00    3.00633   2.76398   -1.000
 5588.00    2.95899   2.67923   -1.000
 5589.00    2.96835   2.67938   -1.000
 5590.00    3.03358   2.73288   -1.000
 5591.00    3.11559   2.81376   -1.000
 5592.00    3.15228   2.86824   -1.000
 5593.00    3.13477   2.88910   -1.000
 5594.00    3.14199   2.90292   -1.000
 5595.00    3.21006   2.94421   -1.000
 5596.00    3.27841   3.01137   -1.000
 5597.00    3.27107   3.04009   -1.000
 5598.00    3.18477   2.99599   -1.000
 5599.00    3.10782   2.91703   -1.000
 5600.00    3.08653   2.85268   -1.000
 5601.00    3.08265   2.81807   -1.000
 5602.00    3.07440   2.80122   -1.000
 5603.00    3.09749   2.81737   -1.000
 5604.00    3.18962   2.90278   -1.000
 5605.00    3.30957   3.03005   -1.000
 5606.00    3.38945   3.12757   -1.000
 5607.00    3.41970   3.17876   -1.000
 5608.00    3.43110   3.18756   -1.000
 5609.00    3.43019   3.17921   -1.000
 5610.00    3.42717   3.17367   -1.000
 5611.00    3.43842   3.19096   -1.000
 5612.00    3.42716   3.21007   -1.000
 5613.00    3.35909   3.18015   -1.000
 5614.00    3.23388   3.06633   -1.000
 5615.00    3.10711   2.89377   -1.000
 5616.00    3.07604   2.79468   -1.000
 5617.00    3.14546   2.81275   -1.000
 5618.00    3.20503   2.91422   -1.000
 5619.00    3.22164   2.98249   -1.000
 5620.00    3.25116   3.00261   -1.000
 5621.00    3.29429   3.03366   -1.000
 5622.00    3.29888   3.06988   -1.000
 5623.00    3.22820   3.03906   -1.000
 5624.00    3.15012   2.95580   -1.000
 5625.00    3.12683   2.87204   -1.000
 5626.00    3.16257   2.87366   -1.000
 5627.00    3.23941   2.95267   -1.000
 5628.00    3.31125   3.02796   -1.000
 5629.00    3.36324   3.08521   -1.000
 5630.00    3.39662   3.13132   -1.000
 5631.00    3.40433   3.15418   -1.000
 5632.00    3.39111   3.15398   -1.000
 5633.00    3.36960   3.13596   -1.000
 5634.00    3.33575   3.10795   -1.000
 5635.00    3.29688   3.07044   -1.000
 5636.00    3.27072   3.02885   -1.000
 5637.00    3.25142   2.99777   -1.000
 5638.00    3.25120   2.99175   -1.000
 5639.00    3.24986   3.00460   -1.000
 5640.00    3.23282   3.01221   -1.000
 5641.00    3.22472   2.99762   -1.000
 5642.00    3.22955   2.97371   -1.000
 5643.00    3.25149   2.98132   -1.000
 5644.00    3.28208   3.01146   -1.000
 5645.00    3.30948   3.03694   -1.000
 5646.00    3.32761   3.05906   -1.000
 5647.00    3.35171   3.07541   -1.000
 5648.00    3.36514   3.07661   -1.000
 5649.00    3.34925   3.06477   -1.000
 5650.00    3.35976   3.05836   -1.000
 5651.00    3.39233   3.07914   -1.000
 5652.00    3.41059   3.12037   -1.000
 5653.00    3.40510   3.13440   -1.000
 5654.00    3.35033   3.10356   -1.000
 5655.00    3.29770   3.07084   -1.000
 5656.00    3.27323   3.04346   -1.000
 5657.00    3.21283   2.99442   -1.000
 5658.00    3.12740   2.91116   -1.000
 5659.00    3.10400   2.84063   -1.000
 5660.00    3.16320   2.86252   -1.000
 5661.00    3.21644   2.94092   -1.000
 5662.00    3.21652   2.96268   -1.000
 5663.00    3.22817   2.96076   -1.000
 5664.00    3.28558   3.00733   -1.000
 5665.00    3.34397   3.06787   -1.000
 5666.00    3.35072   3.09874   -1.000
 5667.00    3.30345   3.08215   -1.000
 5668.00    3.27409   3.04713   -1.000
 5669.00    3.28415   3.03892   -1.000
 5670.00    3.31004   3.05046   -1.000
 5671.00    3.35407   3.07450   -1.000
 5672.00    3.42248   3.11995   -1.000
 5673.00    3.49103   3.17888   -1.000
 5674.00    3.51299   3.21137   -1.000
 5675.00    3.49938   3.21782   -1.000
 5676.00    3.50187   3.21157   -1.000
 5677.00    3.51059   3.21648   -1.000
 5678.00    3.49593   3.22202   -1.000
 5679.00    3.46845   3.20322   -1.000
 5680.00    3.43734   3.16874   -1.000
 5681.00    3.39525   3.13413   -1.000
 5682.00    3.34160   3.08835   -1.000
 5683.00    3.31083   3.04307   -1.000
 5684.00    3.32506   3.04808   -1.000
 5685.00    3.36643   3.08744   -1.000
 5686.00    3.36623   3.09381   -1.000
 5687.00    3.32346   3.06451   -1.000
 5688.00    3.30966   3.03531   -1.000
 5689.00    3.34947   3.04435   -1.000
 5690.00    3.41999   3.09869   -1.000
 5691.00    3.48292   3.16088   -1.000
 5692.00    3.51319   3.21298   -1.000
 5693.00    3.51806   3.23889   -1.000
 5694.00    3.51123   3.23709   -1.000
 5695.00    3.48573   3.22147   -1.000
 5696.00    3.45698   3.20874   -1.000
 5697.00    3.42470   3.18767   -1.000
 5698.00    3.37057   3.14758   -1.000
 5699.00    3.31089   3.10229   -1.000
 5700.00    3.25852   3.06830   -1.000
 5701.00    3.23800   3.03538   -1.000
 5702.00    3.25456   3.01161   -1.000
 5703.00    3.29461   3.03801   -1.000
 5704.00    3.34178   3.08098   -1.000
 5705.00    3.32711   3.09592   -1.000
 5706.00    3.26299   3.06217   -1.000
 5707.00    3.20366   2.98894   -1.000
 5708.00    3.16266   2.93095   -1.000
 5709.00    3.13935   2.89405   -1.000
 5710.00    3.14614   2.87895   -1.000
 5711.00    3.18280   2.89563   -1.000
 5712.00    3.23993   2.94022   -1.000
 5713.00    3.33247   3.01821   -1.000
 5714.00    3.42840   3.11528   -1.000
 5715.00    3.47482   3.17319   -1.000
 5716.00    3.49950   3.20461   -1.000
 5717.00    3.51120   3.22497   -1.000
 5718.00    3.51565   3.23713   -1.000
 5719.00    3.53634   3.25032   -1.000
 5720.00    3.56701   3.27549   -1.000
 5721.00    3.60684   3.30823   -1.000
 5722.00    3.62545   3.33871   -1.000
 5723.00    3.62582   3.35942   -1.000
 5724.00    3.62843   3.36542   -1.000
 5725.00    3.60296   3.34067   -1.000
 5726.00    3.54440   3.28386   -1.000
 5727.00    3.50565   3.22842   -1.000
 5728.00    3.51280   3.21624   -1.000
 5729.00    3.54504   3.25350   -1.000
 5730.00    3.53458   3.27516   -1.000
 5731.00    3.49500   3.25757   -1.000
 5732.00    3.50121   3.23393   -1.000
 5733.00    3.55127   3.25183   -1.000
 5734.00    3.58890   3.31312   -1.000
 5735.00    3.59722   3.34900   -1.000
 5736.00    3.59756   3.34201   -1.000
 5737.00    3.57366   3.31509   -1.000
 5738.00    3.54041   3.29299   -1.000
 5739.00    3.53217   3.29622   -1.000
 5740.00    3.52988   3.30204   -1.000
 5741.00    3.53566   3.30188   -1.000
 5742.00    3.54368   3.29212   -1.000
 5743.00    3.54916   3.28718   -1.000
 5744.00    3.57663   3.31467   -1.000
 5745.00    3.61588   3.35452   -1.000
 5746.00    3.62951   3.37057   -1.000
 5747.00    3.59266   3.33682   -1.000
 5748.00    3.55164   3.28095   -1.000
 5749.00    3.56539   3.28053   -1.000
 5750.00    3.61282   3.31815   -1.000
 5751.00    3.60638   3.34005   -1.000
 5752.00    3.51210   3.29244   -1.000
 5753.00    3.43232   3.19534   -1.000
 5754.00    3.43219   3.14649   -1.000
 5755.00    3.50752   3.17830   -1.000
 5756.00    3.61224   3.28216   -1.000
 5757.00    3.66096   3.37254   -1.000
 5758.00    3.64487   3.40562   -1.000
 5759.00    3.59371   3.37914   -1.000
 5760.00    3.53416   3.30582   -1.000
 5761.00    3.45192   3.21886   -1.000
 5762.00    3.40584   3.15501   -1.000
 5763.00    3.45198   3.15136   -1.000
 5764.00    3.56004   3.22565   -1.000
 5765.00    3.63557   3.33975   -1.000
 5766.00    3.66454   3.40375   -1.000
 5767.00    3.65658   3.42403   -1.000
 5768.00    3.63901   3.42589   -1.000
 5769.00    3.60986   3.41660   -1.000
 5770.00    3.58099   3.39722   -1.000
 5771.00    3.56089   3.37910   -1.000
 5772.00    3.52708   3.35938   -1.000
 5773.00    3.47099   3.33935   16.610
 5774.00    3.41647   3.32534   16.644
 5775.00    3.34809   3.31901   16.830
 5776.00    3.29570   3.33397   17.178
 5777.00    3.30957   3.35830   17.460
 5778.00    3.36565   3.35625   17.501
 5779.00    3.40708   3.30964   17.434
 5780.00    3.36262   3.21174   -1.000
 5781.00    3.28607   3.10657   -1.000
 5782.00    3.27683   3.03555   -1.000
 5783.00    3.29724   3.03177   -1.000
 5784.00    3.29249   3.04745   -1.000
 5785.00    3.30101   3.04291   -1.000
 5786.00    3.37182   3.06813   -1.000
 5787.00    3.46676   3.14935   -1.000
 5788.00    3.54240   3.23094   -1.000
 5789.00    3.56293   3.28011   -1.000
 5790.00    3.52205   3.28115   -1.000
 5791.00    3.49246   3.26350   -1.000
 5792.00    3.50228   3.26747   -1.000
 5793.00    3.53840   3.31777   -1.000
 5794.00    3.60880   3.39257   -1.000
 5795.00    3.67965   3.43741   -1.000
 5796.00    3.67911   3.43093   -1.000
 5797.00    3.62953   3.37571   -1.000
 5798.00    3.63267   3.33627   -1.000
 5799.00    3.69331   3.35745   -1.000
 5800.00    3.75971   3.43428   -1.000
 5801.00    3.80014   3.51149   -1.000
 5802.00    3.78637   3.53280   -1.000
 5803.00    3.72295   3.50099   -1.000
 5804.00    3.65011   3.43376   -1.000
 5805.00    3.62170   3.38319   -1.000
 5806.00    3.63788   3.37027   -1.000
 5807.00    3.66151   3.38521   -1.000
 5808.00    3.68144   3.40737   -1.000
 5809.00    3.70213   3.42693   -1.000
 5810.00    3.71860   3.44572   -1.000
 5811.00    3.73362   3.46093   -1.000
 5812.00    3.73806   3.46118   -1.000
 5813.00    3.72013   3.44579   -1.000
 5814.00    3.69316   3.40939   -1.000
 5815.00    3.64919   3.35841   -1.000
 5816.00    3.62989   3.31531   -1.000
 5817.00    3.66022   3.32976   -1.000
 5818.00    3.71792   3.39595   -1.000
 5819.00    3.77537   3.46891   -1.000
 5820.00    3.80615   3.50519   -1.000
 5821.00    3.80982   3.50296   -1.000
 5822.00    3.79103   3.48257   -1.000
 5823.00    3.77487   3.45935   -1.000
 5824.00    3.76908   3.45779   -1.000
 5825.00    3.78978   3.46779   -1.000
 5826.00    3.81379   3.48060   -1.000
 5827.00    3.82061   3.48904   -1.000
 5828.00    3.80808   3.49491   -1.000
 5829.00    3.80300   3.50618   -1.000
 5830.00    3.81451   3.51637   -1.000
 5831.00    3.80115   3.51665   -1.000
 5832.00    3.80080   3.50885   -1.000
 5833.00    3.78424   3.49173   -1.000
 5834.00    3.77535   3.46836   -1.000
 5835.00    3.77092   3.44769   -1.000
 5836.00    3.77170   3.45116   -1.000
 5837.00    3.76601   3.46049   -1.000
 5838.00    3.73713   3.45519   -1.000
 5839.00    3.73285   3.45780   -1.000
 5840.00    3.76696   3.48384   -1.000
 5841.00    3.79792   3.52189   -1.000
 5842.00    3.81052   3.55272   -1.000
 5843.00    3.80456   3.55555   -1.000
 5844.00    3.76887   3.53455   -1.000
 5845.00    3.72193   3.49671   -1.000
 5846.00    3.69033   3.45265   -1.000
 5847.00    3.66649   3.41369   -1.000
 5848.00    3.65611   3.39377   -1.000
 5849.00    3.67398   3.39656   -1.000
 5850.00    3.68312   3.40642   -1.000
 5851.00    3.64895   3.39013   -1.000
 5852.00    3.59816   3.34453   -1.000
 5853.00    3.57086   3.30242   -1.000
 5854.00    3.56823   3.29035   -1.000
 5855.00    3.55605   3.29922   -1.000
 5856.00    3.51212   3.27232   -1.000
 5857.00    3.47223   3.20131   -1.000
 5858.00    3.48301   3.15104   -1.000
 5859.00    3.53298   3.16902   -1.000
 5860.00    3.59072   3.25314   -1.000
 5861.00    3.62493   3.31967   -1.000
 5862.00    3.62557   3.34247   -1.000
 5863.00    3.62416   3.34070   -1.000
 5864.00    3.63723   3.33993   -1.000
 5865.00    3.61390   3.34244   -1.000
 5866.00    3.59090   3.32430   -1.000
 5867.00    3.59090   3.29701   -1.000
 5868.00    3.64094   3.31744   -1.000
 5869.00    3.68969   3.37630   -1.000
 5870.00    3.71421   3.42271   -1.000
 5871.00    3.71296   3.43969   -1.000
 5872.00    3.67439   3.42686   -1.000
 5873.00    3.67331   3.40868   -1.000
 5874.00    3.69104   3.40090   -1.000
 5875.00    3.68362   3.40711   -1.000
 5876.00    3.65837   3.40714   -1.000
 5877.00    3.63218   3.38171   -1.000
 5878.00    3.60511   3.34227   -1.000
 5879.00    3.55698   3.29834   -1.000
 5880.00    3.52059   3.26683   -1.000
 5881.00    3.44682   3.25892   -1.000
 5882.00    3.29559   3.28015   17.053
 5883.00    3.01843   3.28885   -1.000
 5884.00    2.62331   3.26811   -1.000
 5885.00    2.36849   3.25943   -1.000
 5886.00    2.43196   3.24271   -1.000
 5887.00    2.64458   3.13750   -1.000
 5888.00    2.65512   2.88933   -1.000
 5889.00    2.36325   2.52122   18.796
 5890.00    2.04569   2.25052   -1.000
 5891.00    1.98128   2.22047   -1.000
 5892.00    2.22366   2.43514   -1.000
 5893.00    2.56494   2.65778   18.994
 5894.00    2.75165   2.70285   18.324
 5895.00    2.74316   2.58412   -1.000
 5896.00    2.73425   2.43525   -1.000
 5897.00    2.89476   2.50171   -1.000
 5898.00    3.14053   2.72989   -1.000
 5899.00    3.32817   2.93782   -1.000
 5900.00    3.45224   3.07832   -1.000
 5901.00    3.52893   3.17867   -1.000
 5902.00    3.55788   3.23988   -1.000
 5903.00    3.56535   3.27315   -1.000
 5904.00    3.54905   3.28507   -1.000
 5905.00    3.53450   3.28227   -1.000
 5906.00    3.53352   3.27539   -1.000
 5907.00    3.54725   3.28697   -1.000
 5908.00    3.58975   3.31572   -1.000
 5909.00    3.62057   3.33691   -1.000
 5910.00    3.62745   3.35551   -1.000
 5911.00    3.61477   3.36907   -1.000
 5912.00    3.58384   3.35943   -1.000
 5913.00    3.51107   3.31351   -1.000
 5914.00    3.44851   3.24414   -1.000
 5915.00    3.43524   3.19561   -1.000
 5916.00    3.45663   3.20225   -1.000
 5917.00    3.51929   3.23860   -1.000
 5918.00    3.57366   3.29243   -1.000
 5919.00    3.60014   3.33587   -1.000
 5920.00    3.58990   3.35868   -1.000
 5921.00    3.57793   3.35794   -1.000
 5922.00    3.58887   3.34170   -1.000
 5923.00    3.60230   3.33076   -1.000
 5924.00    3.62693   3.34443   -1.000
 5925.00    3.65557   3.37490   -1.000
 5926.00    3.66625   3.39956   -1.000
 5927.00    3.64044   3.40344   -1.000
 5928.00    3.59848   3.36997   -1.000
 5929.00    3.57173   3.32493   -1.000
 5930.00    3.57976   3.29614   -1.000
 5931.00    3.59298   3.31840   -1.000
 5932.00    3.63651   3.36528   -1.000
 5933.00    3.64146   3.37592   -1.000
 5934.00    3.60605   3.34972   -1.000
 5935.00    3.60416   3.32149   -1.000
 5936.00    3.62986   3.34253   -1.000
 5937.00    3.65100   3.39480   -1.000
 5938.00    3.64980   3.42371   -1.000
 5939.00    3.64200   3.42700   -1.000
 5940.00    3.60963   3.40068   -1.000
 5941.00    3.57736   3.35489   -1.000
 5942.00    3.57763   3.31932   -1.000
 5943.00    3.60749   3.33143   -1.000
 5944.00    3.65974   3.37694   -1.000
 5945.00    3.69266   3.42005   -1.000
 5946.00    3.69224   3.43849   -1.000
 5947.00    3.67104   3.41886   -1.000
 5948.00    3.61592   3.37295   -1.000
 5949.00    3.58539   3.33348   -1.000
 5950.00    3.61921   3.34470   -1.000
 5951.00    3.64409   3.36414   -1.000
 5952.00    3.59964   3.35785   -1.000
 5953.00    3.57566   3.33957   -1.000
 5954.00    3.58390   3.34075   -1.000
 5955.00    3.60475   3.36151   -1.000
 5956.00    3.59963   3.35709   -1.000
 5957.00    3.57640   3.32604   -1.000
 5958.00    3.60264   3.32097   -1.000
 5959.00    3.66484   3.35934   -1.000
 5960.00    3.71165   3.41436   -1.000
 5961.00    3.73459   3.46371   -1.000
 5962.00    3.73066   3.48488   -1.000
 5963.00    3.69444   3.48231   -1.000
 5964.00    3.66858   3.46206   -1.000
 5965.00    3.65258   3.43383   -1.000
 5966.00    3.65668   3.41355   -1.000
 5967.00    3.69506   3.42903   -1.000
 5968.00    3.73660   3.46341   -1.000
 5969.00    3.77963   3.48907   -1.000
 5970.00    3.79201   3.50719   -1.000
 5971.00    3.77972   3.52280   -1.000
 5972.00    3.76519   3.52717   -1.000
 5973.00    3.74545   3.51792   -1.000
 5974.00    3.71337   3.49300   -1.000
 5975.00    3.66879   3.44690   -1.000
 5976.00    3.63946   3.38789   -1.000
 5977.00    3.62110   3.35291   -1.000
 5978.00    3.61982   3.34772   -1.000
 5979.00    3.64809   3.37934   -1.000
 5980.00    3.69115   3.42630   -1.000
 5981.00    3.70463   3.45977   -1.000
 5982.00    3.67373   3.44050   -1.000
 5983.00    3.60009   3.37422   -1.000
 5984.00    3.56086   3.30835   -1.000
 5985.00    3.59061   3.29349   -1.000
 5986.00    3.63210   3.34779   -1.000
 5987.00    3.67454   3.40443   -1.000
 5988.00    3.69383   3.43785   -1.000
 5989.00    3.73334   3.46118   -1.000
 5990.00    3.73077   3.47188   -1.000
 5991.00    3.71266   3.46860   -1.000
 5992.00    3.73009   3.47522   -1.000
 5993.00    3.74644   3.51327   -1.000
 5994.00    3.77823   3.55549   -1.000
 5995.00    3.77378   3.56333   -1.000
 5996.00    3.73481   3.51854   -1.000
 5997.00    3.69523   3.45830   -1.000
 5998.00    3.66599   3.41916   -1.000
 5999.00    3.66978   3.42568   -1.000
 6000.00    3.67612   3.45296   -1.000
 6001.00    3.66960   3.46737   -1.000
 6002.00    3.65865   3.45983   -1.000
 6003.00    3.64575   3.43869   -1.000
 6004.00    3.63869   3.44391   -1.000
 6005.00    3.62220   3.46232   -1.000
 6006.00    3.59078   3.43577   -1.000
 6007.00    3.54491   3.37308   -1.000
 6008.00    3.55209   3.32652   -1.000
 6009.00    3.62408   3.35246   -1.000
 6010.00    3.69363   3.43910   -1.000
 6011.00    3.71439   3.48320   -1.000
 6012.00    3.67381   3.46195   -1.000
 6013.00    3.65042   3.41626   -1.000
 6014.00    3.64563   3.39705   -1.000
 6015.00    3.66652   3.41553   -1.000
 6016.00    3.67380   3.42054   -1.000
 6017.00    3.65389   3.40550   -1.000
 6018.00    3.65125   3.40935   -1.000
 6019.00    3.64992   3.40948   -1.000
 6020.00    3.64881   3.38375   -1.000
 6021.00    3.63598   3.37453   -1.000
 6022.00    3.65867   3.39137   -1.000
 6023.00    3.69870   3.42021   -1.000
 6024.00    3.70669   3.45190   -1.000
 6025.00    3.72871   3.48454   -1.000
 6026.00    3.75684   3.51458   -1.000
 6027.00    3.78925   3.53621   -1.000
 6028.00    3.81208   3.56108   -1.000
 6029.00    3.82595   3.59189   -1.000
 6030.00    3.82911   3.60597   -1.000
 6031.00    3.82660   3.60877   -1.000
 6032.00    3.83754   3.61789   -1.000
 6033.00    3.85383   3.63617   -1.000
 6034.00    3.86002   3.66891   -1.000
 6035.00    3.85792   3.69712   -1.000
 6036.00    3.85898   3.69733   -1.000
 6037.00    3.86382   3.68015   -1.000
 6038.00    3.85207   3.65398   -1.000
 6039.00    3.82958   3.62942   -1.000
 6040.00    3.81583   3.61018   -1.000
 6041.00    3.79165   3.60749   -1.000
 6042.00    3.81333   3.62033   -1.000
 6043.00    3.84956   3.64502   -1.000
 6044.00    3.86703   3.67896   -1.000
 6045.00    3.90346   3.69611   -1.000
 6046.00    3.92448   3.70706   -1.000
 6047.00    3.91143   3.71219   -1.000
 6048.00    3.91184   3.71360   -1.000
 6049.00    3.92259   3.71234   -1.000
 6050.00    3.92953   3.71449   -1.000
 6051.00    3.91300   3.71457   -1.000
 6052.00    3.88970   3.69434   -1.000
 6053.00    3.86760   3.65635   -1.000
 6054.00    3.85102   3.62101   -1.000
 6055.00    3.81222   3.59108   -1.000
 6056.00    3.78711   3.56448   -1.000
 6057.00    3.81766   3.56480   -1.000
 6058.00    3.75882   3.59047   -1.000
 6059.00    3.60333   3.62637   17.408
 6060.00    3.86573   3.65442   -1.000
 6061.00    3.74798   3.65420   -1.000
 6062.00    2.60311   3.62539   -1.000
 6063.00    1.95763   3.56951   -1.000
 6064.00    3.28016   3.51153   -1.000
 6065.00    3.75710   3.47693   -1.000
 6066.00    3.87735   3.50731   -1.000
 6067.00    3.53422   3.59192   16.203
 6068.00    1.42058   3.67922   -1.000
 6069.00    3.00934   3.72365   -1.000
 6070.00    3.95733   3.74086   -1.000
 6071.00    3.98331   3.75394   -1.000
 6072.00    3.99202   3.76289   -1.000
 6073.00    3.98342   3.75851   -1.000
 6074.00    3.95976   3.75106   -1.000
 6075.00    3.94848   3.73892   -1.000
 6076.00    3.91595   3.70920   -1.000
 6077.00    3.87435   3.66557   -1.000
 6078.00    3.81727   3.61594   -1.000
 6079.00    3.79317   3.58654   -1.000
 6080.00    3.81045   3.57508   -1.000
 6081.00    3.77815   3.55954   -1.000
 6082.00    3.75768   3.53841   -1.000
 6083.00    3.79005   3.54088   -1.000
 6084.00    3.80802   3.55944   -1.000
 6085.00    3.80518   3.57312   -1.000
 6086.00    3.81033   3.59100   -1.000
 6087.00    3.81791   3.61150   -1.000
 6088.00    3.82522   3.61759   -1.000
 6089.00    3.80727   3.59632   -1.000
 6090.00    3.77930   3.55298   -1.000
 6091.00    3.74199   3.52741   -1.000
 6092.00    3.73442   3.53391   -1.000
 6093.00    3.77907   3.56422   -1.000
 6094.00    3.84510   3.60802   -1.000
 6095.00    3.88896   3.64632   -1.000
 6096.00    3.87103   3.66069   -1.000
 6097.00    3.85974   3.65731   -1.000
 6098.00    3.85784   3.66986   -1.000
 6099.00    3.86700   3.68975   -1.000
 6100.00    3.85081   3.66325   -1.000
 6101.00    3.75848   3.57290   -1.000
 6102.00    3.64666   3.43535   -1.000
 6103.00    3.62067   3.37510   -1.000
 6104.00    3.68199   3.43302   -1.000
 6105.00    3.76829   3.53946   -1.000
 6106.00    3.81458   3.61273   -1.000
 6107.00    3.84044   3.63719   -1.000
 6108.00    3.82938   3.65240   -1.000
 6109.00    3.82201   3.67663   16.986
 6110.00    3.82229   3.68368   16.941
 6111.00    3.83126   3.66998   -1.000
 6112.00    3.86834   3.67340   -1.000
 6113.00    3.88420   3.70163   -1.000
 6114.00    3.87616   3.73274   17.219
 6115.00    3.84900   3.73054   17.460
 6116.00    3.83786   3.70097   17.690
 6117.00    3.83021   3.68483   -1.000
 6118.00    3.81504   3.67351   -1.000
 6119.00    3.77769   3.62889   -1.000
 6120.00    3.70643   3.54334   -1.000
 6121.00    3.62400   3.44002   -1.000
 6122.00    3.60805   3.38675   -1.000
 6123.00    3.68660   3.42820   -1.000
 6124.00    3.77579   3.53337   -1.000
 6125.00    3.82235   3.60472   -1.000
 6126.00    3.81779   3.61622   -1.000
 6127.00    3.78434   3.59961   -1.000
 6128.00    3.76894   3.58413   -1.000
 6129.00    3.78477   3.60801   -1.000
 6130.00    3.81069   3.66741   -1.000
 6131.00    3.87042   3.72739   -1.000
 6132.00    3.88152   3.75541   18.612
 6133.00    3.84844   3.73301   18.689
 6134.00    3.74047   3.64009   18.244
 6135.00    3.58271   3.48130   17.726
 6136.00    3.45395   3.30497   -1.000
 6137.00    3.43855   3.23674   -1.000
 6138.00    3.54243   3.32042   -1.000
 6139.00    3.69471   3.47919   -1.000
 6140.00    3.78132   3.59242   -1.000
 6141.00    3.80035   3.60555   -1.000
 6142.00    3.77416   3.60597   -1.000
 6143.00    3.81335   3.65208   -1.000
 6144.00    3.86603   3.71107   -1.000
 6145.00    3.87172   3.74214   17.567
 6146.00    3.84532   3.73512   17.573
 6147.00    3.78748   3.70185   17.510
 6148.00    3.75641   3.64944   17.390
 6149.00    3.70001   3.60367   17.364
 6150.00    3.69491   3.57991   17.506
 6151.00    3.69886   3.59453   17.599
 6152.00    3.70851   3.62830   17.614
 6153.00    3.70798   3.64202   17.685
 6154.00    3.66334   3.61773   17.870
 6155.00    3.62089   3.57908   18.207
 6156.00    3.62095   3.56380   18.756
 6157.00    3.59531   3.55827   19.303
 6158.00    3.54960   3.53692   19.502
 6159.00    3.47491   3.46714   19.226
 6160.00    3.32680   3.32580   18.698
 6161.00    3.16568   3.15002   18.404
 6162.00    3.11312   3.02033   18.320
 6163.00    3.15461   3.02823   18.365
 6164.00    3.26229   3.13101   18.602
 6165.00    3.34974   3.26353   18.792
 6166.00    3.38863   3.35404   18.662
 6167.00    3.40317   3.38672   18.302
 6168.00    3.37587   3.34288   18.044
 6169.00    3.33090   3.26792   18.056
 6170.00    3.30436   3.24259   18.071
 6171.00    3.37349   3.30526   18.027
 6172.00    3.47102   3.40503   17.993
 6173.00    3.48872   3.45874   17.944
 6174.00    3.46436   3.47438   17.856
 6175.00    3.47030   3.47856   17.790
 6176.00    3.48309   3.47676   17.734
 6177.00    3.52026   3.48379   17.651
 6178.00    3.55744   3.50956   17.606
 6179.00    3.54755   3.53766   17.641
 6180.00    3.53575   3.55253   17.703
 6181.00    3.55367   3.57315   17.844
 6182.00    3.55063   3.59858   18.040
 6183.00    3.57082   3.60232   18.227
 6184.00    3.57778   3.58182   18.400
 6185.00    3.52698   3.54156   18.533
 6186.00    3.47393   3.48916   18.778
 6187.00    3.44863   3.43921   18.898
 6188.00    3.39963   3.40624   18.687
 6189.00    3.35635   3.37269   18.221
 6190.00    3.29661   3.31265   17.924
 6191.00    3.24617   3.25589   17.814
 6192.00    3.29480   3.27195   17.787
 6193.00    3.39866   3.35533   17.904
 6194.00    3.47250   3.45561   18.114
 6195.00    3.50882   3.52015   18.261
 6196.00    3.48985   3.55467   18.243
 6197.00    3.45767   3.55449   18.056
 6198.00    3.41177   3.51625   17.829
 6199.00    3.36329   3.45644   17.781
 6200.00    3.38704   3.44258   17.783
 6201.00    3.43299   3.48744   17.752
 6202.00    3.52268   3.54584   17.752
 6203.00    3.58776   3.59105   17.822
 6204.00    3.58777   3.60904   17.819
 6205.00    3.59219   3.61655   17.899
 6206.00    3.59641   3.62406   18.066
 6207.00    3.60398   3.63212   18.206
 6208.00    3.58014   3.63560   18.386
 6209.00    3.54716   3.62166   18.669
 6210.00    3.52686   3.59137   18.855
 6211.00    3.49120   3.54648   18.902
 6212.00    3.42812   3.47766   18.648
 6213.00    3.34876   3.38626   18.563
 6214.00    3.30239   3.30734   18.709
 6215.00    3.27525   3.27563   18.634
 6216.00    3.29257   3.29636   18.495
 6217.00    3.35856   3.33772   18.617
 6218.00    3.37848   3.36193   20.043
 6219.00    3.37092   3.34405   19.331
 6220.00    3.37229   3.32580   18.431
 6221.00    3.38201   3.34028   18.404
 6222.00    3.40136   3.37115   18.413
 6223.00    3.41162   3.39135   18.520
 6224.00    3.41549   3.40044   18.777
 6225.00    3.39356   3.41169   19.091
 6226.00    3.41212   3.42697   19.333
 6227.00    3.41240   3.42840   19.242
 6228.00    3.37579   3.39389   18.961
 6229.00    3.31737   3.31348   18.600
 6230.00    3.23169   3.21651   18.299
 6231.00    3.21479   3.17350   18.220
 6232.00    3.27389   3.20953   18.348
 6233.00    3.34868   3.30442   18.535
 6234.00    3.45128   3.41413   18.723
 6235.00    3.51605   3.49848   18.924
 6236.00    3.48799   3.51621   18.998
 6237.00    3.44353   3.48131   18.989
 6238.00    3.41965   3.41989   19.134
 6239.00    3.34374   3.36232   19.259
 6240.00    3.32056   3.32510   19.242
 6241.00    3.30018   3.30998   19.117
 6242.00    3.27879   3.29536   18.925
 6243.00    3.29165   3.26876   18.682
 6244.00    3.29570   3.25462   18.489
 6245.00    3.30420   3.26833   18.475
 6246.00    3.33802   3.30711   18.653
 6247.00    3.39791   3.37515   19.005
 6248.00    3.45655   3.44745   19.234
 6249.00    3.46106   3.48595   19.363
 6250.00    3.42511   3.47660   19.415
 6251.00    3.35890   3.41972   19.405
 6252.00    3.28921   3.33875   19.589
 6253.00    3.25231   3.28593   19.762
 6254.00    3.24782   3.27397   19.669
 6255.00    3.25460   3.27364   19.366
 6256.00    3.24990   3.24959   19.076
 6257.00    3.21768   3.20268   18.818
 6258.00    3.19398   3.18790   18.524
 6259.00    3.24346   3.22586   18.439
 6260.00    3.31907   3.30694   18.594
 6261.00    3.41957   3.39964   18.716
 6262.00    3.45206   3.48188   18.624
 6263.00    3.45077   3.52564   18.487
 6264.00    3.41854   3.52287   18.561
 6265.00    3.37987   3.49631   18.655
 6266.00    3.35844   3.48512   18.626
 6267.00    3.41331   3.50140   18.561
 6268.00    3.43800   3.50873   18.518
 6269.00    3.39585   3.49933   18.570
 6270.00    3.38498   3.49806   18.709
 6271.00    3.38359   3.51806   18.860
 6272.00    3.33329   3.54548   -1.000
 6273.00    3.27127   3.55951   -1.000
 6274.00    3.18161   3.54704   -1.000
 6275.00    3.15577   3.51433   -1.000
 6276.00    3.13631   3.47757   -1.000
 6277.00    3.09914   3.43849   -1.000
 6278.00    3.05571   3.40286   -1.000
 6279.00    2.99442   3.36879   -1.000
 6280.00    2.97717   3.34816   -1.000
 6281.00    3.06404   3.35834   -1.000
 6282.00    3.21106   3.40799   -1.000
 6283.00    3.31431   3.47445   18.402
 6284.00    3.39954   3.53142   18.370
 6285.00    3.46026   3.56795   18.474
 6286.00    3.49552   3.59991   18.634
 6287.00    3.53200   3.63580   18.771
 6288.00    3.56958   3.66643   18.803
 6289.00    3.57782   3.66502   18.823
 6290.00    3.54192   3.62996   18.858
 6291.00    3.53943   3.57987   19.010
 6292.00    3.50586   3.54750   19.134
 6293.00    3.55023   3.53671   19.158
 6294.00    3.56730   3.53891   19.127
 6295.00    3.58337   3.52320   19.044
 6296.00    3.58977   3.47428   18.959
 6297.00    3.56251   3.43383   -1.000
 6298.00    3.52017   3.43917   19.354
 6299.00    3.48444   3.46335   19.172
 6300.00    3.44926   3.46826   18.862
 6301.00    3.41584   3.44278   18.635
 6302.00    3.37867   3.43080   18.479
 6303.00    3.41368   3.45336   18.309
 6304.00    3.44521   3.49604   18.288
 6305.00    3.48211   3.53689   18.374
 6306.00    3.51127   3.58163   18.501
 6307.00    3.57425   3.63391   18.569
 6308.00    3.62796   3.67869   18.646
 6309.00    3.62457   3.68267   18.660
 6310.00    3.58001   3.65090   18.843
 6311.00    3.52387   3.61436   18.903
 6312.00    3.48537   3.59018   18.886
 6313.00    3.48637   3.57811   18.868
 6314.00    3.47325   3.55214   18.898
 6315.00    3.42356   3.51618   18.822
 6316.00    3.40549   3.49134   18.585
 6317.00    3.43118   3.46885   18.406
 6318.00    3.44450   3.44794   18.342
 6319.00    3.45106   3.47038   18.280
 6320.00    3.50884   3.53579   18.179
 6321.00    3.57996   3.59015   18.124
 6322.00    3.59371   3.62361   18.117
 6323.00    3.63638   3.65492   18.020
 6324.00    3.66552   3.69039   18.045
 6325.00    3.67430   3.71364   18.057
 6326.00    3.67322   3.71722   18.070
 6327.00    3.68458   3.71814   17.998
 6328.00    3.68576   3.72531   17.972
 6329.00    3.68117   3.73093   18.026
 6330.00    3.68672   3.72707   18.070
 6331.00    3.43663   3.73775   -1.000
 6332.00    3.56385   3.76591   -1.000
 6333.00    3.73157   3.76343   18.368
 6334.00    3.65449   3.70750   18.179
 6335.00    3.56635   3.61633   17.978
 6336.00    3.53488   3.55775   17.898
 6337.00    3.54938   3.56740   17.809
 6338.00    3.60734   3.61353   17.830
 6339.00    3.64380   3.66975   18.002
 6340.00    3.68166   3.72177   18.017
 6341.00    3.67158   3.74089   17.963
 6342.00    3.65372   3.71305   17.863
 6343.00    3.62221   3.66045   17.735
 6344.00    3.59381   3.61932   17.672
 6345.00    3.63219   3.63621   17.681
 6346.00    3.68582   3.68934   17.638
 6347.00    3.70191   3.74481   17.659
 6348.00    3.73945   3.78873   17.740
 6349.00    3.76189   3.81745   17.821
 6350.00    3.72352   3.83163   18.037
 6351.00    3.72322   3.83238   18.188
 6352.00    3.72721   3.81560   18.185
 6353.00    3.69403   3.77473   18.243
 6354.00    3.62723   3.71783   18.464
 6355.00    3.59415   3.68187   18.531
 6356.00    3.58112   3.66955   18.446
 6357.00    3.56438   3.64304   18.389
 6358.00    3.52959   3.59071   18.375
 6359.00    3.51163   3.53671   18.307
 6360.00    3.53702   3.50117   18.182
 6361.00    3.51774   3.47834   18.066
 6362.00    3.46845   3.47089   17.971
 6363.00    3.48540   3.49193   17.855
 6364.00    3.53853   3.54354   17.735
 6365.00    3.60638   3.60652   17.695
 6366.00    3.65724   3.66995   17.712
 6367.00    3.70911   3.72976   17.646
 6368.00    3.74102   3.78029   17.576
 6369.00    3.74748   3.80159   17.632
 6370.00    3.76832   3.80768   17.642
 6371.00    3.75368   3.82073   17.683
 6372.00    3.74382   3.84925   17.751
 6373.00    3.75459   3.87599   17.843
 6374.00    3.74954   3.88172   17.968
 6375.00    3.73626   3.87814   18.031
 6376.00    3.74875   3.87393   18.039
 6377.00    3.72525   3.85381   18.076
 6378.00    3.65989   3.81336   18.068
 6379.00    3.64505   3.78180   18.016
 6380.00    3.64625   3.76903   18.112
 6381.00    3.68309   3.77715   18.149
 6382.00    3.69732   3.79540   18.129
 6383.00    3.69202   3.81060   18.191
 6384.00    3.67677   3.81451   18.249
 6385.00    3.66806   3.82084   18.409
 6386.00    3.67188   3.84061   18.552
 6387.00    3.66238   3.85811   -1.000
 6388.00    3.65680   3.86502   -1.000
 6389.00    3.64855   3.86799   -1.000
 6390.00    3.63719   3.86023   -1.000
 6391.00    3.55931   3.81566   -1.000
 6392.00    3.47128   3.73731   -1.000
 6393.00    3.41428   3.66393   -1.000
 6394.00    3.41463   3.66392   -1.000
 6395.00    3.48860   3.74187   -1.000
 6396.00    3.53844   3.82755   -1.000
 6397.00    3.52728   3.86219   -1.000
 6398.00    3.46483   3.81456   -1.000
 6399.00    3.37051   3.71684   -1.000
 6400.00    3.31295   3.64849   -1.000
 6401.00    3.35283   3.68931   -1.000
 6402.00    3.41630   3.80018   -1.000
 6403.00    3.44333   3.89259   -1.000
 6404.00    3.46227   3.93435   -1.000
 6405.00    3.41479   3.92194   -1.000
 6406.00    3.35158   3.87016   -1.000
 6407.00    3.27976   3.81184   -1.000
 6408.00    3.23412   3.79287   -1.000
 6409.00    3.26639   3.80842   -1.000
 6410.00    3.25338   3.81581   -1.000
 6411.00    3.19040   3.79544   -1.000
 6412.00    3.15247   3.77252   -1.000
 6413.00    3.14806   3.78026   -1.000
 6414.00    3.13521   3.80571   -1.000
 6415.00    3.13305   3.83733   -1.000
 6416.00    3.12027   3.86544   -1.000
 6417.00    3.09739   3.86822   -1.000
 6418.00    3.07856   3.83370   -1.000
 6419.00    3.00165   3.76881   -1.000
 6420.00    2.92265   3.70946   -1.000
 6421.00    2.89294   3.70348   -1.000
 6422.00    2.91199   3.77045   -1.000
 6423.00    2.94296   3.85125   -1.000
 6424.00    2.94341   3.90547   -1.000
 6425.00    2.90293   3.93319   -1.000
 6426.00    2.87652   3.95404   -1.000
 6427.00    0.00000   3.96807   -2.000
 6428.00    0.00000   3.94291   -2.000
