###################################################################
## OUTPUT of StarlightChains_v04.for    [Cid@UFSC - 01/Apr/2007] ##
###################################################################

## Some input info
NGC6528_c_1.cxt                          [arq_obs]
Base.BC03.S                              [arq_base]
NGC6528_c_1.msk                          [arq_masks]
StCv04.C11.config                        [arq_config]
  150                                    [N_base]
    0                                    [N_YAV_components = # of components with extra extinction!]
    0                                    [i_FitPowerLaw (1/0 = Yes/No)]
-9.99                                    [alpha_PowerLaw]
CCM                                      [red_law_option]
 1.458241                                [q_norm = A(l_norm)/A(V)]

## (Re)Sampling Parameters
 3359.00                                 [l_ini (A)]
 6428.00                                 [l_fin (A)]
    1.00                                 [dl    (A)]     (OBS: dl_cushion =    50.00 A)

## Normalization info
 4020.00                                 [l_norm (A) - for base]
 4010.00                                 [llow_norm (A) - window for f_obs]
 4060.00                                 [lupp_norm (A) - window for f_obs]
3.081180E-15                             [fobs_norm (in input units)]

## S/N
 4730.00                                 [llow_SN (A) - window for S/N]
 4780.00                                 [lupp_SN (A) - window for S/N]
  26.871                                 [S/N in S/N window]
  13.196                                 [S/N in norm. window]
 236.951                                 [S/N_err in S/N window]
 116.363                                 [S/N_err in norm. window]
  1.0000                                 [fscale_chi2]

## etc...
  2147483602                             [idum_orig]
  3069                                   [NOl_eff]
  1274                                   [Nl_eff]
  1795    NSIGMA                         [Ntot_cliped & clip_method]
  2756320                                [Nglobal_steps]
   7                                     [N_chains]
  43                                     [NEX0s_base = N_base in EX0s-fits]
 0   0   1       80   2.0   2.880E+02    [Clip-Bug, RC-Crash & Burn-In warning-flags, n_censored_weights, wei_nsig_threshold & wei_limit]
    89     89.133     89.129      0.004  [idt_all, wdt_TotTime, wdt_UsrTime & wdt_SysTime (sec)]

## Synthesis Results - Best model ##

 2.33055E+00                             [chi2/Nl_eff]
     2.44229                             [adev (%)]

   101.31925                             [sum-of-x (%)]
 3.01496E-14                             [Flux_tot (units of input spectrum!)]
 2.89087E-09                             [Mini_tot (???)]
 1.44099E-09                             [Mcor_tot (???)]

 -33.84                                  [v0_min  (km/s)]
 104.96                                  [vd_min  (km/s)]
 1.6885                                  [AV_min  (mag)]
 0.0000                                  [YAV_min (mag)]

# j     x_j(%)      Mini_j(%)     Mcor_j(%)     age_j(yr)     Z_j      (L/M)_j    YAV?  Mstars   component_j        a/Fe...       SSP_chi2r SSP_adev(%)   SSP_AV   SSP_x(%)
  1      1.4165     1.7868E-03    3.5846E-03    1.000000E+06  0.00010  8.160E-03    0   1.0000   age020_m22            0.0000     2.8583E+03    54.2355   4.0000   103.8786
  2      1.3715     2.9665E-04    5.9513E-04    3.160000E+06  0.00010  4.759E-02    0   1.0000   age045_m22            0.0000     2.4594E+02     9.2061   4.0000   101.1840
  3      9.7670     5.2037E-03    1.0003E-02    5.010000E+06  0.00010  1.932E-02    0   0.9582   age055_m22            0.0000     4.5110E+02    15.0806   4.0000    95.5981
  4      0.3174     3.2760E-04    6.1101E-04    6.610000E+06  0.00010  9.973E-03    0   0.9297   age061_m22            0.0000     2.8409E+03    53.1889   4.0000   107.0971
  5      0.0000     0.0000E+00    0.0000E+00    8.710000E+06  0.00010  7.690E-03    0   0.9030   age067_m22            0.0000     2.7925E+03    52.9314   4.0000   107.6708
  6      0.8293     1.3391E-03    2.3915E-03    1.000000E+07  0.00010  6.375E-03    0   0.8902   age070_m22            0.0000     2.7882E+03    53.0586   4.0000   107.9252
  7      0.5931     1.2527E-03    2.1585E-03    1.445000E+07  0.00010  4.874E-03    0   0.8589   age078_m22            0.0000     2.3040E+03    49.0980   4.0000   111.2177
  8      0.0000     0.0000E+00    0.0000E+00    2.512000E+07  0.00010  4.103E-03    0   0.8174   age090_m22            0.0000     1.4446E+03    39.5530   4.0000   116.4516
  9      0.3133     8.8248E-04    1.3862E-03    4.000000E+07  0.00010  3.654E-03    0   0.7830   age104_m22            0.0000     1.0142E+03    31.9088   4.0000   118.5353
 10      0.0000     0.0000E+00    0.0000E+00    5.500000E+07  0.00010  3.093E-03    0   0.7597   age110_m22            0.0000     8.8545E+02    29.2174   4.0000   118.6939
 11      0.3069     1.2996E-03    1.8611E-03    1.015200E+08  0.00010  2.431E-03    0   0.7138   age116_m22            0.0000     6.1139E+02    21.3670   4.0000   116.0251
 12      0.0000     0.0000E+00    0.0000E+00    1.609000E+08  0.00010  1.319E-03    0   0.6775   age120_m22            0.0000     3.6882E+02    12.7477   4.0000   108.6425
 13      0.0000     0.0000E+00    0.0000E+00    2.861200E+08  0.00010  1.075E-03    0   0.6412   age125_m22            0.0000     5.0336E+02    17.1777   4.0000   112.6233
 14      0.0000     0.0000E+00    0.0000E+00    5.088000E+08  0.00010  7.183E-04    0   0.6083   age130_m22            0.0000     4.9463E+02    15.3163   4.0000   108.7177
 15      0.0000     0.0000E+00    0.0000E+00    9.047900E+08  0.00010  4.524E-04    0   0.5785   age135_m22            0.0000     4.9005E+02    14.7969   3.8922   107.6951
 16      0.0000     0.0000E+00    0.0000E+00    1.278050E+09  0.00010  3.018E-04    0   0.5588   age138_m22            0.0000     3.4241E+02    12.1587   3.3687   106.5339
 17      0.0000     0.0000E+00    0.0000E+00    1.434000E+09  0.00010  2.691E-04    0   0.5532   age139_m22            0.0000     3.1331E+02    11.6426   3.2136   106.1016
 18      0.0000     0.0000E+00    0.0000E+00    2.500000E+09  0.00010  1.582E-04    0   0.5296   age150_m22            0.0000     3.0835E+02    11.4711   3.1036   107.1247
 19      0.4471     4.5701E-02    4.6851E-02    4.250000E+09  0.00010  1.007E-04    0   0.5110   age158_m22            0.0000     2.5406E+02    10.2889   2.9439   105.8850
 20      0.0000     0.0000E+00    0.0000E+00    6.250000E+09  0.00010  6.869E-05    0   0.4985   age166_m22            0.0000     2.1084E+02     9.2042   2.8758   103.5613
 21      0.4423     7.7521E-02    7.6687E-02    7.500000E+09  0.00010  5.873E-05    0   0.4931   age171_m22            0.0000     2.1004E+02     9.1503   2.8654   103.1291
 22      0.0000     0.0000E+00    0.0000E+00    1.000000E+10  0.00010  4.481E-05    0   0.4854   age181_m22            0.0000     2.0552E+02     9.0756   2.8256   102.7736
 23      0.0000     0.0000E+00    0.0000E+00    1.300000E+10  0.00010  3.489E-05    0   0.4791   age193_m22            0.0000     1.9616E+02     8.8785   2.7680   102.2127
 24      0.0000     0.0000E+00    0.0000E+00    1.500000E+10  0.00010  3.035E-05    0   0.4766   age201_m22            0.0000     1.9109E+02     8.7653   2.7288   102.0564
 25      0.0000     0.0000E+00    0.0000E+00    1.800000E+10  0.00010  2.510E-05    0   0.4735   age213_m22            0.0000     1.8054E+02     8.5095   2.6607   101.4927
 26      0.1374     1.6723E-04    3.3550E-04    1.000000E+06  0.00040  8.458E-03    0   1.0000   age020_m32            0.0000     2.8954E+03    54.3666   4.0000   104.6533
 27      0.0000     0.0000E+00    0.0000E+00    3.160000E+06  0.00040  3.973E-02    0   1.0000   age045_m32            0.0000     1.3086E+03    37.2131   4.0000   115.4439
 28      0.0905     4.8146E-05    9.2068E-05    5.010000E+06  0.00040  1.935E-02    0   0.9532   age055_m32            0.0000     1.8812E+03    43.3427   4.0000   110.2875
 29      0.6849     5.8559E-04    1.0859E-03    6.610000E+06  0.00040  1.204E-02    0   0.9243   age061_m32            0.0000     2.4759E+03    50.2082   4.0000   109.4122
 30      0.4578     4.9956E-04    9.0208E-04    8.710000E+06  0.00040  9.433E-03    0   0.9001   age067_m32            0.0000     2.3738E+03    49.4756   4.0000   110.5017
 31      0.0000     0.0000E+00    0.0000E+00    1.000000E+07  0.00040  8.053E-03    0   0.8877   age070_m32            0.0000     2.2874E+03    48.6827   4.0000   110.9548
 32      0.0000     0.0000E+00    0.0000E+00    1.445000E+07  0.00040  7.027E-03    0   0.8578   age078_m32            0.0000     1.3161E+03    36.5425   4.0000   113.5528
 33      0.0000     0.0000E+00    0.0000E+00    2.512000E+07  0.00040  4.707E-03    0   0.8166   age090_m32            0.0000     8.8393E+02    28.9933   4.0000   114.3423
 34      0.0000     0.0000E+00    0.0000E+00    4.000000E+07  0.00040  3.714E-03    0   0.7827   age104_m32            0.0000     6.7001E+02    23.6767   4.0000   114.7435
 35      0.0000     0.0000E+00    0.0000E+00    5.500000E+07  0.00040  2.982E-03    0   0.7593   age110_m32            0.0000     6.2085E+02    22.2120   4.0000   114.8222
 36      0.0000     0.0000E+00    0.0000E+00    1.015200E+08  0.00040  2.188E-03    0   0.7143   age116_m32            0.0000     4.9846E+02    17.7874   4.0000   113.7206
 37      0.0000     0.0000E+00    0.0000E+00    1.609000E+08  0.00040  1.690E-03    0   0.6856   age120_m32            0.0000     4.7334E+02    15.9115   4.0000   111.8535
 38      0.2774     2.4783E-03    3.2362E-03    2.861200E+08  0.00040  1.152E-03    0   0.6509   age125_m32            0.0000     4.6436E+02    14.4575   4.0000   107.9932
 39      0.0000     0.0000E+00    0.0000E+00    5.088000E+08  0.00040  7.331E-04    0   0.6182   age130_m32            0.0000     4.6980E+02    14.3320   3.9128   106.6806
 40      0.0000     0.0000E+00    0.0000E+00    9.047900E+08  0.00040  3.960E-04    0   0.5890   age135_m32            0.0000     3.4247E+02    12.4749   3.4391   105.9779
 41      0.1519     5.4778E-03    6.2497E-03    1.278050E+09  0.00040  2.854E-04    0   0.5687   age138_m32            0.0000     3.2279E+02    11.8047   3.1639   108.0210
 42      0.0000     0.0000E+00    0.0000E+00    1.434000E+09  0.00040  2.531E-04    0   0.5632   age139_m32            0.0000     3.1814E+02    11.6974   3.1072   107.9620
 43      0.0000     0.0000E+00    0.0000E+00    2.500000E+09  0.00040  1.488E-04    0   0.5386   age150_m32            0.0000     2.6932E+02    10.7837   2.8457   106.3885
 44      0.0000     0.0000E+00    0.0000E+00    4.250000E+09  0.00040  9.082E-05    0   0.5199   age158_m32            0.0000     1.9324E+02     8.8771   2.7361   103.7021
 45      3.3236     5.3774E-01    5.4760E-01    6.250000E+09  0.00040  6.362E-05    0   0.5076   age166_m32            0.0000     1.5906E+02     7.7313   2.6881   100.9165
 46      4.9086     9.5531E-01    9.6344E-01    7.500000E+09  0.00040  5.289E-05    0   0.5027   age171_m32            0.0000     1.4844E+02     7.4672   2.6475    99.7344
 47      3.7008     9.5907E-01    9.5202E-01    1.000000E+10  0.00040  3.972E-05    0   0.4948   age181_m32            0.0000     1.3682E+02     7.2500   2.5803    98.3924
 48      0.0000     0.0000E+00    0.0000E+00    1.300000E+10  0.00040  3.283E-05    0   0.4870   age193_m32            0.0000     1.4841E+02     7.7009   2.5456   100.7939
 49      0.0000     0.0000E+00    0.0000E+00    1.500000E+10  0.00040  2.925E-05    0   0.4854   age201_m32            0.0000     1.5906E+02     8.0661   2.5337   102.1719
 50      0.0027     1.1156E-03    1.0785E-03    1.800000E+10  0.00040  2.469E-05    0   0.4819   age213_m32            0.0000     1.6069E+02     8.1499   2.4967   102.5932
 51      0.0000     0.0000E+00    0.0000E+00    1.000000E+06  0.00400  1.114E-02    0   1.0000   age020_m42            0.0000     2.7218E+03    52.9541   4.0000   105.1725
 52      0.4285     1.0829E-04    2.1722E-04    3.160000E+06  0.00400  4.073E-02    0   0.9999   age045_m42            0.0000     8.5082E+02    29.4392   4.0000   114.5288
 53      0.0000     0.0000E+00    0.0000E+00    5.010000E+06  0.00400  2.534E-02    0   0.9488   age055_m42            0.0000     1.5176E+03    40.0517   4.0000   112.1319
 54      0.5303     2.1133E-04    3.9089E-04    6.610000E+06  0.00400  2.583E-02    0   0.9220   age061_m42            0.0000     6.7676E+02    24.9608   4.0000   112.8453
 55      0.0000     0.0000E+00    0.0000E+00    8.710000E+06  0.00400  1.706E-02    0   0.8983   age067_m42            0.0000     5.7086E+02    20.7716   4.0000   108.6546
 56      0.5061     4.0990E-04    7.2874E-04    1.000000E+07  0.00400  1.271E-02    0   0.8862   age070_m42            0.0000     6.0587E+02    20.4874   4.0000   107.3458
 57      0.0000     0.0000E+00    0.0000E+00    1.445000E+07  0.00400  7.666E-03    0   0.8571   age078_m42            0.0000     1.0423E+03    31.0922   4.0000   109.1928
 58      0.0000     0.0000E+00    0.0000E+00    2.512000E+07  0.00400  5.070E-03    0   0.8174   age090_m42            0.0000     4.7746E+02    17.1657   4.0000   106.8889
 59      0.0000     0.0000E+00    0.0000E+00    4.000000E+07  0.00400  3.505E-03    0   0.7851   age104_m42            0.0000     2.6856E+02    11.4636   4.0000   103.5877
 60      0.0000     0.0000E+00    0.0000E+00    5.500000E+07  0.00400  3.059E-03    0   0.7629   age110_m42            0.0000     3.1137E+02    11.8902   4.0000   108.3843
 61      0.0000     0.0000E+00    0.0000E+00    1.015200E+08  0.00400  2.268E-03    0   0.7207   age116_m42            0.0000     4.0095E+02    14.0286   4.0000   110.6918
 62      0.0000     0.0000E+00    0.0000E+00    1.609000E+08  0.00400  1.720E-03    0   0.6930   age120_m42            0.0000     3.8737E+02    13.0551   4.0000   108.6313
 63      0.0000     0.0000E+00    0.0000E+00    2.861200E+08  0.00400  1.079E-03    0   0.6613   age125_m42            0.0000     3.6479E+02    12.3532   3.7369   106.9639
 64      0.0000     0.0000E+00    0.0000E+00    5.088000E+08  0.00400  6.261E-04    0   0.6313   age130_m42            0.0000     3.9443E+02    12.9507   3.5455   109.8832
 65      0.0000     0.0000E+00    0.0000E+00    9.047900E+08  0.00400  3.535E-04    0   0.6024   age135_m42            0.0000     2.8885E+02    11.1493   3.1427   110.5389
 66      0.0000     0.0000E+00    0.0000E+00    1.278050E+09  0.00400  2.677E-04    0   0.5837   age138_m42            0.0000     1.1812E+02     7.9751   2.4620   107.6818
 67      0.0000     0.0000E+00    0.0000E+00    1.434000E+09  0.00400  1.910E-04    0   0.5716   age139_m42            0.0000     1.5676E+02     8.7170   2.6223   108.7156
 68      0.0000     0.0000E+00    0.0000E+00    2.500000E+09  0.00400  9.818E-05    0   0.5463   age150_m42            0.0000     6.9299E+01     6.2614   2.3355   104.2259
 69      0.0000     0.0000E+00    0.0000E+00    4.250000E+09  0.00400  5.491E-05    0   0.5269   age158_m42            0.0000     4.2732E+01     5.1461   2.2135   101.5550
 70      0.0000     0.0000E+00    0.0000E+00    6.250000E+09  0.00400  3.857E-05    0   0.5151   age166_m42            0.0000     2.9621E+01     4.7787   2.0828   100.1715
 71      0.0000     0.0000E+00    0.0000E+00    7.500000E+09  0.00400  3.243E-05    0   0.5110   age171_m42            0.0000     2.4446E+01     4.6611   2.0052    99.5035
 72      0.0000     0.0000E+00    0.0000E+00    1.000000E+10  0.00400  2.424E-05    0   0.5028   age181_m42            0.0000     1.9797E+01     4.5620   1.9276    98.7222
 73      0.0000     0.0000E+00    0.0000E+00    1.300000E+10  0.00400  1.883E-05    0   0.4927   age193_m42            0.0000     1.7317E+01     4.4813   1.8928    98.2708
 74      0.0000     0.0000E+00    0.0000E+00    1.500000E+10  0.00400  1.685E-05    0   0.4919   age201_m42            0.0000     1.7500E+01     4.3957   1.8988    98.3121
 75      0.0000     0.0000E+00    0.0000E+00    1.800000E+10  0.00400  1.452E-05    0   0.4874   age213_m42            0.0000     1.8098E+01     4.2837   1.9180    98.5863
 76      0.0000     0.0000E+00    0.0000E+00    1.000000E+06  0.00800  1.286E-02    0   1.0000   age020_m52            0.0000     2.6155E+03    52.2477   4.0000   107.3738
 77      0.1308     4.2790E-05    8.5553E-05    3.160000E+06  0.00800  3.147E-02    0   0.9966   age045_m52            0.0000     2.4593E+03    50.5122   4.0000   109.1058
 78      0.0000     0.0000E+00    0.0000E+00    5.010000E+06  0.00800  2.664E-02    0   0.9443   age055_m52            0.0000     1.7457E+03    43.1457   4.0000   111.8890
 79      0.0000     0.0000E+00    0.0000E+00    6.610000E+06  0.00800  2.151E-02    0   0.9177   age061_m52            0.0000     2.8090E+02    12.1691   4.0000   101.5353
 80      0.0000     0.0000E+00    0.0000E+00    8.710000E+06  0.00800  1.628E-02    0   0.8948   age067_m52            0.0000     5.4471E+02    19.7331   4.0000   108.6875
 81      0.0000     0.0000E+00    0.0000E+00    1.000000E+07  0.00800  1.215E-02    0   0.8827   age070_m52            0.0000     9.0960E+02    28.7369   4.0000   111.7698
 82      0.0000     0.0000E+00    0.0000E+00    1.445000E+07  0.00800  8.739E-03    0   0.8552   age078_m52            0.0000     9.3592E+02    29.6207   4.0000   113.6858
 83      0.0000     0.0000E+00    0.0000E+00    2.512000E+07  0.00800  5.676E-03    0   0.8162   age090_m52            0.0000     5.5869E+02    19.1997   4.0000   112.6762
 84      0.0000     0.0000E+00    0.0000E+00    4.000000E+07  0.00800  3.939E-03    0   0.7841   age104_m52            0.0000     4.4430E+02    15.5545   4.0000   111.7834
 85      0.0000     0.0000E+00    0.0000E+00    5.500000E+07  0.00800  3.155E-03    0   0.7627   age110_m52            0.0000     4.3286E+02    15.2221   4.0000   112.5910
 86      0.0071     3.2922E-05    4.7726E-05    1.015200E+08  0.00800  2.206E-03    0   0.7226   age116_m52            0.0000     3.8793E+02    13.6587   4.0000   112.0525
 87      0.0000     0.0000E+00    0.0000E+00    1.609000E+08  0.00800  1.596E-03    0   0.6963   age120_m52            0.0000     3.6134E+02    12.3073   4.0000   108.5779
 88      0.0000     0.0000E+00    0.0000E+00    2.861200E+08  0.00800  1.002E-03    0   0.6665   age125_m52            0.0000     3.8954E+02    13.0074   3.7812   108.9667
 89      0.0000     0.0000E+00    0.0000E+00    5.088000E+08  0.00800  5.759E-04    0   0.6377   age130_m52            0.0000     3.6906E+02    12.9168   3.4309   112.7175
 90      0.0000     0.0000E+00    0.0000E+00    9.047900E+08  0.00800  2.972E-04    0   0.6086   age135_m52            0.0000     2.1935E+02    10.6790   2.8722   111.8494
 91      0.0000     0.0000E+00    0.0000E+00    1.278050E+09  0.00800  2.242E-04    0   0.5907   age138_m52            0.0000     8.7449E+01     7.3272   2.2816   110.3497
 92      0.0000     0.0000E+00    0.0000E+00    1.434000E+09  0.00800  1.645E-04    0   0.5787   age139_m52            0.0000     9.0210E+01     7.1962   2.4264   109.9432
 93      0.0000     0.0000E+00    0.0000E+00    2.500000E+09  0.00800  7.723E-05    0   0.5519   age150_m52            0.0000     3.8610E+01     5.6340   2.0760   106.3623
 94      0.0000     0.0000E+00    0.0000E+00    4.250000E+09  0.00800  4.151E-05    0   0.5320   age158_m52            0.0000     2.9473E+01     5.2231   1.9956   104.0690
 95      0.1892     6.4695E-02    6.7452E-02    6.250000E+09  0.00800  3.010E-05    0   0.5197   age166_m52            0.0000     1.8669E+01     4.9817   1.7983   102.5545
 96      0.0000     0.0000E+00    0.0000E+00    7.500000E+09  0.00800  2.467E-05    0   0.5139   age171_m52            0.0000     1.7719E+01     5.0560   1.7562   102.0998
 97      0.0517     2.8561E-02    2.8958E-02    1.000000E+10  0.00800  1.862E-05    0   0.5054   age181_m52            0.0000     1.8163E+01     5.5490   1.6247   101.5352
 98      0.0000     0.0000E+00    0.0000E+00    1.300000E+10  0.00800  1.433E-05    0   0.4988   age193_m52            0.0000     2.0503E+01     6.0576   1.5338   101.8972
 99      0.0000     0.0000E+00    0.0000E+00    1.500000E+10  0.00800  1.244E-05    0   0.4936   age201_m52            0.0000     2.2242E+01     6.2045   1.5100   102.1983
100      0.0000     0.0000E+00    0.0000E+00    1.800000E+10  0.00800  1.070E-05    0   0.4888   age213_m52            0.0000     2.4459E+01     6.3852   1.4767   101.9854
101      0.0000     0.0000E+00    0.0000E+00    1.000000E+06  0.02000  1.989E-02    0   1.0000   age020_m62            0.0000     2.6519E+03    52.0074   4.0000   106.1089
102      0.0000     0.0000E+00    0.0000E+00    3.160000E+06  0.02000  3.772E-02    0   0.9858   age045_m62            0.0000     2.3582E+03    49.2152   4.0000   108.6013
103      0.0891     2.8409E-05    5.3242E-05    5.010000E+06  0.02000  3.227E-02    0   0.9342   age055_m62            0.0000     1.2582E+03    36.4487   4.0000   114.4139
104      0.0686     2.9582E-05    5.3946E-05    6.610000E+06  0.02000  2.387E-02    0   0.9090   age061_m62            0.0000     1.0433E+03    30.6617   4.0000   111.2443
105      0.0000     0.0000E+00    0.0000E+00    8.710000E+06  0.02000  1.102E-02    0   0.8861   age067_m62            0.0000     9.1809E+02    21.6074   4.0000   102.7511
106      0.0000     0.0000E+00    0.0000E+00    1.000000E+07  0.02000  1.011E-02    0   0.8751   age070_m62            0.0000     7.9300E+02    21.3123   4.0000   105.0334
107      0.0000     0.0000E+00    0.0000E+00    1.445000E+07  0.02000  7.331E-03    0   0.8472   age078_m62            0.0000     7.0453E+02    21.7259   4.0000   106.2484
108      0.0000     0.0000E+00    0.0000E+00    2.512000E+07  0.02000  4.206E-03    0   0.8099   age090_m62            0.0000     6.2405E+02    19.6090   4.0000   104.3676
109      0.0000     0.0000E+00    0.0000E+00    4.000000E+07  0.02000  3.373E-03    0   0.7799   age104_m62            0.0000     3.9289E+02    14.5729   4.0000   109.2510
110      0.0000     0.0000E+00    0.0000E+00    5.500000E+07  0.02000  2.747E-03    0   0.7595   age110_m62            0.0000     3.7492E+02    13.3611   4.0000   111.0957
111      0.0000     0.0000E+00    0.0000E+00    1.015200E+08  0.02000  1.878E-03    0   0.7221   age116_m62            0.0000     3.9787E+02    13.1507   4.0000   112.4479
112      0.0000     0.0000E+00    0.0000E+00    1.609000E+08  0.02000  1.378E-03    0   0.6978   age120_m62            0.0000     4.1617E+02    13.2097   4.0000   111.0288
113      0.0000     0.0000E+00    0.0000E+00    2.861200E+08  0.02000  8.869E-04    0   0.6700   age125_m62            0.0000     4.7567E+02    13.8365   3.7643   111.6222
114      0.0000     0.0000E+00    0.0000E+00    5.088000E+08  0.02000  4.834E-04    0   0.6430   age130_m62            0.0000     3.9056E+02    13.1471   3.3030   114.0834
115      0.0000     0.0000E+00    0.0000E+00    9.047900E+08  0.02000  2.312E-04    0   0.6152   age135_m62            0.0000     2.0432E+02     9.9448   2.6932   113.6938
116      0.0065     4.8251E-04    5.7374E-04    1.278050E+09  0.02000  1.387E-04    0   0.5927   age138_m62            0.0000     9.6345E+01     7.1548   2.3044   109.6116
117      0.0000     0.0000E+00    0.0000E+00    1.434000E+09  0.02000  1.168E-04    0   0.5865   age139_m62            0.0000     7.9064E+01     6.7028   2.2720   108.1207
118      0.0000     0.0000E+00    0.0000E+00    2.500000E+09  0.02000  5.505E-05    0   0.5610   age150_m62            0.0000     3.0866E+01     5.4399   1.8942   105.1858
119      0.0000     0.0000E+00    0.0000E+00    4.250000E+09  0.02000  3.070E-05    0   0.5407   age158_m62            0.0000     2.4285E+01     6.1281   1.5964   104.8082
120      0.0091     4.4584E-03    4.7199E-03    6.250000E+09  0.02000  2.104E-05    0   0.5277   age166_m62            0.0000     2.8311E+01     6.8561   1.4685   104.9599
121      0.0261     1.5205E-02    1.5933E-02    7.500000E+09  0.02000  1.770E-05    0   0.5223   age171_m62            0.0000     3.3383E+01     7.3371   1.3807   105.2201
122      4.6712     3.7072E+00    3.8086E+00    1.000000E+10  0.02000  1.297E-05    0   0.5121   age181_m62            0.0000     4.7043E+01     8.2877   1.2241   105.4656
123      9.0775     9.6418E+00    9.7624E+00    1.300000E+10  0.02000  9.691E-06    0   0.5047   age193_m62            0.0000     5.8824E+01     8.8189   1.1464   105.5833
124     12.7535     1.5703E+01    1.5748E+01    1.500000E+10  0.02000  8.360E-06    0   0.4999   age201_m62            0.0000     7.0829E+01     9.4216   1.0756   105.7039
125     32.1240     4.7846E+01    4.7476E+01    1.800000E+10  0.02000  6.911E-06    0   0.4946   age213_m62            0.0000     8.7804E+01    10.2560   0.9999   105.8272
126      0.0000     0.0000E+00    0.0000E+00    1.000000E+06  0.05000  2.651E-02    0   0.9998   age020_m72            0.0000     2.6072E+03    51.9497   4.0000   107.4152
127      0.0000     0.0000E+00    0.0000E+00    3.160000E+06  0.05000  4.817E-02    0   0.9577   age045_m72            0.0000     1.9506E+03    45.7371   4.0000   112.2817
128      0.0000     0.0000E+00    0.0000E+00    5.010000E+06  0.05000  3.101E-02    0   0.9147   age055_m72            0.0000     1.3740E+03    37.4382   4.0000   112.7300
129      0.0000     0.0000E+00    0.0000E+00    6.610000E+06  0.05000  1.472E-02    0   0.8877   age061_m72            0.0000     1.0190E+03    26.8436   4.0000   106.3422
130      0.0000     0.0000E+00    0.0000E+00    8.710000E+06  0.05000  1.050E-02    0   0.8638   age067_m72            0.0000     1.4066E+03    36.5716   4.0000   110.7851
131      0.0000     0.0000E+00    0.0000E+00    1.000000E+07  0.05000  8.954E-03    0   0.8524   age070_m72            0.0000     1.7049E+03    42.7202   4.0000   113.1335
132      0.0000     0.0000E+00    0.0000E+00    1.445000E+07  0.05000  6.392E-03    0   0.8262   age078_m72            0.0000     1.5641E+03    41.2754   4.0000   114.0236
133      0.0000     0.0000E+00    0.0000E+00    2.512000E+07  0.05000  4.207E-03    0   0.7902   age090_m72            0.0000     9.5274E+02    31.7463   4.0000   115.2837
134      0.0000     0.0000E+00    0.0000E+00    4.000000E+07  0.05000  3.198E-03    0   0.7618   age104_m72            0.0000     4.9179E+02    18.7410   4.0000   115.6284
135      0.0000     0.0000E+00    0.0000E+00    5.500000E+07  0.05000  2.593E-03    0   0.7432   age110_m72            0.0000     4.7856E+02    17.0544   4.0000   115.9029
136      0.0000     0.0000E+00    0.0000E+00    1.015200E+08  0.05000  1.716E-03    0   0.7092   age116_m72            0.0000     4.5096E+02    15.0583   4.0000   114.2911
137      0.0000     0.0000E+00    0.0000E+00    1.609000E+08  0.05000  1.218E-03    0   0.6876   age120_m72            0.0000     4.3990E+02    13.3936   4.0000   110.5108
138      0.0000     0.0000E+00    0.0000E+00    2.861200E+08  0.05000  7.047E-04    0   0.6618   age125_m72            0.0000     4.3979E+02    13.2377   3.5565   111.7122
139      0.0000     0.0000E+00    0.0000E+00    5.088000E+08  0.05000  3.590E-04    0   0.6356   age130_m72            0.0000     3.1964E+02    11.8111   2.9667   114.4204
140      0.0000     0.0000E+00    0.0000E+00    9.047900E+08  0.05000  1.484E-04    0   0.6088   age135_m72            0.0000     9.8168E+01     7.8999   2.1989   108.7299
141      0.0006     6.2340E-05    7.4088E-05    1.278050E+09  0.05000  9.435E-05    0   0.5924   age138_m72            0.0000     4.8539E+01     7.2727   1.7805   105.8298
142      0.0000     0.0000E+00    0.0000E+00    1.434000E+09  0.05000  7.827E-05    0   0.5847   age139_m72            0.0000     3.9539E+01     6.7922   1.7937   105.2689
143      0.0000     0.0000E+00    0.0000E+00    2.500000E+09  0.05000  3.759E-05    0   0.5583   age150_m72            0.0000     2.9922E+01     7.0710   1.4708   104.3232
144      1.0210     5.7056E-01    6.1513E-01    4.250000E+09  0.05000  1.842E-05    0   0.5374   age158_m72            0.0000     5.0186E+01     7.9149   1.1775   103.1528
145      1.7467     1.4896E+00    1.5666E+00    6.250000E+09  0.05000  1.207E-05    0   0.5242   age166_m72            0.0000     8.1754E+01     9.5375   0.9355   102.5578
146      1.5233     1.5691E+00    1.6316E+00    7.500000E+09  0.05000  9.993E-06    0   0.5183   age171_m72            0.0000     8.7965E+01     9.7567   0.8924   102.4351
147      0.0000     0.0000E+00    0.0000E+00    1.000000E+10  0.05000  7.291E-06    0   0.5081   age181_m72            0.0000     1.1799E+02    11.0386   0.7650   102.1610
148      0.6415     1.2421E+00    1.2505E+00    1.300000E+10  0.05000  5.316E-06    0   0.5018   age193_m72            0.0000     1.6972E+02    12.9791   0.5696   101.8938
149      3.2060     7.3384E+00    7.3198E+00    1.500000E+10  0.05000  4.497E-06    0   0.4972   age201_m72            0.0000     1.9783E+02    13.9250   0.4906   102.0878
150      2.9710     8.1792E+00    8.0797E+00    1.800000E+10  0.05000  3.739E-06    0   0.4924   age213_m72            0.0000     2.3388E+02    15.2073   0.3721   102.2698


## Synthesis Results - Average & Chains ##

# j      x_j: min, <> & last-chain-values for 1 ...  7 chains
  1      1.4165      1.5038      1.5737      1.4580      1.4346      1.4251      1.4686      1.5309      1.5170
  2      1.3715      0.1734      0.2607      0.3086      0.4467      0.4121      0.0389      0.1717      0.0908
  3      9.7670      8.6120      9.1829      8.7699      8.3976      8.5710      8.4474      8.9535      8.5975
  4      0.3174      0.5914      0.7624      0.6328      0.4895      0.5758      0.7220      0.5433      0.4324
  5      0.0000      0.1253      0.2602      0.0833      0.0935      0.0000      0.1175      0.1603      0.1182
  6      0.8293      0.6829      0.7239      0.7398      0.6705      0.7876      0.6692      0.4929      0.9063
  7      0.5931      0.4024      0.3188      0.4271      0.6296      0.4161      0.4765      0.3825      0.3609
  8      0.0000      0.0326      0.0000      0.0672      0.0000      0.0000      0.0358      0.0840      0.0000
  9      0.3133      0.0439      0.0597      0.2161      0.0000      0.1480      0.0278      0.0000      0.0571
 10      0.0000      0.0591      0.0830      0.1775      0.1047      0.0000      0.1228      0.0038      0.2527
 11      0.3069      0.0352      0.0000      0.1231      0.0000      0.1290      0.0350      0.0000      0.0000
 12      0.0000      0.0202      0.0000      0.1219      0.0422      0.0000      0.0000      0.1097      0.0818
 13      0.0000      0.0236      0.2719      0.0153      0.0000      0.0887      0.0000      0.0000      0.0000
 14      0.0000      0.0193      0.1856      0.0000      0.2693      0.0000      0.0000      0.0000      0.0000
 15      0.0000      0.0282      0.0000      0.0521      0.0000      0.0000      0.0018      0.0000      0.0000
 16      0.0000      0.0273      0.0089      0.0354      0.0000      0.0000      0.0000      0.0000      0.0000
 17      0.0000      0.0340      0.0000      0.2807      0.1296      0.0000      0.0000      0.0000      0.0146
 18      0.0000      0.0283      0.0000      0.0000      0.0000      0.0250      0.0000      0.0000      0.1058
 19      0.4471      0.0922      0.0000      0.0974      0.0000      0.2289      0.0000      0.0813      0.0000
 20      0.0000      0.0845      0.1137      0.2110      0.0000      0.0000      0.4861      0.2541      0.0192
 21      0.4423      0.1028      0.1135      0.1406      0.6368      0.2362      0.0000      0.1827      0.0918
 22      0.0000      0.0548      0.2360      0.0000      0.0438      0.0000      0.2408      0.0000      0.1960
 23      0.0000      0.0573      0.2068      0.0511      0.0000      0.0000      0.0000      0.0384      0.1501
 24      0.0000      0.0963      0.0000      0.0000      0.0625      0.0820      0.0000      0.5973      0.0000
 25      0.0000      0.0622      0.2755      0.0000      0.0000      0.0000      0.0000      0.2954      0.0097
 26      0.1374      0.3430      0.3477      0.3804      0.3495      0.5458      0.3292      0.3026      0.0000
 27      0.0000      0.0309      0.0000      0.0348      0.0000      0.0189      0.0529      0.0000      0.1423
 28      0.0905      0.0398      0.0000      0.0268      0.0000      0.2966      0.1219      0.0000      0.0618
 29      0.6849      0.6626      0.6437      0.8281      0.8492      0.6536      0.6117      0.5517      0.6983
 30      0.4578      0.5708      0.5179      0.5944      0.6882      0.5754      0.6027      0.6023      0.5980
 31      0.0000      0.0234      0.0000      0.0000      0.0000      0.0000      0.0000      0.0000      0.1556
 32      0.0000      0.0686      0.2780      0.0000      0.2555      0.0901      0.0090      0.1800      0.0000
 33      0.0000      0.0568      0.0000      0.0000      0.0000      0.0045      0.0508      0.0000      0.0000
 34      0.0000      0.0255      0.0103      0.1213      0.0000      0.0878      0.0000      0.0836      0.0000
 35      0.0000      0.0219      0.0000      0.0000      0.0000      0.0552      0.0029      0.0754      0.0000
 36      0.0000      0.0238      0.0000      0.1711      0.0427      0.0000      0.0369      0.0000      0.0057
 37      0.0000      0.0501      0.0000      0.0000      0.0000      0.0160      0.0247      0.2337      0.0000
 38      0.2774      0.0777      0.0000      0.0000      0.1066      0.1463      0.0970      0.0000      0.1105
 39      0.0000      0.0232      0.0025      0.0000      0.1545      0.0000      0.0518      0.0000      0.0000
 40      0.0000      0.0260      0.0000      0.0000      0.2136      0.0000      0.0000      0.0000      0.0000
 41      0.1519      0.0200      0.0000      0.0000      0.0000      0.2332      0.0000      0.0000      0.0000
 42      0.0000      0.0412      0.1897      0.0000      0.0173      0.1160      0.0000      0.0267      0.0058
 43      0.0000      0.0428      0.0000      0.0000      0.1392      0.0000      0.0000      0.1071      0.0000
 44      0.0000      0.1335      0.2917      0.1405      0.0565      0.0000      0.3235      0.0181      0.9923
 45      3.3236      3.0043      2.5761      2.9902      2.9108      2.6417      3.0626      3.0775      2.8050
 46      4.9086      4.8281      5.0093      5.2505      4.5756      4.4899      4.7479      5.0316      4.9858
 47      3.7008      5.0044      5.0016      4.3091      4.8665      4.8516      4.8081      4.7739      4.6629
 48      0.0000      0.0627      0.0000      0.1139      0.0000      0.0000      0.0000      0.0000      0.0000
 49      0.0000      0.0534      0.0000      0.0000      0.0702      0.0000      0.0000      0.0000      0.1195
 50      0.0027      0.0637      0.0000      0.0000      0.0000      0.2670      0.0654      0.0000      0.0000
 51      0.0000      0.1015      0.0476      0.1003      0.1064      0.0000      0.1844      0.1369      0.0000
 52      0.4285      0.0713      0.2983      0.0000      0.0361      0.2091      0.0000      0.0000      0.0000
 53      0.0000      0.0463      0.0000      0.0000      0.0000      0.0050      0.0000      0.0000      0.0091
 54      0.5303      0.0845      0.3117      0.0000      0.2560      0.1380      0.2735      0.1229      0.0869
 55      0.0000      0.0258      0.0000      0.0000      0.0000      0.0000      0.0777      0.0000      0.0000
 56      0.5061      0.2272      0.0860      0.2708      0.0000      0.3229      0.6372      0.2413      0.8502
 57      0.0000      0.0373      0.0235      0.0000      0.0000      0.0258      0.1072      0.0000      0.0000
 58      0.0000      0.0632      0.0704      0.0000      0.0000      0.0323      0.0084      0.0416      0.0088
 59      0.0000      0.0515      0.0000      0.0000      0.0856      0.0252      0.0000      0.1006      0.0401
 60      0.0000      0.0257      0.0000      0.0000      0.0000      0.0000      0.1818      0.0000      0.0000
 61      0.0000      0.0188      0.1484      0.0000      0.0000      0.0000      0.0000      0.0000      0.0000
 62      0.0000      0.0290      0.1384      0.0000      0.0191      0.0000      0.0151      0.0000      0.0000
 63      0.0000      0.0250      0.0000      0.0614      0.0971      0.0000      0.0000      0.0000      0.1055
 64      0.0000      0.0263      0.0000      0.0000      0.0202      0.1056      0.0000      0.0000      0.0752
 65      0.0000      0.0372      0.0000      0.1273      0.0000      0.0956      0.0000      0.0609      0.0000
 66      0.0000      0.0432      0.0000      0.0000      0.0000      0.0000      0.0000      0.0000      0.0000
 67      0.0000      0.0415      0.0000      0.1005      0.0000      0.0627      0.0000      0.0000      0.0000
 68      0.0000      0.0430      0.0000      0.0000      0.0000      0.0271      0.0000      0.0000      0.0000
 69      0.0000      0.0623      0.0000      0.1115      0.0000      0.0000      0.0000      0.0000      0.0000
 70      0.0000      0.0494      0.0000      0.1701      0.0000      0.0000      0.0000      0.0000      0.0000
 71      0.0000      0.0430      0.0000      0.0000      0.0000      0.0000      0.0000      0.0000      0.0151
 72      0.0000      0.0483      0.0000      0.0279      0.0000      0.0000      0.0069      0.0000      0.0000
 73      0.0000      0.0572      0.0000      0.0000      0.0000      0.0000      0.0000      0.0000      0.0000
 74      0.0000      0.0593      0.0000      0.0000      0.0000      0.0000      0.0000      0.1560      0.0000
 75      0.0000      0.0510      0.0000      0.0000      0.0000      0.0999      0.0000      0.0000      0.0000
 76      0.0000      0.0365      0.0000      0.0000      0.0000      0.0000      0.0000      0.0000      0.0000
 77      0.1308      0.1091      0.0000      0.1389      0.1317      0.2806      0.0000      0.0000      0.3347
 78      0.0000      0.0521      0.0310      0.0493      0.0609      0.0000      0.0094      0.0903      0.0000
 79      0.0000      0.0769      0.2448      0.2506      0.0000      0.0000      0.1270      0.0000      0.0549
 80      0.0000      0.0284      0.0000      0.0000      0.0624      0.0127      0.0000      0.0000      0.0000
 81      0.0000      0.0356      0.0000      0.0892      0.0000      0.0728      0.0875      0.0134      0.0000
 82      0.0000      0.0109      0.0000      0.0000      0.0000      0.0000      0.0000      0.0000      0.0000
 83      0.0000      0.0499      0.0000      0.0000      0.0485      0.0000      0.2352      0.0000      0.0000
 84      0.0000      0.0503      0.0000      0.0000      0.0000      0.0000      0.0000      0.0000      0.0000
 85      0.0000      0.0578      0.0000      0.0906      0.0000      0.0000      0.0642      0.0000      0.0967
 86      0.0071      0.0545      0.0000      0.0000      0.0000      0.1789      0.0000      0.0000      0.1830
 87      0.0000      0.0219      0.0068      0.0000      0.0000      0.0000      0.0000      0.0000      0.0000
 88      0.0000      0.0273      0.0160      0.0000      0.0888      0.0000      0.0398      0.0000      0.0000
 89      0.0000      0.0160      0.0000      0.0284      0.0000      0.0000      0.0000      0.0000      0.0000
 90      0.0000      0.0390      0.0000      0.0000      0.0056      0.0000      0.2518      0.0000      0.0000
 91      0.0000      0.0587      0.0000      0.0000      0.0000      0.0269      0.1271      0.0000      0.1609
 92      0.0000      0.0413      0.0000      0.0000      0.0000      0.0005      0.0000      0.0000      0.0785
 93      0.0000      0.0681      0.0000      0.1473      0.0000      0.0000      0.0000      0.0000      0.2809
 94      0.0000      0.1032      0.5161      0.0478      0.1093      0.1249      0.0000      0.1452      0.0342
 95      0.1892      0.2109      0.1898      0.4822      0.3823      1.0601      0.6716      0.2920      0.2857
 96      0.0000      0.1969      0.2210      0.0000      0.0000      0.0000      0.1152      0.2353      0.0000
 97      0.0517      0.1999      0.0000      0.0000      0.2518      0.2234      0.4238      0.0000      0.4675
 98      0.0000      0.2485      0.0472      0.6999      0.1046      0.1246      0.2866      0.2039      0.0834
 99      0.0000      0.2080      0.0000      0.4824      0.2791      0.0000      0.1391      0.0000      0.3529
100      0.0000      0.1471      0.3287      0.0957      0.4722      0.0000      0.0759      0.0000      0.2596
101      0.0000      0.0355      0.0000      0.0000      0.0000      0.0000      0.0000      0.0000      0.0000
102      0.0000      0.0254      0.0000      0.0000      0.0000      0.1045      0.0000      0.0000      0.1456
103      0.0891      0.0370      0.0000      0.0188      0.0000      0.1478      0.0000      0.0485      0.0000
104      0.0686      0.0841      0.1320      0.0436      0.1101      0.2439      0.1834      0.2285      0.0075
105      0.0000      0.0359      0.0000      0.0000      0.0000      0.0346      0.0000      0.1351      0.1049
106      0.0000      0.1320      0.0000      0.1560      0.6135      0.0000      0.1780      0.2218      0.1468
107      0.0000      0.0532      0.0000      0.0000      0.0000      0.0142      0.0000      0.0000      0.0277
108      0.0000      0.0255      0.0000      0.0000      0.0000      0.0000      0.0000      0.0000      0.1880
109      0.0000      0.0349      0.0122      0.0000      0.0000      0.1083      0.0000      0.0000      0.0000
110      0.0000      0.0493      0.0000      0.0602      0.0000      0.0000      0.0620      0.0153      0.0666
111      0.0000      0.0173      0.0000      0.0000      0.0000      0.0000      0.0000      0.1064      0.0000
112      0.0000      0.0388      0.0529      0.1232      0.2530      0.0000      0.0000      0.0000      0.0000
113      0.0000      0.0170      0.0000      0.1090      0.0000      0.0000      0.0000      0.0000      0.0000
114      0.0000      0.0121      0.0000      0.0000      0.0000      0.0000      0.0000      0.0000      0.0000
115      0.0000      0.0252      0.2357      0.0000      0.0000      0.0849      0.0000      0.0000      0.0000
116      0.0065      0.0373      0.0000      0.0000      0.0000      0.2613      0.0000      0.0000      0.0000
117      0.0000      0.0529      0.0000      0.0000      0.0000      0.0000      0.0000      0.1255      0.0000
118      0.0000      0.1018      0.0749      0.0000      0.0492      0.0669      0.1013      0.0265      0.0000
119      0.0000      0.1517      0.0000      0.0000      0.0000      0.0000      0.0000      0.0000      0.0976
120      0.0091      0.1612      0.1203      0.1862      0.0000      0.2844      0.0000      0.0000      0.0000
121      0.0261      0.2341      0.0000      0.0163      0.0126      0.1314      0.0000      0.5800      0.0000
122      4.6712      5.0665      4.8185      4.6290      6.0087      4.8284      5.9150      4.3606      5.1710
123      9.0775      8.6401      9.0411      9.1319      8.5515      8.9521      8.5655      8.9301      8.6604
124     12.7535     12.7037     13.0038     12.5732     12.7364     12.5579     12.7983     12.6184     12.9302
125     32.1240     30.8582     31.2387     30.9655     30.2088     30.6746     31.1279     31.8540     30.7535
126      0.0000      0.0411      0.0000      0.0000      0.0322      0.0268      0.0000      0.0000      0.0000
127      0.0000      0.0242      0.0000      0.0131      0.0000      0.0035      0.0000      0.0000      0.0038
128      0.0000      0.0735      0.0000      0.1439      0.0000      0.0000      0.2110      0.1200      0.1084
129      0.0000      0.0609      0.1819      0.0000      0.0689      0.0554      0.0201      0.3924      0.0000
130      0.0000      0.0494      0.0000      0.0743      0.0000      0.0000      0.0676      0.0000      0.0322
131      0.0000      0.0565      0.0216      0.0000      0.0461      0.0000      0.0000      0.1686      0.0000
132      0.0000      0.0344      0.0000      0.1281      0.1914      0.0000      0.0000      0.0000      0.0000
133      0.0000      0.0362      0.0000      0.0000      0.1757      0.0000      0.0614      0.0000      0.1268
134      0.0000      0.0266      0.0000      0.0000      0.0000      0.0000      0.0031      0.0089      0.0541
135      0.0000      0.0233      0.0000      0.0000      0.0000      0.0000      0.0000      0.0000      0.0000
136      0.0000      0.0622      0.0000      0.0000      0.0000      0.0000      0.0669      0.2201      0.0000
137      0.0000      0.0212      0.0000      0.0000      0.0000      0.0000      0.0000      0.1227      0.1506
138      0.0000      0.0197      0.0000      0.0000      0.0000      0.0000      0.0000      0.0000      0.0000
139      0.0000      0.0138      0.0000      0.0000      0.0000      0.0000      0.1723      0.0000      0.0000
140      0.0000      0.0361      0.2950      0.0682      0.0000      0.0000      0.0000      0.0000      0.0000
141      0.0006      0.0382      0.0000      0.0000      0.0000      0.3502      0.0000      0.0000      0.0000
142      0.0000      0.0607      0.0000      0.0000      0.0000      0.0000      0.0000      0.0551      0.0000
143      0.0000      0.1173      0.0000      0.0000      0.4591      0.0000      0.0139      0.0000      0.1151
144      1.0210      0.4670      0.3468      0.3874      0.3660      0.8107      0.1829      0.8917      0.4662
145      1.7467      0.7240      0.8109      0.6803      0.8871      1.6732      0.7989      0.8083      0.9640
146      1.5233      0.3254      0.0496      0.6300      0.3571      0.6439      0.5918      0.0000      0.3893
147      0.0000      0.1928      0.0000      0.0873      0.4918      0.0000      0.1355      0.1801      0.0000
148      0.6415      0.5458      0.5282      0.0000      0.6771      0.5931      0.3132      0.5944      0.5453
149      3.2060      3.7886      3.9210      4.2218      3.7910      3.3196      3.7969      3.7836      3.6257
150      2.9710      4.0160      4.1648      4.2641      3.8584      3.8214      3.8955      3.9087      4.2307

# j      m_j: min, <> & last-chain-values for 1 ...  7 chains
  1  3.5846E-03  3.7594E-03  3.9061E-03  3.6183E-03  3.5902E-03  3.6048E-03  3.6710E-03  3.8058E-03  3.7858E-03
  2  5.9513E-04  7.4323E-05  1.1097E-04  1.3131E-04  1.9170E-04  1.7872E-04  1.6681E-05  7.3172E-05  3.8874E-05
  3  1.0003E-02  8.7131E-03  9.2240E-03  8.8080E-03  8.5052E-03  8.7743E-03  8.5459E-03  9.0081E-03  8.6834E-03
  4  6.1101E-04  1.1246E-03  1.4394E-03  1.1946E-03  9.3193E-04  1.1079E-03  1.3729E-03  1.0275E-03  8.2083E-04
  5  0.0000E+00  3.0003E-04  6.1885E-04  1.9808E-04  2.2426E-04  0.0000E+00  2.8149E-04  3.8188E-04  2.8274E-04
  6  2.3915E-03  1.9454E-03  2.0474E-03  2.0919E-03  1.9121E-03  2.2701E-03  1.9060E-03  1.3962E-03  2.5773E-03
  7  2.1585E-03  1.4467E-03  1.1377E-03  1.5241E-03  2.2658E-03  1.5134E-03  1.7127E-03  1.3672E-03  1.2951E-03
  8  0.0000E+00  1.3255E-04  0.0000E+00  2.7118E-04  0.0000E+00  0.0000E+00  1.4560E-04  3.3964E-04  0.0000E+00
  9  1.3862E-03  1.9176E-04  2.5909E-04  9.3767E-04  0.0000E+00  6.5456E-04  1.2162E-04  0.0000E+00  2.4901E-04
 10  0.0000E+00  2.9633E-04  4.1297E-04  8.8302E-04  5.2511E-04  0.0000E+00  6.1540E-04  1.9095E-05  1.2637E-03
 11  1.8611E-03  2.1112E-04  0.0000E+00  7.3187E-04  0.0000E+00  7.8155E-04  2.0954E-04  0.0000E+00  0.0000E+00
 12  0.0000E+00  2.1211E-04  0.0000E+00  1.2676E-03  4.4258E-04  0.0000E+00  0.0000E+00  1.1429E-03  8.5599E-04
 13  0.0000E+00  2.8741E-04  3.2847E-03  1.8485E-04  0.0000E+00  1.0925E-03  0.0000E+00  0.0000E+00  0.0000E+00
 14  0.0000E+00  3.3419E-04  3.1827E-03  0.0000E+00  4.6577E-03  0.0000E+00  0.0000E+00  0.0000E+00  0.0000E+00
 15  0.0000E+00  7.3546E-04  0.0000E+00  1.3488E-03  0.0000E+00  0.0000E+00  4.7529E-05  0.0000E+00  0.0000E+00
 16  0.0000E+00  1.0307E-03  3.3213E-04  1.3278E-03  0.0000E+00  0.0000E+00  0.0000E+00  0.0000E+00  0.0000E+00
 17  0.0000E+00  1.4247E-03  0.0000E+00  1.1687E-02  5.4395E-03  0.0000E+00  0.0000E+00  0.0000E+00  6.1181E-04
 18  0.0000E+00  1.9310E-03  0.0000E+00  0.0000E+00  0.0000E+00  1.7285E-03  0.0000E+00  0.0000E+00  7.2138E-03
 19  4.6851E-02  9.5478E-03  0.0000E+00  1.0006E-02  0.0000E+00  2.3974E-02  0.0000E+00  8.3720E-03  0.0000E+00
 20  0.0000E+00  1.2506E-02  1.6711E-02  3.1014E-02  0.0000E+00  0.0000E+00  7.1960E-02  3.7412E-02  2.8413E-03
 21  7.6687E-02  1.7601E-02  1.9292E-02  2.3903E-02  1.0918E-01  4.0926E-02  0.0000E+00  3.1112E-02  1.5699E-02
 22  0.0000E+00  1.2112E-02  5.1784E-02  0.0000E+00  9.6805E-03  0.0000E+00  5.3216E-02  0.0000E+00  4.3236E-02
 23  0.0000E+00  1.6044E-02  5.7509E-02  1.4208E-02  0.0000E+00  0.0000E+00  0.0000E+00  1.0703E-02  4.1969E-02
 24  0.0000E+00  3.0847E-02  0.0000E+00  0.0000E+00  2.0048E-02  2.6575E-02  0.0000E+00  1.9028E-01  0.0000E+00
 25  0.0000E+00  2.3946E-02  1.0527E-01  0.0000E+00  0.0000E+00  0.0000E+00  0.0000E+00  1.1305E-01  3.7306E-03
 26  3.3550E-04  8.2738E-04  8.3269E-04  9.1077E-04  8.4392E-04  1.3319E-03  7.9390E-04  7.2572E-04  0.0000E+00
 27  0.0000E+00  1.5881E-05  0.0000E+00  1.7724E-05  0.0000E+00  9.8448E-06  2.7135E-05  0.0000E+00  7.2914E-05
 28  9.2068E-05  4.0017E-05  0.0000E+00  2.6724E-05  0.0000E+00  3.0154E-04  1.2245E-04  0.0000E+00  6.2040E-05
 29  1.0859E-03  1.0376E-03  1.0009E-03  1.2873E-03  1.3314E-03  1.0357E-03  9.5789E-04  8.5912E-04  1.0916E-03
 30  9.0208E-04  1.1110E-03  1.0008E-03  1.1485E-03  1.3409E-03  1.1333E-03  1.1731E-03  1.1658E-03  1.1620E-03
 31  0.0000E+00  5.2604E-05  0.0000E+00  0.0000E+00  0.0000E+00  0.0000E+00  0.0000E+00  0.0000E+00  3.4922E-04
 32  0.0000E+00  1.7089E-04  6.8728E-04  0.0000E+00  6.3683E-04  2.2714E-04  2.2353E-05  4.4567E-04  0.0000E+00
 33  0.0000E+00  2.0089E-04  0.0000E+00  0.0000E+00  0.0000E+00  1.6052E-05  1.7964E-04  0.0000E+00  0.0000E+00
 34  0.0000E+00  1.0952E-04  4.4087E-05  5.1782E-04  0.0000E+00  3.8175E-04  0.0000E+00  3.5725E-04  0.0000E+00
 35  0.0000E+00  1.1394E-04  0.0000E+00  0.0000E+00  0.0000E+00  2.9000E-04  1.5260E-05  3.8950E-04  0.0000E+00
 36  0.0000E+00  1.5824E-04  0.0000E+00  1.1314E-03  2.8456E-04  0.0000E+00  2.4581E-04  0.0000E+00  3.8091E-05
 37  0.0000E+00  4.1430E-04  0.0000E+00  0.0000E+00  0.0000E+00  1.3409E-04  2.0463E-04  1.9232E-03  0.0000E+00
 38  3.2362E-03  8.9599E-04  0.0000E+00  0.0000E+00  1.2305E-03  1.7058E-03  1.1176E-03  0.0000E+00  1.2720E-03
 39  0.0000E+00  3.9944E-04  4.1940E-05  0.0000E+00  2.6602E-03  0.0000E+00  8.9051E-04  0.0000E+00  0.0000E+00
 40  0.0000E+00  7.8785E-04  0.0000E+00  0.0000E+00  6.4871E-03  0.0000E+00  0.0000E+00  0.0000E+00  0.0000E+00
 41  6.2497E-03  8.1149E-04  0.0000E+00  0.0000E+00  0.0000E+00  9.5901E-03  0.0000E+00  0.0000E+00  0.0000E+00
 42  0.0000E+00  1.8706E-03  8.5510E-03  0.0000E+00  7.8436E-04  5.3299E-03  0.0000E+00  1.2074E-03  2.6394E-04
 43  0.0000E+00  3.1628E-03  0.0000E+00  0.0000E+00  1.0291E-02  0.0000E+00  0.0000E+00  7.8614E-03  0.0000E+00
 44  0.0000E+00  1.5591E-02  3.3815E-02  1.6287E-02  6.6070E-03  0.0000E+00  3.7779E-02  2.1052E-03  1.1568E-01
 45  5.4760E-01  4.8897E-01  4.1628E-01  4.8312E-01  4.7426E-01  4.3506E-01  4.9843E-01  4.9810E-01  4.5575E-01
 46  9.6344E-01  9.3611E-01  9.6428E-01  1.0106E+00  8.8810E-01  8.8084E-01  9.2049E-01  9.7015E-01  9.6503E-01
 47  9.5202E-01  1.2717E+00  1.2619E+00  1.0870E+00  1.2380E+00  1.2475E+00  1.2217E+00  1.2064E+00  1.1829E+00
 48  0.0000E+00  1.8974E-02  0.0000E+00  3.4228E-02  0.0000E+00  0.0000E+00  0.0000E+00  0.0000E+00  0.0000E+00
 49  0.0000E+00  1.8070E-02  0.0000E+00  0.0000E+00  2.3776E-02  0.0000E+00  0.0000E+00  0.0000E+00  4.0388E-02
 50  1.0785E-03  2.5371E-02  0.0000E+00  0.0000E+00  0.0000E+00  1.0758E-01  2.6020E-02  0.0000E+00  0.0000E+00
 51  0.0000E+00  1.8585E-04  8.6449E-05  1.8233E-04  1.9513E-04  0.0000E+00  3.3759E-04  2.4931E-04  0.0000E+00
 52  2.1722E-04  3.5696E-05  1.4831E-04  0.0000E+00  1.8111E-05  1.0594E-04  0.0000E+00  0.0000E+00  0.0000E+00
 53  0.0000E+00  3.5353E-05  0.0000E+00  0.0000E+00  0.0000E+00  3.8864E-06  0.0000E+00  0.0000E+00  6.9110E-06
 54  3.9089E-04  6.1497E-05  2.2531E-04  0.0000E+00  1.8659E-04  1.0168E-04  1.9917E-04  8.8989E-05  6.3195E-05
 55  0.0000E+00  2.7743E-05  0.0000E+00  0.0000E+00  0.0000E+00  0.0000E+00  8.3427E-05  0.0000E+00  0.0000E+00
 56  7.2874E-04  3.2320E-04  1.2138E-04  3.8232E-04  0.0000E+00  4.6468E-04  9.0620E-04  3.4127E-04  1.2071E-03
 57  0.0000E+00  8.4996E-05  5.3186E-05  0.0000E+00  0.0000E+00  5.9468E-05  2.4445E-04  0.0000E+00  0.0000E+00
 58  0.0000E+00  2.0783E-04  2.2975E-04  0.0000E+00  0.0000E+00  1.0738E-04  2.7566E-05  1.3600E-04  2.8871E-05
 59  0.0000E+00  2.3528E-04  0.0000E+00  0.0000E+00  3.9140E-04  1.1635E-04  0.0000E+00  4.5692E-04  1.8291E-04
 60  0.0000E+00  1.3065E-04  0.0000E+00  0.0000E+00  0.0000E+00  0.0000E+00  9.2492E-04  0.0000E+00  0.0000E+00
 61  0.0000E+00  1.2197E-04  9.5537E-04  0.0000E+00  0.0000E+00  0.0000E+00  0.0000E+00  0.0000E+00  0.0000E+00
 62  0.0000E+00  2.3818E-04  1.1296E-03  0.0000E+00  1.5720E-04  0.0000E+00  1.2446E-04  0.0000E+00  0.0000E+00
 63  0.0000E+00  3.1203E-04  0.0000E+00  7.6183E-04  1.2152E-03  0.0000E+00  0.0000E+00  0.0000E+00  1.3164E-03
 64  0.0000E+00  5.4015E-04  0.0000E+00  0.0000E+00  4.1641E-04  2.1978E-03  0.0000E+00  0.0000E+00  1.5433E-03
 65  0.0000E+00  1.2924E-03  0.0000E+00  4.3942E-03  0.0000E+00  3.3642E-03  0.0000E+00  2.1050E-03  0.0000E+00
 66  0.0000E+00  1.9214E-03  0.0000E+00  0.0000E+00  0.0000E+00  0.0000E+00  0.0000E+00  0.0000E+00  0.0000E+00
 67  0.0000E+00  2.5349E-03  0.0000E+00  6.0885E-03  0.0000E+00  3.8715E-03  0.0000E+00  0.0000E+00  0.0000E+00
 68  0.0000E+00  4.8809E-03  0.0000E+00  0.0000E+00  0.0000E+00  3.1135E-03  0.0000E+00  0.0000E+00  0.0000E+00
 69  0.0000E+00  1.2204E-02  0.0000E+00  2.1672E-02  0.0000E+00  0.0000E+00  0.0000E+00  0.0000E+00  0.0000E+00
 70  0.0000E+00  1.3450E-02  0.0000E+00  4.6010E-02  0.0000E+00  0.0000E+00  0.0000E+00  0.0000E+00  0.0000E+00
 71  0.0000E+00  1.3827E-02  0.0000E+00  0.0000E+00  0.0000E+00  0.0000E+00  0.0000E+00  0.0000E+00  4.8414E-03
 72  0.0000E+00  2.0421E-02  0.0000E+00  1.1718E-02  0.0000E+00  0.0000E+00  2.9218E-03  0.0000E+00  0.0000E+00
 73  0.0000E+00  3.0522E-02  0.0000E+00  0.0000E+00  0.0000E+00  0.0000E+00  0.0000E+00  0.0000E+00  0.0000E+00
 74  0.0000E+00  3.5295E-02  0.0000E+00  0.0000E+00  0.0000E+00  0.0000E+00  0.0000E+00  9.2357E-02  0.0000E+00
 75  0.0000E+00  3.4929E-02  0.0000E+00  0.0000E+00  0.0000E+00  6.9223E-02  0.0000E+00  0.0000E+00  0.0000E+00
 76  0.0000E+00  5.7921E-05  0.0000E+00  0.0000E+00  0.0000E+00  0.0000E+00  0.0000E+00  0.0000E+00  0.0000E+00
 77  8.5553E-05  7.0471E-05  0.0000E+00  8.9049E-05  8.5138E-05  1.8343E-04  0.0000E+00  0.0000E+00  2.1588E-04
 78  0.0000E+00  3.7646E-05  2.2234E-05  3.5405E-05  4.4056E-05  0.0000E+00  6.8145E-06  6.4958E-05  0.0000E+00
 79  0.0000E+00  6.6952E-05  2.1149E-04  2.1650E-04  0.0000E+00  0.0000E+00  1.1051E-04  0.0000E+00  4.7662E-05
 80  0.0000E+00  3.1869E-05  0.0000E+00  0.0000E+00  7.0062E-05  1.4375E-05  0.0000E+00  0.0000E+00  0.0000E+00
 81  0.0000E+00  5.2736E-05  0.0000E+00  1.3125E-04  0.0000E+00  1.0918E-04  1.2971E-04  1.9784E-05  0.0000E+00
 82  0.0000E+00  2.1703E-05  0.0000E+00  0.0000E+00  0.0000E+00  0.0000E+00  0.0000E+00  0.0000E+00  0.0000E+00
 83  0.0000E+00  1.4646E-04  0.0000E+00  0.0000E+00  1.4254E-04  0.0000E+00  6.8984E-04  0.0000E+00  0.0000E+00
 84  0.0000E+00  2.0427E-04  0.0000E+00  0.0000E+00  0.0000E+00  0.0000E+00  0.0000E+00  0.0000E+00  0.0000E+00
 85  0.0000E+00  2.8518E-04  0.0000E+00  4.4366E-04  0.0000E+00  0.0000E+00  3.1676E-04  0.0000E+00  4.7627E-04
 86  4.7726E-05  3.6440E-04  0.0000E+00  0.0000E+00  0.0000E+00  1.2096E-03  0.0000E+00  0.0000E+00  1.2210E-03
 87  0.0000E+00  1.9453E-04  5.9959E-05  0.0000E+00  0.0000E+00  0.0000E+00  0.0000E+00  0.0000E+00  0.0000E+00
 88  0.0000E+00  3.7097E-04  2.1495E-04  0.0000E+00  1.2059E-03  0.0000E+00  5.3959E-04  0.0000E+00  0.0000E+00
 89  0.0000E+00  3.6171E-04  0.0000E+00  6.3603E-04  0.0000E+00  0.0000E+00  0.0000E+00  0.0000E+00  0.0000E+00
 90  0.0000E+00  1.6280E-03  0.0000E+00  0.0000E+00  2.3286E-04  0.0000E+00  1.0519E-02  0.0000E+00  0.0000E+00
 91  0.0000E+00  3.1572E-03  0.0000E+00  0.0000E+00  0.0000E+00  1.4635E-03  6.8297E-03  0.0000E+00  8.6315E-03
 92  0.0000E+00  2.9614E-03  0.0000E+00  0.0000E+00  0.0000E+00  3.4538E-05  0.0000E+00  0.0000E+00  5.6239E-03
 93  0.0000E+00  9.9268E-03  0.0000E+00  2.1313E-02  0.0000E+00  0.0000E+00  0.0000E+00  0.0000E+00  4.0883E-02
 94  0.0000E+00  2.6978E-02  1.3398E-01  1.2402E-02  2.8613E-02  3.3048E-02  0.0000E+00  3.7747E-02  8.9330E-03
 95  6.7452E-02  7.4298E-02  6.6371E-02  1.6858E-01  1.3480E-01  3.7779E-01  2.3655E-01  1.0228E-01  1.0044E-01
 96  0.0000E+00  8.3675E-02  9.3226E-02  0.0000E+00  0.0000E+00  0.0000E+00  4.8933E-02  9.9413E-02  0.0000E+00
 97  2.8958E-02  1.1071E-01  0.0000E+00  0.0000E+00  1.3960E-01  1.2515E-01  2.3467E-01  0.0000E+00  2.5841E-01
 98  0.0000E+00  1.7645E-01  3.3302E-02  4.9332E-01  7.4358E-02  8.9532E-02  2.0346E-01  1.4397E-01  5.9139E-02
 99  0.0000E+00  1.6838E-01  0.0000E+00  3.8761E-01  2.2613E-01  0.0000E+00  1.1262E-01  0.0000E+00  2.8515E-01
100  0.0000E+00  1.3704E-01  3.0416E-01  8.8545E-02  4.4052E-01  0.0000E+00  7.0688E-02  0.0000E+00  2.4151E-01
101  0.0000E+00  3.6373E-05  0.0000E+00  0.0000E+00  0.0000E+00  0.0000E+00  0.0000E+00  0.0000E+00  0.0000E+00
102  0.0000E+00  1.3555E-05  0.0000E+00  0.0000E+00  0.0000E+00  5.6367E-05  0.0000E+00  0.0000E+00  7.7467E-05
103  5.3242E-05  2.1876E-05  0.0000E+00  1.0995E-05  0.0000E+00  8.8343E-05  0.0000E+00  2.8480E-05  0.0000E+00
104  5.3946E-05  6.5353E-05  1.0178E-04  3.3597E-05  8.5643E-05  1.9171E-04  1.4249E-04  1.7653E-04  5.8110E-06
105  0.0000E+00  5.8860E-05  0.0000E+00  0.0000E+00  0.0000E+00  5.7415E-05  0.0000E+00  2.2045E-04  1.7175E-04
106  0.0000E+00  2.3306E-04  0.0000E+00  2.7341E-04  1.0844E-03  0.0000E+00  3.1419E-04  3.8948E-04  2.5883E-04
107  0.0000E+00  1.2533E-04  0.0000E+00  0.0000E+00  0.0000E+00  3.3968E-05  0.0000E+00  0.0000E+00  6.5288E-05
108  0.0000E+00  1.0032E-04  0.0000E+00  0.0000E+00  0.0000E+00  0.0000E+00  0.0000E+00  0.0000E+00  7.3713E-04
109  0.0000E+00  1.6453E-04  5.7150E-05  0.0000E+00  0.0000E+00  5.1702E-04  0.0000E+00  0.0000E+00  0.0000E+00
110  0.0000E+00  2.7794E-04  0.0000E+00  3.3684E-04  0.0000E+00  0.0000E+00  3.4969E-04  8.5745E-05  3.7485E-04
111  0.0000E+00  1.3558E-04  0.0000E+00  0.0000E+00  0.0000E+00  0.0000E+00  0.0000E+00  8.3023E-04  0.0000E+00
112  0.0000E+00  4.0099E-04  5.4230E-04  1.2635E-03  2.6158E-03  0.0000E+00  0.0000E+00  0.0000E+00  0.0000E+00
113  0.0000E+00  2.6151E-04  0.0000E+00  1.6674E-03  0.0000E+00  0.0000E+00  0.0000E+00  0.0000E+00  0.0000E+00
114  0.0000E+00  3.2779E-04  0.0000E+00  0.0000E+00  0.0000E+00  0.0000E+00  0.0000E+00  0.0000E+00  0.0000E+00
115  0.0000E+00  1.3657E-03  1.2700E-02  0.0000E+00  0.0000E+00  4.6630E-03  0.0000E+00  0.0000E+00  0.0000E+00
116  5.7374E-04  3.2484E-03  0.0000E+00  0.0000E+00  0.0000E+00  2.3052E-02  0.0000E+00  0.0000E+00  0.0000E+00
117  0.0000E+00  5.4197E-03  0.0000E+00  0.0000E+00  0.0000E+00  0.0000E+00  0.0000E+00  1.2787E-02  0.0000E+00
118  0.0000E+00  2.1171E-02  1.5464E-02  0.0000E+00  1.0231E-02  1.4076E-02  2.1057E-02  5.4720E-03  0.0000E+00
119  0.0000E+00  5.4492E-02  0.0000E+00  0.0000E+00  0.0000E+00  0.0000E+00  0.0000E+00  0.0000E+00  3.5020E-02
120  4.7199E-03  8.2479E-02  6.1107E-02  9.4554E-02  0.0000E+00  1.4725E-01  0.0000E+00  0.0000E+00  0.0000E+00
121  1.5933E-02  1.4089E-01  0.0000E+00  9.7685E-03  7.6043E-03  8.0040E-02  0.0000E+00  3.4718E-01  0.0000E+00
122  3.8086E+00  4.0808E+00  3.8532E+00  3.7012E+00  4.8448E+00  3.9350E+00  4.7638E+00  3.4927E+00  4.1578E+00
123  9.7624E+00  9.1791E+00  9.5363E+00  9.6307E+00  9.0946E+00  9.6233E+00  9.0992E+00  9.4344E+00  9.1849E+00
124  1.5748E+01  1.5496E+01  1.5749E+01  1.5225E+01  1.5553E+01  1.5500E+01  1.5610E+01  1.5306E+01  1.5745E+01
125  4.7476E+01  4.5050E+01  4.5279E+01  4.4877E+01  4.4149E+01  4.5313E+01  4.5441E+01  4.6246E+01  4.4820E+01
126  0.0000E+00  3.1641E-05  0.0000E+00  0.0000E+00  2.4821E-05  2.0874E-05  0.0000E+00  0.0000E+00  0.0000E+00
127  0.0000E+00  9.8341E-06  0.0000E+00  5.2698E-06  0.0000E+00  1.4358E-06  0.0000E+00  0.0000E+00  1.5429E-06
128  0.0000E+00  4.4213E-05  0.0000E+00  8.5973E-05  0.0000E+00  0.0000E+00  1.2695E-04  7.1804E-05  6.5116E-05
129  0.0000E+00  7.4870E-05  2.2212E-04  0.0000E+00  8.4835E-05  6.8914E-05  2.4667E-05  4.8006E-04  0.0000E+00
130  0.0000E+00  8.2977E-05  0.0000E+00  1.2370E-04  0.0000E+00  0.0000E+00  1.1343E-04  0.0000E+00  5.3934E-05
131  0.0000E+00  1.0963E-04  4.1650E-05  0.0000E+00  8.9668E-05  0.0000E+00  0.0000E+00  3.2562E-04  0.0000E+00
132  0.0000E+00  9.0691E-05  0.0000E+00  3.3530E-04  5.0522E-04  0.0000E+00  0.0000E+00  0.0000E+00  0.0000E+00
133  0.0000E+00  1.3877E-04  0.0000E+00  0.0000E+00  6.7396E-04  0.0000E+00  2.3516E-04  0.0000E+00  4.8514E-04
134  0.0000E+00  1.2923E-04  0.0000E+00  0.0000E+00  0.0000E+00  0.0000E+00  1.5023E-05  4.2938E-05  2.6229E-04
135  0.0000E+00  1.3621E-04  0.0000E+00  0.0000E+00  0.0000E+00  0.0000E+00  0.0000E+00  0.0000E+00  0.0000E+00
136  0.0000E+00  5.2442E-04  0.0000E+00  0.0000E+00  0.0000E+00  0.0000E+00  5.6419E-04  1.8456E-03  0.0000E+00
137  0.0000E+00  2.4464E-04  0.0000E+00  0.0000E+00  0.0000E+00  0.0000E+00  0.0000E+00  1.4050E-03  1.7309E-03
138  0.0000E+00  3.7777E-04  0.0000E+00  0.0000E+00  0.0000E+00  0.0000E+00  0.0000E+00  0.0000E+00  0.0000E+00
139  0.0000E+00  4.9823E-04  0.0000E+00  0.0000E+00  0.0000E+00  0.0000E+00  6.2223E-03  0.0000E+00  0.0000E+00
140  0.0000E+00  3.0217E-03  2.4511E-02  5.6647E-03  0.0000E+00  0.0000E+00  0.0000E+00  0.0000E+00  0.0000E+00
141  7.4088E-05  4.8971E-03  0.0000E+00  0.0000E+00  0.0000E+00  4.5391E-02  0.0000E+00  0.0000E+00  0.0000E+00
142  0.0000E+00  9.2442E-03  0.0000E+00  0.0000E+00  0.0000E+00  0.0000E+00  0.0000E+00  8.3549E-03  0.0000E+00
143  0.0000E+00  3.5544E-02  0.0000E+00  0.0000E+00  1.3924E-01  0.0000E+00  4.1970E-03  0.0000E+00  3.4801E-02
144  6.1513E-01  2.7794E-01  2.0492E-01  2.2887E-01  2.1804E-01  4.8819E-01  1.0885E-01  5.2773E-01  2.7696E-01
145  1.5666E+00  6.4143E-01  7.1330E-01  5.9829E-01  7.8677E-01  1.5000E+00  7.0777E-01  7.1213E-01  8.5257E-01
146  1.6316E+00  3.4428E-01  5.2055E-02  6.6165E-01  3.7821E-01  6.8930E-01  6.2607E-01  0.0000E+00  4.1120E-01
147  0.0000E+00  2.7402E-01  0.0000E+00  1.2327E-01  6.9991E-01  0.0000E+00  1.9267E-01  2.5461E-01  0.0000E+00
148  1.2505E+00  1.0509E+00  1.0098E+00  0.0000E+00  1.3052E+00  1.1555E+00  6.0314E-01  1.1381E+00  1.0482E+00
149  7.3198E+00  8.5448E+00  8.7800E+00  9.4523E+00  8.5594E+00  7.5757E+00  8.5630E+00  8.4861E+00  8.1634E+00
150  8.0797E+00  1.0789E+01  1.1108E+01  1.1372E+01  1.0376E+01  1.0388E+01  1.0464E+01  1.0442E+01  1.1346E+01

# AV, chi2 & Mass for <> & i_chain = 1 ...  7 solutions
AV       1.6885      1.6844      1.6882      1.6855      1.6863      1.6886      1.6863      1.6829      1.6854
chi2 2.3305E+00  2.3653E+00  2.3574E+00  2.3573E+00  2.3598E+00  2.3560E+00  2.3580E+00  2.3580E+00  2.3604E+00
Mass 1.4410E-09  1.4507E-09  1.4688E-09  1.4635E-09  1.4529E-09  1.4420E-09  1.4547E-09  1.4560E-09  1.4552E-09
 -33.84                                  [v0_min (km/s) before EX0s...]
 104.96                                  [vd_min (km/s) before EX0s...]


## Synthetic spectrum (Best Model) ##l_obs f_obs f_syn wei
 3070    [Nl_obs]
 3359.00    0.26439   0.36941   -1.000
 3360.00    0.26493   0.35912   -1.000
 3361.00    0.26729   0.36951   -1.000
 3362.00    0.25188   0.39372   -1.000
 3363.00    0.24632   0.41852   -1.000
 3364.00    0.25785   0.43139   -1.000
 3365.00    0.28534   0.42779   -1.000
 3366.00    0.29042   0.41255   -1.000
 3367.00    0.30203   0.39397   -1.000
 3368.00    0.29677   0.37800   -1.000
 3369.00    0.28025   0.36701   -1.000
 3370.00    0.31250   0.36179   -1.000
 3371.00    0.29362   0.36417   -1.000
 3372.00    0.27237   0.37627   -1.000
 3373.00    0.26250   0.39718   -1.000
 3374.00    0.29858   0.42154   -1.000
 3375.00    0.33067   0.44118   -1.000
 3376.00    0.32575   0.44855   -1.000
 3377.00    0.31183   0.44176   -1.000
 3378.00    0.32652   0.42689   -1.000
 3379.00    0.32267   0.41415   -1.000
 3380.00    0.30482   0.41093   -1.000
 3381.00    0.31177   0.41749   -1.000
 3382.00    0.29574   0.42895   -1.000
 3383.00    0.29520   0.44051   -1.000
 3384.00    0.30803   0.44974   -1.000
 3385.00    0.32886   0.45539   -1.000
 3386.00    0.34197   0.45700   -1.000
 3387.00    0.36076   0.45574   -1.000
 3388.00    0.35169   0.45331   -1.000
 3389.00    0.36255   0.44942   -1.000
 3390.00    0.36728   0.44234   41.057
 3391.00    0.35162   0.43328   -1.000
 3392.00    0.34571   0.42779   -1.000
 3393.00    0.33428   0.43115   -1.000
 3394.00    0.34380   0.44354   -1.000
 3395.00    0.34495   0.46042   -1.000
 3396.00    0.38390   0.47718   -1.000
 3397.00    0.40739   0.49136   32.579
 3398.00    0.42872   0.50085   32.233
 3399.00    0.42835   0.50355   32.645
 3400.00    0.41565   0.49888   33.999
 3401.00    0.40541   0.48846   34.354
 3402.00    0.40278   0.47593   34.967
 3403.00    0.40689   0.46473   35.599
 3404.00    0.41028   0.45590   36.135
 3405.00    0.43452   0.44860   36.335
 3406.00    0.40644   0.44253   36.889
 3407.00    0.43344   0.43926   37.037
 3408.00    0.42335   0.44047   36.702
 3409.00    0.40435   0.44460   35.657
 3410.00    0.38319   0.44596   35.581
 3411.00    0.39995   0.43948   37.074
 3412.00    0.44024   0.42662   37.655
 3413.00    0.43776   0.41511   37.461
 3414.00    0.43555   0.41327   36.434
 3415.00    0.43765   0.42395   34.835
 3416.00    0.42947   0.44343   33.169
 3417.00    0.42329   0.46535   31.660
 3418.00    0.43326   0.48412   31.547
 3419.00    0.44891   0.49522   31.372
 3420.00    0.46991   0.49534   31.653
 3421.00    0.49215   0.48527   32.575
 3422.00    0.45688   0.47165   33.113
 3423.00    0.43456   0.46224   32.144
 3424.00    0.45547   0.45992   31.375
 3425.00    0.45470   0.46335   34.773
 3426.00    0.46471   0.47123  288.032
 3427.00    0.48249   0.48348  288.032
 3428.00    0.48310   0.49742   -1.000
 3429.00    0.50613   0.50546  288.032
 3430.00    0.48081   0.50125  151.647
 3431.00    0.45984   0.48735   31.342
 3432.00    0.47236   0.47374   34.827
 3433.00    0.43623   0.46871   -1.000
 3434.00    0.43198   0.47109   -1.000
 3435.00    0.44092   0.47238   31.311
 3436.00    0.44904   0.46509   32.843
 3437.00    0.43905   0.44722   34.903
 3438.00    0.42502   0.42183   37.537
 3439.00    0.41695   0.39500   38.855
 3440.00    0.39356   0.37357   38.875
 3441.00    0.38398   0.36282   38.528
 3442.00    0.39158   0.36414   36.905
 3443.00    0.39500   0.37445   34.872
 3444.00    0.42071   0.38940   33.034
 3445.00    0.43533   0.40667   36.084
 3446.00    0.43527   0.42580   -1.000
 3447.00    0.44095   0.44609  288.032
 3448.00    0.45659   0.46420  288.032
 3449.00    0.48074   0.47417  288.032
 3450.00    0.47827   0.47292  288.032
 3451.00    0.46497   0.46513  288.032
 3452.00    0.48063   0.45957   -1.000
 3453.00    0.50518   0.46086   -1.000
 3454.00    0.48122   0.46562   -1.000
 3455.00    0.49313   0.46618   -1.000
 3456.00    0.47023   0.45800  140.136
 3457.00    0.46336   0.44295   31.290
 3458.00    0.46058   0.42694   31.632
 3459.00    0.45757   0.41579   35.745
 3460.00    0.46390   0.41332   -1.000
 3461.00    0.43703   0.42086   -1.000
 3462.00    0.44051   0.43475  284.147
 3463.00    0.46287   0.44669   -1.000
 3464.00    0.47213   0.45158   -1.000
 3465.00    0.48828   0.45281   -1.000
 3466.00    0.49044   0.45724   -1.000
 3467.00    0.48813   0.46769   -1.000
 3468.00    0.49988   0.48048   -1.000
 3469.00    0.50363   0.48858   -1.000
 3470.00    0.50698   0.48644   -1.000
 3471.00    0.50598   0.47293   -1.000
 3472.00    0.50282   0.45138   -1.000
 3473.00    0.48581   0.42788   31.660
 3474.00    0.45767   0.40962   32.583
 3475.00    0.43771   0.40289   36.662
 3476.00    0.45599   0.40984   -1.000
 3477.00    0.45409   0.42648   -1.000
 3478.00    0.46439   0.44527   -1.000
 3479.00    0.51395   0.45933   -1.000
 3480.00    0.52763   0.46498   -1.000
 3481.00    0.49989   0.46254   -1.000
 3482.00    0.46488   0.45649  272.767
 3483.00    0.47077   0.45364   -1.000
 3484.00    0.49832   0.45852   -1.000
 3485.00    0.50084   0.46888   -1.000
 3486.00    0.49690   0.47654   -1.000
 3487.00    0.48347   0.47350   -1.000
 3488.00    0.50346   0.45874   -1.000
 3489.00    0.52100   0.43974   -1.000
 3490.00    0.49059   0.42689   -1.000
 3491.00    0.47307   0.42561   -1.000
 3492.00    0.49834   0.43307   -1.000
 3493.00    0.49276   0.44155   -1.000
 3494.00    0.48307   0.44478   -1.000
 3495.00    0.47770   0.44317   -1.000
 3496.00    0.45358   0.44386   -1.000
 3497.00    0.45696   0.45386  260.193
 3498.00    0.47703   0.47232  249.136
 3499.00    0.50858   0.49126   -1.000
 3500.00    0.53104   0.50487   -1.000
 3501.00    0.53210   0.51381   -1.000
 3502.00    0.55215   0.51946   -1.000
 3503.00    0.55990   0.52030   -1.000
 3504.00    0.53969   0.51527   -1.000
 3505.00    0.54431   0.50692   -1.000
 3506.00    0.53612   0.49913   -1.000
 3507.00    0.53982   0.49244   -1.000
 3508.00    0.52156   0.48450   -1.000
 3509.00    0.51327   0.47411   -1.000
 3510.00    0.51732   0.46202   -1.000
 3511.00    0.51481   0.44948   -1.000
 3512.00    0.51438   0.43878   -1.000
 3513.00    0.47784   0.43463   -1.000
 3514.00    0.45726   0.44276   -1.000
 3515.00    0.46846   0.46391  250.162
 3516.00    0.49024   0.48975  248.349
 3517.00    0.51628   0.50761  256.472
 3518.00    0.52137   0.50918   -1.000
 3519.00    0.54509   0.49499   -1.000
 3520.00    0.52596   0.47199   -1.000
 3521.00    0.50534   0.44776   -1.000
 3522.00    0.50097   0.42638   31.411
 3523.00    0.46659   0.40968   32.315
 3524.00    0.45654   0.40106   38.053
 3525.00    0.43864   0.40516   -1.000
 3526.00    0.42938   0.42302  275.504
 3527.00    0.44291   0.44935  262.564
 3528.00    0.46349   0.47453  260.236
 3529.00    0.52321   0.49027   -1.000
 3530.00    0.53561   0.49511   -1.000
 3531.00    0.51307   0.49452   -1.000
 3532.00    0.49997   0.49521  258.091
 3533.00    0.50382   0.49978  252.856
 3534.00    0.52619   0.50659   -1.000
 3535.00    0.53787   0.51320   -1.000
 3536.00    0.54647   0.51938   -1.000
 3537.00    0.53561   0.52575  245.580
 3538.00    0.54987   0.53055   -1.000
 3539.00    0.53862   0.53095  252.550
 3540.00    0.54131   0.52719   -1.000
 3541.00    0.51007   0.52388   -1.000
 3542.00    0.50675   0.52551   -1.000
 3543.00    0.51765   0.53114   -1.000
 3544.00    0.52581   0.53559  253.798
 3545.00    0.53175   0.53516  258.746
 3546.00    0.52028   0.53108  259.400
 3547.00    0.52666   0.52729  258.578
 3548.00    0.52600   0.52554  257.748
 3549.00    0.51612   0.52375  262.228
 3550.00    0.51394   0.51855  270.391
 3551.00    0.51294   0.50869  277.570
 3552.00    0.51013   0.49685   -1.000
 3553.00    0.50498   0.48815   -1.000
 3554.00    0.49634   0.48582   -1.000
 3555.00    0.48109   0.48815  274.142
 3556.00    0.46228   0.49096   -1.000
 3557.00    0.45786   0.49204   -1.000
 3558.00    0.47083   0.49308   -1.000
 3559.00    0.46825   0.49711   -1.000
 3560.00    0.46308   0.50375   -1.000
 3561.00    0.46363   0.50733   -1.000
 3562.00    0.48050   0.50037  110.608
 3563.00    0.50523   0.48036   31.789
 3564.00    0.48329   0.45369   32.759
 3565.00    0.45916   0.43137   32.404
 3566.00    0.43020   0.41906   32.481
 3567.00    0.42760   0.41301   33.504
 3568.00    0.44134   0.40731   33.768
 3569.00    0.42447   0.40165   32.596
 3570.00    0.40481   0.40082   38.400
 3571.00    0.40170   0.40819  288.032
 3572.00    0.40637   0.42128   -1.000
 3573.00    0.43139   0.43451  288.032
 3574.00    0.46895   0.44366   -1.000
 3575.00    0.46143   0.44607   -1.000
 3576.00    0.45493   0.43996  112.161
 3577.00    0.45304   0.42522   33.107
 3578.00    0.42616   0.40443   35.596
 3579.00    0.41745   0.38306   37.181
 3580.00    0.40460   0.36736   37.387
 3581.00    0.38632   0.36039   37.705
 3582.00    0.37857   0.35995   38.730
 3583.00    0.37922   0.36088   39.860
 3584.00    0.38321   0.35990   39.841
 3585.00    0.36666   0.35863   37.775
 3586.00    0.37315   0.36208   35.801
 3587.00    0.38059   0.37443   33.728
 3588.00    0.39049   0.39605   38.721
 3589.00    0.41774   0.42289  286.972
 3590.00    0.44027   0.44790  278.488
 3591.00    0.46647   0.46518  277.127
 3592.00    0.49253   0.47494   -1.000
 3593.00    0.51017   0.48325   -1.000
 3594.00    0.49332   0.49593  250.088
 3595.00    0.47783   0.51314   -1.000
 3596.00    0.49770   0.53051   -1.000
 3597.00    0.53938   0.54451  234.787
 3598.00    0.54222   0.55376  239.535
 3599.00    0.55621   0.55552  251.659
 3600.00    0.56153   0.54627   -1.000
 3601.00    0.55156   0.52646   -1.000
 3602.00    0.53659   0.50196   -1.000
 3603.00    0.50931   0.48040   -1.000
 3604.00    0.48683   0.46593   -1.000
 3605.00    0.47204   0.45667   -1.000
 3606.00    0.47407   0.44799   -1.000
 3607.00    0.47772   0.43855   -1.000
 3608.00    0.46950   0.43254   -1.000
 3609.00    0.45111   0.43546   -1.000
 3610.00    0.46780   0.44820   -1.000
 3611.00    0.48972   0.46608   -1.000
 3612.00    0.50371   0.48383   -1.000
 3613.00    0.50838   0.49884  254.481
 3614.00    0.51708   0.50802  259.899
 3615.00    0.50093   0.50570  283.424
 3616.00    0.50169   0.48846  100.422
 3617.00    0.49105   0.46248   39.174
 3618.00    0.47044   0.44321   -1.000
 3619.00    0.46139   0.44356   -1.000
 3620.00    0.48348   0.46371   -1.000
 3621.00    0.52054   0.49352   -1.000
 3622.00    0.52823   0.52284  239.798
 3623.00    0.54164   0.54899  230.523
 3624.00    0.56791   0.57442  222.333
 3625.00    0.59368   0.59873  220.881
 3626.00    0.59020   0.61480   -1.000
 3627.00    0.59839   0.61266   -1.000
 3628.00    0.61034   0.58733   -1.000
 3629.00    0.58764   0.54512   -1.000
 3630.00    0.56076   0.50263   -1.000
 3631.00    0.52740   0.47622   -1.000
 3632.00    0.49488   0.47168   -1.000
 3633.00    0.50368   0.48364   -1.000
 3634.00    0.51774   0.50232   -1.000
 3635.00    0.51987   0.52141  241.656
 3636.00    0.53956   0.54059  231.470
 3637.00    0.55581   0.56113  225.593
 3638.00    0.56721   0.58065   -1.000
 3639.00    0.55719   0.59341   -1.000
 3640.00    0.58841   0.59448  242.264
 3641.00    0.60591   0.58326   -1.000
 3642.00    0.57507   0.56377  260.647
 3643.00    0.55337   0.54134   -1.000
 3644.00    0.54713   0.51948   -1.000
 3645.00    0.53559   0.49972   -1.000
 3646.00    0.52611   0.48402   -1.000
 3647.00    0.49408   0.47667   -1.000
 3648.00    0.49586   0.48221   -1.000
 3649.00    0.50529   0.50156  239.653
 3650.00    0.52591   0.53057  230.692
 3651.00    0.55495   0.56173  225.709
 3652.00    0.58541   0.58788  223.214
 3653.00    0.59912   0.60652  222.015
 3654.00    0.61860   0.62052  219.483
 3655.00    0.63276   0.63390  216.823
 3656.00    0.63904   0.64777  214.112
 3657.00    0.64060   0.65985   -1.000
 3658.00    0.64623   0.66690   -1.000
 3659.00    0.65859   0.66703  217.351
 3660.00    0.65537   0.66011  220.050
 3661.00    0.64691   0.64826  223.311
 3662.00    0.63191   0.63587  223.800
 3663.00    0.62817   0.62718  221.762
 3664.00    0.62261   0.62306  223.148
 3665.00    0.60848   0.62043   -1.000
 3666.00    0.62414   0.61500  230.645
 3667.00    0.62102   0.60579  234.500
 3668.00    0.61278   0.59725   -1.000
 3669.00    0.60243   0.59625  223.141
 3670.00    0.59834   0.60521  219.715
 3671.00    0.61760   0.61929  219.190
 3672.00    0.63455   0.63092  219.300
 3673.00    0.64061   0.63490  221.496
 3674.00    0.64006   0.62929  228.507
 3675.00    0.65054   0.61422   -1.000
 3676.00    0.62396   0.59184   -1.000
 3677.00    0.61640   0.56704   -1.000
 3678.00    0.59489   0.54711   -1.000
 3679.00    0.56489   0.53867   -1.000
 3680.00    0.55764   0.54326   -1.000
 3681.00    0.56890   0.55559  232.056
 3682.00    0.59259   0.56631   -1.000
 3683.00    0.59693   0.56702   -1.000
 3684.00    0.56890   0.55510   -1.000
 3685.00    0.56911   0.53619   -1.000
 3686.00    0.56353   0.52223   -1.000
 3687.00    0.54210   0.52434   -1.000
 3688.00    0.54612   0.54547  218.686
 3689.00    0.56912   0.57817  214.498
 3690.00    0.59940   0.60848  217.469
 3691.00    0.63004   0.62421  222.747
 3692.00    0.65061   0.62321   -1.000
 3693.00    0.64957   0.61373   -1.000
 3694.00    0.62508   0.60637   -1.000
 3695.00    0.62016   0.60738  216.972
 3696.00    0.62836   0.61781  210.232
 3697.00    0.64157   0.63468  205.649
 3698.00    0.64737   0.65177  204.840
 3699.00    0.65433   0.66130  210.428
 3700.00    0.66753   0.65624  223.054
 3701.00    0.66232   0.63260   -1.000
 3702.00    0.63709   0.59258   -1.000
 3703.00    0.60342   0.54571   -1.000
 3704.00    0.57617   0.50488   -1.000
 3705.00    0.53944   0.47946   -1.000
 3706.00    0.51516   0.47126   -1.000
 3707.00    0.52738   0.47689   -1.000
 3708.00    0.52386   0.49360   -1.000
 3709.00    0.52718   0.52033  227.182
 3710.00    0.55568   0.55461  214.823
 3711.00    0.58610   0.59119  206.045
 3712.00    0.62542   0.62286  202.346
 3713.00    0.65739   0.64217  203.528
 3714.00    0.68118   0.64424   -1.000
 3715.00    0.68254   0.62789   -1.000
 3716.00    0.65125   0.59445   -1.000
 3717.00    0.61202   0.54762   -1.000
 3718.00    0.56764   0.49482   -1.000
 3719.00    0.51107   0.44794   42.996
 3720.00    0.45122   0.42078   -1.000
 3721.00    0.43394   0.42192   -1.000
 3722.00    0.46964   0.44864   -1.000
 3723.00    0.50606   0.48810   -1.000
 3724.00    0.55272   0.52367   -1.000
 3725.00    0.58864   0.54371   -1.000
 3726.00    0.60202   0.54836   -1.000
 3727.00    0.59741   0.54629   -1.000
 3728.00    0.57816   0.54319   -1.000
 3729.00    0.57450   0.53550   -1.000
 3730.00    0.57948   0.51515   -1.000
 3731.00    0.55287   0.47918   32.168
 3732.00    0.50943   0.43429   35.280
 3733.00    0.46522   0.39319   35.604
 3734.00    0.42089   0.36797   33.283
 3735.00    0.39445   0.36609   42.585
 3736.00    0.41479   0.38806   -1.000
 3737.00    0.44917   0.42780   -1.000
 3738.00    0.47087   0.47417  232.544
 3739.00    0.50407   0.51349  234.576
 3740.00    0.54633   0.53371   -1.000
 3741.00    0.56140   0.53042   -1.000
 3742.00    0.55819   0.50855   -1.000
 3743.00    0.54085   0.47874   -1.000
 3744.00    0.52111   0.45047   -1.000
 3745.00    0.48431   0.42722   32.168
 3746.00    0.45652   0.40799   33.724
 3747.00    0.45807   0.39353   -1.000
 3748.00    0.45179   0.38948   -1.000
 3749.00    0.42282   0.40281   -1.000
 3750.00    0.43495   0.43518  234.813
 3751.00    0.49719   0.48032   -1.000
 3752.00    0.55057   0.52781   -1.000
 3753.00    0.56460   0.56635  210.743
 3754.00    0.58604   0.58505  227.741
 3755.00    0.61115   0.57799   -1.000
 3756.00    0.60565   0.55036   -1.000
 3757.00    0.57394   0.51797   -1.000
 3758.00    0.53897   0.49715   -1.000
 3759.00    0.52014   0.49368   -1.000
 3760.00    0.51885   0.50103   -1.000
 3761.00    0.53821   0.50882   -1.000
 3762.00    0.54165   0.51156   -1.000
 3763.00    0.53204   0.50985   -1.000
 3764.00    0.53723   0.50607   -1.000
 3765.00    0.54576   0.50239   -1.000
 3766.00    0.56138   0.50141   -1.000
 3767.00    0.54736   0.50515   -1.000
 3768.00    0.55430   0.51372   -1.000
 3769.00    0.57900   0.52652   -1.000
 3770.00    0.59100   0.54314   -1.000
 3771.00    0.59575   0.56238   -1.000
 3772.00    0.61259   0.58104   -1.000
 3773.00    0.61593   0.59517   -1.000
 3774.00    0.63054   0.60352   -1.000
 3775.00    0.63935   0.60872   -1.000
 3776.00    0.62028   0.61484  208.873
 3777.00    0.62557   0.62433  202.504
 3778.00    0.64315   0.63686  198.952
 3779.00    0.65212   0.65003  197.704
 3780.00    0.65845   0.66095  196.949
 3781.00    0.66710   0.66733  198.578
 3782.00    0.67626   0.66675  205.251
 3783.00    0.68739   0.65594   -1.000
 3784.00    0.66890   0.63322   -1.000
 3785.00    0.64505   0.60161   -1.000
 3786.00    0.60614   0.56857   -1.000
 3787.00    0.56871   0.54282   -1.000
 3788.00    0.55645   0.53024   -1.000
 3789.00    0.55020   0.53029   -1.000
 3790.00    0.54065   0.53593  244.199
 3791.00    0.55015   0.53787   -1.000
 3792.00    0.55189   0.53034   -1.000
 3793.00    0.53047   0.51412   -1.000
 3794.00    0.50278   0.49360   -1.000
 3795.00    0.49971   0.47250   -1.000
 3796.00    0.50377   0.45382   -1.000
 3797.00    0.49829   0.44296   -1.000
 3798.00    0.48414   0.44759   -1.000
 3799.00    0.48231   0.47139  231.706
 3800.00    0.49919   0.50894  223.456
 3801.00    0.52138   0.54888   -1.000
 3802.00    0.55349   0.58018   -1.000
 3803.00    0.57887   0.59666   -1.000
 3804.00    0.58469   0.59823  232.783
 3805.00    0.57271   0.59078   -1.000
 3806.00    0.55576   0.58362   -1.000
 3807.00    0.55400   0.58421   -1.000
 3808.00    0.55614   0.59246   -1.000
 3809.00    0.56972   0.60059   -1.000
 3810.00    0.59666   0.59880  239.610
 3811.00    0.59680   0.58244   -1.000
 3812.00    0.56361   0.55506   -1.000
 3813.00    0.53013   0.52533  274.386
 3814.00    0.48607   0.50221   -1.000
 3815.00    0.46189   0.48985   -1.000
 3816.00    0.46329   0.48493   -1.000
 3817.00    0.46797   0.47941  288.032
 3818.00    0.47617   0.46867   -1.000
 3819.00    0.46756   0.45638   -1.000
 3820.00    0.44560   0.44950  279.466
 3821.00    0.44421   0.44950  288.032
 3822.00    0.45367   0.44951   76.552
 3823.00    0.45318   0.44254   32.871
 3824.00    0.43305   0.42967   33.206
 3825.00    0.41257   0.41774   32.812
 3826.00    0.40323   0.41251   32.273
 3827.00    0.39562   0.41443   32.084
 3828.00    0.40598   0.41926   32.886
 3829.00    0.42523   0.42099   34.818
 3830.00    0.43237   0.41538   37.014
 3831.00    0.42451   0.40246   37.415
 3832.00    0.41083   0.38682   36.349
 3833.00    0.39999   0.37482   35.118
 3834.00    0.38651   0.37037   34.922
 3835.00    0.39530   0.37279   35.732
 3836.00    0.41304   0.37816   36.030
 3837.00    0.41663   0.38396   34.809
 3838.00    0.42391   0.39191   49.839
 3839.00    0.42426   0.40645   -1.000
 3840.00    0.41910   0.43048  267.997
 3841.00    0.45035   0.46193  255.696
 3842.00    0.48355   0.49476  252.906
 3843.00    0.49564   0.52179   -1.000
 3844.00    0.50472   0.53924   -1.000
 3845.00    0.51190   0.54752   -1.000
 3846.00    0.50845   0.54875   -1.000
 3847.00    0.51151   0.54463   -1.000
 3848.00    0.50644   0.53762   -1.000
 3849.00    0.50854   0.53203   -1.000
 3850.00    0.50424   0.53155   -1.000
 3851.00    0.50005   0.53497   -1.000
 3852.00    0.50925   0.53702   -1.000
 3853.00    0.51866   0.53304   -1.000
 3854.00    0.49980   0.52261   -1.000
 3855.00    0.47382   0.50810   69.495
 3856.00    0.47807   0.49179   31.614
 3857.00    0.49572   0.47654   32.565
 3858.00    0.48730   0.46765   48.445
 3859.00    0.47167   0.47054  275.304
 3860.00    0.46799   0.48674   -1.000
 3861.00    0.47781   0.51027   -1.000
 3862.00    0.51697   0.53112   -1.000
 3863.00    0.54085   0.54192  255.043
 3864.00    0.53879   0.54282  259.316
 3865.00    0.52949   0.53904  266.479
 3866.00    0.51623   0.53455   -1.000
 3867.00    0.50448   0.52924   -1.000
 3868.00    0.50476   0.52092   69.682
 3869.00    0.50428   0.50943   47.940
 3870.00    0.49568   0.49956  288.032
 3871.00    0.48332   0.49787   -1.000
 3872.00    0.48174   0.50793   -1.000
 3873.00    0.49228   0.52588   -1.000
 3874.00    0.52569   0.54192   -1.000
 3875.00    0.56185   0.54579   -1.000
 3876.00    0.56452   0.53611   -1.000
 3877.00    0.53994   0.52109   -1.000
 3878.00    0.51283   0.50996  288.032
 3879.00    0.50253   0.50667  288.032
 3880.00    0.50114   0.50953  278.316
 3881.00    0.49969   0.51546   -1.000
 3882.00    0.50270   0.52145   -1.000
 3883.00    0.52302   0.52209  258.035
 3884.00    0.54722   0.51162   -1.000
 3885.00    0.53753   0.49147   -1.000
 3886.00    0.51473   0.47126   -1.000
 3887.00    0.52078   0.46382   -1.000
 3888.00    0.54129   0.47687   -1.000
 3889.00    0.55600   0.50906   -1.000
 3890.00    0.58815   0.55078   -1.000
 3891.00    0.64045   0.58915   -1.000
 3892.00    0.67195   0.61369   -1.000
 3893.00    0.66499   0.62287   -1.000
 3894.00    0.64962   0.62346   -1.000
 3895.00    0.64692   0.62285   -1.000
 3896.00    0.65472   0.62380   -1.000
 3897.00    0.66969   0.62476   -1.000
 3898.00    0.66499   0.62455   -1.000
 3899.00    0.64873   0.62470   -1.000
 3900.00    0.65360   0.62561   -1.000
 3901.00    0.65941   0.62479   -1.000
 3902.00    0.67491   0.61981   -1.000
 3903.00    0.67017   0.61184   -1.000
 3904.00    0.63678   0.60678   -1.000
 3905.00    0.60946   0.61094  205.675
 3906.00    0.61475   0.62746  195.575
 3907.00    0.65128   0.65311  192.273
 3908.00    0.68340   0.68060  190.538
 3909.00    0.71000   0.70296  189.007
 3910.00    0.72796   0.71778  189.314
 3911.00    0.73827   0.72561  192.334
 3912.00    0.75114   0.72733   -1.000
 3913.00    0.75190   0.72327   -1.000
 3914.00    0.74218   0.71429   -1.000
 3915.00    0.72207   0.70127   -1.000
 3916.00    0.71037   0.68435   -1.000
 3917.00    0.69936   0.66302   -1.000
 3918.00    0.68523   0.63807   -1.000
 3919.00    0.65929   0.61355   -1.000
 3920.00    0.63125   0.59474   -1.000
 3921.00    0.60556   0.58579   -1.000
 3922.00    0.59431   0.58530  235.335
 3923.00    0.59943   0.58650   -1.000
 3924.00    0.60484   0.58121   -1.000
 3925.00    0.60017   0.56389   70.742
 3926.00    0.58327   0.53489   36.832
 3927.00    0.52929   0.49816   43.155
 3928.00    0.46080   0.45891   50.720
 3929.00    0.39729   0.41981   59.773
 3930.00    0.33546   0.38111   68.023
 3931.00    0.31123   0.34468   70.223
 3932.00    0.31541   0.31664   64.242
 3933.00    0.31952   0.30625   54.434
 3934.00    0.32236   0.31866   44.834
 3935.00    0.33140   0.35128   37.223
 3936.00    0.36331   0.39599   54.550
 3937.00    0.41003   0.44466   -1.000
 3938.00    0.46299   0.48910   -1.000
 3939.00    0.51373   0.52383  266.206
 3940.00    0.55262   0.54597   -1.000
 3941.00    0.57006   0.55681   -1.000
 3942.00    0.56038   0.56237  240.559
 3943.00    0.54639   0.57123   -1.000
 3944.00    0.55618   0.58792   -1.000
 3945.00    0.59303   0.61046   -1.000
 3946.00    0.64681   0.63352   -1.000
 3947.00    0.68086   0.65365   -1.000
 3948.00    0.69660   0.67119   -1.000
 3949.00    0.72059   0.68660   -1.000
 3950.00    0.74475   0.69776   -1.000
 3951.00    0.74958   0.70465   -1.000
 3952.00    0.73681   0.70942   -1.000
 3953.00    0.73992   0.71246   -1.000
 3954.00    0.76014   0.71177   -1.000
 3955.00    0.75050   0.70577   -1.000
 3956.00    0.72303   0.69576   -1.000
 3957.00    0.71464   0.68297   -1.000
 3958.00    0.71370   0.66357   -1.000
 3959.00    0.69740   0.63232   -1.000
 3960.00    0.64798   0.59184   -1.000
 3961.00    0.57615   0.54961   64.448
 3962.00    0.51531   0.51297   34.794
 3963.00    0.47439   0.48106   41.705
 3964.00    0.44368   0.44657   51.327
 3965.00    0.41128   0.40503   60.185
 3966.00    0.36985   0.35940   61.423
 3967.00    0.33838   0.32141   53.736
 3968.00    0.32381   0.30372   44.173
 3969.00    0.33583   0.31309   36.616
 3970.00    0.37100   0.34694   55.273
 3971.00    0.41772   0.39765   -1.000
 3972.00    0.46988   0.45569   -1.000
 3973.00    0.53151   0.51463   -1.000
 3974.00    0.59987   0.57036   -1.000
 3975.00    0.65831   0.62153   -1.000
 3976.00    0.68793   0.66838   -1.000
 3977.00    0.71364   0.71030  177.238
 3978.00    0.76109   0.74553  176.780
 3979.00    0.80169   0.77003   -1.000
 3980.00    0.82136   0.78252   -1.000
 3981.00    0.82056   0.78589   -1.000
 3982.00    0.81189   0.78691   -1.000
 3983.00    0.81740   0.79202   -1.000
 3984.00    0.82334   0.80357   -1.000
 3985.00    0.82399   0.81994  165.542
 3986.00    0.83452   0.83744  165.015
 3987.00    0.85525   0.85188  164.874
 3988.00    0.87708   0.86094  162.459
 3989.00    0.88532   0.86650  158.548
 3990.00    0.88760   0.87240  157.410
 3991.00    0.90589   0.88015   -1.000
 3992.00    0.93123   0.88652   -1.000
 3993.00    0.94252   0.88648   -1.000
 3994.00    0.93566   0.87852   -1.000
 3995.00    0.90652   0.86692   -1.000
 3996.00    0.88131   0.86043   -1.000
 3997.00    0.88217   0.86553  156.363
 3998.00    0.89410   0.88273  152.446
 3999.00    0.92159   0.90561  150.175
 4000.00    0.95386   0.92558   -1.000
 4001.00    0.96912   0.93428   -1.000
 4002.00    0.98137   0.92638   -1.000
 4003.00    0.97951   0.90292   -1.000
 4004.00    0.93672   0.87577   -1.000
 4005.00    0.89061   0.86106   -1.000
 4006.00    0.86979   0.86793  152.320
 4007.00    0.89238   0.89223  150.552
 4008.00    0.94615   0.92042   -1.000
 4009.00    0.97507   0.94267   -1.000
 4010.00    0.97241   0.95698  150.745
 4011.00    0.97423   0.96600  150.603
 4012.00    0.98687   0.97295  148.935
 4013.00    1.00000   0.97914   -1.000
 4014.00    1.01819   0.98377   -1.000
 4015.00    1.02620   0.98613   -1.000
 4016.00    1.02441   0.98785   -1.000
 4017.00    1.01388   0.99145   -1.000
 4018.00    1.01451   0.99688  149.377
 4019.00    1.03459   1.00120   -1.000
 4020.00    1.04002   1.00068   -1.000
 4021.00    1.02334   0.99486   -1.000
 4022.00    1.00775   0.98644   -1.000
 4023.00    0.99746   0.97983  146.963
 4024.00    0.99735   0.97959  142.819
 4025.00    1.01471   0.98776   -1.000
 4026.00    1.04051   0.99911   -1.000
 4027.00    1.05968   1.00105   -1.000
 4028.00    1.05676   0.98163   -1.000
 4029.00    1.01427   0.94013   -1.000
 4030.00    0.94547   0.89055   -1.000
 4031.00    0.88274   0.85075   -1.000
 4032.00    0.85460   0.83399  155.890
 4033.00    0.85962   0.84521  148.126
 4034.00    0.87803   0.88196  141.884
 4035.00    0.92168   0.93367  139.171
 4036.00    0.98739   0.98546  140.468
 4037.00    1.04504   1.02200   -1.000
 4038.00    1.08122   1.03640   -1.000
 4039.00    1.08363   1.03164   -1.000
 4040.00    1.06719   1.01463   -1.000
 4041.00    1.05572   0.98602   -1.000
 4042.00    1.04067   0.94164   -1.000
 4043.00    0.99845   0.88474   -1.000
 4044.00    0.90577   0.83323   -1.000
 4045.00    0.81414   0.81273  153.334
 4046.00    0.80053   0.83546   -1.000
 4047.00    0.87618   0.88902  143.812
 4048.00    0.96675   0.94957  143.545
 4049.00    1.01573   0.99581  146.094
 4050.00    1.04152   1.01917   -1.000
 4051.00    1.05228   1.02118   -1.000
 4052.00    1.04025   1.00851   -1.000
 4053.00    1.01164   0.98855   -1.000
 4054.00    0.98630   0.96730  157.395
 4055.00    0.97674   0.94873   -1.000
 4056.00    0.95454   0.93633  153.266
 4057.00    0.92937   0.93379  148.948
 4058.00    0.92894   0.93963  148.878
 4059.00    0.94507   0.94363  155.784
 4060.00    0.96962   0.93275   -1.000
 4061.00    0.97403   0.90284   -1.000
 4062.00    0.92046   0.86710   -1.000
 4063.00    0.84267   0.84412  159.189
 4064.00    0.82376   0.84441   -1.000
 4065.00    0.87228   0.86579  150.490
 4066.00    0.92349   0.89651   -1.000
 4067.00    0.95378   0.92280   -1.000
 4068.00    0.98813   0.93438   -1.000
 4069.00    1.01084   0.92770   -1.000
 4070.00    0.99897   0.91042   -1.000
 4071.00    0.95104   0.89853   -1.000
 4072.00    0.93013   0.90003   -1.000
 4073.00    0.96003   0.90769   -1.000
 4074.00    0.97582   0.90653   -1.000
 4075.00    0.95161   0.89207   -1.000
 4076.00    0.89643   0.87801  165.190
 4077.00    0.86183   0.88198   -1.000
 4078.00    0.88928   0.91134   -1.000
 4079.00    0.94996   0.95566  145.591
 4080.00    1.00955   0.99602  149.524
 4081.00    1.04906   1.01716   -1.000
 4082.00    1.05583   1.01816   -1.000
 4083.00    1.03287   1.01125   -1.000
 4084.00    1.00775   1.01177  143.588
 4085.00    1.00652   1.02795   -1.000
 4086.00    1.03036   1.05550   -1.000
 4087.00    1.08137   1.08305  138.712
 4088.00    1.13008   1.09900   -1.000
 4089.00    1.14053   1.09914   -1.000
 4090.00    1.11746   1.08733   -1.000
 4091.00    1.08507   1.07081  145.831
 4092.00    1.07145   1.05230  150.729
 4093.00    1.07601   1.02978   -1.000
 4094.00    1.06974   1.00133   -1.000
 4095.00    1.02055   0.96905   -1.000
 4096.00    0.95628   0.93768  167.683
 4097.00    0.92757   0.90803   -1.000
 4098.00    0.91761   0.87639   -1.000
 4099.00    0.90284   0.84229   -1.000
 4100.00    0.86965   0.81456   -1.000
 4101.00    0.82824   0.80661  172.037
 4102.00    0.82614   0.82668  160.965
 4103.00    0.86315   0.86928  154.431
 4104.00    0.91477   0.92022  151.944
 4105.00    0.96709   0.96434  152.467
 4106.00    1.01605   0.99276   -1.000
 4107.00    1.03360   1.00401   -1.000
 4108.00    1.01396   1.00241  157.406
 4109.00    0.99106   0.99586  154.470
 4110.00    0.96360   0.99289   -1.000
 4111.00    0.94979   0.99858   -1.000
 4112.00    0.95482   1.01295   -1.000
 4113.00    0.97945   1.03115   -1.000
 4114.00    1.02534   1.04575   -1.000
 4115.00    1.04626   1.04989  153.308
 4116.00    1.04264   1.04177  156.661
 4117.00    1.03134   1.02610  156.301
 4118.00    1.01756   1.01121  154.469
 4119.00    0.99686   1.00401  153.860
 4120.00    0.99871   1.00558  153.024
 4121.00    1.01389   1.01293  150.733
 4122.00    1.00847   1.02297  149.252
 4123.00    1.01808   1.03344  150.199
 4124.00    1.03836   1.04120  152.964
 4125.00    1.05470   1.04235  155.155
 4126.00    1.04524   1.03524  156.122
 4127.00    1.01826   1.02172  157.569
 4128.00    0.99500   1.00376  161.268
 4129.00    0.97937   0.98144  166.439
 4130.00    0.96421   0.95647  168.976
 4131.00    0.94428   0.93512  165.871
 4132.00    0.91872   0.92800  158.592
 4133.00    0.91152   0.94180   -1.000
 4134.00    0.92739   0.97315   -1.000
 4135.00    0.96454   1.01150   -1.000
 4136.00    1.01361   1.04559   -1.000
 4137.00    1.04390   1.06779   -1.000
 4138.00    1.06459   1.07425  152.260
 4139.00    1.06685   1.06126  163.138
 4140.00    1.04986   1.02738   -1.000
 4141.00    1.01986   0.97978   -1.000
 4142.00    0.95238   0.93686  165.143
 4143.00    0.86664   0.91729   -1.000
 4144.00    0.84998   0.92731   -1.000
 4145.00    0.90909   0.95656   -1.000
 4146.00    0.96550   0.98561   -1.000
 4147.00    0.99790   1.00156  161.947
 4148.00    1.00504   1.00368  162.062
 4149.00    0.97878   0.99862   -1.000
 4150.00    0.94557   0.99238   -1.000
 4151.00    0.94029   0.98667   -1.000
 4152.00    0.94199   0.98106   -1.000
 4153.00    0.94038   0.97632   -1.000
 4154.00    0.96736   0.97554  160.492
 4155.00    1.10875   0.98266   -1.000
 4156.00    1.15993   0.99909   -1.000
 4157.00    0.90707   1.02291   -1.000
 4158.00    0.79988   1.04970   -1.000
 4159.00    0.95419   1.07440   -1.000
 4160.00    1.05135   1.09427   -1.000
 4161.00    1.05585   1.10762   -1.000
 4162.00    1.05282   1.11239   -1.000
 4163.00    1.05752   1.10652   -1.000
 4164.00    1.04313   1.09094   -1.000
 4165.00    1.01396   1.07098   -1.000
 4166.00    0.98752   1.05490   -1.000
 4167.00    0.96583   1.04661   -1.000
 4168.00    0.96718   1.04253   -1.000
 4169.00    0.98811   1.03398   -1.000
 4170.00    0.99263   1.01466   -1.000
 4171.00    0.95582   0.98886   -1.000
 4172.00    0.90023   0.96758   -1.000
 4173.00    0.87799   0.95988   -1.000
 4174.00    0.88970   0.96599   -1.000
 4175.00    0.92328   0.97901   -1.000
 4176.00    0.94998   0.99304   -1.000
 4177.00    0.94285   1.00601   -1.000
 4178.00    0.93717   1.01671   -1.000
 4179.00    0.95809   1.02403   -1.000
 4180.00    0.97192   1.02843   -1.000
 4181.00    0.96678   1.03365   -1.000
 4182.00    0.97654   1.04351   -1.000
 4183.00    1.00662   1.05475   -1.000
 4184.00    1.03882   1.05952   -1.000
 4185.00    1.05620   1.05325  162.793
 4186.00    1.02678   1.04085  159.858
 4187.00    0.98638   1.03322   -1.000
 4188.00    0.97830   1.03647   -1.000
 4189.00    1.00339   1.04856   -1.000
 4190.00    1.02738   1.06341   -1.000
 4191.00    1.03699   1.07564   -1.000
 4192.00    1.05463   1.08047   -1.000
 4193.00    1.07150   1.07236  165.986
 4194.00    1.04781   1.04855  169.861
 4195.00    0.97989   1.01492   -1.000
 4196.00    0.93480   0.98181   -1.000
 4197.00    0.93064   0.95801   -1.000
 4198.00    0.93112   0.94634  166.356
 4199.00    0.93761   0.94535  165.559
 4200.00    0.94049   0.95280  163.513
 4201.00    0.93883   0.96812   -1.000
 4202.00    0.94051   0.99233   -1.000
 4203.00    0.97038   1.02475   -1.000
 4204.00    1.02366   1.06075   -1.000
 4205.00    1.05241   1.09360   -1.000
 4206.00    1.08805   1.11810   -1.000
 4207.00    1.11706   1.13152  150.946
 4208.00    1.11783   1.13503  150.138
 4209.00    1.10981   1.13296   -1.000
 4210.00    1.07748   1.12858   -1.000
 4211.00    1.06764   1.12062   -1.000
 4212.00    1.07750   1.10458   -1.000
 4213.00    1.05836   1.08162   -1.000
 4214.00    1.01017   1.06406   -1.000
 4215.00    0.97302   1.06638   -1.000
 4216.00    0.99661   1.09389   -1.000
 4217.00    1.08471   1.13548   -1.000
 4218.00    1.16216   1.17278  139.777
 4219.00    1.18680   1.19024  143.905
 4220.00    1.19741   1.17941  152.543
 4221.00    1.18380   1.13798   -1.000
 4222.00    1.12827   1.06876   -1.000
 4223.00    1.04621   0.98099   -1.000
 4224.00    0.93472   0.89495   -1.000
 4225.00    0.82671   0.83654  179.947
 4226.00    0.74619   0.82800   -1.000
 4227.00    0.75145   0.87304   -1.000
 4228.00    0.87874   0.95275   -1.000
 4229.00    1.01314   1.03357   -1.000
 4230.00    1.10257   1.08891  150.333
 4231.00    1.15111   1.11050   -1.000
 4232.00    1.14629   1.10528   -1.000
 4233.00    1.11206   1.08767   -1.000
 4234.00    1.08312   1.07119  158.958
 4235.00    1.05484   1.06392  156.044
 4236.00    1.04126   1.06860   -1.000
 4237.00    1.05289   1.08466   -1.000
 4238.00    1.07293   1.10897   -1.000
 4239.00    1.09469   1.13787   -1.000
 4240.00    1.12675   1.16905   -1.000
 4241.00    1.15254   1.20050   -1.000
 4242.00    1.18377   1.22958   -1.000
 4243.00    1.22042   1.25090   -1.000
 4244.00    1.26369   1.25584  153.284
 4245.00    1.28108   1.23785   -1.000
 4246.00    1.23588   1.19905   -1.000
 4247.00    1.15848   1.15042  160.521
 4248.00    1.10016   1.10761  157.365
 4249.00    1.07019   1.08148  152.803
 4250.00    1.03616   1.07337   -1.000
 4251.00    1.02622   1.07560   -1.000
 4252.00    1.05336   1.07931   -1.000
 4253.00    1.06271   1.08345   -1.000
 4254.00    1.04574   1.09347   -1.000
 4255.00    1.05615   1.11093   -1.000
 4256.00    1.11503   1.12484  158.436
 4257.00    1.16342   1.12153   -1.000
 4258.00    1.14522   1.10228   -1.000
 4259.00    1.07796   1.08535  152.526
 4260.00    1.03276   1.09308   -1.000
 4261.00    1.03797   1.13225   -1.000
 4262.00    1.09643   1.18995   -1.000
 4263.00    1.18708   1.24328   -1.000
 4264.00    1.25433   1.27416   -1.000
 4265.00    1.28197   1.27623  148.617
 4266.00    1.26609   1.25063  153.931
 4267.00    1.22479   1.20166   -1.000
 4268.00    1.17345   1.13684   -1.000
 4269.00    1.10613   1.06624   -1.000
 4270.00    1.02210   1.00441  175.678
 4271.00    0.93356   0.96523   -1.000
 4272.00    0.89745   0.95654   -1.000
 4273.00    0.91862   0.97857   -1.000
 4274.00    0.95032   1.02526   -1.000
 4275.00    0.98969   1.08601   -1.000
 4276.00    1.06430   1.14630   -1.000
 4277.00    1.15982   1.18906   -1.000
 4278.00    1.22034   1.20548  156.736
 4279.00    1.20711   1.20078  155.270
 4280.00    1.16295   1.18884   -1.000
 4281.00    1.13383   1.18080   -1.000
 4282.00    1.11988   1.17703   -1.000
 4283.00    1.13908   1.17266   -1.000
 4284.00    1.14448   1.16304   -1.000
 4285.00    1.10587   1.14617   -1.000
 4286.00    1.07727   1.12096   -1.000
 4287.00    1.06417   1.08810   -1.000
 4288.00    1.02962   1.05441   -1.000
 4289.00    0.96914   1.03315   -1.000
 4290.00    0.94766   1.03483   -1.000
 4291.00    0.99203   1.05711   -1.000
 4292.00    1.06758   1.08482  161.625
 4293.00    1.11669   1.10210  165.023
 4294.00    1.11645   1.10119  171.935
 4295.00    1.08967   1.08137  184.958
 4296.00    1.05628   1.04455  199.705
 4297.00    1.02181   0.99631   -1.000
 4298.00    0.95548   0.94723  202.422
 4299.00    0.87232   0.91066   -1.000
 4300.00    0.83572   0.89438   -1.000
 4301.00    0.84904   0.89557   -1.000
 4302.00    0.87177   0.90413   -1.000
 4303.00    0.89046   0.90891   -1.000
 4304.00    0.90622   0.90245  207.168
 4305.00    0.90040   0.88308   -1.000
 4306.00    0.86037   0.85806  212.864
 4307.00    0.81733   0.84129   -1.000
 4308.00    0.79690   0.84620   -1.000
 4309.00    0.81915   0.87778   -1.000
 4310.00    0.87273   0.93213   -1.000
 4311.00    0.93747   1.00126   -1.000
 4312.00    1.00982   1.07941   -1.000
 4313.00    1.08188   1.16518   -1.000
 4314.00    1.15643   1.25440   -1.000
 4315.00    1.25110   1.33844   -1.000
 4316.00    1.37382   1.40315   -1.000
 4317.00    1.46625   1.43686   -1.000
 4318.00    1.48588   1.43787   -1.000
 4319.00    1.45136   1.41141   -1.000
 4320.00    1.38432   1.36227   -1.000
 4321.00    1.32126   1.29314   -1.000
 4322.00    1.26373   1.21042   -1.000
 4323.00    1.17105   1.13185   -1.000
 4324.00    1.04916   1.08476   -1.000
 4325.00    0.96718   1.09091   -1.000
 4326.00    0.99292   1.14978   -1.000
 4327.00    1.13590   1.23775   -1.000
 4328.00    1.29764   1.32081   -1.000
 4329.00    1.37205   1.37783  134.686
 4330.00    1.36995   1.40944   -1.000
 4331.00    1.36628   1.42680   -1.000
 4332.00    1.38366   1.43779   -1.000
 4333.00    1.40507   1.43775   -1.000
 4334.00    1.43146   1.41531  153.310
 4335.00    1.43829   1.36127   -1.000
 4336.00    1.37282   1.27942   -1.000
 4337.00    1.26493   1.18774   -1.000
 4338.00    1.14572   1.11437   -1.000
 4339.00    1.07167   1.08193  163.611
 4340.00    1.05274   1.09700   -1.000
 4341.00    1.10109   1.14961   -1.000
 4342.00    1.19066   1.21922   -1.000
 4343.00    1.26356   1.28633   -1.000
 4344.00    1.30801   1.34143   -1.000
 4345.00    1.34373   1.38437   -1.000
 4346.00    1.37073   1.41597   -1.000
 4347.00    1.37933   1.43284   -1.000
 4348.00    1.40408   1.42648   -1.000
 4349.00    1.42043   1.39271   -1.000
 4350.00    1.37560   1.34290   -1.000
 4351.00    1.25886   1.30032   -1.000
 4352.00    1.19459   1.28630   -1.000
 4353.00    1.22230   1.30470   -1.000
 4354.00    1.28222   1.34172   -1.000
 4355.00    1.33622   1.37828   -1.000
 4356.00    1.38176   1.40217   -1.000
 4357.00    1.40246   1.41311  137.930
 4358.00    1.39636   1.41912   -1.000
 4359.00    1.37106   1.43066   -1.000
 4360.00    1.37557   1.45148   -1.000
 4361.00    1.42531   1.47800   -1.000
 4362.00    1.46459   1.50273   -1.000
 4363.00    1.47743   1.51845   -1.000
 4364.00    1.50461   1.51986  137.087
 4365.00    1.51268   1.50438  139.546
 4366.00    1.46559   1.47581  138.854
 4367.00    1.39955   1.44511   -1.000
 4368.00    1.37165   1.42154   -1.000
 4369.00    1.37290   1.40554   -1.000
 4370.00    1.37867   1.39007  143.107
 4371.00    1.37152   1.36689  148.952
 4372.00    1.35363   1.33562  150.541
 4373.00    1.33060   1.30516   -1.000
 4374.00    1.27507   1.29012  138.636
 4375.00    1.26469   1.29933   -1.000
 4376.00    1.29124   1.32717   -1.000
 4377.00    1.33624   1.35404   -1.000
 4378.00    1.38511   1.35749   -1.000
 4379.00    1.39961   1.32379   -1.000
 4380.00    1.36289   1.25347   -1.000
 4381.00    1.27899   1.16338   -1.000
 4382.00    1.15271   1.08401   -1.000
 4383.00    1.00862   1.04583   -1.000
 4384.00    0.94627   1.06150   -1.000
 4385.00    1.02724   1.11844   -1.000
 4386.00    1.17420   1.18542  144.858
 4387.00    1.27114   1.23686   -1.000
 4388.00    1.29929   1.26613   -1.000
 4389.00    1.28493   1.28158  140.366
 4390.00    1.27442   1.29443   -1.000
 4391.00    1.29833   1.30938  142.993
 4392.00    1.33049   1.32616  143.396
 4393.00    1.34528   1.34482  138.135
 4394.00    1.32860   1.36799   -1.000
 4395.00    1.34397   1.39626   -1.000
 4396.00    1.40394   1.42179  138.342
 4397.00    1.45856   1.43297   -1.000
 4398.00    1.47374   1.42382   -1.000
 4399.00    1.42877   1.39900   -1.000
 4400.00    1.35090   1.36573  143.113
 4401.00    1.32185   1.32577  150.876
 4402.00    1.31892   1.27899   -1.000
 4403.00    1.25957   1.23159   -1.000
 4404.00    1.16652   1.19936   -1.000
 4405.00    1.12271   1.19703   -1.000
 4406.00    1.16673   1.22624   -1.000
 4407.00    1.23531   1.27891   -1.000
 4408.00    1.28432   1.34407   -1.000
 4409.00    1.33903   1.40957   -1.000
 4410.00    1.41639   1.46046   -1.000
 4411.00    1.47829   1.48026  137.144
 4412.00    1.50938   1.46329   -1.000
 4413.00    1.47879   1.42287   -1.000
 4414.00    1.37516   1.38449  139.154
 4415.00    1.27878   1.37357   -1.000
 4416.00    1.28292   1.39870   -1.000
 4417.00    1.36806   1.44686   -1.000
 4418.00    1.42827   1.49295   -1.000
 4419.00    1.46910   1.51604   -1.000
 4420.00    1.48114   1.51134   -1.000
 4421.00    1.42745   1.48914   -1.000
 4422.00    1.36281   1.46645   -1.000
 4423.00    1.33666   1.45446   -1.000
 4424.00    1.34451   1.45432   -1.000
 4425.00    1.35400   1.46056   -1.000
 4426.00    1.36161   1.46813   -1.000
 4427.00    1.39927   1.47387   -1.000
 4428.00    1.41465   1.47595   -1.000
 4429.00    1.41007   1.47413   -1.000
 4430.00    1.38481   1.46804   -1.000
 4431.00    1.38624   1.45632   -1.000
 4432.00    1.41838   1.43728   -1.000
 4433.00    1.40613   1.41518  140.774
 4434.00    1.34666   1.40507   -1.000
 4435.00    1.32260   1.42107   -1.000
 4436.00    1.35562   1.46430   -1.000
 4437.00    1.44274   1.51561   -1.000
 4438.00    1.53746   1.54908  134.011
 4439.00    1.58954   1.55029   -1.000
 4440.00    1.56384   1.52521   -1.000
 4441.00    1.49530   1.49682  137.260
 4442.00    1.43423   1.48788   -1.000
 4443.00    1.43019   1.50837   -1.000
 4444.00    1.50804   1.54854   -1.000
 4445.00    1.58449   1.59005  128.149
 4446.00    1.60102   1.61886  129.340
 4447.00    1.60680   1.63143   -1.000
 4448.00    1.62787   1.63197  130.134
 4449.00    1.61232   1.62316  130.603
 4450.00    1.60040   1.60425  134.666
 4451.00    1.59498   1.57210  140.730
 4452.00    1.57800   1.52709   -1.000
 4453.00    1.51616   1.47541   -1.000
 4454.00    1.43056   1.43010  140.362
 4455.00    1.37853   1.40186   -1.000
 4456.00    1.37830   1.39088  140.581
 4457.00    1.39255   1.38990  141.923
 4458.00    1.40188   1.39053  143.247
 4459.00    1.40091   1.39280  141.197
 4460.00    1.37855   1.40294   -1.000
 4461.00    1.34737   1.42676   -1.000
 4462.00    1.37106   1.46305   -1.000
 4463.00    1.45749   1.50210   -1.000
 4464.00    1.52402   1.53219  133.005
 4465.00    1.52309   1.54714   -1.000
 4466.00    1.51302   1.54903   -1.000
 4467.00    1.51708   1.54585   -1.000
 4468.00    1.51567   1.54701   -1.000
 4469.00    1.48945   1.55966   -1.000
 4470.00    1.48140   1.58694   -1.000
 4471.00    1.54309   1.62411   -1.000
 4472.00    1.62816   1.66267   -1.000
 4473.00    1.68449   1.69588  120.910
 4474.00    1.69613   1.72081   -1.000
 4475.00    1.69012   1.73734   -1.000
 4476.00    1.71630   1.74129   -1.000
 4477.00    1.75911   1.72582   -1.000
 4478.00    1.76329   1.68929   -1.000
 4479.00    1.68911   1.64246   -1.000
 4480.00    1.59482   1.60731  128.852
 4481.00    1.53442   1.60257   -1.000
 4482.00    1.54808   1.63224   -1.000
 4483.00    1.60937   1.68192   -1.000
 4484.00    1.68331   1.72809   -1.000
 4485.00    1.76327   1.75061  127.281
 4486.00    1.77811   1.74190   -1.000
 4487.00    1.72926   1.71084  129.941
 4488.00    1.66286   1.67632  126.746
 4489.00    1.60275   1.65577   -1.000
 4490.00    1.57629   1.65158   -1.000
 4491.00    1.59160   1.65389   -1.000
 4492.00    1.63085   1.64901   -1.000
 4493.00    1.63198   1.63531  131.560
 4494.00    1.56369   1.62401   -1.000
 4495.00    1.52266   1.62817   -1.000
 4496.00    1.54662   1.65178   -1.000
 4497.00    1.58481   1.68517   -1.000
 4498.00    1.64949   1.71576   -1.000
 4499.00    1.70714   1.73730   -1.000
 4500.00    1.71235   1.75405   -1.000
 4501.00    1.70307   1.77522   -1.000
 4502.00    1.72633   1.80499   -1.000
 4503.00    1.80290   1.83854   -1.000
 4504.00    1.87584   1.86499  118.734
 4505.00    1.88266   1.87629  118.990
 4506.00    1.84866   1.87344  118.227
 4507.00    1.81133   1.86481   -1.000
 4508.00    1.80862   1.85742   -1.000
 4509.00    1.83239   1.85169  120.227
 4510.00    1.83371   1.84269  122.438
 4511.00    1.80981   1.82591  123.431
 4512.00    1.76105   1.80284   -1.000
 4513.00    1.70818   1.78013   -1.000
 4514.00    1.67808   1.76414   -1.000
 4515.00    1.71159   1.75692   -1.000
 4516.00    1.74924   1.75682  123.276
 4517.00    1.73950   1.76244  120.853
 4518.00    1.71244   1.77382   -1.000
 4519.00    1.74010   1.78899   -1.000
 4520.00    1.80081   1.80099  125.895
 4521.00    1.81326   1.80077  127.201
 4522.00    1.76994   1.78297  129.159
 4523.00    1.72012   1.74849   -1.000
 4524.00    1.68652   1.70200  136.697
 4525.00    1.64441   1.64874  138.682
 4526.00    1.58029   1.59550  138.055
 4527.00    1.51884   1.55210   -1.000
 4528.00    1.46024   1.52786   -1.000
 4529.00    1.44585   1.52617   -1.000
 4530.00    1.47796   1.54136   -1.000
 4531.00    1.53287   1.56157   -1.000
 4532.00    1.58152   1.57708  139.181
 4533.00    1.58046   1.58709  132.033
 4534.00    1.54219   1.60088   -1.000
 4535.00    1.52109   1.62937   -1.000
 4536.00    1.60059   1.67372   -1.000
 4537.00    1.73223   1.72182  123.537
 4538.00    1.78671   1.75667   -1.000
 4539.00    1.75805   1.77036  123.061
 4540.00    1.71359   1.76851   -1.000
 4541.00    1.69082   1.76274   -1.000
 4542.00    1.71545   1.75957   -1.000
 4543.00    1.59158   1.75738   -1.000
 4544.00    0.59647   1.75220   -1.000
 4545.00    0.05253   1.74289   -1.000
 4546.00    0.12713   1.73201   -1.000
 4547.00    0.97123   1.72223   -1.000
 4548.00    0.67008   1.71568   -1.000
 4549.00    1.08462   1.71404   -1.000
 4550.00    1.60138   1.71669   -1.000
 4551.00    1.69200   1.71961   -1.000
 4552.00    1.70335   1.71876  129.920
 4553.00    1.69069   1.71673   -1.000
 4554.00    1.68037   1.72281   -1.000
 4555.00    1.68762   1.74595   -1.000
 4556.00    1.76104   1.78615   -1.000
 4557.00    1.84338   1.83336  118.339
 4558.00    1.89425   1.87357  118.362
 4559.00    1.89374   1.89725  120.752
 4560.00    1.89319   1.90175  123.777
 4561.00    1.89767   1.88882  126.032
 4562.00    1.87816   1.86379  125.109
 4563.00    1.82390   1.83574  122.126
 4564.00    1.75775   1.81717   -1.000
 4565.00    1.74829   1.81759   -1.000
 4566.00    1.81180   1.83656  118.420
 4567.00    1.87830   1.86221  121.235
 4568.00    1.92372   1.87917   -1.000
 4569.00    1.92247   1.87917   -1.000
 4570.00    1.85500   1.86774  120.638
 4571.00    1.79292   1.85801   -1.000
 4572.00    1.78515   1.86084   -1.000
 4573.00    1.82340   1.87559   -1.000
 4574.00    1.87250   1.89205  119.683
 4575.00    1.88071   1.89886  121.565
 4576.00    1.86177   1.88978   -1.000
 4577.00    1.84632   1.86508  127.789
 4578.00    1.81390   1.83026  127.801
 4579.00    1.76053   1.79531   -1.000
 4580.00    1.71912   1.77090   -1.000
 4581.00    1.73223   1.76236   -1.000
 4582.00    1.77184   1.76603  126.067
 4583.00    1.78447   1.77418  124.632
 4584.00    1.77733   1.78245  121.511
 4585.00    1.73811   1.79391   -1.000
 4586.00    1.74487   1.81388   -1.000
 4587.00    1.79724   1.84160   -1.000
 4588.00    1.86409   1.86789  122.116
 4589.00    1.91640   1.88110   -1.000
 4590.00    1.87941   1.87569  124.646
 4591.00    1.80774   1.85550   -1.000
 4592.00    1.75025   1.83032   -1.000
 4593.00    1.73738   1.80941   -1.000
 4594.00    1.74285   1.79725   -1.000
 4595.00    1.73960   1.79429   -1.000
 4596.00    1.74395   1.79833   -1.000
 4597.00    1.75708   1.80616   -1.000
 4598.00    1.80312   1.81395  124.246
 4599.00    1.81091   1.81908  123.105
 4600.00    1.80336   1.82119  121.714
 4601.00    1.78368   1.82188   -1.000
 4602.00    1.80206   1.82311  121.596
 4603.00    1.82077   1.82685  120.388
 4604.00    1.82526   1.83643  118.109
 4605.00    1.80315   1.85618   -1.000
 4606.00    1.82327   1.88825   -1.000
 4607.00    1.91744   1.92836  114.420
 4608.00    2.00490   1.96563   -1.000
 4609.00    2.06222   1.98848   -1.000
 4610.00    2.03473   1.99182   -1.000
 4611.00    1.98267   1.98149  117.602
 4612.00    1.96523   1.96873  116.589
 4613.00    1.96560   1.96350  116.059
 4614.00    1.98570   1.96855  116.715
 4615.00    1.99613   1.98012  117.585
 4616.00    2.01687   1.99204   -1.000
 4617.00    2.02193   2.00027  116.540
 4618.00    2.01736   2.00461  114.746
 4619.00    2.00439   2.00722  114.529
 4620.00    1.98760   2.01007  114.801
 4621.00    2.00215   2.01262  115.035
 4622.00    2.02190   2.01257  116.017
 4623.00    2.00196   2.00839  116.382
 4624.00    1.98399   2.00084  116.347
 4625.00    1.96545   1.99269  117.024
 4626.00    1.97358   1.98685  117.328
 4627.00    1.97007   1.98537  116.812
 4628.00    1.95201   1.98816   -1.000
 4629.00    1.94188   1.99315   -1.000
 4630.00    1.96447   1.99677   -1.000
 4631.00    1.99238   1.99506  118.815
 4632.00    1.97231   1.98564  118.831
 4633.00    1.92864   1.96946   -1.000
 4634.00    1.90512   1.94967   -1.000
 4635.00    1.90097   1.92865   -1.000
 4636.00    1.88053   1.90705   -1.000
 4637.00    1.85638   1.88651   -1.000
 4638.00    1.81982   1.87148   -1.000
 4639.00    1.80046   1.86692   -1.000
 4640.00    1.82577   1.87351   -1.000
 4641.00    1.86786   1.88477  117.543
 4642.00    1.91396   1.88933  120.785
 4643.00    1.90749   1.87798   -1.000
 4644.00    1.87485   1.84959   -1.000
 4645.00    1.81338   1.81361  122.904
 4646.00    1.75458   1.78516   -1.000
 4647.00    1.73091   1.77814   -1.000
 4648.00    1.73775   1.79701   -1.000
 4649.00    1.81174   1.83467   -1.000
 4650.00    1.88770   1.87682  119.048
 4651.00    1.90985   1.90935  121.731
 4652.00    1.94166   1.92476  123.253
 4653.00    1.93026   1.92469  122.371
 4654.00    1.88934   1.91910   -1.000
 4655.00    1.84328   1.92156   -1.000
 4656.00    1.84669   1.94201   -1.000
 4657.00    1.92856   1.97984   -1.000
 4658.00    2.03070   2.02349  112.449
 4659.00    2.10148   2.05543   -1.000
 4660.00    2.10593   2.06280   -1.000
 4661.00    2.03344   2.04277  117.869
 4662.00    1.95928   2.00209   -1.000
 4663.00    1.89290   1.94972   -1.000
 4664.00    1.88082   1.89257  129.877
 4665.00    1.86059   1.83628   -1.000
 4666.00    1.77834   1.78999  126.597
 4667.00    1.66109   1.76614   -1.000
 4668.00    1.62881   1.77366   -1.000
 4669.00    1.69296   1.80934   -1.000
 4670.00    1.80356   1.85820   -1.000
 4671.00    1.89119   1.90212  117.038
 4672.00    1.92684   1.93193  115.595
 4673.00    1.92197   1.94894   -1.000
 4674.00    1.92820   1.95992   -1.000
 4675.00    1.94432   1.96737  116.680
 4676.00    1.97533   1.96803  119.018
 4677.00    1.98512   1.95729   -1.000
 4678.00    1.94356   1.93562  122.227
 4679.00    1.89037   1.91035  120.851
 4680.00    1.85448   1.89145   -1.000
 4681.00    1.83069   1.88615   -1.000
 4682.00    1.84815   1.89496   -1.000
 4683.00    1.91017   1.91177  116.599
 4684.00    1.95956   1.92786   -1.000
 4685.00    1.96832   1.93684   -1.000
 4686.00    1.95576   1.93800  117.286
 4687.00    1.92958   1.93449  118.093
 4688.00    1.92442   1.93043  118.373
 4689.00    1.94644   1.92804  117.044
 4690.00    1.93850   1.92850  115.306
 4691.00    1.92332   1.93308  112.768
 4692.00    1.92365   1.94325  111.272
 4693.00    1.95608   1.95814  111.734
 4694.00    1.99535   1.97294  114.852
 4695.00    2.01836   1.97978   -1.000
 4696.00    2.03098   1.97225   -1.000
 4697.00    1.99924   1.94960   -1.000
 4698.00    1.93831   1.91836  119.755
 4699.00    1.89061   1.88783  121.840
 4700.00    1.89391   1.86546   -1.000
 4701.00    1.89698   1.85410   -1.000
 4702.00    1.85751   1.85402  118.522
 4703.00    1.84442   1.86288  120.041
 4704.00    1.88004   1.87545  122.447
 4705.00    1.94170   1.88465   -1.000
 4706.00    1.96821   1.88669   -1.000
 4707.00    1.93081   1.88478   -1.000
 4708.00    1.87743   1.88654  116.266
 4709.00    1.88124   1.89718  115.040
 4710.00    1.92936   1.91442  116.071
 4711.00    1.98579   1.93085   -1.000
 4712.00    2.00867   1.94081   -1.000
 4713.00    1.96527   1.94633  116.052
 4714.00    1.92803   1.95582   -1.000
 4715.00    1.93962   1.97708   -1.000
 4716.00    1.99739   2.01075  112.648
 4717.00    2.06785   2.04981  112.262
 4718.00    2.09909   2.08496  113.181
 4719.00    2.12422   2.10939  113.998
 4720.00    2.15582   2.12145   -1.000
 4721.00    2.12790   2.12373  112.149
 4722.00    2.09703   2.12092  112.281
 4723.00    2.07484   2.11465   -1.000
 4724.00    2.08428   2.10088  119.311
 4725.00    2.12972   2.07260   -1.000
 4726.00    2.07778   2.02804   -1.000
 4727.00    1.95869   1.97623  120.436
 4728.00    1.86226   1.93298   -1.000
 4729.00    1.83637   1.91220   -1.000
 4730.00    1.88504   1.91685   -1.000
 4731.00    1.92065   1.93976  116.341
 4732.00    1.97206   1.96854  115.692
 4733.00    2.00741   1.99304  116.902
 4734.00    2.02967   2.00914  117.080
 4735.00    2.03892   2.01883  115.588
 4736.00    2.00255   2.02727  115.604
 4737.00    2.01207   2.03811  116.273
 4738.00    2.06532   2.05100  116.438
 4739.00    2.10412   2.06258   -1.000
 4740.00    2.09962   2.07050   -1.000
 4741.00    2.07086   2.07578  114.464
 4742.00    2.04981   2.08161   -1.000
 4743.00    2.08770   2.09069  113.726
 4744.00    2.12698   2.10376  112.572
 4745.00    2.10866   2.12039  112.323
 4746.00    2.11005   2.13835   -1.000
 4747.00    2.14502   2.15468  112.569
 4748.00    2.13830   2.16615   -1.000
 4749.00    2.13434   2.17025   -1.000
 4750.00    2.14607   2.16530  115.639
 4751.00    2.11836   2.15105   -1.000
 4752.00    2.08545   2.12994   -1.000
 4753.00    2.05329   2.10760   -1.000
 4754.00    2.03340   2.09053   -1.000
 4755.00    2.03063   2.08308   -1.000
 4756.00    2.02399   2.08562   -1.000
 4757.00    2.01609   2.09450   -1.000
 4758.00    2.00897   2.10369   -1.000
 4759.00    2.01479   2.10601   -1.000
 4760.00    2.01578   2.09596   -1.000
 4761.00    1.97527   2.07230   -1.000
 4762.00    1.92578   2.03955   -1.000
 4763.00    1.91056   2.00552   -1.000
 4764.00    1.89772   1.97835   -1.000
 4765.00    1.87393   1.96491   -1.000
 4766.00    1.88566   1.97033   -1.000
 4767.00    1.89542   1.99523   -1.000
 4768.00    1.96460   2.03248   -1.000
 4769.00    2.01696   2.06906   -1.000
 4770.00    2.05548   2.09470   -1.000
 4771.00    2.03417   2.10977   -1.000
 4772.00    2.01258   2.12273   -1.000
 4773.00    2.04426   2.14174   -1.000
 4774.00    2.08989   2.16650   -1.000
 4775.00    2.12429   2.19053   -1.000
 4776.00    2.10025   2.20701   -1.000
 4777.00    2.10747   2.21289   -1.000
 4778.00    2.09982   2.20831   -1.000
 4779.00    2.09776   2.19435   -1.000
 4780.00    2.08385   2.17283   -1.000
 4781.00    2.07420   2.14653   -1.000
 4782.00    2.04492   2.12003   -1.000
 4783.00    2.01336   2.09832   -1.000
 4784.00    1.99685   2.08465   -1.000
 4785.00    1.99764   2.07859   -1.000
 4786.00    1.99432   2.07749   -1.000
 4787.00    1.99313   2.07929   -1.000
 4788.00    2.01380   2.08462   -1.000
 4789.00    2.02832   2.09616   -1.000
 4790.00    2.02007   2.11773   -1.000
 4791.00    2.05973   2.15165   -1.000
 4792.00    2.11559   2.19599   -1.000
 4793.00    2.16638   2.24255   -1.000
 4794.00    2.21402   2.27919   -1.000
 4795.00    2.23287   2.29502   -1.000
 4796.00    2.22765   2.28652   -1.000
 4797.00    2.17789   2.26024   -1.000
 4798.00    2.11626   2.23035   -1.000
 4799.00    2.07850   2.21193   -1.000
 4800.00    2.07474   2.21286   -1.000
 4801.00    2.12657   2.23002   -1.000
 4802.00    2.20347   2.25011   -1.000
 4803.00    2.21301   2.25907   -1.000
 4804.00    2.16042   2.25005   -1.000
 4805.00    2.11797   2.22780   -1.000
 4806.00    2.08012   2.20342   -1.000
 4807.00    2.05808   2.18769   -1.000
 4808.00    2.05871   2.18544   -1.000
 4809.00    2.06486   2.19528   -1.000
 4810.00    2.08955   2.21111   -1.000
 4811.00    2.12601   2.22673   -1.000
 4812.00    2.13604   2.23928   -1.000
 4813.00    2.12056   2.25020   -1.000
 4814.00    2.13219   2.26292   -1.000
 4815.00    2.16792   2.27949   -1.000
 4816.00    2.19517   2.29931   -1.000
 4817.00    2.21006   2.31898   -1.000
 4818.00    2.22385   2.33325   -1.000
 4819.00    2.24799   2.33589   -1.000
 4820.00    2.25781   2.32252   -1.000
 4821.00    2.24839   2.29347   -1.000
 4822.00    2.17201   2.25667   -1.000
 4823.00    2.10912   2.22514   -1.000
 4824.00    2.09005   2.21014   -1.000
 4825.00    2.13887   2.21287   -1.000
 4826.00    2.19470   2.22422   -1.000
 4827.00    2.17791   2.23228   -1.000
 4828.00    2.13649   2.23070   -1.000
 4829.00    2.15687   2.22090   -1.000
 4830.00    2.16402   2.20787   -1.000
 4831.00    2.12541   2.19819   -1.000
 4832.00    2.12183   2.19724   -1.000
 4833.00    2.12016   2.20802   -1.000
 4834.00    2.16277   2.22661   -1.000
 4835.00    2.19906   2.24456   -1.000
 4836.00    2.19811   2.25304   -1.000
 4837.00    2.18717   2.24812   -1.000
 4838.00    2.17495   2.23252   -1.000
 4839.00    2.13639   2.21305   -1.000
 4840.00    2.09856   2.19713   -1.000
 4841.00    2.10031   2.18963   -1.000
 4842.00    2.10931   2.19246   -1.000
 4843.00    2.08483   2.20551   -1.000
 4844.00    2.10551   2.22576   -1.000
 4845.00    2.19205   2.24652   -1.000
 4846.00    2.22836   2.25963   -1.000
 4847.00    2.18723   2.26152   -1.000
 4848.00    2.12415   2.25661   -1.000
 4849.00    2.11050   2.25190   -1.000
 4850.00    2.14493   2.25015   -1.000
 4851.00    2.15850   2.24555   -1.000
 4852.00    2.16284   2.22991   -1.000
 4853.00    2.14490   2.19976   -1.000
 4854.00    2.09544   2.16042   -1.000
 4855.00    2.00583   2.12126   -1.000
 4856.00    1.97114   2.08496   -1.000
 4857.00    2.02174   2.04363   -1.000
 4858.00    2.01505   1.98356   -1.000
 4859.00    1.93732   1.90524   -1.000
 4860.00    1.77858   1.82904   -1.000
 4861.00    1.65909   1.78798   -1.000
 4862.00    1.69028   1.80178   -1.000
 4863.00    1.83544   1.86445   -1.000
 4864.00    1.93524   1.95026  119.607
 4865.00    1.98959   2.03150   -1.000
 4866.00    2.03968   2.09094   -1.000
 4867.00    2.04208   2.12163   -1.000
 4868.00    2.04748   2.12223   -1.000
 4869.00    2.03402   2.09713   -1.000
 4870.00    1.98770   2.05883   -1.000
 4871.00    1.90851   2.02806   -1.000
 4872.00    1.90360   2.02332   -1.000
 4873.00    1.96628   2.04958   -1.000
 4874.00    2.03463   2.09661   -1.000
 4875.00    2.05288   2.14789   -1.000
 4876.00    2.08486   2.19339   -1.000
 4877.00    2.10124   2.23032   -1.000
 4878.00    2.15262   2.25847   -1.000
 4879.00    2.19850   2.27511   -1.000
 4880.00    2.19123   2.27750   -1.000
 4881.00    2.10353   2.26673   -1.000
 4882.00    2.07571   2.24705   -1.000
 4883.00    2.11140   2.22231   -1.000
 4884.00    2.11086   2.19465   -1.000
 4885.00    2.04660   2.16611   -1.000
 4886.00    2.00483   2.13999   -1.000
 4887.00    2.00673   2.11734   -1.000
 4888.00    2.04093   2.09632   -1.000
 4889.00    2.05265   2.07653   -1.000
 4890.00    2.01150   2.06865   -1.000
 4891.00    1.99095   2.08873   -1.000
 4892.00    2.03630   2.14776   -1.000
 4893.00    2.19860   2.23740   -1.000
 4894.00    2.35354   2.33360  107.943
 4895.00    2.39835   2.41052  110.393
 4896.00    2.40839   2.45362   -1.000
 4897.00    2.43770   2.46343  114.147
 4898.00    2.42627   2.44906  113.529
 4899.00    2.35103   2.42258   -1.000
 4900.00    2.27974   2.39398   -1.000
 4901.00    2.27557   2.37041   -1.000
 4902.00    2.27097   2.35652   -1.000
 4903.00    2.25610   2.35551   -1.000
 4904.00    2.28134   2.36756   -1.000
 4905.00    2.33415   2.38491   -1.000
 4906.00    2.37876   2.39358  117.784
 4907.00    2.36699   2.38191  119.121
 4908.00    2.31565   2.34967   -1.000
 4909.00    2.24098   2.31135   -1.000
 4910.00    2.21648   2.28556   -1.000
 4911.00    2.23454   2.28471   -1.000
 4912.00    2.26149   2.30770   -1.000
 4913.00    2.29313   2.34234   -1.000
 4914.00    2.35221   2.36938  116.157
 4915.00    2.36231   2.37011  122.625
 4916.00    2.36207   2.33006   -1.000
 4917.00    2.31507   2.25040   -1.000
 4918.00    2.17416   2.14936   -1.000
 4919.00    2.03766   2.06111  120.515
 4920.00    1.95110   2.01619   -1.000
 4921.00    2.00183   2.02550   -1.000
 4922.00    2.12654   2.07602   -1.000
 4923.00    2.20561   2.14367   -1.000
 4924.00    2.24840   2.21129   -1.000
 4925.00    2.27828   2.27459  111.070
 4926.00    2.32682   2.33601  110.322
 4927.00    2.35201   2.39558   -1.000
 4928.00    2.41587   2.44650   -1.000
 4929.00    2.44528   2.47932   -1.000
 4930.00    2.43940   2.48631   -1.000
 4931.00    2.42374   2.46679   -1.000
 4932.00    2.36081   2.42856   -1.000
 4933.00    2.27119   2.38569   -1.000
 4934.00    2.25764   2.34805   -1.000
 4935.00    2.28666   2.31567   -1.000
 4936.00    2.26921   2.28290  121.529
 4937.00    2.20777   2.24973   -1.000
 4938.00    2.14220   2.22946   -1.000
 4939.00    2.12477   2.23799   -1.000
 4940.00    2.20439   2.28098   -1.000
 4941.00    2.34727   2.34514  110.819
 4942.00    2.43023   2.40911  111.611
 4943.00    2.46671   2.45616  111.769
 4944.00    2.50044   2.48221  110.698
 4945.00    2.49130   2.49435  109.422
 4946.00    2.43873   2.50310   -1.000
 4947.00    2.42649   2.51568   -1.000
 4948.00    2.44060   2.53231   -1.000
 4949.00    2.44076   2.54836   -1.000
 4950.00    2.44941   2.55686   -1.000
 4951.00    2.44110   2.55246   -1.000
 4952.00    2.43288   2.53080   -1.000
 4953.00    2.40485   2.48649   -1.000
 4954.00    2.33926   2.41708   -1.000
 4955.00    2.27836   2.32762   -1.000
 4956.00    2.15121   2.23915   -1.000
 4957.00    2.00218   2.18361   -1.000
 4958.00    1.99266   2.18220   -1.000
 4959.00    2.12464   2.23351   -1.000
 4960.00    2.25785   2.30785   -1.000
 4961.00    2.28910   2.37137   -1.000
 4962.00    2.30661   2.40229   -1.000
 4963.00    2.31478   2.39796   -1.000
 4964.00    2.30233   2.36967   -1.000
 4965.00    2.23921   2.33367   -1.000
 4966.00    2.21670   2.30462   -1.000
 4967.00    2.20977   2.29230   -1.000
 4968.00    2.19765   2.29956   -1.000
 4969.00    2.22077   2.32329   -1.000
 4970.00    2.25285   2.35815   -1.000
 4971.00    2.28999   2.39681   -1.000
 4972.00    2.33576   2.43133   -1.000
 4973.00    2.35500   2.45505   -1.000
 4974.00    2.37657   2.46310   -1.000
 4975.00    2.35822   2.45396   -1.000
 4976.00    2.33357   2.42939   -1.000
 4977.00    2.30607   2.39301   -1.000
 4978.00    2.22256   2.34864   -1.000
 4979.00    2.18760   2.29761   -1.000
 4980.00    2.17270   2.24033   -1.000
 4981.00    2.11883   2.18097   -1.000
 4982.00    2.03929   2.13216   -1.000
 4983.00    1.98589   2.10940   -1.000
 4984.00    2.02224   2.12355   -1.000
 4985.00    2.10305   2.17073   -1.000
 4986.00    2.18416   2.23490   -1.000
 4987.00    2.26072   2.29429   -1.000
 4988.00    2.32583   2.33415  118.972
 4989.00    2.30433   2.35192   -1.000
 4990.00    2.26367   2.35523   -1.000
 4991.00    2.25833   2.35550   -1.000
 4992.00    2.26691   2.35909   -1.000
 4993.00    2.28206   2.36670   -1.000
 4994.00    2.28452   2.37592   -1.000
 4995.00    2.28755   2.38208   -1.000
 4996.00    2.29893   2.37834   -1.000
 4997.00    2.29603   2.35964   -1.000
 4998.00    2.25774   2.32393   -1.000
 4999.00    2.19833   2.27974   -1.000
 5000.00    2.12355   2.23849   -1.000
 5001.00    2.08692   2.20833   -1.000
 5002.00    2.13630   2.18844   -1.000
 5003.00    2.16854   2.17088  125.884
 5004.00    2.15316   2.15205  122.618
 5005.00    2.09164   2.13720   -1.000
 5006.00    2.05181   2.13882   -1.000
 5007.00    2.07719   2.16191   -1.000
 5008.00    2.16399   2.19768   -1.000
 5009.00    2.22929   2.22606  128.221
 5010.00    2.20794   2.22867   -1.000
 5011.00    2.15535   2.20232   -1.000
 5012.00    2.08138   2.15917   -1.000
 5013.00    2.01428   2.12026   -1.000
 5014.00    2.01307   2.10058   -1.000
 5015.00    2.04025   2.10399   -1.000
 5016.00    2.10744   2.12317   -1.000
 5017.00    2.11523   2.14789   -1.000
 5018.00    2.10978   2.17155   -1.000
 5019.00    2.13437   2.19016   -1.000
 5020.00    2.16689   2.20362   -1.000
 5021.00    2.18248   2.21473   -1.000
 5022.00    2.16515   2.22836   -1.000
 5023.00    2.16040   2.24795   -1.000
 5024.00    2.22115   2.27074   -1.000
 5025.00    2.27061   2.28911  119.473
 5026.00    2.27249   2.29998   -1.000
 5027.00    2.23364   2.30800   -1.000
 5028.00    2.22448   2.32389   -1.000
 5029.00    2.28293   2.35436   -1.000
 5030.00    2.34694   2.39661   -1.000
 5031.00    2.36894   2.43927   -1.000
 5032.00    2.42550   2.46644   -1.000
 5033.00    2.45640   2.46703  123.187
 5034.00    2.39174   2.43883   -1.000
 5035.00    2.27143   2.39083   -1.000
 5036.00    2.18291   2.33440   -1.000
 5037.00    2.18681   2.27581   -1.000
 5038.00    2.19373   2.21615   -1.000
 5039.00    2.12040   2.15956   -1.000
 5040.00    1.99606   2.12316   -1.000
 5041.00    1.96052   2.12721   -1.000
 5042.00    2.06392   2.18217   -1.000
 5043.00    2.22972   2.27479   -1.000
 5044.00    2.31136   2.37413   -1.000
 5045.00    1.44875   2.44719   -1.000
 5046.00    0.21503   2.47357   -1.000
 5047.00    0.10692   2.45353   -1.000
 5048.00    0.86770   2.40470   -1.000
 5049.00    2.12505   2.35288   -1.000
 5050.00    2.24575   2.31977   -1.000
 5051.00    2.25381   2.31700   -1.000
 5052.00    2.29636   2.34272   -1.000
 5053.00    2.35144   2.38611   -1.000
 5054.00    2.41159   2.43402   -1.000
 5055.00    2.45859   2.47706  112.701
 5056.00    2.49904   2.51114  112.558
 5057.00    2.50118   2.53879   -1.000
 5058.00    2.49734   2.56298   -1.000
 5059.00    2.50282   2.58343   -1.000
 5060.00    2.52585   2.59477   -1.000
 5061.00    2.56885   2.58690  121.279
 5062.00    2.56308   2.55434  122.209
 5063.00    2.47759   2.50020  120.578
 5064.00    2.35418   2.43977   -1.000
 5065.00    2.26618   2.39019   -1.000
 5066.00    2.29589   2.36275   -1.000
 5067.00    2.34049   2.35778  117.407
 5068.00    2.34288   2.36796   -1.000
 5069.00    2.37196   2.38295  119.035
 5070.00    2.39594   2.39482  117.554
 5071.00    2.37231   2.40070   -1.000
 5072.00    2.34674   2.40315   -1.000
 5073.00    2.36828   2.40514   -1.000
 5074.00    2.39908   2.40760  118.283
 5075.00    2.39637   2.40589  122.733
 5076.00    2.37463   2.39123  128.065
 5077.00    2.35787   2.35819  128.794
 5078.00    2.31607   2.30992  125.927
 5079.00    2.21174   2.26154   -1.000
 5080.00    2.12735   2.22920   -1.000
 5081.00    2.13619   2.22377   -1.000
 5082.00    2.19935   2.24494   -1.000
 5083.00    2.25655   2.28367   -1.000
 5084.00    2.30147   2.32997   -1.000
 5085.00    2.35868   2.37601  115.944
 5086.00    2.39977   2.41618  115.124
 5087.00    2.42387   2.44863   -1.000
 5088.00    2.45449   2.47380  113.801
 5089.00    2.45928   2.49542   -1.000
 5090.00    2.46934   2.51750   -1.000
 5091.00    2.49844   2.54016   -1.000
 5092.00    2.52208   2.55824   -1.000
 5093.00    2.54975   2.56176  118.069
 5094.00    2.55045   2.54273  120.891
 5095.00    2.46998   2.50034   -1.000
 5096.00    2.38566   2.44367   -1.000
 5097.00    2.32153   2.38830   -1.000
 5098.00    2.26562   2.35258   -1.000
 5099.00    2.23840   2.34595   -1.000
 5100.00    2.29006   2.36696   -1.000
 5101.00    2.38187   2.40072   -1.000
 5102.00    2.42989   2.42929  119.778
 5103.00    2.40946   2.44049   -1.000
 5104.00    2.37386   2.43189   -1.000
 5105.00    2.34390   2.40967   -1.000
 5106.00    2.30752   2.38226   -1.000
 5107.00    2.29751   2.35773   -1.000
 5108.00    2.29396   2.34377   -1.000
 5109.00    2.29287   2.34521   -1.000
 5110.00    2.30405   2.36408   -1.000
 5111.00    2.35191   2.39638   -1.000
 5112.00    2.40824   2.43600   -1.000
 5113.00    2.43938   2.47733   -1.000
 5114.00    2.48054   2.51630   -1.000
 5115.00    2.52928   2.55088   -1.000
 5116.00    2.55871   2.57786  114.338
 5117.00    2.57168   2.59200  116.100
 5118.00    2.55778   2.58831   -1.000
 5119.00    2.53026   2.56421   -1.000
 5120.00    2.48953   2.52120   -1.000
 5121.00    2.43662   2.46503   -1.000
 5122.00    2.35681   2.40556   -1.000
 5123.00    2.26930   2.35390   -1.000
 5124.00    2.22206   2.31896   -1.000
 5125.00    2.23712   2.30307   -1.000
 5126.00    2.28754   2.30258   -1.000
 5127.00    2.29769   2.31184   -1.000
 5128.00    2.28387   2.32729   -1.000
 5129.00    2.29771   2.34960   -1.000
 5130.00    2.33332   2.37906   -1.000
 5131.00    2.40160   2.41312  115.899
 5132.00    2.45856   2.44690  116.040
 5133.00    2.46946   2.47423  118.367
 5134.00    2.49974   2.48966  121.116
 5135.00    2.53466   2.48772   -1.000
 5136.00    2.52368   2.46694   -1.000
 5137.00    2.45394   2.43450  121.763
 5138.00    2.35616   2.40098   -1.000
 5139.00    2.32313   2.37741   -1.000
 5140.00    2.36040   2.36673  123.422
 5141.00    2.37984   2.36490  121.581
 5142.00    2.33372   2.36762   -1.000
 5143.00    2.31319   2.37071   -1.000
 5144.00    2.36091   2.37034  122.497
 5145.00    2.35454   2.36647  121.062
 5146.00    2.30612   2.36029   -1.000
 5147.00    2.29610   2.35564   -1.000
 5148.00    2.31213   2.35486   -1.000
 5149.00    2.32411   2.35458   -1.000
 5150.00    2.34334   2.35141  124.009
 5151.00    2.30766   2.34555   -1.000
 5152.00    2.27990   2.34298   -1.000
 5153.00    2.28323   2.35343   -1.000
 5154.00    2.31725   2.38252   -1.000
 5155.00    2.40590   2.42881   -1.000
 5156.00    2.49597   2.48313  113.016
 5157.00    2.57457   2.53314   -1.000
 5158.00    2.59027   2.56782  114.249
 5159.00    2.57670   2.58078  115.660
 5160.00    2.56507   2.56962  117.975
 5161.00    2.51689   2.53285  123.578
 5162.00    2.46061   2.46929  134.572
 5163.00    2.41001   2.37753   -1.000
 5164.00    2.32448   2.25796   -1.000
 5165.00    2.12096   2.12063  150.138
 5166.00    1.85092   1.99130   -1.000
 5167.00    1.67169   1.89467   -1.000
 5168.00    1.66439   1.84472   -1.000
 5169.00    1.82070   1.82810   -1.000
 5170.00    1.91638   1.81999   -1.000
 5171.00    1.81327   1.81443  134.362
 5172.00    1.65785   1.82490   -1.000
 5173.00    1.66308   1.87863   -1.000
 5174.00    1.90113   1.97883   -1.000
 5175.00    2.17999   2.10286   -1.000
 5176.00    2.32463   2.21589   -1.000
 5177.00    2.37520   2.28757   -1.000
 5178.00    2.43904   2.30559   -1.000
 5179.00    2.41014   2.26755   -1.000
 5180.00    2.26865   2.17774   -1.000
 5181.00    2.11558   2.05927   -1.000
 5182.00    1.89439   1.94865   -1.000
 5183.00    1.67916   1.89371   -1.000
 5184.00    1.67087   1.92085   -1.000
 5185.00    1.93869   2.02181   -1.000
 5186.00    2.21576   2.15962   -1.000
 5187.00    2.36468   2.28662   -1.000
 5188.00    2.41287   2.37094   -1.000
 5189.00    2.45803   2.40197   -1.000
 5190.00    2.45697   2.38851   -1.000
 5191.00    2.37682   2.35246  124.497
 5192.00    2.30649   2.31978  122.678
 5193.00    2.29445   2.30741  120.735
 5194.00    2.34541   2.32386  118.352
 5195.00    2.37885   2.36352  116.587
 5196.00    2.41941   2.41554  115.863
 5197.00    2.48084   2.47047  116.016
 5198.00    2.53178   2.51783  117.259
 5199.00    2.56001   2.54782  119.572
 5200.00    2.55466   2.55203  122.563
 5201.00    2.53094   2.52609  126.468
 5202.00    2.50032   2.46927   -1.000
 5203.00    2.43310   2.38863   -1.000
 5204.00    2.34150   2.29826   -1.000
 5205.00    2.26926   2.21602   -1.000
 5206.00    2.23527   2.15851   -1.000
 5207.00    2.21806   2.13646   -1.000
 5208.00    2.21107   2.15521   -1.000
 5209.00    2.24867   2.21307  114.609
 5210.00    2.33693   2.29993  113.160
 5211.00    2.46032   2.39830   -1.000
 5212.00    2.59420   2.48301   -1.000
 5213.00    2.66044   2.53637   -1.000
 5214.00    2.64965   2.55606   -1.000
 5215.00    2.60766   2.55723   -1.000
 5216.00    2.58418   2.56195  112.827
 5217.00    2.60837   2.58405  112.096
 5218.00    2.64119   2.62303  112.106
 5219.00    2.69384   2.66388   -1.000
 5220.00    2.73267   2.68804   -1.000
 5221.00    2.73622   2.68047   -1.000
 5222.00    2.70941   2.63552   -1.000
 5223.00    2.61871   2.55788   -1.000
 5224.00    2.47513   2.46471  126.088
 5225.00    2.33481   2.38332   -1.000
 5226.00    2.25824   2.34216   -1.000
 5227.00    2.29282   2.35598   -1.000
 5228.00    2.46794   2.41634   -1.000
 5229.00    2.65759   2.49245   -1.000
 5230.00    2.74340   2.55236   -1.000
 5231.00    2.74438   2.57839   -1.000
 5232.00    2.68264   2.57922   -1.000
 5233.00    2.61468   2.57961   -1.000
 5234.00    2.61472   2.59870  110.990
 5235.00    2.67538   2.64275   -1.000
 5236.00    2.76690   2.69903   -1.000
 5237.00    2.84093   2.75001   -1.000
 5238.00    2.86026   2.78403   -1.000
 5239.00    2.82767   2.79878   -1.000
 5240.00    2.78456   2.80098  110.355
 5241.00    2.76794   2.79884   -1.000
 5242.00    2.78618   2.79614  113.443
 5243.00    2.80954   2.78940  116.849
 5244.00    2.83031   2.77086   -1.000
 5245.00    2.79793   2.73586   -1.000
 5246.00    2.68717   2.68844  119.424
 5247.00    2.59370   2.63982   -1.000
 5248.00    2.58173   2.60212  118.958
 5249.00    2.59925   2.58258  117.372
 5250.00    2.56921   2.58125  116.539
 5251.00    2.58123   2.59232  116.398
 5252.00    2.64303   2.61071   -1.000
 5253.00    2.67563   2.63386   -1.000
 5254.00    2.66693   2.66384  109.596
 5255.00    2.67609   2.70500   -1.000
 5256.00    2.75994   2.75383  110.882
 5257.00    2.85933   2.79859   -1.000
 5258.00    2.89995   2.81902   -1.000
 5259.00    2.87154   2.79799   -1.000
 5260.00    2.81285   2.73160   -1.000
 5261.00    2.71486   2.62980   -1.000
 5262.00    2.56760   2.51198   -1.000
 5263.00    2.41708   2.40101  127.770
 5264.00    2.30701   2.31394  126.818
 5265.00    2.26819   2.25725  130.474
 5266.00    2.31355   2.22377   -1.000
 5267.00    2.37614   2.20053   -1.000
 5268.00    2.35776   2.18523   -1.000
 5269.00    2.23760   2.18777   -1.000
 5270.00    2.23128   2.22517  117.480
 5271.00    2.39067   2.29982   -1.000
 5272.00    2.59709   2.39545   -1.000
 5273.00    2.70119   2.49117   -1.000
 5274.00    2.71070   2.57148   -1.000
 5275.00    2.71768   2.64117   -1.000
 5276.00    2.78431   2.70710   -1.000
 5277.00    2.89441   2.76349   -1.000
 5278.00    2.96946   2.79808   -1.000
 5279.00    2.98276   2.79908   -1.000
 5280.00    2.91875   2.76914   -1.000
 5281.00    2.83126   2.72620   -1.000
 5282.00    2.76902   2.69670   -1.000
 5283.00    2.72831   2.70133   -1.000
 5284.00    2.74979   2.74605  107.805
 5285.00    2.90386   2.81697   -1.000
 5286.00    3.03900   2.89191   -1.000
 5287.00    3.09427   2.95145   -1.000
 5288.00    3.09171   2.98806   -1.000
 5289.00    3.08881   3.00631   -1.000
 5290.00    3.09984   3.01151   -1.000
 5291.00    3.08320   3.00570   -1.000
 5292.00    3.05327   2.98677   -1.000
 5293.00    3.03257   2.94980   -1.000
 5294.00    3.01611   2.89222   -1.000
 5295.00    2.93991   2.81826   -1.000
 5296.00    2.78856   2.74101   -1.000
 5297.00    2.66130   2.68156  114.713
 5298.00    2.64423   2.65673  113.855
 5299.00    2.74078   2.67050   -1.000
 5300.00    2.85157   2.71529   -1.000
 5301.00    2.89810   2.77729   -1.000
 5302.00    2.93745   2.84638   -1.000
 5303.00    3.02707   2.91478   -1.000
 5304.00    3.12641   2.97305   -1.000
 5305.00    3.17289   3.01443   -1.000
 5306.00    3.15991   3.03720   -1.000
 5307.00    3.13631   3.04777   -1.000
 5308.00    3.14559   3.05527   -1.000
 5309.00    3.18566   3.06225   -1.000
 5310.00    3.20796   3.06602   -1.000
 5311.00    3.20553   3.06181   -1.000
 5312.00    3.17221   3.04773   -1.000
 5313.00    3.12992   3.02697   -1.000
 5314.00    3.09904   3.00374   -1.000
 5315.00    3.08164   2.98244   -1.000
 5316.00    3.06273   2.96675   -1.000
 5317.00    3.05789   2.95698   -1.000
 5318.00    3.07220   2.95133   -1.000
 5319.00    3.07500   2.94464   -1.000
 5320.00    3.07815   2.92930   -1.000
 5321.00    3.04818   2.89934   -1.000
 5322.00    2.98435   2.85193   -1.000
 5323.00    2.91773   2.78755   -1.000
 5324.00    2.86879   2.70790   -1.000
 5325.00    2.86691   2.61749   -1.000
 5326.00    2.79842   2.53085   -1.000
 5327.00    2.60430   2.46890   -1.000
 5328.00    2.45262   2.45707  113.243
 5329.00    2.49883   2.50434  112.204
 5330.00    2.72238   2.59804   -1.000
 5331.00    2.91342   2.71026   -1.000
 5332.00    2.99866   2.81189   -1.000
 5333.00    3.04638   2.89026   -1.000
 5334.00    3.09362   2.94361   -1.000
 5335.00    3.13964   2.97209   -1.000
 5336.00    3.13691   2.97323   -1.000
 5337.00    3.09546   2.94510   -1.000
 5338.00    3.03459   2.89552   -1.000
 5339.00    2.94772   2.84257   -1.000
 5340.00    2.86433   2.80730   -1.000
 5341.00    2.85589   2.80077   -1.000
 5342.00    2.94772   2.82076   -1.000
 5343.00    3.05432   2.85120   -1.000
 5344.00    3.08756   2.87326   -1.000
 5345.00    3.05921   2.87866   -1.000
 5346.00    3.05155   2.87046   -1.000
 5347.00    3.04340   2.85950   -1.000
 5348.00    3.00258   2.85887   -1.000
 5349.00    2.99079   2.87709   -1.000
 5350.00    3.05806   2.91618   -1.000
 5351.00    3.16567   2.97124   -1.000
 5352.00    3.21811   3.03153   -1.000
 5353.00    3.22798   3.08818   -1.000
 5354.00    3.23389   3.13525   -1.000
 5355.00    3.27594   3.17005   -1.000
 5356.00    3.32095   3.19192   -1.000
 5357.00    3.31871   3.19870   -1.000
 5358.00    3.31219   3.18971   -1.000
 5359.00    3.30569   3.16693   -1.000
 5360.00    3.26217   3.13376   -1.000
 5361.00    3.18323   3.09451   -1.000
 5362.00    3.14529   3.05402   -1.000
 5363.00    3.13396   3.01592   -1.000
 5364.00    3.09652   2.98170   -1.000
 5365.00    3.06066   2.95057   -1.000
 5366.00    3.05576   2.91759   -1.000
 5367.00    3.05613   2.87597   -1.000
 5368.00    3.04118   2.82370   -1.000
 5369.00    2.95690   2.76864   -1.000
 5370.00    2.82085   2.73108   -1.000
 5371.00    2.77308   2.73282   -1.000
 5372.00    2.87708   2.78087   -1.000
 5373.00    3.07500   2.86266   -1.000
 5374.00    3.24168   2.95016   -1.000
 5375.00    3.30035   3.01979   -1.000
 5376.00    3.28077   3.06275   -1.000
 5377.00    3.25494   3.08273   -1.000
 5378.00    3.27056   3.08817   -1.000
 5379.00    3.28478   3.08358   -1.000
 5380.00    3.27091   3.07103   -1.000
 5381.00    3.22934   3.05387   -1.000
 5382.00    3.19034   3.03873   -1.000
 5383.00    3.17517   3.03221   -1.000
 5384.00    3.17945   3.03518   -1.000
 5385.00    3.21607   3.04130   -1.000
 5386.00    3.24174   3.04070   -1.000
 5387.00    3.22983   3.02587   -1.000
 5388.00    3.17932   2.99566   -1.000
 5389.00    3.10218   2.95684   -1.000
 5390.00    3.04765   2.91890   -1.000
 5391.00    3.02159   2.88815   -1.000
 5392.00    3.01704   2.86485   -1.000
 5393.00    3.02544   2.84360   -1.000
 5394.00    3.02664   2.81917   -1.000
 5395.00    2.99649   2.79318   -1.000
 5396.00    2.91276   2.77571   -1.000
 5397.00    2.87768   2.77772   -1.000
 5398.00    2.93965   2.80303   -1.000
 5399.00    3.03133   2.84314   -1.000
 5400.00    3.07957   2.87823   -1.000
 5401.00    3.09090   2.88722   -1.000
 5402.00    3.08444   2.85996   -1.000
 5403.00    3.01125   2.80330   -1.000
 5404.00    2.87466   2.73889   -1.000
 5405.00    2.77134   2.69083   -1.000
 5406.00    2.77018   2.67379   -1.000
 5407.00    2.86888   2.68881   -1.000
 5408.00    2.95808   2.72382   -1.000
 5409.00    2.95612   2.76854   -1.000
 5410.00    2.95695   2.81979   -1.000
 5411.00    3.03541   2.87655   -1.000
 5412.00    3.14502   2.93694   -1.000
 5413.00    3.22104   2.99307   -1.000
 5414.00    3.24642   3.03929   -1.000
 5415.00    3.25960   3.07544   -1.000
 5416.00    3.29639   3.10121   -1.000
 5417.00    3.32221   3.11550   -1.000
 5418.00    3.30652   3.11637   -1.000
 5419.00    3.26704   3.10499   -1.000
 5420.00    3.23589   3.08758   -1.000
 5421.00    3.24457   3.06985   -1.000
 5422.00    3.25312   3.05687   -1.000
 5423.00    3.20797   3.05326   -1.000
 5424.00    3.16232   3.05867   -1.000
 5425.00    3.20313   3.06747   -1.000
 5426.00    3.28160   3.06724   -1.000
 5427.00    3.27855   3.04577   -1.000
 5428.00    3.16583   3.00353   -1.000
 5429.00    3.04027   2.95255   -1.000
 5430.00    3.02562   2.90945   -1.000
 5431.00    3.08591   2.88271   -1.000
 5432.00    3.10040   2.86840   -1.000
 5433.00    3.05362   2.86215   -1.000
 5434.00    3.00679   2.86695   -1.000
 5435.00    3.00213   2.89340   -1.000
 5436.00    3.06048   2.94814   -1.000
 5437.00    3.16596   3.02432   -1.000
 5438.00    3.26982   3.10621   -1.000
 5439.00    3.36141   3.17684   -1.000
 5440.00    3.39561   3.22423   -1.000
 5441.00    3.38277   3.24144   -1.000
 5442.00    3.34399   3.22455   -1.000
 5443.00    3.28492   3.17338   -1.000
 5444.00    3.23403   3.09587   -1.000
 5445.00    3.12409   3.01206   -1.000
 5446.00    2.94014   2.94783  110.813
 5447.00    2.87530   2.92354   -1.000
 5448.00    2.98072   2.94091   -1.000
 5449.00    3.13073   2.98110   -1.000
 5450.00    3.21983   3.01710   -1.000
 5451.00    3.25568   3.02608   -1.000
 5452.00    3.21189   3.00190   -1.000
 5453.00    3.13422   2.95718   -1.000
 5454.00    2.99961   2.91407   -1.000
 5455.00    2.91798   2.89563  110.384
 5456.00    2.96502   2.91321   -1.000
 5457.00    3.07583   2.95879   -1.000
 5458.00    3.20485   3.01035   -1.000
 5459.00    3.25681   3.04283   -1.000
 5460.00    3.22055   3.04491   -1.000
 5461.00    3.14736   3.02642   -1.000
 5462.00    3.08518   3.00574   -1.000
 5463.00    3.05706   2.99771   -1.000
 5464.00    3.08347   3.00757   -1.000
 5465.00    3.13595   3.03032   -1.000
 5466.00    3.17359   3.05516   -1.000
 5467.00    3.18509   3.07217   -1.000
 5468.00    3.18197   3.07685   -1.000
 5469.00    3.16019   3.06916   -1.000
 5470.00    3.13035   3.05184   -1.000
 5471.00    3.13199   3.02756   -1.000
 5472.00    3.13096   2.99699   -1.000
 5473.00    3.09601   2.96048   -1.000
 5474.00    3.05497   2.92071   -1.000
 5475.00    2.99032   2.88684   -1.000
 5476.00    2.91455   2.87064   -1.000
 5477.00    2.91851   2.87599   -1.000
 5478.00    3.02292   2.89758   -1.000
 5479.00    3.11672   2.92390   -1.000
 5480.00    3.11331   2.94534   -1.000
 5481.00    3.02997   2.96442   -1.000
 5482.00    2.98498   2.98929  111.240
 5483.00    3.04555   3.02308  112.668
 5484.00    3.14336   3.05790   -1.000
 5485.00    3.20688   3.07975   -1.000
 5486.00    3.20670   3.08277   -1.000
 5487.00    3.16440   3.07392   -1.000
 5488.00    3.14058   3.06570   -1.000
 5489.00    3.14913   3.06689   -1.000
 5490.00    3.16252   3.07720   -1.000
 5491.00    3.20466   3.09008   -1.000
 5492.00    3.24095   3.09854   -1.000
 5493.00    3.23257   3.10038   -1.000
 5494.00    3.21775   3.09677   -1.000
 5495.00    3.21886   3.09144   -1.000
 5496.00    3.19199   3.08844   -1.000
 5497.00    3.15810   3.08813   -1.000
 5498.00    3.18729   3.08822   -1.000
 5499.00    3.22501   3.08491   -1.000
 5500.00    3.21866   3.07441   -1.000
 5501.00    3.17335   3.05713   -1.000
 5502.00    3.13580   3.03694   -1.000
 5503.00    3.14333   3.01855   -1.000
 5504.00    3.15749   3.00594   -1.000
 5505.00    3.11958   3.00031   -1.000
 5506.00    3.09050   3.00284   -1.000
 5507.00    3.12899   3.01341   -1.000
 5508.00    3.18308   3.02590   -1.000
 5509.00    3.20763   3.03031   -1.000
 5510.00    3.18408   3.01849   -1.000
 5511.00    3.13772   2.99230   -1.000
 5512.00    3.09407   2.96464   -1.000
 5513.00    3.06119   2.95050   -1.000
 5514.00    3.08871   2.95885   -1.000
 5515.00    3.14965   2.99059   -1.000
 5516.00    3.19466   3.03893   -1.000
 5517.00    3.26349   3.09392   -1.000
 5518.00    3.34830   3.14478   -1.000
 5519.00    3.37899   3.18395   -1.000
 5520.00    3.37796   3.20780   -1.000
 5521.00    3.37958   3.21650   -1.000
 5522.00    3.35724   3.21249   -1.000
 5523.00    3.34984   3.19634   -1.000
 5524.00    3.33718   3.16618   -1.000
 5525.00    3.29076   3.12244   -1.000
 5526.00    3.22301   3.07418   -1.000
 5527.00    3.14252   3.03673   -1.000
 5528.00    3.08288   3.02342   -1.000
 5529.00    3.11506   3.03768   -1.000
 5530.00    3.21697   3.07100   -1.000
 5531.00    3.28027   3.10637   -1.000
 5532.00    3.28430   3.12988   -1.000
 5533.00    3.26466   3.13829   -1.000
 5534.00    3.26498   3.13802   -1.000
 5535.00    3.27082   3.13816   -1.000
 5536.00    3.27492   3.14439   -1.000
 5537.00    3.29755   3.15924   -1.000
 5538.00    3.32441   3.18088   -1.000
 5539.00    3.35721   3.20362   -1.000
 5540.00    3.41183   3.22069   -1.000
 5541.00    3.44724   3.22803   -1.000
 5542.00    3.41956   3.22536   -1.000
 5543.00    3.38439   3.21724   -1.000
 5544.00    3.38933   3.21126   -1.000
 5545.00    3.40207   3.21445   -1.000
 5546.00    3.39069   3.22901   -1.000
 5547.00    3.40619   3.25186   -1.000
 5548.00    3.46480   3.27702   -1.000
 5549.00    3.51528   3.29707   -1.000
 5550.00    3.51470   3.30496   -1.000
 5551.00    3.48710   3.29837   -1.000
 5552.00    3.46023   3.28134   -1.000
 5553.00    3.42212   3.26078   -1.000
 5554.00    3.38685   3.24324   -1.000
 5555.00    3.37980   3.23225   -1.000
 5556.00    3.38775   3.22781   -1.000
 5557.00    3.39418   3.22704   -1.000
 5558.00    3.39473   3.22575   -1.000
 5559.00    3.40318   3.22063   -1.000
 5560.00    3.40461   3.21107   -1.000
 5561.00    3.36790   3.19738   -1.000
 5562.00    3.32602   3.18111   -1.000
 5563.00    3.31411   3.16470   -1.000
 5564.00    3.31518   3.15047   -1.000
 5565.00    3.30489   3.13904   -1.000
 5566.00    3.29033   3.13035   -1.000
 5567.00    3.29125   3.12510   -1.000
 5568.00    3.31083   3.12443   -1.000
 5569.00    3.33380   3.12736   -1.000
 5570.00    3.37468   3.13158   -1.000
 5571.00    3.47102   3.13614   -1.000
 5572.00    3.56702   3.14315   -1.000
 5573.00    3.62493   3.15445   -1.000
 5574.00    3.57548   3.17057   -1.000
 5575.00    3.40576   3.19153   -1.000
 5576.00    3.35339   3.21453   -1.000
 5577.00    3.40101   3.23376   -1.000
 5578.00    3.42106   3.24721   -1.000
 5579.00    3.41867   3.25458   -1.000
 5580.00    3.41885   3.25352   -1.000
 5581.00    3.42127   3.24226   -1.000
 5582.00    3.40352   3.21855   -1.000
 5583.00    3.36311   3.17998   -1.000
 5584.00    3.33483   3.12679   -1.000
 5585.00    3.28202   3.06326   -1.000
 5586.00    3.18578   3.00034   -1.000
 5587.00    3.09867   2.95253   -1.000
 5588.00    3.05657   2.93237   -1.000
 5589.00    3.08856   2.94180   -1.000
 5590.00    3.15733   2.97309   -1.000
 5591.00    3.20370   3.01357   -1.000
 5592.00    3.21163   3.05478   -1.000
 5593.00    3.21037   3.09252   -1.000
 5594.00    3.24921   3.12457   -1.000
 5595.00    3.32377   3.14676   -1.000
 5596.00    3.36823   3.15358   -1.000
 5597.00    3.31953   3.14111   -1.000
 5598.00    3.23373   3.11160   -1.000
 5599.00    3.18334   3.07583   -1.000
 5600.00    3.16120   3.04898   -1.000
 5601.00    3.14459   3.04465   -1.000
 5602.00    3.15055   3.06853   -1.000
 5603.00    3.20894   3.11767   -1.000
 5604.00    3.29085   3.18324   -1.000
 5605.00    3.37550   3.25103   -1.000
 5606.00    3.46949   3.30679   -1.000
 5607.00    3.51304   3.34363   -1.000
 5608.00    3.48550   3.36383   -1.000
 5609.00    3.45555   3.37128   -1.000
 5610.00    3.45357   3.36645   -1.000
 5611.00    3.47898   3.34443   -1.000
 5612.00    3.49036   3.29960   -1.000
 5613.00    3.42132   3.23578   -1.000
 5614.00    3.28380   3.16656   -1.000
 5615.00    3.17487   3.11277   -1.000
 5616.00    3.16587   3.08900   -1.000
 5617.00    3.23137   3.09858   -1.000
 5618.00    3.28352   3.13025   -1.000
 5619.00    3.27341   3.16618   -1.000
 5620.00    3.28384   3.18924   -1.000
 5621.00    3.33050   3.19445   -1.000
 5622.00    3.33135   3.18234   -1.000
 5623.00    3.26534   3.16039   -1.000
 5624.00    3.18942   3.14123   -1.000
 5625.00    3.18075   3.13809   -1.000
 5626.00    3.24861   3.15810   -1.000
 5627.00    3.33914   3.19772   -1.000
 5628.00    3.41250   3.24312   -1.000
 5629.00    3.44504   3.28174   -1.000
 5630.00    3.46317   3.30723   -1.000
 5631.00    3.47467   3.31674   -1.000
 5632.00    3.44676   3.31051   -1.000
 5633.00    3.40899   3.29217   -1.000
 5634.00    3.38521   3.26697   -1.000
 5635.00    3.35687   3.24094   -1.000
 5636.00    3.33065   3.21907   -1.000
 5637.00    3.32216   3.20403   -1.000
 5638.00    3.32954   3.19525   -1.000
 5639.00    3.33026   3.19022   -1.000
 5640.00    3.31781   3.18788   -1.000
 5641.00    3.30416   3.18822   -1.000
 5642.00    3.29992   3.19279   -1.000
 5643.00    3.31618   3.20364   -1.000
 5644.00    3.35575   3.21960   -1.000
 5645.00    3.37711   3.23569   -1.000
 5646.00    3.38514   3.24840   -1.000
 5647.00    3.40885   3.25732   -1.000
 5648.00    3.41621   3.26425   -1.000
 5649.00    3.41132   3.27190   -1.000
 5650.00    3.42717   3.28041   -1.000
 5651.00    3.45932   3.28714   -1.000
 5652.00    3.47904   3.28840   -1.000
 5653.00    3.46673   3.27911   -1.000
 5654.00    3.43583   3.25600   -1.000
 5655.00    3.40244   3.22079   -1.000
 5656.00    3.35654   3.17965   -1.000
 5657.00    3.26405   3.14181   -1.000
 5658.00    3.17091   3.11571   -1.000
 5659.00    3.18085   3.10553   -1.000
 5660.00    3.25845   3.11421   -1.000
 5661.00    3.30795   3.13905   -1.000
 5662.00    3.31082   3.16981   -1.000
 5663.00    3.31605   3.19959   -1.000
 5664.00    3.35722   3.22632   -1.000
 5665.00    3.39417   3.24623   -1.000
 5666.00    3.38931   3.25631   -1.000
 5667.00    3.36148   3.25882   -1.000
 5668.00    3.34789   3.26061   -1.000
 5669.00    3.36083   3.26990   -1.000
 5670.00    3.39186   3.29015   -1.000
 5671.00    3.42999   3.31798   -1.000
 5672.00    3.49195   3.34844   -1.000
 5673.00    3.55456   3.37573   -1.000
 5674.00    3.57214   3.39556   -1.000
 5675.00    3.55911   3.40576   -1.000
 5676.00    3.55660   3.40686   -1.000
 5677.00    3.56190   3.39988   -1.000
 5678.00    3.56494   3.38531   -1.000
 5679.00    3.54951   3.36244   -1.000
 5680.00    3.51209   3.33385   -1.000
 5681.00    3.47537   3.30666   -1.000
 5682.00    3.43609   3.28607   -1.000
 5683.00    3.42889   3.27299   -1.000
 5684.00    3.46706   3.26693   -1.000
 5685.00    3.48255   3.26539   -1.000
 5686.00    3.44203   3.26559   -1.000
 5687.00    3.39448   3.26945   -1.000
 5688.00    3.39518   3.28240   -1.000
 5689.00    3.44906   3.30724   -1.000
 5690.00    3.51865   3.34058   -1.000
 5691.00    3.58433   3.37403   -1.000
 5692.00    3.63205   3.39921   -1.000
 5693.00    3.62348   3.41192   -1.000
 5694.00    3.59388   3.41086   -1.000
 5695.00    3.58311   3.39754   -1.000
 5696.00    3.56139   3.37498   -1.000
 5697.00    3.51951   3.34626   -1.000
 5698.00    3.45501   3.31406   -1.000
 5699.00    3.38692   3.28335   -1.000
 5700.00    3.33137   3.26088   -1.000
 5701.00    3.28876   3.24925   -1.000
 5702.00    3.30344   3.24634   -1.000
 5703.00    3.36775   3.24621   -1.000
 5704.00    3.40510   3.24055   -1.000
 5705.00    3.39045   3.22262   -1.000
 5706.00    3.33485   3.19267   -1.000
 5707.00    3.27620   3.15823   -1.000
 5708.00    3.23518   3.13086   -1.000
 5709.00    3.22147   3.12066   -1.000
 5710.00    3.24998   3.13224   -1.000
 5711.00    3.29089   3.16565   -1.000
 5712.00    3.35048   3.21483   -1.000
 5713.00    3.44553   3.27120   -1.000
 5714.00    3.53184   3.32569   -1.000
 5715.00    3.58565   3.37120   -1.000
 5716.00    3.60479   3.40564   -1.000
 5717.00    3.60863   3.43303   -1.000
 5718.00    3.61157   3.45701   -1.000
 5719.00    3.63416   3.48018   -1.000
 5720.00    3.66614   3.50279   -1.000
 5721.00    3.69098   3.52221   -1.000
 5722.00    3.72102   3.53333   -1.000
 5723.00    3.72579   3.53215   -1.000
 5724.00    3.70419   3.51862   -1.000
 5725.00    3.67189   3.49765   -1.000
 5726.00    3.61435   3.47658   -1.000
 5727.00    3.57054   3.46124   -1.000
 5728.00    3.58717   3.45439   -1.000
 5729.00    3.63172   3.45489   -1.000
 5730.00    3.62810   3.46010   -1.000
 5731.00    3.58006   3.46839   -1.000
 5732.00    3.59647   3.48025   -1.000
 5733.00    3.68511   3.49532   -1.000
 5734.00    3.73812   3.50996   -1.000
 5735.00    3.72177   3.51870   11.060
 5736.00    3.67933   3.51912   11.081
 5737.00    3.64917   3.51451   11.102
 5738.00    3.63756   3.50928   11.096
 5739.00    3.64105   3.50592   11.076
 5740.00    3.64867   3.50549   11.023
 5741.00    3.65204   3.50830   10.951
 5742.00    3.65154   3.51487   10.967
 5743.00    3.65411   3.52378   11.065
 5744.00    3.68009   3.53158   11.135
 5745.00    3.72179   3.53466   11.106
 5746.00    3.73359   3.53156   11.054
 5747.00    3.68425   3.52385   11.099
 5748.00    3.64331   3.51424   11.223
 5749.00    3.67698   3.50340   11.347
 5750.00    3.71337   3.48940   11.386
 5751.00    3.69212   3.47025   11.287
 5752.00    3.63239   3.45068   11.093
 5753.00    3.57314   3.44103   10.932
 5754.00    3.56300   3.45012   10.910
 5755.00    3.59911   3.47743   11.008
 5756.00    3.66255   3.50946   11.149
 5757.00    3.72043   3.52937   11.301
 5758.00    3.72588   3.52545   11.393
 5759.00    3.67364   3.50033   11.330
 5760.00    3.59665   3.46718   11.147
 5761.00    3.53020   3.44363   10.985
 5762.00    3.50545   3.44269   10.918
 5763.00    3.55268   3.46662   10.903
 5764.00    3.63521   3.50811   10.888
 5765.00    3.71081   3.55340   10.895
 5766.00    3.73912   3.58863   10.929
 5767.00    3.73462   3.60676   10.981
 5768.00    3.71456   3.61028   11.048
 5769.00    3.67765   3.60320   11.091
 5770.00    3.65910   3.59002   11.107
 5771.00    3.64676   3.57476   11.097
 5772.00    3.60734   3.56101   11.050
 5773.00    3.54594   3.55114   11.022
 5774.00    3.47647   3.54559   11.044
 5775.00    3.40892   3.54134   11.162
 5776.00    3.36237   3.53202   11.390
 5777.00    3.37003   3.51039   11.582
 5778.00    3.43876   3.47192   11.615
 5779.00    3.47402   3.41906   11.571
 5780.00    3.44318   3.36179   11.528
 5781.00    3.39371   3.31145   11.486
 5782.00    3.36987   3.27823   11.388
 5783.00    3.37084   3.26737   11.240
 5784.00    3.38987   3.27878   11.131
 5785.00    3.42809   3.30676   11.112
 5786.00    3.48600   3.34572   11.154
 5787.00    3.56896   3.38926   11.162
 5788.00    3.64457   3.42913   11.092
 5789.00    3.65934   3.46024   11.008
 5790.00    3.61642   3.48530   10.939
 5791.00    3.58567   3.50961   10.912
 5792.00    3.58664   3.53693   10.954
 5793.00    3.63033   3.56483   11.027
 5794.00    3.70725   3.58691   11.016
 5795.00    3.75343   3.59854   10.900
 5796.00    3.75634   3.60200   10.750
 5797.00    3.74620   3.60606   10.682
 5798.00    3.75261   3.61840   10.739
 5799.00    3.78849   3.64057   10.829
 5800.00    3.83216   3.66452   10.916
 5801.00    3.83690   3.67879   10.979
 5802.00    3.82683   3.67639   10.977
 5803.00    3.80211   3.65973   10.938
 5804.00    3.72691   3.63850   10.902
 5805.00    3.68828   3.62232   10.891
 5806.00    3.70173   3.61739   10.885
 5807.00    3.70317   3.62287   10.853
 5808.00    3.72140   3.63409   10.817
 5809.00    3.75821   3.64513   10.821
 5810.00    3.77384   3.65122   10.891
 5811.00    3.78675   3.64883   10.958
 5812.00    3.79543   3.63673   10.935
 5813.00    3.77826   3.61778   10.861
 5814.00    3.75512   3.59949   10.797
 5815.00    3.72546   3.59012   10.742
 5816.00    3.71656   3.59553   10.701
 5817.00    3.75143   3.61551   10.701
 5818.00    3.79718   3.64380   10.735
 5819.00    3.84612   3.66969   10.735
 5820.00    3.88047   3.68573   10.716
 5821.00    3.88492   3.69091   10.697
 5822.00    3.86079   3.68999   10.684
 5823.00    3.84321   3.68864   10.683
 5824.00    3.85357   3.69022   10.699
 5825.00    3.88506   3.69570   10.692
 5826.00    3.90029   3.70329   10.685
 5827.00    3.89020   3.71121   10.678
 5828.00    3.89512   3.71763   10.686
 5829.00    3.89278   3.72112   10.744
 5830.00    3.88808   3.72037   10.781
 5831.00    3.88919   3.71450   10.759
 5832.00    3.87564   3.70466   10.732
 5833.00    3.86186   3.69354   10.750
 5834.00    3.85169   3.68369   10.780
 5835.00    3.85636   3.67756   10.763
 5836.00    3.87524   3.67687   10.695
 5837.00    3.86183   3.68250   10.630
 5838.00    3.83046   3.69340   10.616
 5839.00    3.82346   3.70810   10.644
 5840.00    3.84592   3.72395   10.684
 5841.00    3.88267   3.73572   10.747
 5842.00    3.89800   3.73797   10.808
 5843.00    3.88802   3.72803   10.860
 5844.00    3.84335   3.70739   10.868
 5845.00    3.77875   3.68143   10.874
 5846.00    3.74230   3.65588   10.924
 5847.00    3.73406   3.63434   10.993
 5848.00    3.73442   3.61688   11.090
 5849.00    3.73500   3.60093   11.162
 5850.00    3.71202   3.58348   11.189
 5851.00    3.66266   3.56302   11.202
 5852.00    3.61812   3.53952   11.286
 5853.00    3.61403   3.51424   11.399
 5854.00    3.63827   3.48849   11.374
 5855.00    3.63685   3.46382   11.242
 5856.00    3.58832   3.44377   11.133
 5857.00    3.53818   3.43328   11.082
 5858.00    3.54907   3.43794   11.040
 5859.00    3.60554   3.45851   11.015
 5860.00    3.64649   3.48802   11.033
 5861.00    3.65699   3.51626   11.071
 5862.00    3.66075   3.53437   11.121
 5863.00    3.65849   3.54194   11.130
 5864.00    3.64852   3.54326   11.049
 5865.00    3.63373   3.54445   10.949
 5866.00    3.61544   3.55014   10.889
 5867.00    3.61164   3.56248   10.875
 5868.00    3.65614   3.58122   10.897
 5869.00    3.70437   3.60271   10.908
 5870.00    3.71817   3.61971   10.895
 5871.00    3.71394   3.62821   10.913
 5872.00    3.68615   3.62884   10.958
 5873.00    3.69467   3.62364   10.983
 5874.00    3.73304   3.61435   11.048
 5875.00    3.74605   3.60046   11.127
 5876.00    3.70980   3.58115   11.147
 5877.00    3.66854   3.55709   11.122
 5878.00    3.61173   3.53220   11.112
 5879.00    3.55112   3.51133   11.149
 5880.00    3.50252   3.49641   11.171
 5881.00    3.42860   3.48660   11.200
 5882.00    3.26398   3.47643   11.310
 5883.00    2.98625   3.45584   -1.000
 5884.00    2.69278   3.41011   -1.000
 5885.00    2.48450   3.32540   -1.000
 5886.00    2.44583   3.19698   -1.000
 5887.00    2.52941   3.03398   -1.000
 5888.00    2.50903   2.86547   -1.000
 5889.00    2.30832   2.72975   -1.000
 5890.00    2.11947   2.65538   -1.000
 5891.00    2.09417   2.64794   -1.000
 5892.00    2.27932   2.68094   -1.000
 5893.00    2.56456   2.72379   12.620
 5894.00    2.73425   2.75661   12.177
 5895.00    2.77600   2.78879   11.805
 5896.00    2.83859   2.84335   11.528
 5897.00    3.02028   2.93440   11.310
 5898.00    3.23984   3.05751   11.213
 5899.00    3.39916   3.18526   11.194
 5900.00    3.49561   3.29490   11.191
 5901.00    3.57657   3.37733   11.204
 5902.00    3.62083   3.43292   11.205
 5903.00    3.61131   3.46661   11.186
 5904.00    3.60708   3.48655   11.161
 5905.00    3.62428   3.49984   11.183
 5906.00    3.65480   3.51206   11.207
 5907.00    3.67405   3.52558   11.219
 5908.00    3.65228   3.53933   11.254
 5909.00    3.62154   3.54856   11.388
 5910.00    3.63381   3.54806   11.499
 5911.00    3.66011   3.53599   11.500
 5912.00    3.62927   3.51430   11.439
 5913.00    3.56306   3.48901   11.390
 5914.00    3.49576   3.46927   11.345
 5915.00    3.47264   3.46279   11.313
 5916.00    3.50139   3.47245   11.275
 5917.00    3.55541   3.49400   11.267
 5918.00    3.62420   3.51841   11.278
 5919.00    3.67695   3.53904   11.246
 5920.00    3.65853   3.55241   11.206
 5921.00    3.63145   3.56034   11.183
 5922.00    3.65807   3.56640   11.172
 5923.00    3.65839   3.57359   11.187
 5924.00    3.66815   3.58129   11.255
 5925.00    3.68321   3.58640   11.345
 5926.00    3.68122   3.58491   11.357
 5927.00    3.67186   3.57670   11.265
 5928.00    3.64440   3.56577   11.196
 5929.00    3.60914   3.55692   11.250
 5930.00    3.62822   3.55423   11.335
 5931.00    3.66693   3.55688   11.365
 5932.00    3.67108   3.56291   11.311
 5933.00    3.66759   3.56912   11.217
 5934.00    3.63640   3.57514   11.163
 5935.00    3.62802   3.58367   11.187
 5936.00    3.66696   3.59443   11.289
 5937.00    3.70642   3.60402   11.366
 5938.00    3.72657   3.60639   11.372
 5939.00    3.71775   3.60010   11.315
 5940.00    3.66673   3.59020   11.247
 5941.00    3.64230   3.58298   11.198
 5942.00    3.65360   3.58361   11.214
 5943.00    3.68173   3.59219   11.303
 5944.00    3.71376   3.60386   11.421
 5945.00    3.73954   3.61085   11.468
 5946.00    3.74171   3.60948   11.424
 5947.00    3.71774   3.60063   11.375
 5948.00    3.68678   3.58871   11.390
 5949.00    3.66085   3.57852   11.392
 5950.00    3.64383   3.57255   11.371
 5951.00    3.62218   3.57077   11.368
 5952.00    3.61194   3.56914   11.407
 5953.00    3.61702   3.56670   11.431
 5954.00    3.65036   3.56464   11.398
 5955.00    3.68890   3.56492   11.282
 5956.00    3.65135   3.56944   11.167
 5957.00    3.62315   3.57978   11.111
 5958.00    3.64939   3.59789   11.094
 5959.00    3.69918   3.62289   11.113
 5960.00    3.74275   3.64837   11.169
 5961.00    3.76482   3.66704   11.212
 5962.00    3.77304   3.67534   11.251
 5963.00    3.76254   3.67455   11.239
 5964.00    3.74028   3.67018   11.162
 5965.00    3.72506   3.66809   11.122
 5966.00    3.73321   3.67254   11.117
 5967.00    3.76072   3.68418   11.097
 5968.00    3.77608   3.70044   11.081
 5969.00    3.78455   3.71559   11.128
 5970.00    3.79938   3.72489   11.214
 5971.00    3.80598   3.72531   11.301
 5972.00    3.78964   3.71513   11.382
 5973.00    3.77171   3.69494   11.439
 5974.00    3.74567   3.66830   11.407
 5975.00    3.70768   3.64157   11.315
 5976.00    3.68211   3.62142   11.260
 5977.00    3.66824   3.61253   11.276
 5978.00    3.70003   3.61463   11.358
 5979.00    3.73058   3.62082   11.458
 5980.00    3.74997   3.62329   11.523
 5981.00    3.76647   3.61648   11.499
 5982.00    3.74588   3.60222   11.390
 5983.00    3.66589   3.58706   11.310
 5984.00    3.63226   3.58073   11.269
 5985.00    3.67295   3.58878   11.218
 5986.00    3.72787   3.60955   11.221
 5987.00    3.76169   3.63625   11.248
 5988.00    3.78581   3.66080   11.207
 5989.00    3.81262   3.68159   11.118
 5990.00    3.83265   3.69981   11.074
 5991.00    3.82669   3.71619   11.134
 5992.00    3.81649   3.72970   11.215
 5993.00    3.83686   3.73769   11.269
 5994.00    3.85540   3.73663   11.296
 5995.00    3.83281   3.72521   11.283
 5996.00    3.77629   3.70691   11.287
 5997.00    3.75315   3.68843   11.346
 5998.00    3.76164   3.67640   11.390
 5999.00    3.77391   3.67189   11.392
 6000.00    3.77418   3.67272   11.365
 6001.00    3.75320   3.67376   11.365
 6002.00    3.72648   3.67132   11.436
 6003.00    3.72634   3.66407   11.548
 6004.00    3.73272   3.65197   11.568
 6005.00    3.70521   3.63795   11.454
 6006.00    3.66388   3.62535   11.329
 6007.00    3.64017   3.61805   11.314
 6008.00    3.65208   3.62048   11.391
 6009.00    3.70111   3.63118   11.458
 6010.00    3.74430   3.64435   11.419
 6011.00    3.77883   3.65255   11.405
 6012.00    3.76921   3.65133   11.449
 6013.00    3.73332   3.64496   11.477
 6014.00    3.72027   3.63870   11.455
 6015.00    3.73205   3.63484   11.478
 6016.00    3.74252   3.63201   11.547
 6017.00    3.75273   3.62793   11.523
 6018.00    3.76559   3.62368   11.447
 6019.00    3.74478   3.62213   11.413
 6020.00    3.73079   3.62473   11.398
 6021.00    3.76140   3.63373   11.338
 6022.00    3.78476   3.65114   11.298
 6023.00    3.80033   3.67481   11.233
 6024.00    3.83888   3.70191   11.180
 6025.00    3.88354   3.72983   11.160
 6026.00    3.89812   3.75661   11.161
 6027.00    3.89282   3.78112   11.184
 6028.00    3.90365   3.80281   11.171
 6029.00    3.92292   3.82212   11.124
 6030.00    3.92915   3.83993   11.092
 6031.00    3.93099   3.85682   11.084
 6032.00    3.93805   3.87362   11.067
 6033.00    3.95089   3.88930   11.073
 6034.00    3.96697   3.90069   11.130
 6035.00    3.98382   3.90496   11.160
 6036.00    3.98459   3.90046   11.192
 6037.00    3.98355   3.88902   11.178
 6038.00    3.97496   3.87578   11.160
 6039.00    3.95356   3.86578   11.109
 6040.00    3.94879   3.86300   11.024
 6041.00    3.95396   3.86841   11.015
 6042.00    3.96640   3.88103   11.021
 6043.00    3.98659   3.89738   11.005
 6044.00    4.02296   3.91374   11.012
 6045.00    4.03632   3.92753   11.047
 6046.00    4.04079   3.93663   11.075
 6047.00    4.04800   3.94155   11.086
 6048.00    4.06183   3.94179   11.106
 6049.00    4.06379   3.93701   11.148
 6050.00    4.03927   3.92628   11.184
 6051.00    4.02413   3.90937   11.242
 6052.00    4.00836   3.88727   11.281
 6053.00    3.99030   3.86321   11.269
 6054.00    3.96666   3.84224   11.213
 6055.00    3.95527   3.82904   11.155
 6056.00    3.94157   3.82553   11.158
 6057.00    3.93957   3.83021   11.184
 6058.00    3.94827   3.83876   11.325
 6059.00    4.00958   3.84388   11.543
 6060.00    4.05293   3.83983   11.243
 6061.00    3.99486   3.82518   -1.000
 6062.00    3.95144   3.80443    4.223
 6063.00    3.27276   3.78695   -1.000
 6064.00    2.31361   3.78219   -1.000
 6065.00    3.20355   3.79604   -1.000
 6066.00    3.87028   3.82732   10.930
 6067.00    3.97781   3.86912   10.757
 6068.00    3.97539   3.91094   10.941
 6069.00    3.90197   3.94449   11.048
 6070.00    4.04395   3.96620   11.063
 6071.00    4.13539   3.97707   11.096
 6072.00    4.13139   3.97820   11.152
 6073.00    4.10651   3.96984   11.216
 6074.00    4.09931   3.95252   11.300
 6075.00    4.08806   3.92783   11.372
 6076.00    4.02657   3.89842   11.387
 6077.00    3.96303   3.86760   11.395
 6078.00    3.96909   3.83920   11.425
 6079.00    3.95280   3.81607   11.429
 6080.00    3.94448   3.80014   11.421
 6081.00    3.94184   3.79149   11.410
 6082.00    3.93694   3.78980   11.379
 6083.00    3.92517   3.79425   11.334
 6084.00    3.93322   3.80318   11.347
 6085.00    3.95292   3.81239   11.412
 6086.00    3.95341   3.81767   11.464
 6087.00    3.96650   3.81709   11.465
 6088.00    3.99752   3.81069   11.398
 6089.00    3.98022   3.80180   11.338
 6090.00    3.93826   3.79593   11.275
 6091.00    3.91671   3.79804   11.224
 6092.00    3.94804   3.81028   11.222
 6093.00    3.98841   3.82987   11.248
 6094.00    4.00152   3.85168   11.258
 6095.00    4.01223   3.87026   11.260
 6096.00    3.98279   3.88083   11.378
 6097.00    4.00128   3.87917   11.643
 6098.00    4.03738   3.86266   11.845
 6099.00    3.99803   3.83205   11.791
 6100.00    3.94741   3.79240   11.577
 6101.00    3.86820   3.75428   11.395
 6102.00    3.77243   3.73149   11.341
 6103.00    3.77658   3.73257   11.377
 6104.00    3.85342   3.75827   11.408
 6105.00    3.92703   3.79759   11.406
 6106.00    3.96945   3.83708   11.383
 6107.00    3.97642   3.86816   11.336
 6108.00    3.99067   3.88971   11.328
 6109.00    4.03244   3.90476   11.275
 6110.00    4.01179   3.91614   11.243
 6111.00    3.95437   3.92533   11.279
 6112.00    3.96178   3.93306   11.352
 6113.00    3.96646   3.93837   11.375
 6114.00    3.94863   3.93770   11.424
 6115.00    3.97778   3.92744   11.579
 6116.00    4.01466   3.90507   11.733
 6117.00    3.98701   3.87086   11.849
 6118.00    3.94735   3.82797   11.870
 6119.00    3.92205   3.78235   11.697
 6120.00    3.86685   3.74335   11.539
 6121.00    3.79943   3.72165   11.521
 6122.00    3.79716   3.72280   11.583
 6123.00    3.86350   3.74419   11.578
 6124.00    3.92429   3.77603   11.552
 6125.00    3.96111   3.80733   11.465
 6126.00    3.89548   3.83216   11.357
 6127.00    3.84844   3.85316   11.324
 6128.00    3.86260   3.87444   11.343
 6129.00    3.86069   3.89518   11.442
 6130.00    3.90110   3.90841   11.688
 6131.00    3.94559   3.90259   12.029
 6132.00    3.93373   3.86975   12.339
 6133.00    3.87994   3.81113   12.402
 6134.00    3.76589   3.73995   12.121
 6135.00    3.63876   3.67694   11.776
 6136.00    3.54332   3.64228   11.626
 6137.00    3.54541   3.64586   11.635
 6138.00    3.58743   3.68420   11.656
 6139.00    3.71360   3.74093   11.551
 6140.00    3.81319   3.79862   11.412
 6141.00    3.80883   3.84677   11.383
 6142.00    3.82267   3.88348   11.431
 6143.00    3.88578   3.91072   11.503
 6144.00    3.91086   3.92701   11.586
 6145.00    3.92067   3.92922   11.655
 6146.00    3.89924   3.91772   11.662
 6147.00    3.88053   3.89753   11.622
 6148.00    3.83753   3.87618   11.543
 6149.00    3.82978   3.85958   11.523
 6150.00    3.83082   3.85028   11.612
 6151.00    3.81779   3.84610   11.677
 6152.00    3.78455   3.84238   11.689
 6153.00    3.74395   3.83414   11.734
 6154.00    3.76739   3.81816   11.853
 6155.00    3.74518   3.79234   12.073
 6156.00    3.66703   3.75401   12.430
 6157.00    3.65271   3.69961   12.795
 6158.00    3.59385   3.62767   12.938
 6159.00    3.46509   3.54424   12.768
 6160.00    3.34815   3.46420   12.423
 6161.00    3.25917   3.40609   12.220
 6162.00    3.21032   3.38417   12.159
 6163.00    3.28004   3.39969   12.186
 6164.00    3.37525   3.44026   12.337
 6165.00    3.44372   3.48481   12.466
 6166.00    3.48736   3.51766   12.389
 6167.00    3.46131   3.53408   12.156
 6168.00    3.41262   3.54149   11.980
 6169.00    3.38136   3.55100   11.980
 6170.00    3.39493   3.57134   11.992
 6171.00    3.45562   3.60293   11.964
 6172.00    3.53214   3.63909   11.941
 6173.00    3.55304   3.67126   11.909
 6174.00    3.59034   3.69506   11.851
 6175.00    3.56513   3.71277   11.807
 6176.00    3.53402   3.72839   11.770
 6177.00    3.55768   3.74459   11.716
 6178.00    3.58209   3.76208   11.684
 6179.00    3.60773   3.77940   11.705
 6180.00    3.64909   3.79325   11.746
 6181.00    3.66220   3.80002   11.837
 6182.00    3.66039   3.79709   11.966
 6183.00    3.65044   3.78262   12.090
 6184.00    3.60158   3.75657   12.206
 6185.00    3.53684   3.72165   12.295
 6186.00    3.57674   3.68164   12.454
 6187.00    3.61129   3.64095   12.538
 6188.00    3.48696   3.60452   12.408
 6189.00    3.37648   3.57845   12.104
 6190.00    3.34785   3.56862   11.901
 6191.00    3.35332   3.57898   11.823
 6192.00    3.43007   3.60887   11.804
 6193.00    3.54059   3.65100   11.878
 6194.00    3.60383   3.69266   12.015
 6195.00    3.64299   3.72274   12.115
 6196.00    3.62261   3.73658   12.107
 6197.00    3.56108   3.73811   11.988
 6198.00    3.49547   3.73560   11.837
 6199.00    3.45879   3.73787   -1.000
 6200.00    3.45608   3.75004   -1.000
 6201.00    3.50126   3.77215   -1.000
 6202.00    3.57422   3.79861   11.780
 6203.00    3.62770   3.82275   11.825
 6204.00    3.64016   3.84070   11.825
 6205.00    3.63158   3.85095   11.876
 6206.00    3.63060   3.85319   11.984
 6207.00    3.62667   3.84620   12.078
 6208.00    3.59195   3.82804   12.196
 6209.00    3.56569   3.79725   12.381
 6210.00    3.54319   3.75437   12.508
 6211.00    3.50224   3.70333   12.543
 6212.00    3.46908   3.65114   12.383
 6213.00    3.42084   3.60594   12.320
 6214.00    3.39203   3.57432   12.411
 6215.00    3.44850   3.55871   12.368
 6216.00    3.52293   3.55631   12.277
 6217.00    3.54430   3.56119   12.350
 6218.00    3.53789   3.56824   13.255
 6219.00    3.47709   3.57582   12.855
 6220.00    3.40453   3.58468   12.253
 6221.00    3.42511   3.59638   12.210
 6222.00    3.50406   3.60992   12.219
 6223.00    3.57538   3.62188   12.287
 6224.00    3.59885   3.62804   12.453
 6225.00    3.61283   3.62463   12.660
 6226.00    3.58695   3.60917   12.823
 6227.00    3.52893   3.58207   12.773
 6228.00    3.49806   3.54881   12.591
 6229.00    3.43658   3.52004   12.352
 6230.00    3.34865   3.50776   12.151
 6231.00    3.31824   3.51964   12.092
 6232.00    3.35334   3.55424   12.171
 6233.00    3.39132   3.60021   12.295
 6234.00    3.47523   3.64174   12.420
 6235.00    3.57842   3.66571   12.552
 6236.00    3.61421   3.66698   12.606
 6237.00    3.53959   3.64832   12.602
 6238.00    3.50440   3.61836   12.693
 6239.00    3.43990   3.58593   12.777
 6240.00    3.37625   3.55753   12.770
 6241.00    3.38103   3.53682   12.689
 6242.00    3.38916   3.52609   12.564
 6243.00    3.35545   3.52713   12.404
 6244.00    3.34104   3.54110   12.274
 6245.00    3.36802   3.56687   12.260
 6246.00    3.40411   3.59884   12.373
 6247.00    3.47074   3.62787   12.601
 6248.00    3.52684   3.64474   12.758
 6249.00    3.52022   3.64347   12.846
 6250.00    3.48830   3.62399   12.882
 6251.00    3.42402   3.59228   12.877
 6252.00    3.35636   3.55655   12.994
 6253.00    3.33737   3.52377   13.110
 6254.00    3.34349   3.49807   13.056
 6255.00    3.32799   3.48137   12.860
 6256.00    3.29679   3.47594   12.666
 6257.00    3.28329   3.48526   12.494
 6258.00    3.30318   3.51194   12.300
 6259.00    3.33373   3.55468   12.238
 6260.00    3.41930   3.60608   12.334
 6261.00    3.51214   3.65581   12.417
 6262.00    3.55103   3.69491   12.362
 6263.00    3.57209   3.71970   12.272
 6264.00    3.54814   3.73168   12.314
 6265.00    3.50013   3.73580   12.377
 6266.00    3.50573   3.73734   12.361
 6267.00    3.52654   3.73984   12.319
 6268.00    3.51822   3.74450   12.289
 6269.00    3.51107   3.75051   12.322
 6270.00    3.50269   3.75660   -1.000
 6271.00    3.49375   3.76057   -1.000
 6272.00    3.43421   3.75905   -1.000
 6273.00    3.36388   3.74912   -1.000
 6274.00    3.32052   3.73019   -1.000
 6275.00    3.27387   3.70453   -1.000
 6276.00    3.24367   3.67663   -1.000
 6277.00    3.21363   3.65192   -1.000
 6278.00    3.16877   3.63557   -1.000
 6279.00    3.13156   3.63196   -1.000
 6280.00    3.14642   3.64337   -1.000
 6281.00    3.21818   3.66923   -1.000
 6282.00    3.35447   3.70586   -1.000
 6283.00    3.48793   3.74743   -1.000
 6284.00    3.54837   3.78769   12.191
 6285.00    3.56495   3.82171   -1.000
 6286.00    3.61952   3.84615   12.361
 6287.00    3.66206   3.85899   12.453
 6288.00    3.72558   3.85937   12.477
 6289.00    3.72453   3.84835   12.491
 6290.00    3.68335   3.82915   12.513
 6291.00    3.67058   3.80632   12.611
 6292.00    3.66223   3.78345   12.694
 6293.00    3.63579   3.76197   12.713
 6294.00    3.64471   3.74163   12.693
 6295.00    3.63086   3.72269   12.640
 6296.00    3.58245   3.70653   12.583
 6297.00    3.55042   3.69482   12.692
 6298.00    3.54990   3.68856   12.837
 6299.00    3.57732   3.68747   12.728
 6300.00    3.58467   3.69084   12.525
 6301.00    3.57882   3.69959   12.372
 6302.00    3.58580   3.71579   12.267
 6303.00    3.62149   3.74090   12.155
 6304.00    3.65595   3.77322   12.136
 6305.00    3.67602   3.80808   12.190
 6306.00    3.71454   3.83949   12.274
 6307.00    3.77727   3.86206   12.321
 6308.00    3.82610   3.87223   12.372
 6309.00    3.83443   3.86926   12.382
 6310.00    3.81102   3.85523   12.499
 6311.00    3.73783   3.83413   12.543
 6312.00    3.69264   3.80988   12.534
 6313.00    3.68574   3.78510   12.521
 6314.00    3.67559   3.76188   12.540
 6315.00    3.66086   3.74275   12.493
 6316.00    3.66538   3.73159   12.339
 6317.00    3.66782   3.73234   12.219
 6318.00    3.67462   3.74657   12.173
 6319.00    3.69455   3.77270   12.132
 6320.00    3.74702   3.80696   12.066
 6321.00    3.81133   3.84385   12.029
 6322.00    3.84999   3.87804   12.023
 6323.00    3.89337   3.90670   11.961
 6324.00    3.91837   3.92907   11.974
 6325.00    3.90272   3.94540   11.982
 6326.00    3.92662   3.95660   11.991
 6327.00    3.94401   3.96414   11.946
 6328.00    3.89494   3.96953   11.927
 6329.00    3.93380   3.97280   11.960
 6330.00    3.95301   3.97201   11.990
 6331.00    3.94850   3.96403   12.277
 6332.00    3.98069   3.94690   12.300
 6333.00    3.93630   3.92188   12.194
 6334.00    3.86570   3.89447   12.069
 6335.00    3.82759   3.87326   11.935
 6336.00    3.81965   3.86558   11.879
 6337.00    3.83539   3.87321   11.820
 6338.00    3.88322   3.89089   11.831
 6339.00    3.93694   3.90905   11.941
 6340.00    3.98522   3.91991   11.956
 6341.00    3.96559   3.92144   11.922
 6342.00    3.92656   3.91762   11.856
 6343.00    3.91261   3.91605   11.772
 6344.00    3.90121   3.92371   11.729
 6345.00    3.88896   3.94294   11.733
 6346.00    3.92684   3.97074   11.706
 6347.00    3.97396   4.00012   11.718
 6348.00    3.98408   4.02373   11.770
 6349.00    3.99940   4.03664   11.824
 6350.00    3.97889   4.03661   11.963
 6351.00    3.98135   4.02390   12.065
 6352.00    3.96826   4.00077   12.068
 6353.00    3.92005   3.97060   12.104
 6354.00    3.88324   3.93662   12.246
 6355.00    3.84784   3.90089   12.296
 6356.00    3.85120   3.86457   12.243
 6357.00    3.81782   3.82858   12.204
 6358.00    3.74648   3.79490   12.194
 6359.00    3.74492   3.76765   12.151
 6360.00    3.74763   3.75198   12.069
 6361.00    3.75572   3.75192   11.992
 6362.00    3.77051   3.76878   11.928
 6363.00    3.79479   3.80098   11.851
 6364.00    3.84849   3.84448   11.772
 6365.00    3.90426   3.89336   11.744
 6366.00    3.98158   3.94137   11.753
 6367.00    4.03085   3.98381   11.712
 6368.00    4.07048   4.01862   11.665
 6369.00    4.09691   4.04613   11.699
 6370.00    4.09091   4.06774   11.707
 6371.00    4.09457   4.08478   11.733
 6372.00    4.10539   4.09748   11.777
 6373.00    4.10541   4.10463   11.838
 6374.00    4.10654   4.10478   11.920
 6375.00    4.10730   4.09747   11.964
 6376.00    4.09366   4.08432   11.970
 6377.00    4.06572   4.06856   11.994
 6378.00    4.04299   4.05399   11.990
 6379.00    4.00419   4.04401   11.957
 6380.00    3.98986   4.04066   12.017
 6381.00    4.00390   4.04370   12.042
 6382.00    4.01826   4.05128   12.031
 6383.00    4.03118   4.06129   12.070
 6384.00    4.01118   4.07196   12.108
 6385.00    4.00661   4.08168   12.212
 6386.00    4.01277   4.08842   12.307
 6387.00    4.00789   4.08936   12.451
 6388.00    4.01236   4.08145   12.643
 6389.00    3.98966   4.06347   12.747
 6390.00    3.95546   4.03806   12.702
 6391.00    3.91474   4.01182   12.505
 6392.00    3.83706   3.99293   12.491
 6393.00    3.77353   3.98703   12.573
 6394.00    3.77142   3.99345   12.769
 6395.00    3.82182   4.00481   13.068
 6396.00    3.87799   4.01167   13.156
 6397.00    3.89567   4.00928   13.010
 6398.00    3.84804   4.00189   12.798
 6399.00    3.76551   3.99977   12.741
 6400.00    3.71430   4.01143   -1.000
 6401.00    3.73997   4.03733   -1.000
 6402.00    3.80133   4.06917   -1.000
 6403.00    3.85011   4.09474   13.248
 6404.00    3.83510   4.10518   -1.000
 6405.00    3.77960   4.10004   -1.000
 6406.00    3.72443   4.08534   -1.000
 6407.00    3.64890   4.06849   -1.000
 6408.00    3.61474   4.05463   -1.000
 6409.00    3.61128   4.04571   -1.000
 6410.00    3.58477   4.04164   -1.000
 6411.00    3.54888   4.04203   -1.000
 6412.00    3.51633   4.04686   -1.000
 6413.00    3.47905   4.05526   -1.000
 6414.00    3.46000   4.06417   -1.000
 6415.00    3.45268   4.06847   -1.000
 6416.00    3.44643   4.06405   -1.000
 6417.00    3.40033   4.05118   -1.000
 6418.00    3.36733   4.03520   -1.000
 6419.00    3.32158   4.02468   -1.000
 6420.00    3.23981   4.02732   -1.000
 6421.00    3.22379   4.04582   -1.000
 6422.00    3.27234   4.07650   -1.000
 6423.00    3.31029   4.11099   -1.000
 6424.00    3.29020   4.13950   -1.000
 6425.00    3.25878   4.15437   -1.000
 6426.00    3.24540   4.15242   -1.000
 6427.00    0.11408   4.13520   -1.000
 6428.00    0.00000   4.10906   -2.000
