###################################################################
## OUTPUT of StarlightChains_v04.for    [Cid@UFSC - 01/Apr/2007] ##
###################################################################

## Some input info
NGC6528_a_1.cxt                          [arq_obs]
Base.BC03.S                              [arq_base]
NGC6528_a_1.msk                          [arq_masks]
StCv04.C11.config                        [arq_config]
  150                                    [N_base]
    0                                    [N_YAV_components = # of components with extra extinction!]
    0                                    [i_FitPowerLaw (1/0 = Yes/No)]
-9.99                                    [alpha_PowerLaw]
CCM                                      [red_law_option]
 1.458241                                [q_norm = A(l_norm)/A(V)]

## (Re)Sampling Parameters
 3359.00                                 [l_ini (A)]
 6428.00                                 [l_fin (A)]
    1.00                                 [dl    (A)]     (OBS: dl_cushion =    50.00 A)

## Normalization info
 4020.00                                 [l_norm (A) - for base]
 4010.00                                 [llow_norm (A) - window for f_obs]
 4060.00                                 [lupp_norm (A) - window for f_obs]
3.287291E-15                             [fobs_norm (in input units)]

## S/N
 4730.00                                 [llow_SN (A) - window for S/N]
 4780.00                                 [lupp_SN (A) - window for S/N]
  27.037                                 [S/N in S/N window]
  13.551                                 [S/N in norm. window]
 247.699                                 [S/N_err in S/N window]
 124.147                                 [S/N_err in norm. window]
  1.0000                                 [fscale_chi2]

## etc...
  2147483606                             [idum_orig]
  3069                                   [NOl_eff]
   693                                   [Nl_eff]
  2376    NSIGMA                         [Ntot_cliped & clip_method]
  1459500                                [Nglobal_steps]
   7                                     [N_chains]
  21                                     [NEX0s_base = N_base in EX0s-fits]
 0   0   1      104   2.0   2.944E+02    [Clip-Bug, RC-Crash & Burn-In warning-flags, n_censored_weights, wei_nsig_threshold & wei_limit]
    58     57.704     57.700      0.004  [idt_all, wdt_TotTime, wdt_UsrTime & wdt_SysTime (sec)]

## Synthesis Results - Best model ##

 2.80246E+00                             [chi2/Nl_eff]
     2.38260                             [adev (%)]

   104.48507                             [sum-of-x (%)]
 2.06808E-14                             [Flux_tot (units of input spectrum!)]
 1.64182E-09                             [Mini_tot (???)]
 8.28282E-10                             [Mcor_tot (???)]

  -6.42                                  [v0_min  (km/s)]
 112.43                                  [vd_min  (km/s)]
 1.3367                                  [AV_min  (mag)]
 0.0000                                  [YAV_min (mag)]

# j     x_j(%)      Mini_j(%)     Mcor_j(%)     age_j(yr)     Z_j      (L/M)_j    YAV?  Mstars   component_j        a/Fe...       SSP_chi2r SSP_adev(%)   SSP_AV   SSP_x(%)
  1      2.4327     3.5941E-03    7.1242E-03    1.000000E+06  0.00010  8.160E-03    0   1.0000   age020_m22            0.0000     4.4964E+03    54.3116   4.0000    97.5667
  2      0.0000     0.0000E+00    0.0000E+00    3.160000E+06  0.00010  4.759E-02    0   1.0000   age045_m22            0.0000     5.1597E+02    15.0796   4.0000   101.0657
  3      5.5139     3.4406E-03    6.5349E-03    5.010000E+06  0.00010  1.932E-02    0   0.9582   age055_m22            0.0000     9.5953E+02    25.8465   4.0000    95.0918
  4      0.0000     0.0000E+00    0.0000E+00    6.610000E+06  0.00010  9.973E-03    0   0.9297   age061_m22            0.0000     4.5220E+03    53.3720   4.0000   100.8552
  5      0.0000     0.0000E+00    0.0000E+00    8.710000E+06  0.00010  7.690E-03    0   0.9030   age067_m22            0.0000     4.4443E+03    52.9015   4.0000   101.3469
  6      0.0000     0.0000E+00    0.0000E+00    1.000000E+07  0.00010  6.375E-03    0   0.8902   age070_m22            0.0000     4.4353E+03    52.6970   4.0000   101.5282
  7      0.0000     0.0000E+00    0.0000E+00    1.445000E+07  0.00010  4.874E-03    0   0.8589   age078_m22            0.0000     3.7038E+03    48.6126   4.0000   104.5837
  8      0.0000     0.0000E+00    0.0000E+00    2.512000E+07  0.00010  4.103E-03    0   0.8174   age090_m22            0.0000     2.4177E+03    38.8442   4.0000   109.7908
  9      0.0000     0.0000E+00    0.0000E+00    4.000000E+07  0.00010  3.654E-03    0   0.7830   age104_m22            0.0000     1.7738E+03    30.5734   4.0000   112.0106
 10      0.0000     0.0000E+00    0.0000E+00    5.500000E+07  0.00010  3.093E-03    0   0.7597   age110_m22            0.0000     1.5632E+03    27.5446   4.0000   112.5003
 11      0.0000     0.0000E+00    0.0000E+00    1.015200E+08  0.00010  2.431E-03    0   0.7138   age116_m22            0.0000     1.1591E+03    21.4777   4.0000   111.3036
 12      0.0000     0.0000E+00    0.0000E+00    1.609000E+08  0.00010  1.319E-03    0   0.6775   age120_m22            0.0000     7.6720E+02    17.2010   4.0000   106.7978
 13      0.0000     0.0000E+00    0.0000E+00    2.861200E+08  0.00010  1.075E-03    0   0.6412   age125_m22            0.0000     9.9908E+02    20.1254   4.0000   110.2808
 14      0.0000     0.0000E+00    0.0000E+00    5.088000E+08  0.00010  7.183E-04    0   0.6083   age130_m22            0.0000     9.9270E+02    20.9744   4.0000   107.7256
 15      0.0000     0.0000E+00    0.0000E+00    9.047900E+08  0.00010  4.524E-04    0   0.5785   age135_m22            0.0000     9.7566E+02    21.1688   3.8728   107.5640
 16      0.0000     0.0000E+00    0.0000E+00    1.278050E+09  0.00010  3.018E-04    0   0.5588   age138_m22            0.0000     6.6984E+02    17.7883   3.3687   105.9079
 17      0.0000     0.0000E+00    0.0000E+00    1.434000E+09  0.00010  2.691E-04    0   0.5532   age139_m22            0.0000     6.0763E+02    17.0402   3.2136   105.4261
 18      0.7520     5.7307E-02    6.0159E-02    2.500000E+09  0.00010  1.582E-04    0   0.5296   age150_m22            0.0000     5.9526E+02    17.1285   3.1273   106.0943
 19      0.0000     0.0000E+00    0.0000E+00    4.250000E+09  0.00010  1.007E-04    0   0.5110   age158_m22            0.0000     4.9086E+02    15.3979   2.9741   104.7601
 20      0.0000     0.0000E+00    0.0000E+00    6.250000E+09  0.00010  6.869E-05    0   0.4985   age166_m22            0.0000     4.1282E+02    13.9199   2.9151   102.3921
 21      0.0000     0.0000E+00    0.0000E+00    7.500000E+09  0.00010  5.873E-05    0   0.4931   age171_m22            0.0000     4.1261E+02    13.9930   2.9165   101.8367
 22      0.0000     0.0000E+00    0.0000E+00    1.000000E+10  0.00010  4.481E-05    0   0.4854   age181_m22            0.0000     4.0441E+02    13.8426   2.8744   101.5051
 23      0.0000     0.0000E+00    0.0000E+00    1.300000E+10  0.00010  3.489E-05    0   0.4791   age193_m22            0.0000     3.8633E+02    13.4749   2.8092   101.0443
 24      0.0000     0.0000E+00    0.0000E+00    1.500000E+10  0.00010  3.035E-05    0   0.4766   age201_m22            0.0000     3.7666E+02    13.2943   2.7680   100.8895
 25      0.6182     2.9693E-01    2.7869E-01    1.800000E+10  0.00010  2.510E-05    0   0.4735   age213_m22            0.0000     3.5679E+02    12.8976   2.6954   100.3700
 26      1.3785     1.9648E-03    3.8947E-03    1.000000E+06  0.00040  8.458E-03    0   1.0000   age020_m32            0.0000     4.5599E+03    54.2572   4.0000    98.3589
 27      0.0000     0.0000E+00    0.0000E+00    3.160000E+06  0.00040  3.973E-02    0   1.0000   age045_m32            0.0000     2.2410E+03    37.5036   4.0000   109.2844
 28      0.0000     0.0000E+00    0.0000E+00    5.010000E+06  0.00040  1.935E-02    0   0.9532   age055_m32            0.0000     3.1493E+03    45.1162   4.0000   104.2224
 29      0.0000     0.0000E+00    0.0000E+00    6.610000E+06  0.00040  1.204E-02    0   0.9243   age061_m32            0.0000     3.9814E+03    50.4825   4.0000   103.0042
 30      0.0000     0.0000E+00    0.0000E+00    8.710000E+06  0.00040  9.433E-03    0   0.9001   age067_m32            0.0000     3.8251E+03    49.4916   4.0000   103.9693
 31      0.0000     0.0000E+00    0.0000E+00    1.000000E+07  0.00040  8.053E-03    0   0.8877   age070_m32            0.0000     3.6951E+03    48.7216   4.0000   104.4184
 32      0.0000     0.0000E+00    0.0000E+00    1.445000E+07  0.00040  7.027E-03    0   0.8578   age078_m32            0.0000     2.2901E+03    37.9744   4.0000   107.5736
 33      0.0000     0.0000E+00    0.0000E+00    2.512000E+07  0.00040  4.707E-03    0   0.8166   age090_m32            0.0000     1.6139E+03    30.4398   4.0000   109.0495
 34      0.0000     0.0000E+00    0.0000E+00    4.000000E+07  0.00040  3.714E-03    0   0.7827   age104_m32            0.0000     1.2718E+03    24.6246   4.0000   109.9044
 35      0.0000     0.0000E+00    0.0000E+00    5.500000E+07  0.00040  2.982E-03    0   0.7593   age110_m32            0.0000     1.1850E+03    22.8370   4.0000   110.1835
 36      0.0000     0.0000E+00    0.0000E+00    1.015200E+08  0.00040  2.188E-03    0   0.7143   age116_m32            0.0000     9.7457E+02    19.3036   4.0000   110.2249
 37      0.0000     0.0000E+00    0.0000E+00    1.609000E+08  0.00040  1.690E-03    0   0.6856   age120_m32            0.0000     9.4409E+02    19.7349   4.0000   109.4515
 38      0.0000     0.0000E+00    0.0000E+00    2.861200E+08  0.00040  1.152E-03    0   0.6509   age125_m32            0.0000     9.3156E+02    20.4251   4.0000   107.1208
 39      0.0000     0.0000E+00    0.0000E+00    5.088000E+08  0.00040  7.331E-04    0   0.6182   age130_m32            0.0000     9.3568E+02    20.6946   3.8972   106.4644
 40      0.0000     0.0000E+00    0.0000E+00    9.047900E+08  0.00040  3.960E-04    0   0.5890   age135_m32            0.0000     6.6583E+02    17.4276   3.4153   105.6869
 41      0.0000     0.0000E+00    0.0000E+00    1.278050E+09  0.00040  2.854E-04    0   0.5687   age138_m32            0.0000     6.2092E+02    17.3346   3.1716   107.2388
 42      0.0000     0.0000E+00    0.0000E+00    1.434000E+09  0.00040  2.531E-04    0   0.5632   age139_m32            0.0000     6.1037E+02    17.3076   3.1190   107.1076
 43      0.0000     0.0000E+00    0.0000E+00    2.500000E+09  0.00040  1.488E-04    0   0.5386   age150_m32            0.0000     5.0929E+02    15.9318   2.8558   105.5254
 44      0.0000     0.0000E+00    0.0000E+00    4.250000E+09  0.00040  9.082E-05    0   0.5199   age158_m32            0.0000     3.7226E+02    13.2540   2.7525   102.7479
 45      0.6343     1.2020E-01    1.2094E-01    6.250000E+09  0.00040  6.362E-05    0   0.5076   age166_m32            0.0000     3.1456E+02    11.8266   2.7214    99.8226
 46      2.1925     4.9976E-01    4.9799E-01    7.500000E+09  0.00040  5.289E-05    0   0.5027   age171_m32            0.0000     2.9627E+02    11.4042   2.6748    98.7256
 47      6.4913     1.9702E+00    1.9323E+00    1.000000E+10  0.00040  3.972E-05    0   0.4948   age181_m32            0.0000     2.7606E+02    10.9625   2.5949    97.5186
 48      0.0000     0.0000E+00    0.0000E+00    1.300000E+10  0.00040  3.283E-05    0   0.4870   age193_m32            0.0000     2.9407E+02    11.4483   2.5492    99.9669
 49      0.0000     0.0000E+00    0.0000E+00    1.500000E+10  0.00040  2.925E-05    0   0.4854   age201_m32            0.0000     3.1215E+02    11.9188   2.5314   101.3842
 50      0.0000     0.0000E+00    0.0000E+00    1.800000E+10  0.00040  2.469E-05    0   0.4819   age213_m32            0.0000     3.1424E+02    12.0211   2.4894   101.8399
 51      0.5502     5.9544E-04    1.1803E-03    1.000000E+06  0.00400  1.114E-02    0   1.0000   age020_m42            0.0000     4.2881E+03    52.9623   4.0000    98.9185
 52      0.0000     0.0000E+00    0.0000E+00    3.160000E+06  0.00400  4.073E-02    0   0.9999   age045_m42            0.0000     1.5089E+03    29.7628   4.0000   109.4634
 53      0.0000     0.0000E+00    0.0000E+00    5.010000E+06  0.00400  2.534E-02    0   0.9488   age055_m42            0.0000     2.5431E+03    40.8692   4.0000   106.0356
 54      0.0000     0.0000E+00    0.0000E+00    6.610000E+06  0.00400  2.583E-02    0   0.9220   age061_m42            0.0000     1.2660E+03    25.8626   4.0000   108.0522
 55      0.0000     0.0000E+00    0.0000E+00    8.710000E+06  0.00400  1.706E-02    0   0.8983   age067_m42            0.0000     1.1370E+03    24.9130   4.0000   104.7608
 56      0.0000     0.0000E+00    0.0000E+00    1.000000E+07  0.00400  1.271E-02    0   0.8862   age070_m42            0.0000     1.2172E+03    26.4696   4.0000   103.5471
 57      0.0000     0.0000E+00    0.0000E+00    1.445000E+07  0.00400  7.666E-03    0   0.8571   age078_m42            0.0000     1.8857E+03    34.8916   4.0000   104.0904
 58      0.0000     0.0000E+00    0.0000E+00    2.512000E+07  0.00400  5.070E-03    0   0.8174   age090_m42            0.0000     9.7819E+02    23.7530   4.0000   103.7156
 59      0.0000     0.0000E+00    0.0000E+00    4.000000E+07  0.00400  3.505E-03    0   0.7851   age104_m42            0.0000     5.8097E+02    18.2826   4.0000   101.9152
 60      0.0000     0.0000E+00    0.0000E+00    5.500000E+07  0.00400  3.059E-03    0   0.7629   age110_m42            0.0000     6.5002E+02    16.0753   4.0000   105.9103
 61      0.0000     0.0000E+00    0.0000E+00    1.015200E+08  0.00400  2.268E-03    0   0.7207   age116_m42            0.0000     8.1001E+02    18.4498   4.0000   108.4424
 62      0.0000     0.0000E+00    0.0000E+00    1.609000E+08  0.00400  1.720E-03    0   0.6930   age120_m42            0.0000     7.8146E+02    18.7029   4.0000   107.4287
 63      0.0000     0.0000E+00    0.0000E+00    2.861200E+08  0.00400  1.079E-03    0   0.6613   age125_m42            0.0000     7.4305E+02    18.5812   3.7310   106.4784
 64      0.0000     0.0000E+00    0.0000E+00    5.088000E+08  0.00400  6.261E-04    0   0.6313   age130_m42            0.0000     7.8378E+02    19.4145   3.5418   109.3215
 65      0.0000     0.0000E+00    0.0000E+00    9.047900E+08  0.00400  3.535E-04    0   0.6024   age135_m42            0.0000     5.6182E+02    16.4084   3.1237   110.0052
 66      0.0000     0.0000E+00    0.0000E+00    1.278050E+09  0.00400  2.677E-04    0   0.5837   age138_m42            0.0000     2.2288E+02    10.4473   2.3386   108.2212
 67      0.0000     0.0000E+00    0.0000E+00    1.434000E+09  0.00400  1.910E-04    0   0.5716   age139_m42            0.0000     3.0205E+02    11.7910   2.5218   108.9745
 68      0.0000     0.0000E+00    0.0000E+00    2.500000E+09  0.00400  9.818E-05    0   0.5463   age150_m42            0.0000     1.3237E+02     7.1600   2.1989   104.9566
 69      0.0000     0.0000E+00    0.0000E+00    4.250000E+09  0.00400  5.491E-05    0   0.5269   age158_m42            0.0000     8.3120E+01     5.6625   2.0732   102.3358
 70      0.0000     0.0000E+00    0.0000E+00    6.250000E+09  0.00400  3.857E-05    0   0.5151   age166_m42            0.0000     5.6003E+01     4.7023   1.9157   101.2125
 71      0.0000     0.0000E+00    0.0000E+00    7.500000E+09  0.00400  3.243E-05    0   0.5110   age171_m42            0.0000     4.3898E+01     4.2664   1.8197   100.7454
 72      0.0393     1.9564E-02    1.9498E-02    1.000000E+10  0.00400  2.424E-05    0   0.5028   age181_m42            0.0000     3.2016E+01     3.8521   1.7206   100.2470
 73      0.0000     0.0000E+00    0.0000E+00    1.300000E+10  0.00400  1.883E-05    0   0.4927   age193_m42            0.0000     2.6140E+01     3.7065   1.6718   100.0290
 74      0.0058     4.1445E-03    4.0411E-03    1.500000E+10  0.00400  1.685E-05    0   0.4919   age201_m42            0.0000     2.7247E+01     3.6933   1.6831    99.9893
 75      0.0000     0.0000E+00    0.0000E+00    1.800000E+10  0.00400  1.452E-05    0   0.4874   age213_m42            0.0000     2.9756E+01     3.7380   1.7102   100.1536
 76      0.0000     0.0000E+00    0.0000E+00    1.000000E+06  0.00800  1.286E-02    0   1.0000   age020_m52            0.0000     4.1178E+03    51.9167   4.0000   101.1654
 77      0.0000     0.0000E+00    0.0000E+00    3.160000E+06  0.00800  3.147E-02    0   0.9966   age045_m52            0.0000     3.9007E+03    50.5531   4.0000   102.8127
 78      0.0000     0.0000E+00    0.0000E+00    5.010000E+06  0.00800  2.664E-02    0   0.9443   age055_m52            0.0000     2.8525E+03    43.8304   4.0000   105.7398
 79      0.0000     0.0000E+00    0.0000E+00    6.610000E+06  0.00800  2.151E-02    0   0.9177   age061_m52            0.0000     6.0571E+02    19.9600   4.0000   100.2123
 80      0.0000     0.0000E+00    0.0000E+00    8.710000E+06  0.00800  1.628E-02    0   0.8948   age067_m52            0.0000     1.0725E+03    24.9299   4.0000   105.1577
 81      0.0000     0.0000E+00    0.0000E+00    1.000000E+07  0.00800  1.215E-02    0   0.8827   age070_m52            0.0000     1.6374E+03    32.2913   4.0000   106.8248
 82      0.0000     0.0000E+00    0.0000E+00    1.445000E+07  0.00800  8.739E-03    0   0.8552   age078_m52            0.0000     1.6716E+03    32.1477   4.0000   108.3673
 83      0.0000     0.0000E+00    0.0000E+00    2.512000E+07  0.00800  5.676E-03    0   0.8162   age090_m52            0.0000     1.1034E+03    22.9479   4.0000   108.6106
 84      0.0000     0.0000E+00    0.0000E+00    4.000000E+07  0.00800  3.939E-03    0   0.7841   age104_m52            0.0000     8.9851E+02    18.9946   4.0000   108.5778
 85      0.0000     0.0000E+00    0.0000E+00    5.500000E+07  0.00800  3.155E-03    0   0.7627   age110_m52            0.0000     8.6907E+02    17.8038   4.0000   109.4155
 86      0.0000     0.0000E+00    0.0000E+00    1.015200E+08  0.00800  2.206E-03    0   0.7226   age116_m52            0.0000     7.8571E+02    17.3060   4.0000   109.5458
 87      0.0000     0.0000E+00    0.0000E+00    1.609000E+08  0.00800  1.596E-03    0   0.6963   age120_m52            0.0000     7.4839E+02    18.1996   4.0000   107.3395
 88      0.0000     0.0000E+00    0.0000E+00    2.861200E+08  0.00800  1.002E-03    0   0.6665   age125_m52            0.0000     7.9954E+02    19.1814   3.7369   108.7884
 89      0.0000     0.0000E+00    0.0000E+00    5.088000E+08  0.00800  5.759E-04    0   0.6377   age130_m52            0.0000     7.4371E+02    18.1489   3.3244   113.4272
 90      0.0000     0.0000E+00    0.0000E+00    9.047900E+08  0.00800  2.972E-04    0   0.6086   age135_m52            0.0000     4.2577E+02    13.0838   2.7110   113.3060
 91      0.0000     0.0000E+00    0.0000E+00    1.278050E+09  0.00800  2.242E-04    0   0.5907   age138_m52            0.0000     1.6351E+02     8.4411   2.0938   111.7484
 92      0.0000     0.0000E+00    0.0000E+00    1.434000E+09  0.00800  1.645E-04    0   0.5787   age139_m52            0.0000     1.7441E+02     8.5506   2.2587   111.1208
 93      0.0000     0.0000E+00    0.0000E+00    2.500000E+09  0.00800  7.723E-05    0   0.5519   age150_m52            0.0000     7.0556E+01     5.5932   1.8818   107.7832
 94      0.0000     0.0000E+00    0.0000E+00    4.250000E+09  0.00800  4.151E-05    0   0.5320   age158_m52            0.0000     5.0562E+01     4.7546   1.8065   105.3495
 95      0.0000     0.0000E+00    0.0000E+00    6.250000E+09  0.00800  3.010E-05    0   0.5197   age166_m52            0.0000     2.4327E+01     3.9229   1.5744   104.2271
 96      0.0000     0.0000E+00    0.0000E+00    7.500000E+09  0.00800  2.467E-05    0   0.5139   age171_m52            0.0000     2.0409E+01     3.8235   1.5210   103.9121
 97      2.4774     1.6040E+00    1.6069E+00    1.000000E+10  0.00800  1.862E-05    0   0.5054   age181_m52            0.0000     1.4197E+01     3.8768   1.3547   103.7654
 98      0.0725     6.0992E-02    6.0304E-02    1.300000E+10  0.00800  1.433E-05    0   0.4988   age193_m52            0.0000     1.3203E+01     4.3282   1.2277   104.6624
 99      0.0000     0.0000E+00    0.0000E+00    1.500000E+10  0.00800  1.244E-05    0   0.4936   age201_m52            0.0000     1.4928E+01     4.6653   1.1893   105.2055
100      0.0000     0.0000E+00    0.0000E+00    1.800000E+10  0.00800  1.070E-05    0   0.4888   age213_m52            0.0000     1.7058E+01     4.9573   1.1442   105.1283
101      0.0000     0.0000E+00    0.0000E+00    1.000000E+06  0.02000  1.989E-02    0   1.0000   age020_m62            0.0000     4.1636E+03    52.0134   4.0000   100.0010
102      0.0000     0.0000E+00    0.0000E+00    3.160000E+06  0.02000  3.772E-02    0   0.9858   age045_m62            0.0000     3.7424E+03    49.8056   4.0000   102.3357
103      0.0000     0.0000E+00    0.0000E+00    5.010000E+06  0.02000  3.227E-02    0   0.9342   age055_m62            0.0000     2.1418E+03    36.9118   4.0000   108.1088
104      0.0000     0.0000E+00    0.0000E+00    6.610000E+06  0.02000  2.387E-02    0   0.9090   age061_m62            0.0000     1.8875E+03    34.5469   4.0000   105.9150
105      0.0000     0.0000E+00    0.0000E+00    8.710000E+06  0.02000  1.102E-02    0   0.8861   age067_m62            0.0000     1.7897E+03    34.6133   4.0000    99.4985
106      0.0000     0.0000E+00    0.0000E+00    1.000000E+07  0.02000  1.011E-02    0   0.8751   age070_m62            0.0000     1.5467E+03    31.6682   4.0000   101.6295
107      0.0000     0.0000E+00    0.0000E+00    1.445000E+07  0.02000  7.331E-03    0   0.8472   age078_m62            0.0000     1.3679E+03    29.5010   4.0000   102.7789
108      0.0000     0.0000E+00    0.0000E+00    2.512000E+07  0.02000  4.206E-03    0   0.8099   age090_m62            0.0000     1.2088E+03    28.5476   4.0000   101.4049
109      0.0000     0.0000E+00    0.0000E+00    4.000000E+07  0.02000  3.373E-03    0   0.7799   age104_m62            0.0000     8.1468E+02    20.1691   4.0000   106.4468
110      0.0000     0.0000E+00    0.0000E+00    5.500000E+07  0.02000  2.747E-03    0   0.7595   age110_m62            0.0000     7.8684E+02    17.5757   4.0000   108.2731
111      0.0000     0.0000E+00    0.0000E+00    1.015200E+08  0.02000  1.878E-03    0   0.7221   age116_m62            0.0000     8.3587E+02    18.0597   4.0000   109.9694
112      0.0000     0.0000E+00    0.0000E+00    1.609000E+08  0.02000  1.378E-03    0   0.6978   age120_m62            0.0000     8.7222E+02    19.5725   4.0000   109.4483
113      0.0000     0.0000E+00    0.0000E+00    2.861200E+08  0.02000  8.869E-04    0   0.6700   age125_m62            0.0000     9.7999E+02    21.4556   3.7273   111.2767
114      0.0000     0.0000E+00    0.0000E+00    5.088000E+08  0.02000  4.834E-04    0   0.6430   age130_m62            0.0000     7.7811E+02    18.4049   3.1829   115.0198
115      0.0000     0.0000E+00    0.0000E+00    9.047900E+08  0.02000  2.312E-04    0   0.6152   age135_m62            0.0000     3.8765E+02    12.5588   2.5365   114.7494
116      0.0000     0.0000E+00    0.0000E+00    1.278050E+09  0.02000  1.387E-04    0   0.5927   age138_m62            0.0000     1.8375E+02     8.3582   2.1390   110.6262
117      0.0000     0.0000E+00    0.0000E+00    1.434000E+09  0.02000  1.168E-04    0   0.5865   age139_m62            0.0000     1.5074E+02     7.4391   2.1020   109.2200
118      0.0000     0.0000E+00    0.0000E+00    2.500000E+09  0.02000  5.505E-05    0   0.5610   age150_m62            0.0000     4.8483E+01     4.8682   1.6704   106.8195
119      0.0000     0.0000E+00    0.0000E+00    4.250000E+09  0.02000  3.070E-05    0   0.5407   age158_m62            0.0000     1.9453E+01     4.5849   1.3008   107.3207
120      0.0000     0.0000E+00    0.0000E+00    6.250000E+09  0.02000  2.104E-05    0   0.5277   age166_m62            0.0000     1.9074E+01     5.1855   1.1382   108.0203
121      7.4432     5.0696E+00    5.2486E+00    7.500000E+09  0.02000  1.770E-05    0   0.5223   age171_m62            0.0000     2.3754E+01     5.7394   1.0301   108.5538
122     34.7673     3.2316E+01    3.2804E+01    1.000000E+10  0.02000  1.297E-05    0   0.5121   age181_m62            0.0000     4.0073E+01     6.9819   0.8339   109.3534
123      8.0390     1.0000E+01    1.0005E+01    1.300000E+10  0.02000  9.691E-06    0   0.5047   age193_m62            0.0000     5.7617E+01     7.8388   0.7286   109.9045
124     20.6260     2.9744E+01    2.9473E+01    1.500000E+10  0.02000  8.360E-06    0   0.4999   age201_m62            0.0000     7.4540E+01     8.5746   0.6343   110.3640
125     10.4436     1.8218E+01    1.7861E+01    1.800000E+10  0.02000  6.911E-06    0   0.4946   age213_m62            0.0000     9.7820E+01     9.4910   0.5270   110.9565
126      0.0000     0.0000E+00    0.0000E+00    1.000000E+06  0.05000  2.651E-02    0   0.9998   age020_m72            0.0000     4.0610E+03    51.5925   4.0000   101.3146
127      0.0000     0.0000E+00    0.0000E+00    3.160000E+06  0.05000  4.817E-02    0   0.9577   age045_m72            0.0000     3.1530E+03    45.8661   4.0000   105.7381
128      0.0000     0.0000E+00    0.0000E+00    5.010000E+06  0.05000  3.101E-02    0   0.9147   age055_m72            0.0000     2.3454E+03    39.4631   4.0000   106.9847
129      0.0000     0.0000E+00    0.0000E+00    6.610000E+06  0.05000  1.472E-02    0   0.8877   age061_m72            0.0000     1.9229E+03    35.7417   4.0000   102.7058
130      0.0000     0.0000E+00    0.0000E+00    8.710000E+06  0.05000  1.050E-02    0   0.8638   age067_m72            0.0000     2.4069E+03    40.0641   4.0000   105.5887
131      0.0000     0.0000E+00    0.0000E+00    1.000000E+07  0.05000  8.954E-03    0   0.8524   age070_m72            0.0000     2.7456E+03    43.0436   4.0000   107.1530
132      0.0000     0.0000E+00    0.0000E+00    1.445000E+07  0.05000  6.392E-03    0   0.8262   age078_m72            0.0000     2.5127E+03    41.2390   4.0000   108.0763
133      0.0000     0.0000E+00    0.0000E+00    2.512000E+07  0.05000  4.207E-03    0   0.7902   age090_m72            0.0000     1.6149E+03    32.1267   4.0000   110.0319
134      0.0000     0.0000E+00    0.0000E+00    4.000000E+07  0.05000  3.198E-03    0   0.7618   age104_m72            0.0000     9.3788E+02    18.8531   4.0000   111.4496
135      0.0000     0.0000E+00    0.0000E+00    5.500000E+07  0.05000  2.593E-03    0   0.7432   age110_m72            0.0000     9.3279E+02    18.3234   4.0000   111.9498
136      0.0000     0.0000E+00    0.0000E+00    1.015200E+08  0.05000  1.716E-03    0   0.7092   age116_m72            0.0000     9.2800E+02    18.7602   4.0000   111.4489
137      0.0000     0.0000E+00    0.0000E+00    1.609000E+08  0.05000  1.218E-03    0   0.6876   age120_m72            0.0000     9.2297E+02    20.2121   4.0000   109.0462
138      0.0000     0.0000E+00    0.0000E+00    2.861200E+08  0.05000  7.047E-04    0   0.6618   age125_m72            0.0000     8.9321E+02    20.0690   3.4664   112.0243
139      0.0000     0.0000E+00    0.0000E+00    5.088000E+08  0.05000  3.590E-04    0   0.6356   age130_m72            0.0000     6.1188E+02    16.1450   2.7923   115.8788
140      0.0000     0.0000E+00    0.0000E+00    9.047900E+08  0.05000  1.484E-04    0   0.6088   age135_m72            0.0000     1.7048E+02     8.4843   1.9815   110.4983
141      0.0000     0.0000E+00    0.0000E+00    1.278050E+09  0.05000  9.435E-05    0   0.5924   age138_m72            0.0000     6.1793E+01     6.0708   1.4894   108.3554
142      0.0000     0.0000E+00    0.0000E+00    1.434000E+09  0.05000  7.827E-05    0   0.5847   age139_m72            0.0000     4.8076E+01     5.4932   1.5092   107.7851
143      0.0000     0.0000E+00    0.0000E+00    2.500000E+09  0.05000  3.759E-05    0   0.5583   age150_m72            0.0000     2.1022E+01     5.1682   1.1278   107.6136
144      0.0027     1.7489E-03    1.8630E-03    4.250000E+09  0.05000  1.842E-05    0   0.5374   age158_m72            0.0000     4.6320E+01     6.8105   0.7814   107.2306
145      0.0026     2.5746E-03    2.6752E-03    6.250000E+09  0.05000  1.207E-05    0   0.5242   age166_m72            0.0000     8.4663E+01     8.4838   0.4728   107.4646
146      0.0000     0.0000E+00    0.0000E+00    7.500000E+09  0.05000  9.993E-06    0   0.5183   age171_m72            0.0000     9.2514E+01     8.6995   0.4178   107.4941
147      0.0000     0.0000E+00    0.0000E+00    1.000000E+10  0.05000  7.291E-06    0   0.5081   age181_m72            0.0000     1.2870E+02     9.8960   0.2346   107.9591
148      0.0000     0.0000E+00    0.0000E+00    1.300000E+10  0.05000  5.316E-06    0   0.5018   age193_m72            0.0000     1.9323E+02    11.6748  -0.0414   108.8436
149      0.0020     5.3165E-03    5.2397E-03    1.500000E+10  0.05000  4.497E-06    0   0.4972   age201_m72            0.0000     2.2895E+02    12.5715  -0.1609   109.6572
150      0.0000     0.0000E+00    0.0000E+00    1.800000E+10  0.05000  3.739E-06    0   0.4924   age213_m72            0.0000     2.7314E+02    13.6756  -0.3310   110.6497


## Synthesis Results - Average & Chains ##

# j      x_j: min, <> & last-chain-values for 1 ...  7 chains
  1      2.4327      2.0610      1.8428      2.2039      2.0963      2.2479      2.3273      2.5336      2.1395
  2      0.0000      0.0458      0.0420      0.0918      0.0000      0.0835      0.2199      0.0000      0.0000
  3      5.5139      4.2034      4.6624      4.3229      4.4187      4.6054      4.1751      4.2325      4.7686
  4      0.0000      0.0520      0.1486      0.1288      0.0261      0.0000      0.1288      0.0000      0.0000
  5      0.0000      0.0184      0.0000      0.0000      0.0000      0.0000      0.0000      0.0000      0.0000
  6      0.0000      0.0390      0.0247      0.0735      0.0000      0.0348      0.0000      0.1122      0.0000
  7      0.0000      0.0394      0.0891      0.0000      0.0000      0.0592      0.0068      0.1068      0.0000
  8      0.0000      0.0355      0.0698      0.0000      0.0000      0.0000      0.0000      0.0000      0.0000
  9      0.0000      0.0298      0.0000      0.0000      0.0000      0.0000      0.0000      0.0000      0.0411
 10      0.0000      0.0275      0.0000      0.0000      0.1284      0.0000      0.0000      0.0000      0.0000
 11      0.0000      0.0140      0.0000      0.0000      0.0000      0.1067      0.0000      0.0000      0.0000
 12      0.0000      0.0122      0.0160      0.0000      0.0000      0.0022      0.0000      0.0000      0.0000
 13      0.0000      0.0064      0.0000      0.0000      0.0000      0.0000      0.0248      0.0000      0.0036
 14      0.0000      0.0087      0.0000      0.0000      0.0000      0.0000      0.0000      0.0000      0.0000
 15      0.0000      0.0082      0.0000      0.0000      0.0000      0.0000      0.0000      0.0000      0.0000
 16      0.0000      0.0113      0.0000      0.0000      0.0000      0.2104      0.0000      0.0807      0.0000
 17      0.0000      0.0113      0.0000      0.0000      0.0000      0.0000      0.0000      0.0000      0.0000
 18      0.7520      0.0355      0.0000      0.0000      0.0000      0.0000      0.0000      0.0000      0.3302
 19      0.0000      0.0205      0.0883      0.0000      0.1185      0.0000      0.0000      0.0142      0.0000
 20      0.0000      0.0325      0.0000      0.0602      0.0000      0.0000      0.1222      0.1230      0.0000
 21      0.0000      0.0403      0.2884      0.0000      0.0000      0.0000      0.1599      0.0000      0.0000
 22      0.0000      0.0594      0.0000      0.0865      0.1110      0.0000      0.1758      0.0770      0.2096
 23      0.0000      0.0468      0.0000      0.1754      0.2878      0.0093      0.0000      0.2171      0.0000
 24      0.0000      0.0639      0.0000      0.0324      0.0000      0.0000      0.0000      0.0000      0.0000
 25      0.6182      0.0966      0.2573      0.0784      0.0974      0.0000      0.0777      0.0000      0.3568
 26      1.3785      1.2561      1.2494      1.3066      1.4244      1.3653      1.2947      1.0809      1.3989
 27      0.0000      0.0209      0.0000      0.0000      0.0897      0.0000      0.0000      0.0000      0.0000
 28      0.0000      0.0247      0.1400      0.0000      0.0062      0.0000      0.0000      0.0000      0.0000
 29      0.0000      0.0217      0.0000      0.0000      0.0000      0.0000      0.0407      0.0000      0.1153
 30      0.0000      0.0388      0.1274      0.0646      0.2009      0.0000      0.0000      0.0000      0.0000
 31      0.0000      0.0498      0.0000      0.0000      0.1658      0.0000      0.0847      0.0571      0.0671
 32      0.0000      0.0173      0.0000      0.0086      0.0000      0.1334      0.0000      0.0000      0.0517
 33      0.0000      0.0223      0.0000      0.0000      0.0000      0.1128      0.0000      0.0000      0.0142
 34      0.0000      0.0232      0.0000      0.0000      0.0000      0.0000      0.1464      0.1560      0.1387
 35      0.0000      0.0241      0.0000      0.0000      0.0000      0.0000      0.0000      0.1313      0.1238
 36      0.0000      0.0120      0.0211      0.0000      0.0000      0.0000      0.0000      0.0000      0.0000
 37      0.0000      0.0153      0.0000      0.0000      0.0000      0.0000      0.0000      0.0000      0.0835
 38      0.0000      0.0116      0.0000      0.0000      0.0000      0.0000      0.0000      0.0000      0.0000
 39      0.0000      0.0141      0.0000      0.0000      0.0000      0.0000      0.0000      0.0000      0.0000
 40      0.0000      0.0119      0.0000      0.0824      0.0000      0.0000      0.0291      0.0000      0.0261
 41      0.0000      0.0212      0.0000      0.0000      0.0872      0.0000      0.0000      0.0283      0.0092
 42      0.0000      0.0265      0.0000      0.0000      0.0000      0.0282      0.0690      0.1208      0.0000
 43      0.0000      0.0218      0.1597      0.1502      0.0000      0.0000      0.0000      0.0739      0.0000
 44      0.0000      0.0481      0.1195      0.0000      0.1811      0.0000      0.0000      0.0000      0.0944
 45      0.6343      0.0592      0.0850      0.0000      0.0259      0.0000      0.0000      0.1859      0.2213
 46      2.1925      1.4769      1.5940      1.7902      1.3546      1.8599      1.3795      1.4801      1.5764
 47      6.4913      5.6641      5.8430      5.9163      5.8198      5.6299      5.7815      5.7129      5.6968
 48      0.0000      0.0908      0.0000      0.0018      0.1525      0.0000      0.0000      0.0473      0.1704
 49      0.0000      0.0409      0.0000      0.4302      0.0000      0.4466      0.1594      0.0399      0.0000
 50      0.0000      0.0874      0.0000      0.2197      0.0000      0.0000      0.5742      0.0000      0.0000
 51      0.5502      0.6003      0.7095      0.6443      0.5845      0.4281      0.5332      0.6540      0.7556
 52      0.0000      0.0356      0.0000      0.0000      0.0864      0.0000      0.0000      0.0000      0.0000
 53      0.0000      0.0267      0.0000      0.0000      0.0000      0.0000      0.0000      0.0000      0.0024
 54      0.0000      0.0569      0.0000      0.0000      0.0000      0.2939      0.0974      0.0000      0.0000
 55      0.0000      0.0349      0.0000      0.0000      0.0180      0.0910      0.1455      0.0000      0.0000
 56      0.0000      0.0835      0.1582      0.1335      0.0000      0.0119      0.0000      0.0000      0.1076
 57      0.0000      0.0621      0.0000      0.2069      0.1076      0.0000      0.0000      0.0000      0.0000
 58      0.0000      0.0276      0.0000      0.0000      0.0000      0.0000      0.0000      0.0000      0.0338
 59      0.0000      0.0378      0.0000      0.0000      0.0000      0.0011      0.0000      0.0000      0.0000
 60      0.0000      0.0185      0.0000      0.0000      0.0000      0.0000      0.0000      0.0000      0.0000
 61      0.0000      0.0140      0.0000      0.0000      0.0000      0.0350      0.0000      0.0000      0.0000
 62      0.0000      0.0142      0.0000      0.0049      0.0000      0.0000      0.0000      0.0000      0.0000
 63      0.0000      0.0093      0.0732      0.0000      0.0000      0.0358      0.0000      0.0000      0.0000
 64      0.0000      0.0070      0.0000      0.0000      0.0000      0.0000      0.0025      0.0000      0.0000
 65      0.0000      0.0110      0.0000      0.0564      0.0000      0.2344      0.0000      0.0000      0.0000
 66      0.0000      0.0258      0.0000      0.0000      0.0000      0.0000      0.0000      0.0000      0.0000
 67      0.0000      0.0292      0.0000      0.1222      0.0000      0.0000      0.0000      0.2560      0.0000
 68      0.0000      0.0564      0.2537      0.0000      0.0000      0.0000      0.0000      0.2000      0.0000
 69      0.0000      0.0569      0.0615      0.0000      0.0000      0.0000      0.0320      0.0000      0.0532
 70      0.0000      0.0693      0.1973      0.0000      0.1017      0.0000      0.0000      0.0000      0.0000
 71      0.0000      0.1721      0.0000      0.0000      0.0000      0.0000      0.0562      0.3729      0.1069
 72      0.0393      0.1221      0.2356      0.0443      0.0000      0.0171      0.0834      0.0000      0.5096
 73      0.0000      0.1271      0.1883      0.0000      0.1809      0.6919      0.0000      0.0000      0.0000
 74      0.0058      0.1150      0.0000      0.3663      0.0000      0.0000      0.2159      0.2283      0.5681
 75      0.0000      0.1120      0.0000      0.2245      0.0000      0.0000      0.0000      0.0000      0.0000
 76      0.0000      0.0167      0.0000      0.0000      0.0536      0.0000      0.0000      0.0917      0.0000
 77      0.0000      0.0308      0.0000      0.0000      0.0000      0.0000      0.0000      0.0118      0.0000
 78      0.0000      0.0252      0.0000      0.0000      0.0000      0.0000      0.0000      0.0000      0.0000
 79      0.0000      0.0502      0.0000      0.0000      0.0926      0.0000      0.1094      0.0000      0.0000
 80      0.0000      0.0255      0.0000      0.0000      0.0000      0.0000      0.0000      0.0000      0.0000
 81      0.0000      0.0175      0.0000      0.0000      0.0000      0.0000      0.0000      0.0000      0.0055
 82      0.0000      0.0170      0.0000      0.1277      0.0000      0.0107      0.0000      0.0000      0.0000
 83      0.0000      0.0498      0.0555      0.0129      0.1503      0.1199      0.0613      0.0000      0.0000
 84      0.0000      0.0124      0.0000      0.0000      0.0000      0.0000      0.0000      0.0047      0.0000
 85      0.0000      0.0069      0.0000      0.0000      0.0000      0.0000      0.0000      0.0000      0.0000
 86      0.0000      0.0125      0.0000      0.0000      0.0000      0.0000      0.0581      0.0059      0.0000
 87      0.0000      0.0076      0.0000      0.0000      0.0000      0.0000      0.0000      0.0000      0.0000
 88      0.0000      0.0115      0.0312      0.0000      0.0485      0.0000      0.0000      0.0000      0.0000
 89      0.0000      0.0054      0.0000      0.0000      0.0000      0.0000      0.0000      0.0000      0.0000
 90      0.0000      0.0128      0.0950      0.0000      0.0000      0.0000      0.0000      0.0000      0.0000
 91      0.0000      0.0367      0.0000      0.0000      0.0000      0.0000      0.0000      0.0000      0.0000
 92      0.0000      0.0270      0.0000      0.0000      0.0347      0.0000      0.0000      0.0000      0.0000
 93      0.0000      0.0375      0.0000      0.0000      0.0000      0.0000      0.1747      0.0000      0.0408
 94      0.0000      0.0893      0.0000      0.0000      0.0000      0.0000      0.1144      0.0000      0.0000
 95      0.0000      0.1462      0.4547      0.0516      0.1783      0.2678      0.0311      0.3362      0.0000
 96      0.0000      0.2595      0.0011      0.1793      0.0000      0.7549      0.0000      0.0750      0.0000
 97      2.4774      0.7115      0.0946      0.2668      1.3373      0.3084      1.2654      1.4334      0.6005
 98      0.0725      1.6484      1.9136      1.5578      1.3196      0.6788      1.7821      0.9881      0.8063
 99      0.0000      0.2784      0.0513      0.0000      0.4243      0.6522      0.0792      0.3853      0.1299
100      0.0000      0.3014      0.0386      0.0960      0.1443      0.0000      0.0000      0.0000      0.0000
101      0.0000      0.1052      0.0000      0.0058      0.0000      0.0000      0.1718      0.1465      0.0000
102      0.0000      0.0384      0.0000      0.0000      0.0000      0.0293      0.0000      0.0000      0.0000
103      0.0000      0.0330      0.0000      0.0000      0.0000      0.0000      0.0000      0.0166      0.0223
104      0.0000      0.0249      0.0451      0.0373      0.0000      0.0371      0.0827      0.0000      0.0000
105      0.0000      0.0721      0.0000      0.1678      0.0000      0.0955      0.0000      0.0286      0.0000
106      0.0000      0.0490      0.1524      0.0000      0.0017      0.1750      0.0000      0.0000      0.0153
107      0.0000      0.0490      0.0000      0.0000      0.1478      0.0000      0.2023      0.0000      0.0000
108      0.0000      0.0246      0.0277      0.0000      0.0000      0.0259      0.1498      0.0000      0.0000
109      0.0000      0.0145      0.0000      0.0000      0.0000      0.0000      0.0000      0.0000      0.0000
110      0.0000      0.0139      0.0000      0.0000      0.1640      0.0000      0.0349      0.0000      0.0000
111      0.0000      0.0114      0.0000      0.0000      0.0009      0.0000      0.0000      0.0038      0.0000
112      0.0000      0.0049      0.0000      0.0000      0.0000      0.0000      0.0000      0.0000      0.0000
113      0.0000      0.0103      0.0000      0.0000      0.0000      0.0151      0.0000      0.0000      0.0000
114      0.0000      0.0084      0.0000      0.0000      0.0000      0.0000      0.0299      0.0000      0.0000
115      0.0000      0.0157      0.0000      0.0126      0.0000      0.0000      0.0000      0.0000      0.0000
116      0.0000      0.0291      0.0000      0.0877      0.0000      0.0000      0.0000      0.0000      0.0000
117      0.0000      0.0359      0.1389      0.0000      0.0000      0.0040      0.0814      0.1809      0.0000
118      0.0000      0.0827      0.0487      0.0000      0.0000      0.0000      0.0000      0.0000      0.0000
119      0.0000      0.1615      0.0000      0.0000      0.0114      0.0000      0.1232      0.0000      0.0000
120      0.0000      0.2705      0.4179      0.0000      0.0962      0.2292      0.0000      0.5834      0.0000
121      7.4432     14.8015     14.5606     14.9648     14.4499     14.7345     14.2993     14.8048     15.3627
122     34.7673     33.4664     34.1713     34.4561     34.3110     33.8103     33.5675     33.6303     33.4861
123      8.0390      6.4596      6.5112      7.4980      6.9902      7.1180      6.5800      6.8516      7.5016
124     20.6260     17.1572     18.2130     17.4128     17.6213     17.5273     17.5756     17.6306     17.5401
125     10.4436      6.9872      6.7779      7.5057      6.9673      7.8428      7.7866      7.3791      7.7987
126      0.0000      0.0777      0.0123      0.0094      0.0000      0.0000      0.0000      0.3579      0.0950
127      0.0000      0.0362      0.0000      0.0000      0.0000      0.0130      0.0890      0.0000      0.0000
128      0.0000      0.0211      0.1545      0.0299      0.1234      0.0000      0.0000      0.0000      0.0000
129      0.0000      0.0241      0.0000      0.0250      0.0000      0.0000      0.0000      0.0000      0.0000
130      0.0000      0.0311      0.0000      0.1098      0.0884      0.2072      0.0000      0.0000      0.0000
131      0.0000      0.0373      0.0994      0.0815      0.0967      0.0000      0.0000      0.0000      0.0000
132      0.0000      0.0562      0.0000      0.0000      0.0000      0.0000      0.0000      0.0000      0.0000
133      0.0000      0.0243      0.0000      0.0000      0.0000      0.0000      0.1015      0.0000      0.0000
134      0.0000      0.0068      0.0000      0.0000      0.0000      0.0000      0.0000      0.0000      0.0000
135      0.0000      0.0075      0.0000      0.0000      0.0091      0.0000      0.0000      0.0000      0.0000
136      0.0000      0.0086      0.0000      0.0000      0.0000      0.0000      0.0000      0.0000      0.0079
137      0.0000      0.0077      0.0000      0.0000      0.0000      0.0000      0.0000      0.0000      0.0000
138      0.0000      0.0072      0.0000      0.0000      0.0000      0.0001      0.0000      0.0000      0.0000
139      0.0000      0.0172      0.0000      0.0000      0.0941      0.0000      0.0000      0.0000      0.0000
140      0.0000      0.0287      0.0000      0.0000      0.0872      0.0000      0.0000      0.1240      0.0000
141      0.0000      0.0479      0.0448      0.0000      0.0038      0.0000      0.0000      0.0100      0.0000
142      0.0000      0.0471      0.0000      0.0000      0.0000      0.0374      0.0244      0.0000      0.0000
143      0.0000      0.0910      0.0553      0.0000      0.0000      0.0000      0.1355      0.0000      0.0599
144      0.0027      0.1460      0.0000      0.0000      0.0925      0.2518      0.0172      0.0000      0.2990
145      0.0026      0.2890      0.3025      0.0000      0.1770      0.2872      0.0000      0.0000      0.3136
146      0.0000      0.2540      0.8983      0.1703      0.0000      0.0000      0.0000      0.0000      0.0000
147      0.0000      0.3901      0.0000      0.0000      0.3185      0.0000      0.7842      0.0000      0.0557
148      0.0000      0.2303      0.1921      0.0000      0.0000      0.0000      0.0000      0.1728      0.0712
149      0.0020      0.3590      0.0000      0.4038      0.3007      0.1042      0.3279      0.4653      0.4892
150      0.0000      0.5286      0.3010      0.2871      0.7484      0.5063      0.5934      0.5123      0.0309

# j      m_j: min, <> & last-chain-values for 1 ...  7 chains
  1  7.1242E-03  6.2431E-03  5.6228E-03  6.6488E-03  6.3004E-03  6.8058E-03  6.9728E-03  7.6474E-03  6.4801E-03
  2  0.0000E+00  2.3790E-05  2.1954E-05  4.7507E-05  0.0000E+00  4.3355E-05  1.1297E-04  0.0000E+00  0.0000E+00
  3  6.5349E-03  5.1530E-03  5.7574E-03  5.2780E-03  5.3746E-03  5.6431E-03  5.0624E-03  5.1703E-03  5.8452E-03
  4  0.0000E+00  1.1976E-04  3.4495E-04  2.9566E-04  5.9712E-05  0.0000E+00  2.9355E-04  0.0000E+00  0.0000E+00
  5  0.0000E+00  5.3284E-05  0.0000E+00  0.0000E+00  0.0000E+00  0.0000E+00  0.0000E+00  0.0000E+00  0.0000E+00
  6  0.0000E+00  1.3458E-04  8.5845E-05  2.5270E-04  0.0000E+00  1.2022E-04  0.0000E+00  3.8582E-04  0.0000E+00
  7  0.0000E+00  1.7158E-04  3.9078E-04  0.0000E+00  0.0000E+00  2.5758E-04  2.9498E-05  4.6340E-04  0.0000E+00
  8  0.0000E+00  1.7461E-04  3.4619E-04  0.0000E+00  0.0000E+00  0.0000E+00  0.0000E+00  0.0000E+00  0.0000E+00
  9  0.0000E+00  1.5782E-04  0.0000E+00  0.0000E+00  0.0000E+00  0.0000E+00  0.0000E+00  0.0000E+00  2.1787E-04
 10  0.0000E+00  1.6713E-04  0.0000E+00  0.0000E+00  7.7351E-04  0.0000E+00  0.0000E+00  0.0000E+00  0.0000E+00
 11  0.0000E+00  1.0196E-04  0.0000E+00  0.0000E+00  0.0000E+00  7.7398E-04  0.0000E+00  0.0000E+00  0.0000E+00
 12  0.0000E+00  1.5504E-04  2.0478E-04  0.0000E+00  0.0000E+00  2.7961E-05  0.0000E+00  0.0000E+00  0.0000E+00
 13  0.0000E+00  9.4633E-05  0.0000E+00  0.0000E+00  0.0000E+00  0.0000E+00  3.6226E-04  0.0000E+00  5.2589E-05
 14  0.0000E+00  1.8240E-04  0.0000E+00  0.0000E+00  0.0000E+00  0.0000E+00  0.0000E+00  0.0000E+00  0.0000E+00
 15  0.0000E+00  2.6044E-04  0.0000E+00  0.0000E+00  0.0000E+00  0.0000E+00  0.0000E+00  0.0000E+00  0.0000E+00
 16  0.0000E+00  5.1702E-04  0.0000E+00  0.0000E+00  0.0000E+00  9.6223E-03  0.0000E+00  3.6824E-03  0.0000E+00
 17  0.0000E+00  5.7531E-04  0.0000E+00  0.0000E+00  0.0000E+00  0.0000E+00  0.0000E+00  0.0000E+00  0.0000E+00
 18  6.0159E-02  2.9389E-03  0.0000E+00  0.0000E+00  0.0000E+00  0.0000E+00  0.0000E+00  0.0000E+00  2.7321E-02
 19  0.0000E+00  2.5755E-03  1.1153E-02  0.0000E+00  1.4746E-02  0.0000E+00  0.0000E+00  1.7746E-03  0.0000E+00
 20  0.0000E+00  5.8257E-03  0.0000E+00  1.0748E-02  0.0000E+00  0.0000E+00  2.1687E-02  2.1981E-02  0.0000E+00
 21  0.0000E+00  8.3574E-03  6.0279E-02  0.0000E+00  0.0000E+00  0.0000E+00  3.2830E-02  0.0000E+00  0.0000E+00
 22  0.0000E+00  1.5916E-02  0.0000E+00  2.3065E-02  2.9480E-02  0.0000E+00  4.6560E-02  2.0544E-02  5.6122E-02
 23  0.0000E+00  1.5891E-02  0.0000E+00  5.9289E-02  9.6928E-02  3.1387E-03  0.0000E+00  7.3425E-02  0.0000E+00
 24  0.0000E+00  2.4793E-02  0.0000E+00  1.2513E-02  0.0000E+00  0.0000E+00  0.0000E+00  0.0000E+00  0.0000E+00
 25  2.7869E-01  4.5063E-02  1.2087E-01  3.6421E-02  4.5044E-02  0.0000E+00  3.5840E-02  0.0000E+00  1.6637E-01
 26  3.8947E-03  3.6709E-03  3.6779E-03  3.8031E-03  4.1302E-03  3.9881E-03  3.7424E-03  3.1477E-03  4.0876E-03
 27  0.0000E+00  1.2988E-05  0.0000E+00  0.0000E+00  5.5371E-05  0.0000E+00  0.0000E+00  0.0000E+00  0.0000E+00
 28  0.0000E+00  3.0102E-05  1.7173E-04  0.0000E+00  7.5445E-06  0.0000E+00  0.0000E+00  0.0000E+00  0.0000E+00
 29  0.0000E+00  4.1204E-05  0.0000E+00  0.0000E+00  0.0000E+00  0.0000E+00  7.6436E-05  0.0000E+00  2.1872E-04
 30  0.0000E+00  9.1513E-05  3.0270E-04  1.5168E-04  4.7023E-04  0.0000E+00  0.0000E+00  0.0000E+00  0.0000E+00
 31  0.0000E+00  1.3564E-04  0.0000E+00  0.0000E+00  4.4818E-04  0.0000E+00  2.2833E-04  1.5491E-04  1.8279E-04
 32  0.0000E+00  5.2326E-05  0.0000E+00  2.5800E-05  0.0000E+00  4.0238E-04  0.0000E+00  0.0000E+00  1.5586E-04
 33  0.0000E+00  9.5676E-05  0.0000E+00  0.0000E+00  0.0000E+00  4.8355E-04  0.0000E+00  0.0000E+00  6.0918E-05
 34  0.0000E+00  1.2085E-04  0.0000E+00  0.0000E+00  0.0000E+00  0.0000E+00  7.5441E-04  8.0984E-04  7.2258E-04
 35  0.0000E+00  1.5140E-04  0.0000E+00  0.0000E+00  0.0000E+00  0.0000E+00  0.0000E+00  8.2323E-04  7.7915E-04
 36  0.0000E+00  9.6459E-05  1.7122E-04  0.0000E+00  0.0000E+00  0.0000E+00  0.0000E+00  0.0000E+00  0.0000E+00
 37  0.0000E+00  1.5377E-04  0.0000E+00  0.0000E+00  0.0000E+00  0.0000E+00  0.0000E+00  0.0000E+00  8.3725E-04
 38  0.0000E+00  1.6145E-04  0.0000E+00  0.0000E+00  0.0000E+00  0.0000E+00  0.0000E+00  0.0000E+00  0.0000E+00
 39  0.0000E+00  2.9318E-04  0.0000E+00  0.0000E+00  0.0000E+00  0.0000E+00  0.0000E+00  0.0000E+00  0.0000E+00
 40  0.0000E+00  4.3730E-04  0.0000E+00  3.0178E-03  0.0000E+00  0.0000E+00  1.0570E-03  0.0000E+00  9.6095E-04
 41  0.0000E+00  1.0446E-03  0.0000E+00  0.0000E+00  4.2592E-03  0.0000E+00  0.0000E+00  1.3913E-03  4.5289E-04
 42  0.0000E+00  1.4562E-03  0.0000E+00  0.0000E+00  0.0000E+00  1.5478E-03  3.7513E-03  6.6217E-03  0.0000E+00
 43  0.0000E+00  1.9538E-03  1.4394E-02  1.3388E-02  0.0000E+00  0.0000E+00  0.0000E+00  6.5863E-03  0.0000E+00
 44  0.0000E+00  6.8062E-03  1.7036E-02  0.0000E+00  2.5428E-02  0.0000E+00  0.0000E+00  0.0000E+00  1.3363E-02
 45  1.2094E-01  1.1684E-02  1.6880E-02  0.0000E+00  5.0698E-03  0.0000E+00  0.0000E+00  3.6533E-02  4.3648E-02
 46  4.9799E-01  3.4697E-01  3.7721E-01  4.1887E-01  3.1575E-01  4.3674E-01  3.2056E-01  3.4648E-01  3.7030E-01
 47  1.9323E+00  1.7441E+00  1.8123E+00  1.8143E+00  1.7780E+00  1.7327E+00  1.7608E+00  1.7529E+00  1.7539E+00
 48  0.0000E+00  3.3277E-02  0.0000E+00  6.3928E-04  5.5492E-02  0.0000E+00  0.0000E+00  1.7273E-02  6.2483E-02
 49  0.0000E+00  1.6788E-02  0.0000E+00  1.7574E-01  0.0000E+00  1.8312E-01  6.4674E-02  1.6314E-02  0.0000E+00
 50  0.0000E+00  4.2175E-02  0.0000E+00  1.0555E-01  0.0000E+00  0.0000E+00  2.7397E-01  0.0000E+00  0.0000E+00
 51  1.1803E-03  1.3319E-03  1.5857E-03  1.4238E-03  1.2867E-03  9.4938E-04  1.1701E-03  1.4460E-03  1.6765E-03
 52  0.0000E+00  2.1598E-05  0.0000E+00  0.0000E+00  5.2002E-05  0.0000E+00  0.0000E+00  0.0000E+00  0.0000E+00
 53  0.0000E+00  2.4680E-05  0.0000E+00  0.0000E+00  0.0000E+00  0.0000E+00  0.0000E+00  0.0000E+00  2.2623E-06
 54  0.0000E+00  5.0215E-05  0.0000E+00  0.0000E+00  0.0000E+00  2.5921E-04  8.4960E-05  0.0000E+00  0.0000E+00
 55  0.0000E+00  4.5478E-05  0.0000E+00  0.0000E+00  2.3264E-05  1.1843E-04  1.8725E-04  0.0000E+00  0.0000E+00
 56  0.0000E+00  1.4395E-04  2.7468E-04  2.2917E-04  0.0000E+00  2.0482E-05  0.0000E+00  0.0000E+00  1.8551E-04
 57  0.0000E+00  1.7163E-04  0.0000E+00  5.6934E-04  2.9491E-04  0.0000E+00  0.0000E+00  0.0000E+00  0.0000E+00
 58  0.0000E+00  1.1013E-04  0.0000E+00  0.0000E+00  0.0000E+00  0.0000E+00  0.0000E+00  0.0000E+00  1.3475E-04
 59  0.0000E+00  2.0934E-04  0.0000E+00  0.0000E+00  0.0000E+00  5.9069E-06  0.0000E+00  0.0000E+00  0.0000E+00
 60  0.0000E+00  1.1419E-04  0.0000E+00  0.0000E+00  0.0000E+00  0.0000E+00  0.0000E+00  0.0000E+00  0.0000E+00
 61  0.0000E+00  1.0989E-04  0.0000E+00  0.0000E+00  0.0000E+00  2.7482E-04  0.0000E+00  0.0000E+00  0.0000E+00
 62  0.0000E+00  1.4176E-04  0.0000E+00  4.8618E-05  0.0000E+00  0.0000E+00  0.0000E+00  0.0000E+00  0.0000E+00
 63  0.0000E+00  1.4032E-04  1.1173E-03  0.0000E+00  0.0000E+00  5.4176E-04  0.0000E+00  0.0000E+00  0.0000E+00
 64  0.0000E+00  1.7348E-04  0.0000E+00  0.0000E+00  0.0000E+00  0.0000E+00  6.0437E-05  0.0000E+00  0.0000E+00
 65  0.0000E+00  4.6306E-04  0.0000E+00  2.3662E-03  0.0000E+00  9.8696E-03  0.0000E+00  0.0000E+00  0.0000E+00
 66  0.0000E+00  1.3929E-03  0.0000E+00  0.0000E+00  0.0000E+00  0.0000E+00  0.0000E+00  0.0000E+00  0.0000E+00
 67  0.0000E+00  2.1623E-03  0.0000E+00  9.0044E-03  0.0000E+00  0.0000E+00  0.0000E+00  1.8869E-02  0.0000E+00
 68  0.0000E+00  7.7631E-03  3.5149E-02  0.0000E+00  0.0000E+00  0.0000E+00  0.0000E+00  2.7405E-02  0.0000E+00
 69  0.0000E+00  1.3507E-02  1.4704E-02  0.0000E+00  0.0000E+00  0.0000E+00  7.5176E-03  0.0000E+00  1.2608E-02
 70  0.0000E+00  2.2877E-02  6.5593E-02  0.0000E+00  3.3297E-02  0.0000E+00  0.0000E+00  0.0000E+00  0.0000E+00
 71  0.0000E+00  6.7033E-02  0.0000E+00  0.0000E+00  0.0000E+00  0.0000E+00  2.1634E-02  1.4473E-01  4.1617E-02
 72  1.9498E-02  6.2620E-02  1.2167E-01  2.2611E-02  0.0000E+00  8.7703E-03  4.2286E-02  0.0000E+00  2.6123E-01
 73  0.0000E+00  8.2174E-02  1.2270E-01  0.0000E+00  1.1606E-01  4.4728E-01  0.0000E+00  0.0000E+00  0.0000E+00
 74  4.0411E-03  8.3000E-02  0.0000E+00  2.6323E-01  0.0000E+00  0.0000E+00  1.5412E-01  1.6412E-01  4.0990E-01
 75  0.0000E+00  9.2912E-02  0.0000E+00  1.8549E-01  0.0000E+00  0.0000E+00  0.0000E+00  0.0000E+00  0.0000E+00
 76  0.0000E+00  3.2027E-05  0.0000E+00  0.0000E+00  1.0215E-04  0.0000E+00  0.0000E+00  1.7557E-04  0.0000E+00
 77  0.0000E+00  2.4078E-05  0.0000E+00  0.0000E+00  0.0000E+00  0.0000E+00  0.0000E+00  9.2398E-06  0.0000E+00
 78  0.0000E+00  2.2078E-05  0.0000E+00  0.0000E+00  0.0000E+00  0.0000E+00  0.0000E+00  0.0000E+00  0.0000E+00
 79  0.0000E+00  5.2991E-05  0.0000E+00  0.0000E+00  9.6911E-05  0.0000E+00  1.1410E-04  0.0000E+00  0.0000E+00
 80  0.0000E+00  3.4692E-05  0.0000E+00  0.0000E+00  0.0000E+00  0.0000E+00  0.0000E+00  0.0000E+00  0.0000E+00
 81  0.0000E+00  3.1425E-05  0.0000E+00  0.0000E+00  0.0000E+00  0.0000E+00  0.0000E+00  0.0000E+00  9.8797E-06
 82  0.0000E+00  4.1074E-05  0.0000E+00  3.0769E-04  0.0000E+00  2.5786E-05  0.0000E+00  0.0000E+00  0.0000E+00
 83  0.0000E+00  1.7711E-04  1.9864E-04  4.5584E-05  5.3000E-04  4.2607E-04  2.1565E-04  0.0000E+00  0.0000E+00
 84  0.0000E+00  6.0938E-05  0.0000E+00  0.0000E+00  0.0000E+00  0.0000E+00  0.0000E+00  2.3228E-05  0.0000E+00
 85  0.0000E+00  4.1401E-05  0.0000E+00  0.0000E+00  0.0000E+00  0.0000E+00  0.0000E+00  0.0000E+00  0.0000E+00
 86  0.0000E+00  1.0109E-04  0.0000E+00  0.0000E+00  0.0000E+00  0.0000E+00  4.6533E-04  4.7781E-05  0.0000E+00
 87  0.0000E+00  8.2182E-05  0.0000E+00  0.0000E+00  0.0000E+00  0.0000E+00  0.0000E+00  0.0000E+00  0.0000E+00
 88  0.0000E+00  1.8838E-04  5.1722E-04  0.0000E+00  7.9056E-04  0.0000E+00  0.0000E+00  0.0000E+00  0.0000E+00
 89  0.0000E+00  1.4775E-04  0.0000E+00  0.0000E+00  0.0000E+00  0.0000E+00  0.0000E+00  0.0000E+00  0.0000E+00
 90  0.0000E+00  6.4658E-04  4.8424E-03  0.0000E+00  0.0000E+00  0.0000E+00  0.0000E+00  0.0000E+00  0.0000E+00
 91  0.0000E+00  2.3872E-03  0.0000E+00  0.0000E+00  0.0000E+00  0.0000E+00  0.0000E+00  0.0000E+00  0.0000E+00
 92  0.0000E+00  2.3494E-03  0.0000E+00  0.0000E+00  2.9901E-03  0.0000E+00  0.0000E+00  0.0000E+00  0.0000E+00
 93  0.0000E+00  6.6322E-03  0.0000E+00  0.0000E+00  0.0000E+00  0.0000E+00  3.0518E-02  0.0000E+00  7.1986E-03
 94  0.0000E+00  2.8285E-02  0.0000E+00  0.0000E+00  0.0000E+00  0.0000E+00  3.5847E-02  0.0000E+00  0.0000E+00
 95  0.0000E+00  6.2413E-02  1.9546E-01  2.1919E-02  7.5478E-02  1.1422E-01  1.3125E-02  1.4295E-01  0.0000E+00
 96  0.0000E+00  1.3363E-01  5.9071E-04  9.1964E-02  0.0000E+00  3.8852E-01  0.0000E+00  3.8483E-02  0.0000E+00
 97  1.6069E+00  4.7734E-01  6.3951E-02  1.7831E-01  8.9021E-01  2.0680E-01  8.3969E-01  9.5831E-01  4.0281E-01
 98  6.0304E-02  1.4182E+00  1.6584E+00  1.3349E+00  1.1265E+00  5.8370E-01  1.5166E+00  8.4715E-01  6.9369E-01
 99  0.0000E+00  2.7302E-01  5.0713E-02  0.0000E+00  4.1290E-01  6.3932E-01  7.6861E-02  3.7651E-01  1.2737E-01
100  0.0000E+00  3.4036E-01  4.3914E-02  1.0799E-01  1.6171E-01  0.0000E+00  0.0000E+00  0.0000E+00  0.0000E+00
101  0.0000E+00  1.3075E-04  0.0000E+00  7.1924E-06  0.0000E+00  0.0000E+00  2.1113E-04  1.8144E-04  0.0000E+00
102  0.0000E+00  2.4822E-05  0.0000E+00  0.0000E+00  0.0000E+00  1.8919E-05  0.0000E+00  0.0000E+00  0.0000E+00
103  0.0000E+00  2.3592E-05  0.0000E+00  0.0000E+00  0.0000E+00  0.0000E+00  0.0000E+00  1.1813E-05  1.5958E-05
104  0.0000E+00  2.3430E-05  4.2776E-05  3.4987E-05  0.0000E+00  3.4898E-05  7.6961E-05  0.0000E+00  0.0000E+00
105  0.0000E+00  1.4333E-04  0.0000E+00  3.3210E-04  0.0000E+00  1.8976E-04  0.0000E+00  5.6708E-05  0.0000E+00
106  0.0000E+00  1.0475E-04  3.2852E-04  0.0000E+00  3.5097E-06  3.7418E-04  0.0000E+00  0.0000E+00  3.2711E-05
107  0.0000E+00  1.4007E-04  0.0000E+00  0.0000E+00  4.1889E-04  0.0000E+00  5.7169E-04  0.0000E+00  0.0000E+00
108  0.0000E+00  1.1697E-04  1.3263E-04  0.0000E+00  0.0000E+00  1.2319E-04  7.0541E-04  0.0000E+00  0.0000E+00
109  0.0000E+00  8.3118E-05  0.0000E+00  0.0000E+00  0.0000E+00  0.0000E+00  0.0000E+00  0.0000E+00  0.0000E+00
110  0.0000E+00  9.5150E-05  0.0000E+00  0.0000E+00  1.1123E-03  0.0000E+00  2.3585E-04  0.0000E+00  0.0000E+00
111  0.0000E+00  1.0861E-04  0.0000E+00  0.0000E+00  8.1308E-06  0.0000E+00  0.0000E+00  3.5818E-05  0.0000E+00
112  0.0000E+00  6.0801E-05  0.0000E+00  0.0000E+00  0.0000E+00  0.0000E+00  0.0000E+00  0.0000E+00  0.0000E+00
113  0.0000E+00  1.9314E-04  0.0000E+00  0.0000E+00  0.0000E+00  2.8139E-04  0.0000E+00  0.0000E+00  0.0000E+00
114  0.0000E+00  2.7749E-04  0.0000E+00  0.0000E+00  0.0000E+00  0.0000E+00  9.7328E-04  0.0000E+00  0.0000E+00
115  0.0000E+00  1.0314E-03  0.0000E+00  8.2340E-04  0.0000E+00  0.0000E+00  0.0000E+00  0.0000E+00  0.0000E+00
116  0.0000E+00  3.0759E-03  0.0000E+00  9.2223E-03  0.0000E+00  0.0000E+00  0.0000E+00  0.0000E+00  0.0000E+00
117  0.0000E+00  4.4513E-03  1.7360E-02  0.0000E+00  0.0000E+00  4.9018E-04  9.9933E-03  2.2368E-02  0.0000E+00
118  0.0000E+00  2.0826E-02  1.2353E-02  0.0000E+00  0.0000E+00  0.0000E+00  0.0000E+00  0.0000E+00  0.0000E+00
119  0.0000E+00  7.0320E-02  0.0000E+00  0.0000E+00  4.9353E-03  0.0000E+00  5.3063E-02  0.0000E+00  0.0000E+00
120  0.0000E+00  1.6770E-01  2.6098E-01  0.0000E+00  5.9168E-02  1.4200E-01  0.0000E+00  3.6038E-01  0.0000E+00
121  5.2486E+00  1.0796E+01  1.0698E+01  1.0871E+01  1.0457E+01  1.0742E+01  1.0316E+01  1.0760E+01  1.1204E+01
122  3.2804E+01  3.2661E+01  3.3593E+01  3.3491E+01  3.3224E+01  3.2981E+01  3.2403E+01  3.2705E+01  3.2677E+01
123  1.0005E+01  8.3154E+00  8.4429E+00  9.6130E+00  8.9280E+00  9.1583E+00  8.3780E+00  8.7888E+00  9.6556E+00
124  2.9473E+01  2.5359E+01  2.7116E+01  2.5633E+01  2.5841E+01  2.5893E+01  2.5694E+01  2.5967E+01  2.5922E+01
125  1.7861E+01  1.2360E+01  1.2077E+01  1.3224E+01  1.2229E+01  1.3867E+01  1.3624E+01  1.3007E+01  1.3794E+01
126  0.0000E+00  7.2467E-05  1.1530E-05  8.7586E-06  0.0000E+00  0.0000E+00  0.0000E+00  3.3244E-04  8.8556E-05
127  0.0000E+00  1.7794E-05  0.0000E+00  0.0000E+00  0.0000E+00  6.4089E-06  4.3257E-05  0.0000E+00  0.0000E+00
128  0.0000E+00  1.5350E-05  1.1348E-04  2.1724E-05  8.9260E-05  0.0000E+00  0.0000E+00  0.0000E+00  0.0000E+00
129  0.0000E+00  3.5909E-05  0.0000E+00  3.7150E-05  0.0000E+00  0.0000E+00  0.0000E+00  0.0000E+00  0.0000E+00
130  0.0000E+00  6.3149E-05  0.0000E+00  2.2229E-04  1.7832E-04  4.2111E-04  0.0000E+00  0.0000E+00  0.0000E+00
131  0.0000E+00  8.7860E-05  2.3568E-04  1.9095E-04  2.2583E-04  0.0000E+00  0.0000E+00  0.0000E+00  0.0000E+00
132  0.0000E+00  1.7961E-04  0.0000E+00  0.0000E+00  0.0000E+00  0.0000E+00  0.0000E+00  0.0000E+00  0.0000E+00
133  0.0000E+00  1.1277E-04  0.0000E+00  0.0000E+00  0.0000E+00  0.0000E+00  4.6625E-04  0.0000E+00  0.0000E+00
134  0.0000E+00  4.0140E-05  0.0000E+00  0.0000E+00  0.0000E+00  0.0000E+00  0.0000E+00  0.0000E+00  0.0000E+00
135  0.0000E+00  5.3140E-05  0.0000E+00  0.0000E+00  6.4030E-05  0.0000E+00  0.0000E+00  0.0000E+00  0.0000E+00
136  0.0000E+00  8.8136E-05  0.0000E+00  0.0000E+00  0.0000E+00  0.0000E+00  0.0000E+00  0.0000E+00  8.0881E-05
137  0.0000E+00  1.0802E-04  0.0000E+00  0.0000E+00  0.0000E+00  0.0000E+00  0.0000E+00  0.0000E+00  0.0000E+00
138  0.0000E+00  1.6739E-04  0.0000E+00  0.0000E+00  0.0000E+00  1.9862E-06  0.0000E+00  0.0000E+00  0.0000E+00
139  0.0000E+00  7.5070E-04  0.0000E+00  0.0000E+00  4.0860E-03  0.0000E+00  0.0000E+00  0.0000E+00  0.0000E+00
140  0.0000E+00  2.9074E-03  0.0000E+00  0.0000E+00  8.7750E-03  0.0000E+00  0.0000E+00  1.2529E-02  0.0000E+00
141  0.0000E+00  7.4321E-03  7.0043E-03  0.0000E+00  5.8069E-04  0.0000E+00  0.0000E+00  1.5427E-03  0.0000E+00
142  0.0000E+00  8.6903E-03  0.0000E+00  0.0000E+00  0.0000E+00  6.8985E-03  4.4473E-03  0.0000E+00  0.0000E+00
143  0.0000E+00  3.3421E-02  2.0448E-02  0.0000E+00  0.0000E+00  0.0000E+00  4.9200E-02  0.0000E+00  2.1992E-02
144  1.8630E-03  1.0526E-01  0.0000E+00  0.0000E+00  6.6193E-02  1.8152E-01  1.2242E-02  0.0000E+00  2.1561E-01
145  2.6752E-03  3.1020E-01  3.2715E-01  0.0000E+00  1.8848E-01  3.0811E-01  0.0000E+00  0.0000E+00  3.3661E-01
146  0.0000E+00  3.2565E-01  1.1601E+00  2.1743E-01  0.0000E+00  0.0000E+00  0.0000E+00  0.0000E+00  0.0000E+00
147  0.0000E+00  6.7198E-01  0.0000E+00  0.0000E+00  5.4431E-01  0.0000E+00  1.3360E+00  0.0000E+00  9.5965E-02
148  0.0000E+00  5.3742E-01  4.5157E-01  0.0000E+00  0.0000E+00  0.0000E+00  0.0000E+00  4.0169E-01  1.6619E-01
149  5.2397E-03  9.8114E-01  0.0000E+00  1.0990E+00  8.1540E-01  2.8461E-01  8.8642E-01  1.2672E+00  1.3369E+00
150  0.0000E+00  1.7207E+00  9.8704E-01  9.3076E-01  2.4172E+00  1.6474E+00  1.9106E+00  1.6616E+00  1.0044E-01

# AV, chi2 & Mass for <> & i_chain = 1 ...  7 solutions
AV       1.3367      1.3315      1.3312      1.3325      1.3320      1.3363      1.3317      1.3321      1.3343
chi2 2.8025E+00  2.8807E+00  2.8678E+00  2.8509E+00  2.8618E+00  2.8547E+00  2.8620E+00  2.8644E+00  2.8468E+00
Mass 8.2828E-10  7.9520E-10  7.8910E-10  7.9951E-10  8.0198E-10  8.0076E-10  8.0416E-10  7.9865E-10  7.9829E-10
  -6.42                                  [v0_min (km/s) before EX0s...]
 112.43                                  [vd_min (km/s) before EX0s...]


## Synthetic spectrum (Best Model) ##l_obs f_obs f_syn wei
 3070    [Nl_obs]
 3359.00    0.27550   0.36822   -1.000
 3360.00    0.29354   0.34942   -1.000
 3361.00    0.26740   0.35469   -1.000
 3362.00    0.30693   0.37932   -1.000
 3363.00    0.25897   0.40942   -1.000
 3364.00    0.27761   0.42959   -1.000
 3365.00    0.30928   0.43145   -1.000
 3366.00    0.34674   0.41741   -1.000
 3367.00    0.30956   0.39638   -1.000
 3368.00    0.28230   0.37643   -1.000
 3369.00    0.30957   0.36165   -1.000
 3370.00    0.32977   0.35354   63.204
 3371.00    0.27338   0.35388   -1.000
 3372.00    0.29368   0.36501   -1.000
 3373.00    0.31489   0.38683   -1.000
 3374.00    0.31023   0.41454   -1.000
 3375.00    0.31749   0.43951   -1.000
 3376.00    0.33289   0.45253   -1.000
 3377.00    0.33455   0.44887   -1.000
 3378.00    0.35267   0.43264   -1.000
 3379.00    0.32982   0.41508   -1.000
 3380.00    0.33127   0.40683   -1.000
 3381.00    0.32776   0.41117   -1.000
 3382.00    0.36483   0.42383   47.125
 3383.00    0.39938   0.43851   44.926
 3384.00    0.39081   0.45107   45.208
 3385.00    0.37773   0.45948   -1.000
 3386.00    0.36870   0.46292   -1.000
 3387.00    0.36469   0.46240   -1.000
 3388.00    0.33830   0.45983   -1.000
 3389.00    0.35714   0.45531   -1.000
 3390.00    0.36667   0.44693   -1.000
 3391.00    0.37011   0.43510   43.890
 3392.00    0.36762   0.42551   42.441
 3393.00    0.34967   0.42535   40.519
 3394.00    0.35323   0.43692   -1.000
 3395.00    0.38791   0.45627   37.224
 3396.00    0.41060   0.47730   36.047
 3397.00    0.41419   0.49601   34.764
 3398.00    0.42279   0.50999   34.385
 3399.00    0.46155   0.51678   34.810
 3400.00    0.44853   0.51486   36.269
 3401.00    0.45688   0.50515   36.644
 3402.00    0.45648   0.49124   37.297
 3403.00    0.44676   0.47740   37.973
 3404.00    0.44827   0.46583   38.550
 3405.00    0.45155   0.45634   38.758
 3406.00    0.38486   0.44851   39.354
 3407.00    0.39290   0.44352   39.518
 3408.00    0.41045   0.44325   39.172
 3409.00    0.42197   0.44704   38.045
 3410.00    0.42469   0.44984   37.941
 3411.00    0.44182   0.44525   39.545
 3412.00    0.45105   0.43218   40.175
 3413.00    0.43666   0.41737   39.980
 3414.00    0.41843   0.41071   38.893
 3415.00    0.42473   0.41797   37.188
 3416.00    0.42478   0.43729   35.411
 3417.00    0.41714   0.46191   33.779
 3418.00    0.42053   0.48466   33.660
 3419.00    0.43882   0.49982   33.467
 3420.00    0.48967   0.50331   33.757
 3421.00    0.49874   0.49485   34.744
 3422.00    0.48697   0.48012   35.342
 3423.00    0.47344   0.46775   34.306
 3424.00    0.47207   0.46279   33.476
 3425.00    0.47764   0.46505   36.634
 3426.00    0.48308   0.47297   -1.000
 3427.00    0.48673   0.48589  294.398
 3428.00    0.47054   0.50149   -1.000
 3429.00    0.51627   0.51280  294.398
 3430.00    0.51959   0.51205  171.223
 3431.00    0.50360   0.49911   33.441
 3432.00    0.46630   0.48310   36.689
 3433.00    0.45774   0.47435   -1.000
 3434.00    0.47183   0.47470  167.853
 3435.00    0.45818   0.47656   33.386
 3436.00    0.48435   0.47074   35.015
 3437.00    0.47576   0.45307   37.203
 3438.00    0.46808   0.42532   40.028
 3439.00    0.45463   0.39352   41.453
 3440.00    0.41705   0.36573   41.477
 3441.00    0.38871   0.34894   41.127
 3442.00    0.37622   0.34635   39.402
 3443.00    0.39156   0.35599   37.233
 3444.00    0.37476   0.37295   35.260
 3445.00    0.38949   0.39331   38.012
 3446.00    0.42864   0.41554   -1.000
 3447.00    0.45490   0.43883   -1.000
 3448.00    0.46902   0.46064   -1.000
 3449.00    0.46270   0.47561   -1.000
 3450.00    0.46661   0.47917  294.398
 3451.00    0.48544   0.47333   -1.000
 3452.00    0.48000   0.46643   -1.000
 3453.00    0.46408   0.46540  294.398
 3454.00    0.49443   0.46941   -1.000
 3455.00    0.49815   0.47110   -1.000
 3456.00    0.51382   0.46406   -1.000
 3457.00    0.48974   0.44829   33.377
 3458.00    0.47829   0.42940   33.751
 3459.00    0.45278   0.41444   37.649
 3460.00    0.48296   0.40857   -1.000
 3461.00    0.47684   0.41390   -1.000
 3462.00    0.45434   0.42783   -1.000
 3463.00    0.50630   0.44271   -1.000
 3464.00    0.52553   0.45140   -1.000
 3465.00    0.49362   0.45432   -1.000
 3466.00    0.49328   0.45804   -1.000
 3467.00    0.49873   0.46747   -1.000
 3468.00    0.48617   0.48088  281.965
 3469.00    0.52763   0.49147   -1.000
 3470.00    0.53372   0.49241   -1.000
 3471.00    0.52438   0.48071   -1.000
 3472.00    0.50893   0.45830   -1.000
 3473.00    0.50895   0.43126   33.761
 3474.00    0.48471   0.40795   34.773
 3475.00    0.44524   0.39638   38.613
 3476.00    0.44233   0.40064   -1.000
 3477.00    0.45493   0.41804   -1.000
 3478.00    0.46049   0.44028   -1.000
 3479.00    0.50384   0.45838   -1.000
 3480.00    0.51409   0.46705   -1.000
 3481.00    0.50259   0.46603   -1.000
 3482.00    0.50706   0.45959   -1.000
 3483.00    0.50110   0.45471   -1.000
 3484.00    0.49906   0.45723   -1.000
 3485.00    0.49033   0.46696   -1.000
 3486.00    0.50687   0.47642   -1.000
 3487.00    0.53394   0.47614   -1.000
 3488.00    0.51971   0.46250   -1.000
 3489.00    0.47642   0.44137   -1.000
 3490.00    0.47731   0.42390   -1.000
 3491.00    0.45374   0.41806   -1.000
 3492.00    0.46634   0.42338   -1.000
 3493.00    0.49758   0.43271   -1.000
 3494.00    0.47413   0.43848   -1.000
 3495.00    0.45619   0.43894   -1.000
 3496.00    0.46180   0.43977   -1.000
 3497.00    0.47127   0.44892   -1.000
 3498.00    0.48150   0.46826   -1.000
 3499.00    0.48752   0.49134  262.633
 3500.00    0.53561   0.51030   -1.000
 3501.00    0.54009   0.52288   -1.000
 3502.00    0.53808   0.53038  266.098
 3503.00    0.57850   0.53237   -1.000
 3504.00    0.56064   0.52794   -1.000
 3505.00    0.53172   0.51917   -1.000
 3506.00    0.52802   0.51008   -1.000
 3507.00    0.53906   0.50233   -1.000
 3508.00    0.54208   0.49388   -1.000
 3509.00    0.52413   0.48262   -1.000
 3510.00    0.50975   0.46891   -1.000
 3511.00    0.51781   0.45443   -1.000
 3512.00    0.50817   0.44159   -1.000
 3513.00    0.48153   0.43489   -1.000
 3514.00    0.48445   0.44021   -1.000
 3515.00    0.44810   0.46000  266.949
 3516.00    0.47202   0.48808   -1.000
 3517.00    0.52345   0.51146   -1.000
 3518.00    0.56405   0.51893   -1.000
 3519.00    0.55105   0.50801   -1.000
 3520.00    0.53628   0.48430   -1.000
 3521.00    0.51461   0.45621   -1.000
 3522.00    0.51232   0.42965   33.497
 3523.00    0.48785   0.40790   34.480
 3524.00    0.45574   0.39455   40.040
 3525.00    0.42886   0.39483   -1.000
 3526.00    0.44789   0.41127   -1.000
 3527.00    0.45373   0.43957   -1.000
 3528.00    0.47695   0.46966  277.565
 3529.00    0.50711   0.49131   -1.000
 3530.00    0.52991   0.50029   -1.000
 3531.00    0.52352   0.50087   -1.000
 3532.00    0.49939   0.50111  275.433
 3533.00    0.50221   0.50599  269.824
 3534.00    0.53228   0.51454   -1.000
 3535.00    0.54714   0.52334   -1.000
 3536.00    0.55204   0.53085   -1.000
 3537.00    0.50382   0.53773   -1.000
 3538.00    0.50940   0.54338   -1.000
 3539.00    0.56506   0.54499   -1.000
 3540.00    0.53768   0.54164  270.992
 3541.00    0.53588   0.53726  268.787
 3542.00    0.53591   0.53717  265.243
 3543.00    0.51320   0.54236   -1.000
 3544.00    0.53849   0.54815  270.696
 3545.00    0.52915   0.54953   -1.000
 3546.00    0.55375   0.54623  276.760
 3547.00    0.54729   0.54189  275.902
 3548.00    0.50661   0.53947   -1.000
 3549.00    0.50975   0.53777   -1.000
 3550.00    0.52179   0.53299  288.371
 3551.00    0.49219   0.52289   -1.000
 3552.00    0.48951   0.50949   -1.000
 3553.00    0.49987   0.49827  294.398
 3554.00    0.48629   0.49372  290.460
 3555.00    0.45562   0.49535   -1.000
 3556.00    0.45677   0.49862   -1.000
 3557.00    0.49284   0.50005  294.398
 3558.00    0.47767   0.50062   -1.000
 3559.00    0.47538   0.50371   -1.000
 3560.00    0.49170   0.51034   -1.000
 3561.00    0.50485   0.51562  293.724
 3562.00    0.50608   0.51108  123.078
 3563.00    0.49524   0.49173   33.897
 3564.00    0.48950   0.46167   34.956
 3565.00    0.46887   0.43272   34.575
 3566.00    0.44919   0.41409   34.638
 3567.00    0.42200   0.40528   35.737
 3568.00    0.41676   0.39932   36.042
 3569.00    0.42987   0.39342   34.797
 3570.00    0.41774   0.39165   40.385
 3571.00    0.41980   0.39854   -1.000
 3572.00    0.43397   0.41321   -1.000
 3573.00    0.46003   0.42987   -1.000
 3574.00    0.45793   0.44263   -1.000
 3575.00    0.44502   0.44818  294.398
 3576.00    0.45208   0.44419  124.820
 3577.00    0.48092   0.42972   35.286
 3578.00    0.45233   0.40652   37.951
 3579.00    0.40783   0.38005   39.665
 3580.00    0.38282   0.35794   39.885
 3581.00    0.36680   0.34586   40.214
 3582.00    0.36715   0.34303   41.303
 3583.00    0.38359   0.34391   42.519
 3584.00    0.39498   0.34353   42.536
 3585.00    0.36659   0.34247   40.332
 3586.00    0.36848   0.34571   38.221
 3587.00    0.37483   0.35825   36.030
 3588.00    0.39485   0.38136   40.719
 3589.00    0.42055   0.41148   -1.000
 3590.00    0.42408   0.44178   -1.000
 3591.00    0.44005   0.46519   -1.000
 3592.00    0.47035   0.47976  289.809
 3593.00    0.46720   0.48986   -1.000
 3594.00    0.45978   0.50244   -1.000
 3595.00    0.48189   0.51995   -1.000
 3596.00    0.50600   0.53937   -1.000
 3597.00    0.53203   0.55620   -1.000
 3598.00    0.56332   0.56766  255.397
 3599.00    0.56741   0.57154  268.297
 3600.00    0.56068   0.56422  282.915
 3601.00    0.56575   0.54465   -1.000
 3602.00    0.52148   0.51772  294.398
 3603.00    0.49704   0.49172  294.398
 3604.00    0.48987   0.47239   -1.000
 3605.00    0.50091   0.45971   -1.000
 3606.00    0.47798   0.44917   -1.000
 3607.00    0.45233   0.43796   -1.000
 3608.00    0.45055   0.42898   -1.000
 3609.00    0.44934   0.42864   -1.000
 3610.00    0.44391   0.44009  292.306
 3611.00    0.48901   0.45969   -1.000
 3612.00    0.50872   0.48096   -1.000
 3613.00    0.50832   0.49923  271.494
 3614.00    0.51072   0.51156  276.971
 3615.00    0.52068   0.51246   -1.000
 3616.00    0.51662   0.49715  111.403
 3617.00    0.48623   0.46928   41.172
 3618.00    0.45828   0.44354   -1.000
 3619.00    0.43059   0.43631  280.015
 3620.00    0.46173   0.45318  266.229
 3621.00    0.51510   0.48528   -1.000
 3622.00    0.51984   0.52042  255.975
 3623.00    0.53174   0.55228   -1.000
 3624.00    0.55699   0.58206   -1.000
 3625.00    0.57353   0.61060   -1.000
 3626.00    0.59368   0.63219   -1.000
 3627.00    0.63993   0.63619  260.327
 3628.00    0.62924   0.61520   -1.000
 3629.00    0.59113   0.57236   -1.000
 3630.00    0.54023   0.52276   -1.000
 3631.00    0.49147   0.48555  294.398
 3632.00    0.47689   0.47220  289.614
 3633.00    0.47947   0.48024  281.979
 3634.00    0.49490   0.50002  270.669
 3635.00    0.49558   0.52263   -1.000
 3636.00    0.53762   0.54540  247.067
 3637.00    0.57293   0.56898  240.686
 3638.00    0.57589   0.59215   -1.000
 3639.00    0.60113   0.60940  248.662
 3640.00    0.61596   0.61465  258.287
 3641.00    0.61524   0.60583  270.954
 3642.00    0.56938   0.58609   -1.000
 3643.00    0.53766   0.56151   -1.000
 3644.00    0.52020   0.53674   -1.000
 3645.00    0.50988   0.51383  291.238
 3646.00    0.50678   0.49466   -1.000
 3647.00    0.52462   0.48303   -1.000
 3648.00    0.50727   0.48425   -1.000
 3649.00    0.49678   0.50131  255.835
 3650.00    0.51658   0.53141   -1.000
 3651.00    0.54740   0.56709   -1.000
 3652.00    0.57370   0.59962   -1.000
 3653.00    0.59280   0.62406   -1.000
 3654.00    0.61107   0.64117   -1.000
 3655.00    0.61146   0.65581   -1.000
 3656.00    0.61422   0.67082   -1.000
 3657.00    0.63566   0.68533   -1.000
 3658.00    0.64789   0.69578   -1.000
 3659.00    0.65315   0.69896   -1.000
 3660.00    0.64976   0.69393   -1.000
 3661.00    0.65073   0.68207   -1.000
 3662.00    0.63464   0.66751   -1.000
 3663.00    0.61180   0.65541   -1.000
 3664.00    0.60561   0.64843   -1.000
 3665.00    0.61660   0.64456   -1.000
 3666.00    0.61895   0.63939   -1.000
 3667.00    0.61620   0.63036   -1.000
 3668.00    0.60601   0.62050   -1.000
 3669.00    0.59452   0.61667   -1.000
 3670.00    0.59389   0.62342   -1.000
 3671.00    0.60941   0.63811   -1.000
 3672.00    0.60779   0.65257   -1.000
 3673.00    0.63683   0.65978   -1.000
 3674.00    0.65774   0.65667  243.691
 3675.00    0.63221   0.64298  251.240
 3676.00    0.61744   0.62041  258.551
 3677.00    0.60926   0.59334   -1.000
 3678.00    0.59302   0.56901   -1.000
 3679.00    0.55456   0.55508  253.604
 3680.00    0.54445   0.55542  247.562
 3681.00    0.56111   0.56674  247.497
 3682.00    0.58148   0.57965  254.755
 3683.00    0.58194   0.58409  265.334
 3684.00    0.58468   0.57501  274.658
 3685.00    0.56456   0.55577  276.063
 3686.00    0.52666   0.53748  265.142
 3687.00    0.51548   0.53316   -1.000
 3688.00    0.51601   0.54956   -1.000
 3689.00    0.54659   0.58225   -1.000
 3690.00    0.58932   0.61807   -1.000
 3691.00    0.62800   0.64227   -1.000
 3692.00    0.64939   0.64786  239.637
 3693.00    0.63455   0.63969  238.218
 3694.00    0.62546   0.62989  235.857
 3695.00    0.60585   0.62795   -1.000
 3696.00    0.60719   0.63691   -1.000
 3697.00    0.61651   0.65432   -1.000
 3698.00    0.62658   0.67361   -1.000
 3699.00    0.66787   0.68616   -1.000
 3700.00    0.70009   0.68418   -1.000
 3701.00    0.67160   0.66348  260.643
 3702.00    0.62860   0.62480  282.759
 3703.00    0.59243   0.57540   -1.000
 3704.00    0.54468   0.52754   -1.000
 3705.00    0.50836   0.49252   -1.000
 3706.00    0.49282   0.47544   -1.000
 3707.00    0.49239   0.47557   -1.000
 3708.00    0.51493   0.49001   -1.000
 3709.00    0.52513   0.51755  242.577
 3710.00    0.53887   0.55601   -1.000
 3711.00    0.58857   0.59940  219.902
 3712.00    0.63297   0.63892  215.889
 3713.00    0.67656   0.66569  217.062
 3714.00    0.68401   0.67302  224.055
 3715.00    0.66315   0.65875  237.280
 3716.00    0.66088   0.62446   -1.000
 3717.00    0.61303   0.57405   -1.000
 3718.00    0.53225   0.51505   95.357
 3719.00    0.48505   0.46019   45.125
 3720.00    0.45879   0.42421   -1.000
 3721.00    0.42693   0.41789  270.310
 3722.00    0.43969   0.44127  247.497
 3723.00    0.49501   0.48195  240.872
 3724.00    0.56568   0.52227   -1.000
 3725.00    0.60427   0.54807   -1.000
 3726.00    0.60105   0.55594   -1.000
 3727.00    0.57143   0.55306   -1.000
 3728.00    0.54808   0.54785  254.108
 3729.00    0.57695   0.54009   -1.000
 3730.00    0.57155   0.52219   -1.000
 3731.00    0.53738   0.48896   34.267
 3732.00    0.50575   0.44372   37.621
 3733.00    0.46598   0.39834   38.013
 3734.00    0.41579   0.36611   35.559
 3735.00    0.37572   0.35601   44.678
 3736.00    0.37876   0.37104  283.785
 3737.00    0.39778   0.40711  258.992
 3738.00    0.44799   0.45413  248.116
 3739.00    0.52119   0.49850   -1.000
 3740.00    0.57743   0.52658   -1.000
 3741.00    0.58351   0.53027   -1.000
 3742.00    0.56317   0.51142   -1.000
 3743.00    0.50773   0.47985   -1.000
 3744.00    0.48053   0.44675   -1.000
 3745.00    0.46002   0.41897   34.291
 3746.00    0.43799   0.39785   35.974
 3747.00    0.43783   0.38321   49.288
 3748.00    0.41953   0.37927   -1.000
 3749.00    0.40064   0.39250  276.566
 3750.00    0.43988   0.42545   -1.000
 3751.00    0.48685   0.47325  233.758
 3752.00    0.51243   0.52502   -1.000
 3753.00    0.56936   0.56875  224.667
 3754.00    0.62609   0.59364   -1.000
 3755.00    0.64098   0.59176   -1.000
 3756.00    0.61463   0.56490   -1.000
 3757.00    0.55555   0.52756   -1.000
 3758.00    0.50593   0.49841  270.608
 3759.00    0.49944   0.48821   -1.000
 3760.00    0.51398   0.49340   -1.000
 3761.00    0.52916   0.50267   -1.000
 3762.00    0.54350   0.50761   -1.000
 3763.00    0.54554   0.50689   -1.000
 3764.00    0.52735   0.50359   -1.000
 3765.00    0.54391   0.50044   -1.000
 3766.00    0.54723   0.49989   -1.000
 3767.00    0.52337   0.50466   -1.000
 3768.00    0.52571   0.51595  260.347
 3769.00    0.56738   0.53276   -1.000
 3770.00    0.57331   0.55333   -1.000
 3771.00    0.58601   0.57553  230.631
 3772.00    0.60941   0.59582  230.083
 3773.00    0.63736   0.61067   -1.000
 3774.00    0.63955   0.61886   -1.000
 3775.00    0.62996   0.62274  227.668
 3776.00    0.63828   0.62684  222.952
 3777.00    0.61691   0.63435   -1.000
 3778.00    0.62329   0.64584   -1.000
 3779.00    0.64471   0.65940   -1.000
 3780.00    0.67022   0.67194  210.122
 3781.00    0.69268   0.68044  211.793
 3782.00    0.68204   0.68195  218.818
 3783.00    0.69100   0.67318   -1.000
 3784.00    0.68147   0.65152   -1.000
 3785.00    0.64024   0.61841   -1.000
 3786.00    0.58553   0.58113  260.739
 3787.00    0.53598   0.54929  258.980
 3788.00    0.52300   0.53009  254.929
 3789.00    0.51332   0.52525  254.496
 3790.00    0.53829   0.52953  260.395
 3791.00    0.56062   0.53353   -1.000
 3792.00    0.57300   0.52989   -1.000
 3793.00    0.54947   0.51698   -1.000
 3794.00    0.51036   0.49859   -1.000
 3795.00    0.49570   0.47934   -1.000
 3796.00    0.47980   0.46226   -1.000
 3797.00    0.47350   0.45144   -1.000
 3798.00    0.46613   0.45309   -1.000
 3799.00    0.46173   0.47204  247.358
 3800.00    0.48196   0.50635   -1.000
 3801.00    0.51398   0.54637   -1.000
 3802.00    0.54563   0.58090   -1.000
 3803.00    0.56960   0.60201   -1.000
 3804.00    0.57671   0.60731   -1.000
 3805.00    0.57444   0.60099   -1.000
 3806.00    0.55427   0.59205   -1.000
 3807.00    0.52987   0.58930   -1.000
 3808.00    0.53937   0.59525   -1.000
 3809.00    0.57582   0.60383   -1.000
 3810.00    0.59598   0.60459  255.421
 3811.00    0.58632   0.59053  271.198
 3812.00    0.57228   0.56241   -1.000
 3813.00    0.53512   0.52868  292.820
 3814.00    0.49277   0.49943  285.259
 3815.00    0.47329   0.48111  279.668
 3816.00    0.46097   0.47276  289.720
 3817.00    0.46677   0.46703  294.398
 3818.00    0.47237   0.45722   -1.000
 3819.00    0.44586   0.44394  294.398
 3820.00    0.42609   0.43402  294.398
 3821.00    0.43028   0.43088  294.398
 3822.00    0.44239   0.42996   84.172
 3823.00    0.45149   0.42351   35.060
 3824.00    0.43704   0.40951   35.432
 3825.00    0.40840   0.39452   35.015
 3826.00    0.40083   0.38588   34.440
 3827.00    0.40399   0.38569   34.224
 3828.00    0.40372   0.39065   35.064
 3829.00    0.41839   0.39471   37.107
 3830.00    0.42114   0.39270   39.473
 3831.00    0.40340   0.38372   39.930
 3832.00    0.37844   0.37165   38.804
 3833.00    0.37175   0.36240   37.479
 3834.00    0.37977   0.35981   37.246
 3835.00    0.38800   0.36260   38.110
 3836.00    0.41395   0.36671   38.451
 3837.00    0.41233   0.36959   37.169
 3838.00    0.40716   0.37340   52.195
 3839.00    0.38284   0.38387  294.398
 3840.00    0.39207   0.40537   -1.000
 3841.00    0.42929   0.43725  272.869
 3842.00    0.46171   0.47291  269.822
 3843.00    0.47954   0.50442   -1.000
 3844.00    0.51965   0.52661  269.920
 3845.00    0.52363   0.53869   -1.000
 3846.00    0.50756   0.54262   -1.000
 3847.00    0.51441   0.54008   -1.000
 3848.00    0.50940   0.53323   -1.000
 3849.00    0.49635   0.52634   -1.000
 3850.00    0.49365   0.52380   -1.000
 3851.00    0.47938   0.52612   -1.000
 3852.00    0.49121   0.52847   -1.000
 3853.00    0.50464   0.52539   -1.000
 3854.00    0.48497   0.51517   -1.000
 3855.00    0.46818   0.49946   76.316
 3856.00    0.46682   0.48094   33.699
 3857.00    0.45077   0.46254   34.755
 3858.00    0.43258   0.44917   50.706
 3859.00    0.41469   0.44793   -1.000
 3860.00    0.41524   0.46236   -1.000
 3861.00    0.44412   0.48832   -1.000
 3862.00    0.48209   0.51501   -1.000
 3863.00    0.51784   0.53234   -1.000
 3864.00    0.53503   0.53746  276.586
 3865.00    0.53462   0.53439  284.143
 3866.00    0.50551   0.52846   -1.000
 3867.00    0.48744   0.52088   -1.000
 3868.00    0.48695   0.50994   76.548
 3869.00    0.47083   0.49558   50.138
 3870.00    0.44352   0.48199   -1.000
 3871.00    0.43179   0.47695   -1.000
 3872.00    0.45279   0.48552   -1.000
 3873.00    0.48295   0.50512   -1.000
 3874.00    0.51113   0.52539   -1.000
 3875.00    0.54616   0.53514   -1.000
 3876.00    0.55811   0.52980   -1.000
 3877.00    0.52196   0.51477  294.398
 3878.00    0.48398   0.50066   -1.000
 3879.00    0.46972   0.49367   -1.000
 3880.00    0.47525   0.49403   -1.000
 3881.00    0.47243   0.49934   -1.000
 3882.00    0.46896   0.50635   -1.000
 3883.00    0.50084   0.51065  275.088
 3884.00    0.53679   0.50647   -1.000
 3885.00    0.54053   0.49204   -1.000
 3886.00    0.51704   0.47500   -1.000
 3887.00    0.50732   0.46755   -1.000
 3888.00    0.51267   0.47868   -1.000
 3889.00    0.53792   0.50897   -1.000
 3890.00    0.58850   0.55029   -1.000
 3891.00    0.63856   0.59008   -1.000
 3892.00    0.65470   0.61815   -1.000
 3893.00    0.66108   0.63089   -1.000
 3894.00    0.65987   0.63268   -1.000
 3895.00    0.63644   0.63138  217.663
 3896.00    0.62879   0.63117  221.493
 3897.00    0.64159   0.63183  222.100
 3898.00    0.65304   0.63192   -1.000
 3899.00    0.64944   0.63143   -1.000
 3900.00    0.64988   0.63103   -1.000
 3901.00    0.65292   0.62889   -1.000
 3902.00    0.65010   0.62229   -1.000
 3903.00    0.63618   0.61222   -1.000
 3904.00    0.60886   0.60393  234.511
 3905.00    0.60546   0.60484  219.657
 3906.00    0.62457   0.61905  208.725
 3907.00    0.63874   0.64455  205.161
 3908.00    0.68104   0.67417  203.313
 3909.00    0.70371   0.70044  201.668
 3910.00    0.71737   0.71917  201.943
 3911.00    0.74560   0.73014   -1.000
 3912.00    0.76268   0.73435   -1.000
 3913.00    0.75331   0.73223   -1.000
 3914.00    0.73951   0.72409   -1.000
 3915.00    0.73335   0.71084   -1.000
 3916.00    0.70817   0.69313   -1.000
 3917.00    0.68698   0.67108   -1.000
 3918.00    0.67466   0.64522   -1.000
 3919.00    0.64653   0.61827   -1.000
 3920.00    0.60319   0.59593  246.568
 3921.00    0.58315   0.58265  244.655
 3922.00    0.58343   0.57866  250.896
 3923.00    0.59953   0.57818   -1.000
 3924.00    0.61147   0.57211   -1.000
 3925.00    0.60470   0.55399   -1.000
 3926.00    0.57004   0.52234   39.205
 3927.00    0.50416   0.48140   45.938
 3928.00    0.45481   0.43659   53.983
 3929.00    0.40372   0.39216   63.630
 3930.00    0.34273   0.35049   72.481
 3931.00    0.29624   0.31329   74.970
 3932.00    0.28580   0.28499   68.682
 3933.00    0.28347   0.27161   58.237
 3934.00    0.27423   0.27803   47.973
 3935.00    0.30355   0.30453   39.815
 3936.00    0.34895   0.34633   57.024
 3937.00    0.39010   0.39549  294.398
 3938.00    0.45204   0.44454   -1.000
 3939.00    0.50923   0.48593   -1.000
 3940.00    0.53904   0.51518   -1.000
 3941.00    0.54415   0.53229   -1.000
 3942.00    0.53862   0.54219  257.019
 3943.00    0.53392   0.55286   -1.000
 3944.00    0.53737   0.57054   -1.000
 3945.00    0.56874   0.59522   -1.000
 3946.00    0.63506   0.62170   -1.000
 3947.00    0.67804   0.64573   -1.000
 3948.00    0.68402   0.66646   -1.000
 3949.00    0.68816   0.68421  212.277
 3950.00    0.71867   0.69844   -1.000
 3951.00    0.73640   0.70764   -1.000
 3952.00    0.73479   0.71302   -1.000
 3953.00    0.74322   0.71658   -1.000
 3954.00    0.74972   0.71737   -1.000
 3955.00    0.73246   0.71386   -1.000
 3956.00    0.71070   0.70617  216.580
 3957.00    0.70459   0.69440  229.281
 3958.00    0.70030   0.67578   -1.000
 3959.00    0.68824   0.64548   -1.000
 3960.00    0.63876   0.60222   -1.000
 3961.00    0.57907   0.55401   70.587
 3962.00    0.52467   0.50906   37.035
 3963.00    0.47695   0.47000   44.360
 3964.00    0.45234   0.43266   54.601
 3965.00    0.41648   0.39117   64.119
 3966.00    0.36157   0.34758   65.605
 3967.00    0.31156   0.31048   57.498
 3968.00    0.30147   0.29132   47.265
 3969.00    0.30953   0.29703   39.168
 3970.00    0.33283   0.32702   57.731
 3971.00    0.39017   0.37433   -1.000
 3972.00    0.44113   0.43119  258.623
 3973.00    0.48222   0.49057  235.507
 3974.00    0.54712   0.54887  219.197
 3975.00    0.61212   0.60444  206.977
 3976.00    0.65435   0.65637  195.983
 3977.00    0.70259   0.70449  189.125
 3978.00    0.75674   0.74592  188.585
 3979.00    0.79825   0.77741   -1.000
 3980.00    0.82173   0.79572   -1.000
 3981.00    0.82616   0.80234   -1.000
 3982.00    0.80711   0.80341  185.872
 3983.00    0.79354   0.80623  182.510
 3984.00    0.81882   0.81558  179.309
 3985.00    0.84429   0.83145  176.640
 3986.00    0.84536   0.85040  176.042
 3987.00    0.86985   0.86781  175.920
 3988.00    0.89768   0.88018  173.388
 3989.00    0.88848   0.88769  169.216
 3990.00    0.89309   0.89380  167.907
 3991.00    0.91870   0.90085  170.973
 3992.00    0.92236   0.90716  175.067
 3993.00    0.90526   0.90845  178.792
 3994.00    0.88701   0.90221  181.327
 3995.00    0.87506   0.89170   -1.000
 3996.00    0.86476   0.88417   -1.000
 3997.00    0.86215   0.88738   -1.000
 3998.00    0.87998   0.90337   -1.000
 3999.00    0.92261   0.92768  160.255
 4000.00    0.97003   0.95089  160.490
 4001.00    0.99215   0.96374   -1.000
 4002.00    0.99253   0.95952   -1.000
 4003.00    0.98532   0.93815   -1.000
 4004.00    0.93582   0.90860   -1.000
 4005.00    0.86433   0.88723   -1.000
 4006.00    0.84897   0.88679   -1.000
 4007.00    0.88788   0.90688   -1.000
 4008.00    0.94869   0.93688  159.484
 4009.00    0.97525   0.96386  159.765
 4010.00    0.97807   0.98236  160.815
 4011.00    1.00247   0.99384  160.696
 4012.00    0.99829   1.00170  158.932
 4013.00    0.98907   1.00815   -1.000
 4014.00    0.99368   1.01314   -1.000
 4015.00    1.00570   1.01605  160.774
 4016.00    1.00706   1.01759  159.117
 4017.00    0.99612   1.02023   -1.000
 4018.00    1.01008   1.02531  159.333
 4019.00    1.03817   1.03042  161.046
 4020.00    1.03962   1.03212  162.019
 4021.00    1.03219   1.02853  163.185
 4022.00    1.02991   1.02162  161.866
 4023.00    1.02388   1.01572  156.879
 4024.00    1.00508   1.01543  152.417
 4025.00    1.00026   1.02269   -1.000
 4026.00    1.02506   1.03345  155.300
 4027.00    1.05587   1.03709  163.846
 4028.00    1.06021   1.02151   -1.000
 4029.00    1.01890   0.98384   -1.000
 4030.00    0.95930   0.93320   -1.000
 4031.00    0.90179   0.88803  173.664
 4032.00    0.85961   0.86323  166.446
 4033.00    0.84782   0.86657   -1.000
 4034.00    0.85856   0.89704   -1.000
 4035.00    0.91215   0.94679   -1.000
 4036.00    0.99434   1.00050  149.815
 4037.00    1.05437   1.04314  153.276
 4038.00    1.09090   1.06459   -1.000
 4039.00    1.09665   1.06529   -1.000
 4040.00    1.06040   1.05088  161.232
 4041.00    1.02806   1.02404  172.983
 4042.00    1.02704   0.98192   -1.000
 4043.00    0.97575   0.92501   -1.000
 4044.00    0.86512   0.86831  177.921
 4045.00    0.76966   0.83623   -1.000
 4046.00    0.76569   0.84611   -1.000
 4047.00    0.86023   0.89440   -1.000
 4048.00    0.97114   0.95691  153.130
 4049.00    1.02692   1.01042  155.801
 4050.00    1.05021   1.04109  160.041
 4051.00    1.06485   1.04795  163.367
 4052.00    1.04185   1.03719  165.263
 4053.00    0.99891   1.01685   -1.000
 4054.00    0.97413   0.99356   -1.000
 4055.00    0.95860   0.97195  167.780
 4056.00    0.93815   0.95632  163.612
 4057.00    0.92072   0.95032   -1.000
 4058.00    0.92656   0.95424   -1.000
 4059.00    0.96278   0.96036  166.024
 4060.00    1.00000   0.95481   -1.000
 4061.00    0.98145   0.93095   -1.000
 4062.00    0.90264   0.89538  176.463
 4063.00    0.83137   0.86698   -1.000
 4064.00    0.82486   0.86019   -1.000
 4065.00    0.87477   0.87607  160.636
 4066.00    0.93431   0.90552   -1.000
 4067.00    0.96514   0.93496   -1.000
 4068.00    0.99297   0.95242   -1.000
 4069.00    1.01876   0.95238   -1.000
 4070.00    0.99477   0.93929   -1.000
 4071.00    0.92989   0.92529  161.814
 4072.00    0.90794   0.92185  165.426
 4073.00    0.95435   0.92588   -1.000
 4074.00    0.98272   0.92514   -1.000
 4075.00    0.96349   0.91259   -1.000
 4076.00    0.90621   0.89577  176.434
 4077.00    0.84762   0.89356   -1.000
 4078.00    0.85489   0.91594   -1.000
 4079.00    0.92561   0.95845   -1.000
 4080.00    1.01051   1.00259  159.443
 4081.00    1.05890   1.03154   -1.000
 4082.00    1.05277   1.03950  163.289
 4083.00    1.01656   1.03487   -1.000
 4084.00    0.98638   1.03328   -1.000
 4085.00    0.99261   1.04500   -1.000
 4086.00    1.02976   1.07054   -1.000
 4087.00    1.08524   1.09921  147.943
 4088.00    1.13014   1.11957  150.907
 4089.00    1.13406   1.12437  153.145
 4090.00    1.12231   1.11534  154.018
 4091.00    1.09091   1.09861  155.541
 4092.00    1.06554   1.07928  160.699
 4093.00    1.07193   1.05705  167.160
 4094.00    1.06498   1.02983   -1.000
 4095.00    1.00430   0.99870  172.390
 4096.00    0.95765   0.96698  178.749
 4097.00    0.93902   0.93679  192.269
 4098.00    0.93178   0.90584   -1.000
 4099.00    0.91926   0.87307   -1.000
 4100.00    0.86589   0.84408   -1.000
 4101.00    0.80934   0.83161   -1.000
 4102.00    0.79338   0.84423   -1.000
 4103.00    0.83354   0.88137   -1.000
 4104.00    0.90504   0.93019   -1.000
 4105.00    0.96198   0.97646   -1.000
 4106.00    0.99605   1.00936  165.114
 4107.00    1.02019   1.02526  167.970
 4108.00    1.02364   1.02697  167.969
 4109.00    0.98888   1.02141   -1.000
 4110.00    0.96099   1.01677   -1.000
 4111.00    0.97545   1.01967   -1.000
 4112.00    0.98871   1.03161   -1.000
 4113.00    0.99408   1.04928   -1.000
 4114.00    1.02101   1.06544   -1.000
 4115.00    1.05194   1.07298   -1.000
 4116.00    1.06322   1.06822  167.114
 4117.00    1.04982   1.05382  166.792
 4118.00    1.00079   1.03762   -1.000
 4119.00    0.96813   1.02703   -1.000
 4120.00    0.99062   1.02533   -1.000
 4121.00    1.00189   1.03046   -1.000
 4122.00    0.99443   1.03893   -1.000
 4123.00    1.00056   1.04792   -1.000
 4124.00    1.01462   1.05488   -1.000
 4125.00    1.03365   1.05682   -1.000
 4126.00    1.04806   1.05206  166.552
 4127.00    1.02035   1.04099   -1.000
 4128.00    0.98001   1.02489   -1.000
 4129.00    0.97586   1.00427   -1.000
 4130.00    0.95891   0.97958   -1.000
 4131.00    0.91602   0.95679   -1.000
 4132.00    0.88436   0.94496   -1.000
 4133.00    0.88113   0.95246   -1.000
 4134.00    0.90205   0.97952   -1.000
 4135.00    0.95937   1.01733   -1.000
 4136.00    1.02533   1.05428   -1.000
 4137.00    1.04889   1.08163   -1.000
 4138.00    1.04979   1.09345   -1.000
 4139.00    1.04248   1.08614   -1.000
 4140.00    1.03598   1.05746   -1.000
 4141.00    1.00606   1.01305  185.984
 4142.00    0.92571   0.96760   -1.000
 4143.00    0.84454   0.94054   -1.000
 4144.00    0.83799   0.94191   -1.000
 4145.00    0.89307   0.96516   -1.000
 4146.00    0.96492   0.99428   -1.000
 4147.00    1.00073   1.01351  172.749
 4148.00    0.98369   1.01867   -1.000
 4149.00    0.95664   1.01417   -1.000
 4150.00    0.93437   1.00653   -1.000
 4151.00    0.92026   0.99918   -1.000
 4152.00    0.92720   0.99234   -1.000
 4153.00    0.93928   0.98639   -1.000
 4154.00    1.07259   0.98383   -1.000
 4155.00    1.14997   0.98814   -1.000
 4156.00    0.88349   1.00213   -1.000
 4157.00    0.73855   1.02489   -1.000
 4158.00    0.90126   1.05238   -1.000
 4159.00    1.01710   1.07998   -1.000
 4160.00    1.03197   1.10307   -1.000
 4161.00    1.04057   1.11984   -1.000
 4162.00    1.05343   1.12802   -1.000
 4163.00    1.05400   1.12598   -1.000
 4164.00    1.03449   1.11324   -1.000
 4165.00    1.01328   1.09424   -1.000
 4166.00    0.98264   1.07553   -1.000
 4167.00    0.96066   1.06343   -1.000
 4168.00    0.97184   1.05664   -1.000
 4169.00    0.98514   1.04774   -1.000
 4170.00    0.99507   1.03062   -1.000
 4171.00    0.95486   1.00561   -1.000
 4172.00    0.89468   0.98271   -1.000
 4173.00    0.88084   0.97117   -1.000
 4174.00    0.89169   0.97354   -1.000
 4175.00    0.91229   0.98521   -1.000
 4176.00    0.92106   0.99967   -1.000
 4177.00    0.91789   1.01303   -1.000
 4178.00    0.93986   1.02416   -1.000
 4179.00    0.96883   1.03134   -1.000
 4180.00    0.96130   1.03530   -1.000
 4181.00    0.94626   1.03979   -1.000
 4182.00    0.95944   1.04828   -1.000
 4183.00    0.99250   1.06061   -1.000
 4184.00    1.02707   1.06885   -1.000
 4185.00    1.03743   1.06723   -1.000
 4186.00    1.01650   1.05775   -1.000
 4187.00    0.97702   1.04917   -1.000
 4188.00    0.96193   1.05010   -1.000
 4189.00    0.97875   1.06073   -1.000
 4190.00    0.99238   1.07627   -1.000
 4191.00    0.99808   1.09013   -1.000
 4192.00    1.03059   1.09690   -1.000
 4193.00    1.07366   1.09076   -1.000
 4194.00    1.05931   1.06978  181.177
 4195.00    0.99283   1.03643   -1.000
 4196.00    0.92449   1.00152   -1.000
 4197.00    0.90018   0.97402   -1.000
 4198.00    0.89933   0.95958   -1.000
 4199.00    0.93722   0.95689   -1.000
 4200.00    0.96648   0.96344  174.496
 4201.00    0.95043   0.97730   -1.000
 4202.00    0.94230   0.99903   -1.000
 4203.00    0.97567   1.02875   -1.000
 4204.00    1.00697   1.06349   -1.000
 4205.00    1.03138   1.09781   -1.000
 4206.00    1.06326   1.12524   -1.000
 4207.00    1.08956   1.14272   -1.000
 4208.00    1.10591   1.15012   -1.000
 4209.00    1.08478   1.15076   -1.000
 4210.00    1.05653   1.14806   -1.000
 4211.00    1.06199   1.14122   -1.000
 4212.00    1.06533   1.12671   -1.000
 4213.00    1.04017   1.10463   -1.000
 4214.00    1.00592   1.08369   -1.000
 4215.00    0.97381   1.08025   -1.000
 4216.00    0.99504   1.10132   -1.000
 4217.00    1.06641   1.14301   -1.000
 4218.00    1.13210   1.18604   -1.000
 4219.00    1.19229   1.21393   -1.000
 4220.00    1.22193   1.21384  162.569
 4221.00    1.20589   1.18229   -1.000
 4222.00    1.14545   1.11887   -1.000
 4223.00    1.05232   1.03347   -1.000
 4224.00    0.94910   0.94130  216.704
 4225.00    0.83237   0.87101   -1.000
 4226.00    0.73165   0.84534   -1.000
 4227.00    0.73694   0.87704   -1.000
 4228.00    0.85393   0.95018   -1.000
 4229.00    1.00974   1.03690   -1.000
 4230.00    1.11092   1.10371  160.324
 4231.00    1.13491   1.13682  162.923
 4232.00    1.12692   1.13778  165.868
 4233.00    1.11250   1.12070  169.275
 4234.00    1.08717   1.09950  169.614
 4235.00    1.05359   1.08557   -1.000
 4236.00    1.03562   1.08352   -1.000
 4237.00    1.03065   1.09414   -1.000
 4238.00    1.06804   1.11502   -1.000
 4239.00    1.10543   1.14303   -1.000
 4240.00    1.10779   1.17401   -1.000
 4241.00    1.14797   1.20613   -1.000
 4242.00    1.17926   1.23616   -1.000
 4243.00    1.20012   1.25979   -1.000
 4244.00    1.22681   1.26950   -1.000
 4245.00    1.23672   1.25896   -1.000
 4246.00    1.21834   1.22638  170.870
 4247.00    1.16350   1.18116   -1.000
 4248.00    1.09787   1.13590   -1.000
 4249.00    1.04732   1.10474   -1.000
 4250.00    1.03193   1.09113   -1.000
 4251.00    1.04749   1.09085   -1.000
 4252.00    1.06819   1.09458   -1.000
 4253.00    1.06158   1.09844   -1.000
 4254.00    1.05514   1.10602   -1.000
 4255.00    1.07342   1.11949   -1.000
 4256.00    1.12841   1.13263  168.884
 4257.00    1.15752   1.13338   -1.000
 4258.00    1.12514   1.11747  172.425
 4259.00    1.05377   1.09922   -1.000
 4260.00    0.99676   1.09860   -1.000
 4261.00    1.02283   1.12938   -1.000
 4262.00    1.11688   1.18313   -1.000
 4263.00    1.19262   1.24087   -1.000
 4264.00    1.24694   1.28081   -1.000
 4265.00    1.29277   1.29274  158.485
 4266.00    1.28371   1.27451  164.129
 4267.00    1.22312   1.23095  173.390
 4268.00    1.15456   1.16709  184.519
 4269.00    1.09008   1.09521  189.796
 4270.00    0.99945   1.02711   -1.000
 4271.00    0.90728   0.97929   -1.000
 4272.00    0.88025   0.96054   -1.000
 4273.00    0.90994   0.97445   -1.000
 4274.00    0.94846   1.01517   -1.000
 4275.00    0.99048   1.07413   -1.000
 4276.00    1.06334   1.13522   -1.000
 4277.00    1.15508   1.18412   -1.000
 4278.00    1.20600   1.20829  167.218
 4279.00    1.20107   1.20983  165.695
 4280.00    1.14940   1.19930   -1.000
 4281.00    1.11282   1.18909   -1.000
 4282.00    1.12677   1.18333   -1.000
 4283.00    1.14473   1.17798   -1.000
 4284.00    1.15147   1.16853   -1.000
 4285.00    1.13367   1.15174   -1.000
 4286.00    1.09312   1.12753   -1.000
 4287.00    1.06153   1.09592   -1.000
 4288.00    1.02760   1.06243   -1.000
 4289.00    0.97820   1.03729   -1.000
 4290.00    0.95849   1.03228   -1.000
 4291.00    0.99250   1.04838   -1.000
 4292.00    1.05454   1.07552   -1.000
 4293.00    1.09799   1.09655  175.999
 4294.00    1.09476   1.10107  183.280
 4295.00    1.07810   1.08459  197.063
 4296.00    1.06360   1.04977   -1.000
 4297.00    1.02105   1.00046   -1.000
 4298.00    0.95136   0.94808  216.072
 4299.00    0.87495   0.90448   -1.000
 4300.00    0.83184   0.88051   -1.000
 4301.00    0.84546   0.87581   -1.000
 4302.00    0.86404   0.88254   -1.000
 4303.00    0.87353   0.88858  210.631
 4304.00    0.88388   0.88497  220.838
 4305.00    0.88528   0.86865   -1.000
 4306.00    0.86709   0.84420   -1.000
 4307.00    0.82525   0.82412  217.120
 4308.00    0.77198   0.82182   -1.000
 4309.00    0.76672   0.84615   -1.000
 4310.00    0.83560   0.89561   -1.000
 4311.00    0.91372   0.96408   -1.000
 4312.00    0.98651   1.04512   -1.000
 4313.00    1.05465   1.13415   -1.000
 4314.00    1.12325   1.22943   -1.000
 4315.00    1.22804   1.32062   -1.000
 4316.00    1.35146   1.39680   -1.000
 4317.00    1.41656   1.44322   -1.000
 4318.00    1.43052   1.45568   -1.000
 4319.00    1.42909   1.43580  154.780
 4320.00    1.38298   1.39064  165.070
 4321.00    1.32864   1.32296  179.208
 4322.00    1.27221   1.24041   -1.000
 4323.00    1.16292   1.15665  182.936
 4324.00    1.04141   1.09778   -1.000
 4325.00    0.95756   1.08620   -1.000
 4326.00    0.98376   1.13054   -1.000
 4327.00    1.13344   1.21149   -1.000
 4328.00    1.27402   1.30025   -1.000
 4329.00    1.36432   1.36852  143.740
 4330.00    1.38298   1.41035   -1.000
 4331.00    1.37306   1.43272   -1.000
 4332.00    1.36955   1.44563   -1.000
 4333.00    1.38922   1.44919   -1.000
 4334.00    1.41160   1.43381   -1.000
 4335.00    1.41400   1.39004   -1.000
 4336.00    1.34950   1.31569   -1.000
 4337.00    1.23634   1.22628  202.440
 4338.00    1.12269   1.14471   -1.000
 4339.00    1.04220   1.09810   -1.000
 4340.00    1.00845   1.09717   -1.000
 4341.00    1.05221   1.13848   -1.000
 4342.00    1.15243   1.20316   -1.000
 4343.00    1.24977   1.27269   -1.000
 4344.00    1.29645   1.33250   -1.000
 4345.00    1.33015   1.38008   -1.000
 4346.00    1.35946   1.41516   -1.000
 4347.00    1.37620   1.43644   -1.000
 4348.00    1.42955   1.43699  160.329
 4349.00    1.42902   1.41221  165.544
 4350.00    1.34273   1.36709   -1.000
 4351.00    1.22800   1.32203   -1.000
 4352.00    1.16033   1.29781   -1.000
 4353.00    1.19934   1.30570   -1.000
 4354.00    1.29068   1.33666   -1.000
 4355.00    1.34989   1.37415   -1.000
 4356.00    1.37236   1.40210   -1.000
 4357.00    1.38615   1.41658   -1.000
 4358.00    1.37840   1.42304   -1.000
 4359.00    1.36236   1.43173   -1.000
 4360.00    1.37822   1.44976   -1.000
 4361.00    1.42594   1.47565   -1.000
 4362.00    1.44592   1.50313   -1.000
 4363.00    1.47633   1.52348   -1.000
 4364.00    1.49670   1.53039   -1.000
 4365.00    1.50234   1.51987  148.858
 4366.00    1.46907   1.49450   -1.000
 4367.00    1.38454   1.46250   -1.000
 4368.00    1.34123   1.43480   -1.000
 4369.00    1.34828   1.41476   -1.000
 4370.00    1.35401   1.39811   -1.000
 4371.00    1.36974   1.37680  158.819
 4372.00    1.35747   1.34732  160.616
 4373.00    1.30718   1.31626  155.626
 4374.00    1.25226   1.29598   -1.000
 4375.00    1.22672   1.29840   -1.000
 4376.00    1.27983   1.32169   -1.000
 4377.00    1.36584   1.35141  146.298
 4378.00    1.41067   1.36421   -1.000
 4379.00    1.40626   1.34332   -1.000
 4380.00    1.38045   1.28339   -1.000
 4381.00    1.29957   1.19693   -1.000
 4382.00    1.15161   1.10988   -1.000
 4383.00    0.98935   1.05480   -1.000
 4384.00    0.92656   1.05106   -1.000
 4385.00    1.02799   1.09456   -1.000
 4386.00    1.16978   1.16009  154.518
 4387.00    1.26029   1.21844   -1.000
 4388.00    1.28411   1.25583   -1.000
 4389.00    1.26732   1.27539  149.812
 4390.00    1.26499   1.28824   -1.000
 4391.00    1.26694   1.30189   -1.000
 4392.00    1.30890   1.31793  153.002
 4393.00    1.33883   1.33623  147.493
 4394.00    1.32347   1.35871   -1.000
 4395.00    1.33824   1.38601   -1.000
 4396.00    1.40441   1.41351  147.502
 4397.00    1.46995   1.42989   -1.000
 4398.00    1.48250   1.42804   -1.000
 4399.00    1.41402   1.40829  149.398
 4400.00    1.35659   1.37838   -1.000
 4401.00    1.34994   1.34126  160.814
 4402.00    1.33953   1.29788   -1.000
 4403.00    1.26628   1.25099  160.252
 4404.00    1.15976   1.21335   -1.000
 4405.00    1.11473   1.19932   -1.000
 4406.00    1.16253   1.21652   -1.000
 4407.00    1.21562   1.25969   -1.000
 4408.00    1.24916   1.32019   -1.000
 4409.00    1.31785   1.38568   -1.000
 4410.00    1.40945   1.44279   -1.000
 4411.00    1.47977   1.47501  146.179
 4412.00    1.50070   1.47261   -1.000
 4413.00    1.46033   1.44116  152.970
 4414.00    1.36594   1.40294   -1.000
 4415.00    1.28222   1.38237   -1.000
 4416.00    1.27700   1.39507   -1.000
 4417.00    1.34366   1.43428   -1.000
 4418.00    1.41690   1.48048   -1.000
 4419.00    1.47075   1.51025   -1.000
 4420.00    1.47130   1.51439   -1.000
 4421.00    1.40914   1.49752   -1.000
 4422.00    1.36039   1.47520   -1.000
 4423.00    1.34098   1.46030   -1.000
 4424.00    1.34982   1.45770   -1.000
 4425.00    1.37500   1.46376   -1.000
 4426.00    1.39097   1.47245   -1.000
 4427.00    1.38837   1.47913   -1.000
 4428.00    1.39614   1.48108   -1.000
 4429.00    1.39320   1.47770   -1.000
 4430.00    1.37983   1.46990   -1.000
 4431.00    1.38906   1.45753   -1.000
 4432.00    1.40672   1.44010   -1.000
 4433.00    1.37786   1.41969   -1.000
 4434.00    1.31814   1.40647   -1.000
 4435.00    1.28628   1.41506   -1.000
 4436.00    1.33642   1.44925   -1.000
 4437.00    1.41990   1.49861   -1.000
 4438.00    1.52317   1.53758  142.859
 4439.00    1.58192   1.54948   -1.000
 4440.00    1.54340   1.53170  150.961
 4441.00    1.45395   1.50295   -1.000
 4442.00    1.38614   1.48586   -1.000
 4443.00    1.39180   1.49545   -1.000
 4444.00    1.45432   1.52919   -1.000
 4445.00    1.52115   1.57103   -1.000
 4446.00    1.57393   1.60552   -1.000
 4447.00    1.58845   1.62456   -1.000
 4448.00    1.58976   1.62951   -1.000
 4449.00    1.58036   1.62358   -1.000
 4450.00    1.56343   1.60737   -1.000
 4451.00    1.56726   1.57960  150.029
 4452.00    1.55906   1.53892  154.016
 4453.00    1.49837   1.49066  152.581
 4454.00    1.41480   1.44360   -1.000
 4455.00    1.35820   1.40993   -1.000
 4456.00    1.36426   1.39211   -1.000
 4457.00    1.36824   1.38630   -1.000
 4458.00    1.38860   1.38445  152.807
 4459.00    1.36182   1.38420   -1.000
 4460.00    1.34231   1.38998   -1.000
 4461.00    1.33872   1.40783   -1.000
 4462.00    1.38051   1.43923   -1.000
 4463.00    1.42983   1.47730   -1.000
 4464.00    1.49617   1.51100  141.874
 4465.00    1.51961   1.53192  144.419
 4466.00    1.52871   1.53908  145.714
 4467.00    1.51971   1.53830  144.242
 4468.00    1.47970   1.53852   -1.000
 4469.00    1.46005   1.54804   -1.000
 4470.00    1.49203   1.57097   -1.000
 4471.00    1.53668   1.60604   -1.000
 4472.00    1.60092   1.64520   -1.000
 4473.00    1.63860   1.68188   -1.000
 4474.00    1.65868   1.71092   -1.000
 4475.00    1.68624   1.73134   -1.000
 4476.00    1.72329   1.73978  133.021
 4477.00    1.74616   1.73007  138.923
 4478.00    1.72734   1.69898   -1.000
 4479.00    1.66687   1.65397  142.855
 4480.00    1.58171   1.61339   -1.000
 4481.00    1.51585   1.59817   -1.000
 4482.00    1.52389   1.61621   -1.000
 4483.00    1.59144   1.66034   -1.000
 4484.00    1.67388   1.70802   -1.000
 4485.00    1.73735   1.73919  135.706
 4486.00    1.75910   1.74005  139.295
 4487.00    1.72838   1.71557  138.664
 4488.00    1.64427   1.67986   -1.000
 4489.00    1.56375   1.65299   -1.000
 4490.00    1.53823   1.64221   -1.000
 4491.00    1.57151   1.64252   -1.000
 4492.00    1.62850   1.64098  141.077
 4493.00    1.62136   1.63044  140.392
 4494.00    1.53662   1.61810   -1.000
 4495.00    1.49093   1.61580   -1.000
 4496.00    1.51301   1.63224   -1.000
 4497.00    1.56228   1.66264   -1.000
 4498.00    1.63790   1.69548   -1.000
 4499.00    1.69132   1.72164   -1.000
 4500.00    1.68344   1.74064   -1.000
 4501.00    1.65804   1.75966   -1.000
 4502.00    1.70445   1.78470   -1.000
 4503.00    1.80295   1.81463  125.154
 4504.00    1.86044   1.84194  126.658
 4505.00    1.87109   1.85776  126.949
 4506.00    1.83915   1.85995  126.153
 4507.00    1.80662   1.85361   -1.000
 4508.00    1.78873   1.84574   -1.000
 4509.00    1.80185   1.83906   -1.000
 4510.00    1.83681   1.83071  130.590
 4511.00    1.81761   1.81619  131.676
 4512.00    1.75861   1.79481   -1.000
 4513.00    1.70907   1.77105   -1.000
 4514.00    1.69315   1.75122   -1.000
 4515.00    1.69683   1.73935   -1.000
 4516.00    1.70733   1.73596   -1.000
 4517.00    1.71353   1.73989   -1.000
 4518.00    1.70683   1.75017   -1.000
 4519.00    1.72402   1.76476   -1.000
 4520.00    1.77179   1.77787  134.272
 4521.00    1.80034   1.78160  135.692
 4522.00    1.77032   1.76957  137.758
 4523.00    1.71613   1.74069   -1.000
 4524.00    1.69015   1.69815  145.774
 4525.00    1.64176   1.64708  147.931
 4526.00    1.56062   1.59380   -1.000
 4527.00    1.50506   1.54707   -1.000
 4528.00    1.45964   1.51613   -1.000
 4529.00    1.45761   1.50625   -1.000
 4530.00    1.48280   1.51534   -1.000
 4531.00    1.52941   1.53413  149.295
 4532.00    1.55737   1.55274  148.531
 4533.00    1.56142   1.56712  141.011
 4534.00    1.50761   1.58216   -1.000
 4535.00    1.49749   1.60697   -1.000
 4536.00    1.57972   1.64524   -1.000
 4537.00    1.69433   1.68985  131.746
 4538.00    1.76783   1.72662   -1.000
 4539.00    1.74883   1.74556  131.310
 4540.00    1.70274   1.74783   -1.000
 4541.00    1.70547   1.74241   -1.000
 4542.00    1.68345   1.73751   -1.000
 4543.00    0.59687   1.73413   -1.000
 4544.00    0.01081   1.72957   -1.000
 4545.00    0.02986   1.72118   -1.000
 4546.00    1.07568   1.71006   -1.000
 4547.00    0.62119   1.69858   -1.000
 4548.00    1.06977   1.68928   -1.000
 4549.00    1.61090   1.68441   -1.000
 4550.00    1.64895   1.68429   -1.000
 4551.00    1.66004   1.68678   -1.000
 4552.00    1.68711   1.68818  138.650
 4553.00    1.67573   1.68874  133.989
 4554.00    1.66563   1.69438   -1.000
 4555.00    1.66391   1.71272   -1.000
 4556.00    1.70721   1.74633   -1.000
 4557.00    1.80745   1.78894  126.258
 4558.00    1.86303   1.82914   -1.000
 4559.00    1.86836   1.85655  128.776
 4560.00    1.86948   1.86667  131.999
 4561.00    1.86229   1.85922  134.425
 4562.00    1.85396   1.83843  133.506
 4563.00    1.80093   1.81099  130.355
 4564.00    1.73670   1.78830   -1.000
 4565.00    1.71247   1.78031   -1.000
 4566.00    1.75264   1.79096   -1.000
 4567.00    1.83598   1.81281  129.289
 4568.00    1.88392   1.83282   -1.000
 4569.00    1.88228   1.83995   -1.000
 4570.00    1.81695   1.83477  128.776
 4571.00    1.74568   1.82615   -1.000
 4572.00    1.76753   1.82499   -1.000
 4573.00    1.82922   1.83460  126.956
 4574.00    1.86251   1.84883  127.677
 4575.00    1.86952   1.85774  129.659
 4576.00    1.84821   1.85352  133.331
 4577.00    1.82355   1.83433  136.292
 4578.00    1.81496   1.80344  136.359
 4579.00    1.75880   1.76920  134.616
 4580.00    1.68172   1.74120   -1.000
 4581.00    1.68454   1.72662   -1.000
 4582.00    1.72650   1.72507  134.485
 4583.00    1.76375   1.73112   -1.000
 4584.00    1.74971   1.73946  129.702
 4585.00    1.71608   1.75030   -1.000
 4586.00    1.73944   1.76754   -1.000
 4587.00    1.78444   1.79220  127.900
 4588.00    1.84292   1.81813   -1.000
 4589.00    1.88689   1.83542   -1.000
 4590.00    1.85325   1.83668  132.984
 4591.00    1.80905   1.82242  131.997
 4592.00    1.75932   1.79969   -1.000
 4593.00    1.72671   1.77740   -1.000
 4594.00    1.71487   1.76128   -1.000
 4595.00    1.73340   1.75367  129.927
 4596.00    1.73537   1.75352  130.883
 4597.00    1.73411   1.75888   -1.000
 4598.00    1.76784   1.76645  132.552
 4599.00    1.78160   1.77339  131.365
 4600.00    1.77365   1.77804  129.881
 4601.00    1.75865   1.78064  129.880
 4602.00    1.76165   1.78262  129.734
 4603.00    1.77646   1.78597  128.467
 4604.00    1.79510   1.79379  126.052
 4605.00    1.77898   1.81017   -1.000
 4606.00    1.78935   1.83782   -1.000
 4607.00    1.87974   1.87444  122.063
 4608.00    1.97306   1.91133   -1.000
 4609.00    2.00592   1.93768   -1.000
 4610.00    1.98130   1.94638   -1.000
 4611.00    1.94739   1.94029  125.481
 4612.00    1.91533   1.92812  124.407
 4613.00    1.90042   1.92005  123.830
 4614.00    1.91796   1.92082  124.507
 4615.00    1.94904   1.92923  125.436
 4616.00    1.96973   1.94030   -1.000
 4617.00    1.96487   1.94966  124.358
 4618.00    1.94534   1.95559  122.455
 4619.00    1.94051   1.95903  122.189
 4620.00    1.95211   1.96167  122.474
 4621.00    1.95937   1.96383  122.726
 4622.00    1.97475   1.96405  123.756
 4623.00    1.96647   1.96108  124.163
 4624.00    1.95544   1.95521  124.132
 4625.00    1.94885   1.94853  124.837
 4626.00    1.94205   1.94331  125.173
 4627.00    1.93956   1.94140  124.638
 4628.00    1.93330   1.94310  123.274
 4629.00    1.92470   1.94707  123.601
 4630.00    1.94113   1.95059  125.295
 4631.00    1.97129   1.94994  126.740
 4632.00    1.97239   1.94227   -1.000
 4633.00    1.92583   1.92754  127.680
 4634.00    1.88083   1.90841   -1.000
 4635.00    1.87794   1.88768  129.982
 4636.00    1.87390   1.86668  129.864
 4637.00    1.83302   1.84689  127.857
 4638.00    1.79832   1.83119   -1.000
 4639.00    1.79387   1.82357   -1.000
 4640.00    1.80163   1.82547   -1.000
 4641.00    1.85363   1.83312  125.363
 4642.00    1.89877   1.83773   -1.000
 4643.00    1.88464   1.83057   -1.000
 4644.00    1.85968   1.80814   -1.000
 4645.00    1.78886   1.77624  131.167
 4646.00    1.71303   1.74652   -1.000
 4647.00    1.68094   1.73245   -1.000
 4648.00    1.71819   1.74130   -1.000
 4649.00    1.78421   1.77057  125.654
 4650.00    1.82464   1.80962  126.984
 4651.00    1.88110   1.84489   -1.000
 4652.00    1.92328   1.86645   -1.000
 4653.00    1.91961   1.87230   -1.000
 4654.00    1.87154   1.86881  126.667
 4655.00    1.80615   1.86813   -1.000
 4656.00    1.82284   1.88127   -1.000
 4657.00    1.88432   1.91108   -1.000
 4658.00    1.97455   1.95059  119.944
 4659.00    2.05438   1.98460   -1.000
 4660.00    2.05865   1.99938   -1.000
 4661.00    2.00217   1.98842  125.751
 4662.00    1.95977   1.95476  127.650
 4663.00    1.89338   1.90609  132.876
 4664.00    1.84823   1.85063  138.470
 4665.00    1.81061   1.79454  139.094
 4666.00    1.73745   1.74610  135.142
 4667.00    1.65798   1.71586   -1.000
 4668.00    1.61597   1.71320   -1.000
 4669.00    1.69311   1.73891   -1.000
 4670.00    1.81285   1.78263   -1.000
 4671.00    1.89345   1.82821   -1.000
 4672.00    1.93075   1.86399   -1.000
 4673.00    1.89655   1.88659  121.503
 4674.00    1.89576   1.90051  121.921
 4675.00    1.91597   1.90849  124.437
 4676.00    1.93460   1.91024   -1.000
 4677.00    1.94657   1.90193   -1.000
 4678.00    1.90871   1.88318   -1.000
 4679.00    1.85226   1.85919  128.966
 4680.00    1.81718   1.83848  125.799
 4681.00    1.80652   1.82917  124.028
 4682.00    1.82219   1.83354  124.311
 4683.00    1.86015   1.84801  124.399
 4684.00    1.90574   1.86471   -1.000
 4685.00    1.92620   1.87656   -1.000
 4686.00    1.91516   1.88063   -1.000
 4687.00    1.89911   1.87807  125.975
 4688.00    1.89657   1.87289  126.288
 4689.00    1.90747   1.86816   -1.000
 4690.00    1.91079   1.86625   -1.000
 4691.00    1.89220   1.86826  120.358
 4692.00    1.89620   1.87540  118.741
 4693.00    1.91700   1.88728   -1.000
 4694.00    1.96267   1.90068   -1.000
 4695.00    2.02206   1.90942   -1.000
 4696.00    2.02327   1.90693   -1.000
 4697.00    1.95915   1.89038   -1.000
 4698.00    1.89311   1.86312   -1.000
 4699.00    1.85532   1.83302   -1.000
 4700.00    1.84557   1.80810   -1.000
 4701.00    1.86083   1.79279   -1.000
 4702.00    1.83870   1.78882   -1.000
 4703.00    1.83982   1.79411   -1.000
 4704.00    1.86873   1.80480   -1.000
 4705.00    1.90099   1.81447   -1.000
 4706.00    1.92003   1.81901   -1.000
 4707.00    1.88460   1.81920   -1.000
 4708.00    1.82671   1.82055  124.103
 4709.00    1.81423   1.82834  122.754
 4710.00    1.87319   1.84287   -1.000
 4711.00    1.91580   1.85908   -1.000
 4712.00    1.94387   1.87138   -1.000
 4713.00    1.93103   1.87913   -1.000
 4714.00    1.88080   1.88788  121.459
 4715.00    1.88341   1.90514  120.627
 4716.00    1.94176   1.93376  120.191
 4717.00    2.01169   1.96986   -1.000
 4718.00    2.05545   2.00542   -1.000
 4719.00    2.06099   2.03303   -1.000
 4720.00    2.07837   2.04938   -1.000
 4721.00    2.06912   2.05532  119.675
 4722.00    2.01981   2.05441   -1.000
 4723.00    2.02510   2.04905   -1.000
 4724.00    2.03730   2.03726  127.205
 4725.00    2.07526   2.01340   -1.000
 4726.00    2.02051   1.97506   -1.000
 4727.00    1.91226   1.92678  128.517
 4728.00    1.82372   1.88164   -1.000
 4729.00    1.80878   1.85330   -1.000
 4730.00    1.83782   1.84821  124.858
 4731.00    1.86511   1.86364  124.135
 4732.00    1.92871   1.88918   -1.000
 4733.00    1.95477   1.91490   -1.000
 4734.00    1.98251   1.93409   -1.000
 4735.00    2.00032   1.94647   -1.000
 4736.00    1.95953   1.95570  123.334
 4737.00    1.95748   1.96533  124.038
 4738.00    2.01105   1.97687   -1.000
 4739.00    2.04377   1.98843   -1.000
 4740.00    2.03534   1.99758   -1.000
 4741.00    2.00982   2.00419  122.114
 4742.00    2.03260   2.01045  122.233
 4743.00    2.06137   2.01830   -1.000
 4744.00    2.07442   2.02922   -1.000
 4745.00    2.06683   2.04334  119.840
 4746.00    2.05628   2.05941  120.014
 4747.00    2.06616   2.07547  120.098
 4748.00    2.08147   2.08835  120.950
 4749.00    2.08618   2.09533  122.317
 4750.00    2.08086   2.09418  123.357
 4751.00    2.06831   2.08401  124.207
 4752.00    2.03436   2.06642   -1.000
 4753.00    1.99722   2.04564   -1.000
 4754.00    1.98663   2.02725   -1.000
 4755.00    2.00524   2.01634  125.557
 4756.00    2.00021   2.01481  124.539
 4757.00    1.96240   2.02112   -1.000
 4758.00    1.97500   2.03085   -1.000
 4759.00    1.98785   2.03706   -1.000
 4760.00    1.97933   2.03343   -1.000
 4761.00    1.97399   2.01661   -1.000
 4762.00    1.91659   1.98865   -1.000
 4763.00    1.89231   1.95594   -1.000
 4764.00    1.87497   1.92702   -1.000
 4765.00    1.83303   1.90912   -1.000
 4766.00    1.82450   1.90776   -1.000
 4767.00    1.85842   1.92533   -1.000
 4768.00    1.90864   1.95799   -1.000
 4769.00    1.96711   1.99521   -1.000
 4770.00    2.01645   2.02678  124.550
 4771.00    2.00963   2.04782   -1.000
 4772.00    1.96852   2.06315   -1.000
 4773.00    2.01927   2.08044   -1.000
 4774.00    2.09189   2.10267  121.464
 4775.00    2.08289   2.12732   -1.000
 4776.00    2.08967   2.14747   -1.000
 4777.00    2.07021   2.15900   -1.000
 4778.00    2.07482   2.16013   -1.000
 4779.00    2.05057   2.15112   -1.000
 4780.00    2.04319   2.13355   -1.000
 4781.00    2.05480   2.11026   -1.000
 4782.00    2.02377   2.08462   -1.000
 4783.00    1.97454   2.06065   -1.000
 4784.00    1.96692   2.04233   -1.000
 4785.00    1.94175   2.03065   -1.000
 4786.00    1.96570   2.02440   -1.000
 4787.00    1.96354   2.02219   -1.000
 4788.00    1.96781   2.02373   -1.000
 4789.00    1.98419   2.03072   -1.000
 4790.00    1.97741   2.04624   -1.000
 4791.00    2.00625   2.07320   -1.000
 4792.00    2.04209   2.11152   -1.000
 4793.00    2.11096   2.15524   -1.000
 4794.00    2.15538   2.19445   -1.000
 4795.00    2.20080   2.21796  124.374
 4796.00    2.20255   2.21951  125.856
 4797.00    2.14139   2.20112   -1.000
 4798.00    2.06874   2.17349   -1.000
 4799.00    2.02359   2.15026   -1.000
 4800.00    2.02862   2.14209   -1.000
 4801.00    2.09412   2.15038   -1.000
 4802.00    2.16035   2.16724  123.834
 4803.00    2.15836   2.17972  124.962
 4804.00    2.13142   2.17829   -1.000
 4805.00    2.07307   2.16292   -1.000
 4806.00    2.02700   2.14115   -1.000
 4807.00    2.01798   2.12332   -1.000
 4808.00    1.99666   2.11626   -1.000
 4809.00    2.01744   2.12119   -1.000
 4810.00    2.05551   2.13415   -1.000
 4811.00    2.10185   2.14962   -1.000
 4812.00    2.10624   2.16319   -1.000
 4813.00    2.08902   2.17479   -1.000
 4814.00    2.05006   2.18667   -1.000
 4815.00    2.10279   2.20130   -1.000
 4816.00    2.16287   2.21940   -1.000
 4817.00    2.20361   2.23874   -1.000
 4818.00    2.23372   2.25489  119.597
 4819.00    2.22663   2.26228   -1.000
 4820.00    2.20429   2.25589   -1.000
 4821.00    2.20394   2.23447   -1.000
 4822.00    2.12014   2.20261   -1.000
 4823.00    2.04677   2.17037   -1.000
 4824.00    2.04030   2.14832   -1.000
 4825.00    2.07757   2.14191   -1.000
 4826.00    2.14438   2.14752  123.477
 4827.00    2.14487   2.15490  123.432
 4828.00    2.09823   2.15668   -1.000
 4829.00    2.10695   2.15064   -1.000
 4830.00    2.09850   2.13984   -1.000
 4831.00    2.05178   2.12926   -1.000
 4832.00    2.03034   2.12463   -1.000
 4833.00    2.04513   2.12964   -1.000
 4834.00    2.12699   2.14319  121.498
 4835.00    2.13685   2.15956   -1.000
 4836.00    2.12354   2.16998   -1.000
 4837.00    2.14356   2.16944   -1.000
 4838.00    2.13072   2.15751   -1.000
 4839.00    2.07878   2.13898   -1.000
 4840.00    2.04424   2.12126   -1.000
 4841.00    2.05371   2.11035   -1.000
 4842.00    2.04687   2.10939   -1.000
 4843.00    2.04521   2.11845   -1.000
 4844.00    2.08153   2.13549   -1.000
 4845.00    2.14339   2.15516  124.148
 4846.00    2.18963   2.17031  124.092
 4847.00    2.15380   2.17608  122.301
 4848.00    2.09662   2.17308   -1.000
 4849.00    2.08435   2.16764   -1.000
 4850.00    2.10443   2.16380   -1.000
 4851.00    2.15042   2.15958  127.626
 4852.00    2.15335   2.14819  131.252
 4853.00    2.11200   2.12413  130.848
 4854.00    2.04611   2.08875   -1.000
 4855.00    1.95902   2.04853   -1.000
 4856.00    1.94259   2.00986   -1.000
 4857.00    1.97612   1.96905  162.282
 4858.00    1.96509   1.91757   -1.000
 4859.00    1.86631   1.85015   -1.000
 4860.00    1.70570   1.77740   -1.000
 4861.00    1.59576   1.72537   -1.000
 4862.00    1.63709   1.71613   -1.000
 4863.00    1.74183   1.75584  128.756
 4864.00    1.86555   1.82759   -1.000
 4865.00    1.92888   1.90711  127.097
 4866.00    1.97179   1.97371  128.257
 4867.00    1.98632   2.01548   -1.000
 4868.00    2.04018   2.02871  135.208
 4869.00    2.00410   2.01572  133.908
 4870.00    1.94738   1.98571   -1.000
 4871.00    1.83869   1.95464   -1.000
 4872.00    1.82553   1.93981   -1.000
 4873.00    1.87264   1.95248   -1.000
 4874.00    1.94408   1.98811   -1.000
 4875.00    1.98676   2.03450   -1.000
 4876.00    1.98935   2.08075   -1.000
 4877.00    2.02524   2.12063   -1.000
 4878.00    2.08791   2.15233   -1.000
 4879.00    2.12585   2.17371   -1.000
 4880.00    2.11596   2.18256   -1.000
 4881.00    2.07551   2.17752   -1.000
 4882.00    2.02278   2.16114   -1.000
 4883.00    2.06167   2.13810   -1.000
 4884.00    2.05951   2.11106   -1.000
 4885.00    2.00433   2.08204   -1.000
 4886.00    1.94497   2.05444   -1.000
 4887.00    1.97664   2.03051   -1.000
 4888.00    1.99671   2.00928  132.429
 4889.00    1.96826   1.99122  126.926
 4890.00    1.91188   1.98152   -1.000
 4891.00    1.88897   1.99277   -1.000
 4892.00    1.95596   2.03603   -1.000
 4893.00    2.12718   2.10958  114.833
 4894.00    2.24095   2.19798   -1.000
 4895.00    2.28916   2.27673  117.727
 4896.00    2.32073   2.32931  120.531
 4897.00    2.35200   2.35053  121.795
 4898.00    2.32114   2.34574  121.120
 4899.00    2.25487   2.32512   -1.000
 4900.00    2.22193   2.29888   -1.000
 4901.00    2.21143   2.27490   -1.000
 4902.00    2.21026   2.25809   -1.000
 4903.00    2.16940   2.25208   -1.000
 4904.00    2.17470   2.25736   -1.000
 4905.00    2.24516   2.26991   -1.000
 4906.00    2.30304   2.27918   -1.000
 4907.00    2.32253   2.27250   -1.000
 4908.00    2.23485   2.24705  125.310
 4909.00    2.15183   2.21091   -1.000
 4910.00    2.10948   2.17996   -1.000
 4911.00    2.11834   2.16870   -1.000
 4912.00    2.19468   2.18150  118.755
 4913.00    2.20152   2.21083  119.431
 4914.00    2.25772   2.24040  123.805
 4915.00    2.30981   2.25174   -1.000
 4916.00    2.30934   2.23007   -1.000
 4917.00    2.24111   2.17006   -1.000
 4918.00    2.10295   2.08327  133.437
 4919.00    1.93493   1.99636   -1.000
 4920.00    1.84630   1.93765   -1.000
 4921.00    1.91624   1.92503  126.749
 4922.00    2.04124   1.95490   -1.000
 4923.00    2.12246   2.01018   -1.000
 4924.00    2.15325   2.07215   -1.000
 4925.00    2.14627   2.13275  118.515
 4926.00    2.20132   2.19170  117.714
 4927.00    2.29310   2.24852   -1.000
 4928.00    2.34397   2.29931   -1.000
 4929.00    2.38093   2.33699   -1.000
 4930.00    2.38243   2.35368   -1.000
 4931.00    2.37678   2.34589   -1.000
 4932.00    2.32718   2.31783  123.844
 4933.00    2.22310   2.27927   -1.000
 4934.00    2.18085   2.24075   -1.000
 4935.00    2.22239   2.20681  131.145
 4936.00    2.24681   2.17491   -1.000
 4937.00    2.16104   2.14391  125.198
 4938.00    2.06717   2.12055   -1.000
 4939.00    2.05485   2.11891   -1.000
 4940.00    2.14900   2.14737  118.066
 4941.00    2.27407   2.20028   -1.000
 4942.00    2.33939   2.26138   -1.000
 4943.00    2.37727   2.31283   -1.000
 4944.00    2.40220   2.34624   -1.000
 4945.00    2.40424   2.36308   -1.000
 4946.00    2.39288   2.37166  116.427
 4947.00    2.38680   2.38034  115.968
 4948.00    2.42369   2.39261   -1.000
 4949.00    2.44679   2.40588   -1.000
 4950.00    2.43733   2.41519  118.839
 4951.00    2.45083   2.41568   -1.000
 4952.00    2.42947   2.40236   -1.000
 4953.00    2.36779   2.37146  130.278
 4954.00    2.32343   2.31974  135.184
 4955.00    2.26153   2.24960  131.989
 4956.00    2.13797   2.17318   -1.000
 4957.00    1.99507   2.11294   -1.000
 4958.00    1.96176   2.09427   -1.000
 4959.00    2.07999   2.12314   -1.000
 4960.00    2.22671   2.18292   -1.000
 4961.00    2.30791   2.24546   -1.000
 4962.00    2.31331   2.28573   -1.000
 4963.00    2.28742   2.29500  126.800
 4964.00    2.25918   2.27725  126.761
 4965.00    2.20936   2.24503   -1.000
 4966.00    2.14522   2.21348   -1.000
 4967.00    2.12443   2.19380   -1.000
 4968.00    2.15505   2.19067   -1.000
 4969.00    2.17251   2.20410   -1.000
 4970.00    2.20826   2.23021  120.118
 4971.00    2.25536   2.26325  119.714
 4972.00    2.29345   2.29670  120.614
 4973.00    2.32896   2.32320  121.921
 4974.00    2.35289   2.33690  123.612
 4975.00    2.36098   2.33498   -1.000
 4976.00    2.30955   2.31738  127.165
 4977.00    2.26348   2.28667  129.103
 4978.00    2.20582   2.24669   -1.000
 4979.00    2.18372   2.20018  137.555
 4980.00    2.16491   2.14843  137.278
 4981.00    2.10090   2.09394  134.541
 4982.00    2.02436   2.04416  130.687
 4983.00    1.96475   2.01238   -1.000
 4984.00    1.98420   2.01043   -1.000
 4985.00    2.04062   2.04035  123.944
 4986.00    2.13761   2.09277   -1.000
 4987.00    2.24784   2.15032   -1.000
 4988.00    2.27969   2.19682   -1.000
 4989.00    2.26783   2.22343   -1.000
 4990.00    2.25744   2.23351   -1.000
 4991.00    2.24214   2.23578  125.251
 4992.00    2.22332   2.23793  124.586
 4993.00    2.22590   2.24336  124.054
 4994.00    2.24306   2.25064  124.908
 4995.00    2.27964   2.25663   -1.000
 4996.00    2.30944   2.25672   -1.000
 4997.00    2.28835   2.24468   -1.000
 4998.00    2.24761   2.21828   -1.000
 4999.00    2.18685   2.18143  129.396
 5000.00    2.13368   2.14225  128.735
 5001.00    2.10707   2.10935  130.767
 5002.00    2.12198   2.08477   -1.000
 5003.00    2.14297   2.06503   -1.000
 5004.00    2.12163   2.04610   -1.000
 5005.00    2.06880   2.03006   -1.000
 5006.00    2.04282   2.02522  125.989
 5007.00    2.05527   2.03910  127.884
 5008.00    2.14476   2.06844   -1.000
 5009.00    2.21212   2.09743   -1.000
 5010.00    2.22270   2.10918   -1.000
 5011.00    2.15435   2.09531   -1.000
 5012.00    2.06976   2.06140  135.481
 5013.00    1.99833   2.02305  132.821
 5014.00    1.98167   1.99681  132.370
 5015.00    2.00040   1.99038  132.296
 5016.00    2.05569   2.00035   -1.000
 5017.00    2.07833   2.01876   -1.000
 5018.00    2.07179   2.03829   -1.000
 5019.00    2.11301   2.05602   -1.000
 5020.00    2.14339   2.07115   -1.000
 5021.00    2.15173   2.08404   -1.000
 5022.00    2.12972   2.09809   -1.000
 5023.00    2.13128   2.11609  128.388
 5024.00    2.16820   2.13683   -1.000
 5025.00    2.20229   2.15567   -1.000
 5026.00    2.20920   2.16825   -1.000
 5027.00    2.20496   2.17669   -1.000
 5028.00    2.17811   2.18912  121.359
 5029.00    2.22400   2.21272  120.116
 5030.00    2.28341   2.24807   -1.000
 5031.00    2.33027   2.28740   -1.000
 5032.00    2.38158   2.31874   -1.000
 5033.00    2.39409   2.33017   -1.000
 5034.00    2.35927   2.31567   -1.000
 5035.00    2.27444   2.27838  133.922
 5036.00    2.20236   2.22792   -1.000
 5037.00    2.17117   2.17269  144.531
 5038.00    2.14897   2.11594   -1.000
 5039.00    2.08125   2.06145   -1.000
 5040.00    1.96840   2.01969   -1.000
 5041.00    1.93521   2.00837   -1.000
 5042.00    2.02160   2.04047  120.506
 5043.00    2.21485   2.11210   -1.000
 5044.00    1.42924   2.20176   -1.000
 5045.00    0.07343   2.27944   -1.000
 5046.00    0.04193   2.32217   -1.000
 5047.00    0.63031   2.32223   -1.000
 5048.00    1.98199   2.28883   -1.000
 5049.00    2.17720   2.24257   -1.000
 5050.00    2.14646   2.20568   -1.000
 5051.00    2.18496   2.19164  121.148
 5052.00    2.24122   2.20337   -1.000
 5053.00    2.29953   2.23611   -1.000
 5054.00    2.35617   2.27941   -1.000
 5055.00    2.40633   2.32226   -1.000
 5056.00    2.45183   2.35875   -1.000
 5057.00    2.42631   2.38798   -1.000
 5058.00    2.46921   2.41193   -1.000
 5059.00    2.48002   2.43209   -1.000
 5060.00    2.48985   2.44554   -1.000
 5061.00    2.50589   2.44575   -1.000
 5062.00    2.49588   2.42584   -1.000
 5063.00    2.40875   2.38466   -1.000
 5064.00    2.29727   2.33100   -1.000
 5065.00    2.23063   2.28023   -1.000
 5066.00    2.23383   2.24547  125.876
 5067.00    2.26594   2.23107   -1.000
 5068.00    2.26769   2.23346   -1.000
 5069.00    2.31117   2.24493   -1.000
 5070.00    2.34761   2.25733   -1.000
 5071.00    2.33495   2.26492   -1.000
 5072.00    2.31025   2.26722   -1.000
 5073.00    2.33029   2.26797   -1.000
 5074.00    2.36250   2.26935   -1.000
 5075.00    2.38406   2.26831   -1.000
 5076.00    2.37479   2.25884   -1.000
 5077.00    2.35249   2.23519   -1.000
 5078.00    2.29429   2.19618   -1.000
 5079.00    2.17260   2.14976   -1.000
 5080.00    2.07920   2.11211   -1.000
 5081.00    2.09522   2.09711  127.381
 5082.00    2.15396   2.10732   -1.000
 5083.00    2.20831   2.13739   -1.000
 5084.00    2.26643   2.17863   -1.000
 5085.00    2.31072   2.22225   -1.000
 5086.00    2.35982   2.26214   -1.000
 5087.00    2.37842   2.29540   -1.000
 5088.00    2.37959   2.32220   -1.000
 5089.00    2.39895   2.34489   -1.000
 5090.00    2.40228   2.36607   -1.000
 5091.00    2.44338   2.38697   -1.000
 5092.00    2.48716   2.40519   -1.000
 5093.00    2.51089   2.41381   -1.000
 5094.00    2.50410   2.40445   -1.000
 5095.00    2.45198   2.37343   -1.000
 5096.00    2.38218   2.32544   -1.000
 5097.00    2.30933   2.27231   -1.000
 5098.00    2.21684   2.22958  124.334
 5099.00    2.17298   2.21088   -1.000
 5100.00    2.23740   2.22028  124.500
 5101.00    2.32936   2.24874   -1.000
 5102.00    2.39404   2.27975   -1.000
 5103.00    2.38549   2.29832   -1.000
 5104.00    2.36361   2.29889   -1.000
 5105.00    2.34175   2.28379   -1.000
 5106.00    2.30099   2.25948   -1.000
 5107.00    2.25711   2.23433   -1.000
 5108.00    2.25749   2.21595   -1.000
 5109.00    2.24496   2.21035   -1.000
 5110.00    2.27251   2.22077   -1.000
 5111.00    2.31854   2.24630   -1.000
 5112.00    2.36234   2.28187   -1.000
 5113.00    2.41411   2.32052   -1.000
 5114.00    2.45124   2.35768   -1.000
 5115.00    2.46565   2.39109   -1.000
 5116.00    2.49965   2.41828   -1.000
 5117.00    2.54414   2.43587   -1.000
 5118.00    2.54933   2.43935   -1.000
 5119.00    2.53352   2.42504   -1.000
 5120.00    2.47268   2.39245   -1.000
 5121.00    2.41791   2.34520   -1.000
 5122.00    2.34732   2.29056   -1.000
 5123.00    2.24529   2.23823  131.581
 5124.00    2.20518   2.19784  130.933
 5125.00    2.21358   2.17498   -1.000
 5126.00    2.24522   2.16866   -1.000
 5127.00    2.26796   2.17384   -1.000
 5128.00    2.27202   2.18651   -1.000
 5129.00    2.27548   2.20511   -1.000
 5130.00    2.29264   2.22932   -1.000
 5131.00    2.35773   2.25785   -1.000
 5132.00    2.41221   2.28710   -1.000
 5133.00    2.45435   2.31248   -1.000
 5134.00    2.47451   2.32915   -1.000
 5135.00    2.49608   2.33277   -1.000
 5136.00    2.46897   2.32040   -1.000
 5137.00    2.39682   2.29366   -1.000
 5138.00    2.31132   2.26187   -1.000
 5139.00    2.27139   2.23588   -1.000
 5140.00    2.29638   2.22034   -1.000
 5141.00    2.31830   2.21417   -1.000
 5142.00    2.30982   2.21361   -1.000
 5143.00    2.27430   2.21582   -1.000
 5144.00    2.27997   2.21860   -1.000
 5145.00    2.30772   2.21796   -1.000
 5146.00    2.28991   2.21331   -1.000
 5147.00    2.26270   2.20875   -1.000
 5148.00    2.25380   2.20709   -1.000
 5149.00    2.28323   2.20762   -1.000
 5150.00    2.30451   2.20765   -1.000
 5151.00    2.28804   2.20595   -1.000
 5152.00    2.27038   2.20579   -1.000
 5153.00    2.28988   2.21279   -1.000
 5154.00    2.29686   2.23221   -1.000
 5155.00    2.36977   2.26590   -1.000
 5156.00    2.45553   2.30937   -1.000
 5157.00    2.52329   2.35322   -1.000
 5158.00    2.56974   2.38758   -1.000
 5159.00    2.56143   2.40540   -1.000
 5160.00    2.53967   2.40254   -1.000
 5161.00    2.50477   2.37686   -1.000
 5162.00    2.46990   2.32667   -1.000
 5163.00    2.40854   2.25093   -1.000
 5164.00    2.29982   2.15231   -1.000
 5165.00    2.12865   2.03687   -1.000
 5166.00    1.87382   1.91810   -1.000
 5167.00    1.67847   1.81907   -1.000
 5168.00    1.65444   1.75757   -1.000
 5169.00    1.77046   1.73139   -1.000
 5170.00    1.88801   1.72242   -1.000
 5171.00    1.82685   1.71671   -1.000
 5172.00    1.66040   1.72102   -1.000
 5173.00    1.63849   1.75615   -1.000
 5174.00    1.83191   1.83321  127.890
 5175.00    2.09593   1.94101   -1.000
 5176.00    2.26728   2.05060   -1.000
 5177.00    2.31431   2.13432   -1.000
 5178.00    2.32988   2.17455   -1.000
 5179.00    2.31407   2.16249   -1.000
 5180.00    2.22840   2.10055   -1.000
 5181.00    2.07338   2.00164   -1.000
 5182.00    1.86191   1.89337   -1.000
 5183.00    1.66236   1.81555   -1.000
 5184.00    1.65071   1.80267   -1.000
 5185.00    1.88062   1.86296  127.948
 5186.00    2.16627   1.97219   -1.000
 5187.00    2.35435   2.09026   -1.000
 5188.00    2.42275   2.18375   -1.000
 5189.00    2.44738   2.23430   -1.000
 5190.00    2.44317   2.24145   -1.000
 5191.00    2.36279   2.21766   -1.000
 5192.00    2.24585   2.18545   -1.000
 5193.00    2.22679   2.16661   -1.000
 5194.00    2.31392   2.16980   -1.000
 5195.00    2.36037   2.19331   -1.000
 5196.00    2.39757   2.23276   -1.000
 5197.00    2.47396   2.28014   -1.000
 5198.00    2.49099   2.32533   -1.000
 5199.00    2.51988   2.35988   -1.000
 5200.00    2.54591   2.37551   -1.000
 5201.00    2.54921   2.36633   -1.000
 5202.00    2.49629   2.33066   -1.000
 5203.00    2.42451   2.27137   -1.000
 5204.00    2.32340   2.19738   -1.000
 5205.00    2.19247   2.12349   -1.000
 5206.00    2.13671   2.06559   -1.000
 5207.00    2.13573   2.03516   -1.000
 5208.00    2.12582   2.03765   -1.000
 5209.00    2.16878   2.07360   -1.000
 5210.00    2.28756   2.13780   -1.000
 5211.00    2.42874   2.21604   -1.000
 5212.00    2.54719   2.28936   -1.000
 5213.00    2.63165   2.34145   -1.000
 5214.00    2.63430   2.36577   -1.000
 5215.00    2.55719   2.36945   -1.000
 5216.00    2.50560   2.36966   -1.000
 5217.00    2.52337   2.38160   -1.000
 5218.00    2.60639   2.40916   -1.000
 5219.00    2.67181   2.44362   -1.000
 5220.00    2.69634   2.47049   -1.000
 5221.00    2.71630   2.47527   -1.000
 5222.00    2.68998   2.44879   -1.000
 5223.00    2.58541   2.39136   -1.000
 5224.00    2.48358   2.31394   -1.000
 5225.00    2.35476   2.23639   -1.000
 5226.00    2.24072   2.18330   -1.000
 5227.00    2.26021   2.17348   -1.000
 5228.00    2.39662   2.20827   -1.000
 5229.00    2.56978   2.26934   -1.000
 5230.00    2.67224   2.32861   -1.000
 5231.00    2.69328   2.36536   -1.000
 5232.00    2.64330   2.37762   -1.000
 5233.00    2.55380   2.37972   -1.000
 5234.00    2.51826   2.39027   -1.000
 5235.00    2.59679   2.41939   -1.000
 5236.00    2.69226   2.46349   -1.000
 5237.00    2.77351   2.51071   -1.000
 5238.00    2.79717   2.54844   -1.000
 5239.00    2.77533   2.57096   -1.000
 5240.00    2.75556   2.58032   -1.000
 5241.00    2.74955   2.58163   -1.000
 5242.00    2.75978   2.57949   -1.000
 5243.00    2.77122   2.57455   -1.000
 5244.00    2.79835   2.56251   -1.000
 5245.00    2.76968   2.53761   -1.000
 5246.00    2.68526   2.49935   -1.000
 5247.00    2.58458   2.45568   -1.000
 5248.00    2.55723   2.41759   -1.000
 5249.00    2.57990   2.39224   -1.000
 5250.00    2.57314   2.38207   -1.000
 5251.00    2.57126   2.38641   -1.000
 5252.00    2.60491   2.40088   -1.000
 5253.00    2.63779   2.42057   -1.000
 5254.00    2.63886   2.44485   -1.000
 5255.00    2.62790   2.47731   -1.000
 5256.00    2.68507   2.51910   -1.000
 5257.00    2.80814   2.56140   -1.000
 5258.00    2.86774   2.58766   -1.000
 5259.00    2.84629   2.58283   -1.000
 5260.00    2.78276   2.53918   -1.000
 5261.00    2.67254   2.45956   -1.000
 5262.00    2.53980   2.35821   -1.000
 5263.00    2.38403   2.25437   -1.000
 5264.00    2.28123   2.16548   -1.000
 5265.00    2.23399   2.10122   -1.000
 5266.00    2.24341   2.06201   -1.000
 5267.00    2.31368   2.03950   -1.000
 5268.00    2.31944   2.02545   -1.000
 5269.00    2.21612   2.02267   -1.000
 5270.00    2.17446   2.04378   -1.000
 5271.00    2.31366   2.09768   -1.000
 5272.00    2.52718   2.17556   -1.000
 5273.00    2.62431   2.25706   -1.000
 5274.00    2.63686   2.33079   -1.000
 5275.00    2.63356   2.39714   -1.000
 5276.00    2.70193   2.45854   -1.000
 5277.00    2.81707   2.51356   -1.000
 5278.00    2.90482   2.55309   -1.000
 5279.00    2.92410   2.56661   -1.000
 5280.00    2.86315   2.55264   -1.000
 5281.00    2.77215   2.52137   -1.000
 5282.00    2.67637   2.49140   -1.000
 5283.00    2.58569   2.48259   -1.000
 5284.00    2.68276   2.50624   -1.000
 5285.00    2.84250   2.55928   -1.000
 5286.00    2.95874   2.62459   -1.000
 5287.00    3.02908   2.68329   -1.000
 5288.00    3.01961   2.72592   -1.000
 5289.00    3.01341   2.75195   -1.000
 5290.00    3.03329   2.76401   -1.000
 5291.00    3.04748   2.76377   -1.000
 5292.00    3.03930   2.75003   -1.000
 5293.00    3.00317   2.72133   -1.000
 5294.00    2.93326   2.67635   -1.000
 5295.00    2.84949   2.61544   -1.000
 5296.00    2.75024   2.54680   -1.000
 5297.00    2.62607   2.48645   -1.000
 5298.00    2.58984   2.45174   -1.000
 5299.00    2.67431   2.45084   -1.000
 5300.00    2.77720   2.47902   -1.000
 5301.00    2.82882   2.52642   -1.000
 5302.00    2.86165   2.58458   -1.000
 5303.00    2.95473   2.64608   -1.000
 5304.00    3.04696   2.70285   -1.000
 5305.00    3.08714   2.74649   -1.000
 5306.00    3.07982   2.77394   -1.000
 5307.00    3.06102   2.78926   -1.000
 5308.00    3.07242   2.79894   -1.000
 5309.00    3.09835   2.80690   -1.000
 5310.00    3.10908   2.81183   -1.000
 5311.00    3.11293   2.81001   -1.000
 5312.00    3.09348   2.79980   -1.000
 5313.00    3.08697   2.78216   -1.000
 5314.00    3.05664   2.76016   -1.000
 5315.00    3.04077   2.73798   -1.000
 5316.00    3.00229   2.71944   -1.000
 5317.00    2.95771   2.70735   -1.000
 5318.00    2.98191   2.70092   -1.000
 5319.00    2.99780   2.69551   -1.000
 5320.00    2.99260   2.68543   -1.000
 5321.00    2.99169   2.66534   -1.000
 5322.00    2.94037   2.63056   -1.000
 5323.00    2.87180   2.57981   -1.000
 5324.00    2.80171   2.51564   -1.000
 5325.00    2.77917   2.44230   -1.000
 5326.00    2.73830   2.36585   -1.000
 5327.00    2.57846   2.30103   -1.000
 5328.00    2.42255   2.26947   -1.000
 5329.00    2.44871   2.28853   -1.000
 5330.00    2.64698   2.35433   -1.000
 5331.00    2.83600   2.44438   -1.000
 5332.00    2.91570   2.53519   -1.000
 5333.00    2.95183   2.61244   -1.000
 5334.00    3.00793   2.67019   -1.000
 5335.00    3.05463   2.70574   -1.000
 5336.00    3.06201   2.71656   -1.000
 5337.00    3.03975   2.70260   -1.000
 5338.00    2.99011   2.66792   -1.000
 5339.00    2.90287   2.62287   -1.000
 5340.00    2.80533   2.58421   -1.000
 5341.00    2.77981   2.56793   -1.000
 5342.00    2.85503   2.57650   -1.000
 5343.00    2.94790   2.59871   -1.000
 5344.00    2.98710   2.61993   -1.000
 5345.00    2.98052   2.63064   -1.000
 5346.00    2.96988   2.62952   -1.000
 5347.00    2.96058   2.62211   -1.000
 5348.00    2.94001   2.61744   -1.000
 5349.00    2.93136   2.62538   -1.000
 5350.00    2.98044   2.65152   -1.000
 5351.00    3.05013   2.69347   -1.000
 5352.00    3.11330   2.74363   -1.000
 5353.00    3.13558   2.79396   -1.000
 5354.00    3.16354   2.83911   -1.000
 5355.00    3.21413   2.87564   -1.000
 5356.00    3.24330   2.90021   -1.000
 5357.00    3.27005   2.91126   -1.000
 5358.00    3.25599   2.90910   -1.000
 5359.00    3.22986   2.89432   -1.000
 5360.00    3.18842   2.86844   -1.000
 5361.00    3.12655   2.83519   -1.000
 5362.00    3.08415   2.79899   -1.000
 5363.00    3.07307   2.76330   -1.000
 5364.00    3.05943   2.73004   -1.000
 5365.00    3.01994   2.69919   -1.000
 5366.00    2.98779   2.66907   -1.000
 5367.00    2.98525   2.63581   -1.000
 5368.00    2.97733   2.59484   -1.000
 5369.00    2.88250   2.54893   -1.000
 5370.00    2.76929   2.51140   -1.000
 5371.00    2.71471   2.50058   11.453
 5372.00    2.80360   2.52791   -1.000
 5373.00    2.99618   2.58733   -1.000
 5374.00    3.15375   2.65981   -1.000
 5375.00    3.21986   2.72440   -1.000
 5376.00    3.20006   2.76927   -1.000
 5377.00    3.16788   2.79380   -1.000
 5378.00    3.17254   2.80297   -1.000
 5379.00    3.17471   2.80147   -1.000
 5380.00    3.15985   2.79206   -1.000
 5381.00    3.11747   2.77821   -1.000
 5382.00    3.06930   2.76512   -1.000
 5383.00    3.06163   2.75777   -1.000
 5384.00    3.09257   2.75795   -1.000
 5385.00    3.13786   2.76232   -1.000
 5386.00    3.15728   2.76358   -1.000
 5387.00    3.14432   2.75414   -1.000
 5388.00    3.10439   2.73151   -1.000
 5389.00    3.03070   2.69908   -1.000
 5390.00    2.96749   2.66417   -1.000
 5391.00    2.95050   2.63355   -1.000
 5392.00    2.95111   2.60985   -1.000
 5393.00    2.95680   2.59099   -1.000
 5394.00    2.95343   2.57265   -1.000
 5395.00    2.89850   2.55278   -1.000
 5396.00    2.82115   2.53525   -1.000
 5397.00    2.79243   2.52981   -1.000
 5398.00    2.85894   2.54309   -1.000
 5399.00    2.96474   2.57113   -1.000
 5400.00    3.01003   2.60007   -1.000
 5401.00    3.01796   2.61451   -1.000
 5402.00    3.01528   2.60374   -1.000
 5403.00    2.94824   2.56648   -1.000
 5404.00    2.80118   2.51331   -1.000
 5405.00    2.69762   2.46539   -1.000
 5406.00    2.69573   2.44192   -1.000
 5407.00    2.77677   2.44606   -1.000
 5408.00    2.85993   2.46975   -1.000
 5409.00    2.86711   2.50385   -1.000
 5410.00    2.86800   2.54564   -1.000
 5411.00    2.94865   2.59554   -1.000
 5412.00    3.07008   2.64851   -1.000
 5413.00    3.13628   2.69776   -1.000
 5414.00    3.13681   2.73958   -1.000
 5415.00    3.12911   2.77360   -1.000
 5416.00    3.14943   2.80009   -1.000
 5417.00    3.18635   2.81655   -1.000
 5418.00    3.20186   2.82059   -1.000
 5419.00    3.18118   2.81343   -1.000
 5420.00    3.14987   2.79955   -1.000
 5421.00    3.13808   2.78417   -1.000
 5422.00    3.15021   2.77114   -1.000
 5423.00    3.13137   2.76303   -1.000
 5424.00    3.09879   2.76303   -1.000
 5425.00    3.12402   2.77029   -1.000
 5426.00    3.19501   2.77582   -1.000
 5427.00    3.21593   2.76713   -1.000
 5428.00    3.12060   2.73760   -1.000
 5429.00    2.97000   2.69606   -1.000
 5430.00    2.89758   2.65766   -1.000
 5431.00    2.95520   2.63076   -1.000
 5432.00    3.01643   2.61409   -1.000
 5433.00    2.98622   2.60349   -1.000
 5434.00    2.92300   2.60217   -1.000
 5435.00    2.92909   2.61783   -1.000
 5436.00    2.99266   2.65587   -1.000
 5437.00    3.06495   2.71438   -1.000
 5438.00    3.15114   2.78334   -1.000
 5439.00    3.25884   2.84865   -1.000
 5440.00    3.34305   2.89760   -1.000
 5441.00    3.34309   2.92253   -1.000
 5442.00    3.31000   2.91996   -1.000
 5443.00    3.27553   2.88869   -1.000
 5444.00    3.17334   2.83300   -1.000
 5445.00    3.04250   2.76463   -1.000
 5446.00    2.88634   2.70492   11.824
 5447.00    2.82922   2.67384   11.768
 5448.00    2.89757   2.67835   11.813
 5449.00    3.01161   2.70795   -1.000
 5450.00    3.10154   2.74022   -1.000
 5451.00    3.12509   2.75660   -1.000
 5452.00    3.10029   2.74824   -1.000
 5453.00    3.02872   2.71773   -1.000
 5454.00    2.93493   2.67873   -1.000
 5455.00    2.86858   2.65194   11.778
 5456.00    2.90026   2.65322   -1.000
 5457.00    3.01541   2.68380   -1.000
 5458.00    3.14169   2.72606   -1.000
 5459.00    3.18111   2.75869   -1.000
 5460.00    3.12745   2.76952   -1.000
 5461.00    3.08570   2.75950   -1.000
 5462.00    3.05296   2.74048   -1.000
 5463.00    3.01688   2.72690   -1.000
 5464.00    3.02686   2.72781   -1.000
 5465.00    3.08722   2.74183   -1.000
 5466.00    3.13889   2.76164   -1.000
 5467.00    3.15450   2.77906   -1.000
 5468.00    3.15586   2.78793   -1.000
 5469.00    3.15407   2.78579   -1.000
 5470.00    3.12738   2.77358   -1.000
 5471.00    3.08094   2.75372   -1.000
 5472.00    3.06663   2.72807   -1.000
 5473.00    3.04425   2.69716   -1.000
 5474.00    3.00385   2.66197   -1.000
 5475.00    2.96840   2.62789   -1.000
 5476.00    2.89221   2.60380   -1.000
 5477.00    2.87462   2.59914   -1.000
 5478.00    2.95089   2.61327   -1.000
 5479.00    3.04824   2.63495   -1.000
 5480.00    3.05658   2.65466   -1.000
 5481.00    2.98448   2.67112   -1.000
 5482.00    2.94097   2.69182   -1.000
 5483.00    2.98702   2.72060   -1.000
 5484.00    3.09390   2.75174   -1.000
 5485.00    3.16129   2.77529   -1.000
 5486.00    3.17970   2.78395   -1.000
 5487.00    3.13363   2.78039   -1.000
 5488.00    3.07756   2.77304   -1.000
 5489.00    3.09713   2.77076   -1.000
 5490.00    3.13654   2.77584   -1.000
 5491.00    3.15599   2.78446   -1.000
 5492.00    3.16336   2.79208   -1.000
 5493.00    3.17320   2.79594   -1.000
 5494.00    3.19204   2.79666   -1.000
 5495.00    3.19119   2.79537   -1.000
 5496.00    3.16797   2.79345   -1.000
 5497.00    3.13695   2.79325   -1.000
 5498.00    3.14908   2.79530   -1.000
 5499.00    3.18988   2.79536   -1.000
 5500.00    3.19812   2.78849   -1.000
 5501.00    3.11746   2.77347   -1.000
 5502.00    3.07774   2.75493   -1.000
 5503.00    3.09940   2.73847   -1.000
 5504.00    3.10571   2.72534   -1.000
 5505.00    3.09298   2.71645   -1.000
 5506.00    3.06048   2.71426   -1.000
 5507.00    3.07803   2.72018   -1.000
 5508.00    3.14261   2.73111   -1.000
 5509.00    3.16272   2.73755   -1.000
 5510.00    3.13721   2.73170   -1.000
 5511.00    3.10085   2.71387   -1.000
 5512.00    3.04164   2.69188   -1.000
 5513.00    2.99745   2.67735   -1.000
 5514.00    3.02195   2.67838   -1.000
 5515.00    3.07110   2.69772   -1.000
 5516.00    3.11624   2.73254   -1.000
 5517.00    3.18809   2.77644   -1.000
 5518.00    3.27179   2.82135   -1.000
 5519.00    3.30681   2.85902   -1.000
 5520.00    3.31012   2.88399   -1.000
 5521.00    3.31483   2.89595   -1.000
 5522.00    3.29763   2.89653   -1.000
 5523.00    3.28826   2.88621   -1.000
 5524.00    3.26701   2.86410   -1.000
 5525.00    3.22471   2.82966   -1.000
 5526.00    3.16786   2.78797   -1.000
 5527.00    3.08671   2.74900   -1.000
 5528.00    3.03140   2.72729   -1.000
 5529.00    3.06327   2.73043   -1.000
 5530.00    3.14671   2.75388   -1.000
 5531.00    3.21433   2.78439   -1.000
 5532.00    3.23328   2.80909   -1.000
 5533.00    3.22357   2.82289   -1.000
 5534.00    3.20996   2.82718   -1.000
 5535.00    3.22534   2.82758   -1.000
 5536.00    3.22168   2.83040   -1.000
 5537.00    3.21910   2.83968   -1.000
 5538.00    3.25804   2.85540   -1.000
 5539.00    3.30797   2.87466   -1.000
 5540.00    3.35447   2.89217   -1.000
 5541.00    3.38800   2.90257   -1.000
 5542.00    3.35290   2.90368   -1.000
 5543.00    3.30164   2.89871   -1.000
 5544.00    3.29605   2.89355   -1.000
 5545.00    3.31408   2.89348   -1.000
 5546.00    3.32105   2.90160   -1.000
 5547.00    3.33348   2.91832   -1.000
 5548.00    3.37621   2.93988   -1.000
 5549.00    3.44153   2.95941   -1.000
 5550.00    3.45332   2.97054   -1.000
 5551.00    3.43463   2.97002   -1.000
 5552.00    3.41331   2.95864   -1.000
 5553.00    3.37206   2.94128   -1.000
 5554.00    3.33647   2.92448   -1.000
 5555.00    3.32794   2.91273   -1.000
 5556.00    3.32762   2.90681   -1.000
 5557.00    3.33561   2.90436   -1.000
 5558.00    3.35144   2.90286   -1.000
 5559.00    3.36491   2.89999   -1.000
 5560.00    3.36849   2.89332   -1.000
 5561.00    3.34523   2.88179   -1.000
 5562.00    3.30833   2.86733   -1.000
 5563.00    3.27516   2.85267   -1.000
 5564.00    3.25951   2.83955   -1.000
 5565.00    3.25937   2.82821   -1.000
 5566.00    3.25221   2.81897   -1.000
 5567.00    3.23262   2.81294   -1.000
 5568.00    3.22350   2.81080   -1.000
 5569.00    3.25236   2.81222   -1.000
 5570.00    3.28439   2.81586   -1.000
 5571.00    3.19741   2.82012   -1.000
 5572.00    2.98808   2.82501   11.861
 5573.00    3.33077   2.83245   -1.000
 5574.00    4.25598   2.84540   -1.000
 5575.00    4.53259   2.86268   -1.000
 5576.00    4.14857   2.88001   -1.000
 5577.00    3.66432   2.89549   -1.000
 5578.00    3.43362   2.90832   -1.000
 5579.00    3.39490   2.91665   -1.000
 5580.00    3.39291   2.91870   -1.000
 5581.00    3.36677   2.91244   -1.000
 5582.00    3.35223   2.89652   -1.000
 5583.00    3.34609   2.86962   -1.000
 5584.00    3.30680   2.82926   -1.000
 5585.00    3.25101   2.77684   -1.000
 5586.00    3.16875   2.71996   -1.000
 5587.00    3.07106   2.67127   -1.000
 5588.00    3.00953   2.64325   -1.000
 5589.00    3.01546   2.64012   -1.000
 5590.00    3.07549   2.65864   -1.000
 5591.00    3.15081   2.68934   -1.000
 5592.00    3.19396   2.72366   -1.000
 5593.00    3.17814   2.75711   -1.000
 5594.00    3.17910   2.78816   -1.000
 5595.00    3.24528   2.81443   -1.000
 5596.00    3.31808   2.82922   -1.000
 5597.00    3.31876   2.82722   -1.000
 5598.00    3.23174   2.80864   -1.000
 5599.00    3.14394   2.78082   -1.000
 5600.00    3.12183   2.75469   -1.000
 5601.00    3.12690   2.74111   -1.000
 5602.00    3.12418   2.74899   -1.000
 5603.00    3.15034   2.78232   -1.000
 5604.00    3.24764   2.83540   -1.000
 5605.00    3.36632   2.89547   -1.000
 5606.00    3.44229   2.94968   -1.000
 5607.00    3.47398   2.98983   -1.000
 5608.00    3.48261   3.01430   -1.000
 5609.00    3.48037   3.02527   -1.000
 5610.00    3.47436   3.02513   -1.000
 5611.00    3.48667   3.01211   -1.000
 5612.00    3.47963   2.98162   -1.000
 5613.00    3.41356   2.93174   -1.000
 5614.00    3.29313   2.87020   -1.000
 5615.00    3.16576   2.81545   -1.000
 5616.00    3.12389   2.78376   -1.000
 5617.00    3.18854   2.78162   -1.000
 5618.00    3.25118   2.80002   -1.000
 5619.00    3.26940   2.82622   -1.000
 5620.00    3.30171   2.85004   -1.000
 5621.00    3.34200   2.86273   -1.000
 5622.00    3.34769   2.85870   -1.000
 5623.00    3.28256   2.84131   -1.000
 5624.00    3.20333   2.82102   -1.000
 5625.00    3.17168   2.81261   -1.000
 5626.00    3.20154   2.82387   -1.000
 5627.00    3.28397   2.85264   -1.000
 5628.00    3.35839   2.89141   -1.000
 5629.00    3.41622   2.93021   -1.000
 5630.00    3.45974   2.95971   -1.000
 5631.00    3.46851   2.97447   -1.000
 5632.00    3.45656   2.97367   -1.000
 5633.00    3.42979   2.95998   -1.000
 5634.00    3.38695   2.93781   -1.000
 5635.00    3.34995   2.91254   -1.000
 5636.00    3.32819   2.88943   -1.000
 5637.00    3.31155   2.87229   -1.000
 5638.00    3.30945   2.86185   -1.000
 5639.00    3.30807   2.85614   -1.000
 5640.00    3.28867   2.85266   -1.000
 5641.00    3.28199   2.85094   -1.000
 5642.00    3.28329   2.85359   -1.000
 5643.00    3.30147   2.86157   -1.000
 5644.00    3.33210   2.87352   -1.000
 5645.00    3.36586   2.88712   -1.000
 5646.00    3.39046   2.89958   -1.000
 5647.00    3.40540   2.90871   -1.000
 5648.00    3.41070   2.91450   -1.000
 5649.00    3.39081   2.91886   -1.000
 5650.00    3.40459   2.92392   -1.000
 5651.00    3.44605   2.92933   -1.000
 5652.00    3.45463   2.93048   -1.000
 5653.00    3.44532   2.92293   -1.000
 5654.00    3.39807   2.90595   -1.000
 5655.00    3.34483   2.88017   -1.000
 5656.00    3.31915   2.84759   -1.000
 5657.00    3.25727   2.81292   -1.000
 5658.00    3.16920   2.78392   -1.000
 5659.00    3.14444   2.77049   -1.000
 5660.00    3.20843   2.77472   -1.000
 5661.00    3.26343   2.79059   -1.000
 5662.00    3.26390   2.81389   -1.000
 5663.00    3.27613   2.84162   -1.000
 5664.00    3.33303   2.86823   -1.000
 5665.00    3.39413   2.88863   -1.000
 5666.00    3.40871   2.89991   -1.000
 5667.00    3.36485   2.90422   -1.000
 5668.00    3.33114   2.90764   -1.000
 5669.00    3.34092   2.91532   -1.000
 5670.00    3.36870   2.93048   -1.000
 5671.00    3.40912   2.95358   -1.000
 5672.00    3.46608   2.98115   -1.000
 5673.00    3.54040   3.00689   -1.000
 5674.00    3.56975   3.02628   -1.000
 5675.00    3.55398   3.03729   -1.000
 5676.00    3.55229   3.04061   -1.000
 5677.00    3.56538   3.03665   -1.000
 5678.00    3.55274   3.02487   -1.000
 5679.00    3.52978   3.00610   -1.000
 5680.00    3.50490   2.98235   -1.000
 5681.00    3.46418   2.95645   -1.000
 5682.00    3.40732   2.93281   -1.000
 5683.00    3.36506   2.91662   -1.000
 5684.00    3.37498   2.90825   -1.000
 5685.00    3.41955   2.90421   -1.000
 5686.00    3.43383   2.90268   -1.000
 5687.00    3.39550   2.90498   -1.000
 5688.00    3.37331   2.91479   -1.000
 5689.00    3.41252   2.93415   -1.000
 5690.00    3.48401   2.96092   -1.000
 5691.00    3.54735   2.98977   -1.000
 5692.00    3.58355   3.01434   -1.000
 5693.00    3.58658   3.02970   -1.000
 5694.00    3.57036   3.03404   -1.000
 5695.00    3.54124   3.02811   -1.000
 5696.00    3.50868   3.01306   -1.000
 5697.00    3.47360   2.99049   -1.000
 5698.00    3.42172   2.96346   -1.000
 5699.00    3.36143   2.93602   -1.000
 5700.00    3.31017   2.91218   -1.000
 5701.00    3.28900   2.89581   -1.000
 5702.00    3.30503   2.88908   -1.000
 5703.00    3.34922   2.88747   -1.000
 5704.00    3.39787   2.88345   -1.000
 5705.00    3.38200   2.87022   -1.000
 5706.00    3.31283   2.84614   -1.000
 5707.00    3.25511   2.81677   -1.000
 5708.00    3.21144   2.79006   -1.000
 5709.00    3.18962   2.77410   -1.000
 5710.00    3.20519   2.77546   -1.000
 5711.00    3.23827   2.79607   -1.000
 5712.00    3.29049   2.83384   -1.000
 5713.00    3.38058   2.88213   -1.000
 5714.00    3.47843   2.93149   -1.000
 5715.00    3.53213   2.97569   -1.000
 5716.00    3.54912   3.01200   -1.000
 5717.00    3.56061   3.04084   -1.000
 5718.00    3.57584   3.06489   -1.000
 5719.00    3.59454   3.08696   -1.000
 5720.00    3.61943   3.10766   -1.000
 5721.00    3.65773   3.12577   -1.000
 5722.00    3.68175   3.13840   -1.000
 5723.00    3.68392   3.14253   -1.000
 5724.00    3.68614   3.13629   -1.000
 5725.00    3.66665   3.12146   -1.000
 5726.00    3.61413   3.10325   -1.000
 5727.00    3.57317   3.08850   -1.000
 5728.00    3.56897   3.08072   -1.000
 5729.00    3.59448   3.07761   -1.000
 5730.00    3.59278   3.07709   -1.000
 5731.00    3.55786   3.07937   -1.000
 5732.00    3.56171   3.08666   -1.000
 5733.00    3.61618   3.09910   -1.000
 5734.00    3.65898   3.11187   -1.000
 5735.00    3.66078   3.12071   -1.000
 5736.00    3.65887   3.12368   -1.000
 5737.00    3.64411   3.12198   -1.000
 5738.00    3.60733   3.11873   -1.000
 5739.00    3.58881   3.11548   -1.000
 5740.00    3.58615   3.11342   -1.000
 5741.00    3.59577   3.11310   -1.000
 5742.00    3.60539   3.11555   -1.000
 5743.00    3.60541   3.12151   -1.000
 5744.00    3.63468   3.12841   -1.000
 5745.00    3.67900   3.13225   -1.000
 5746.00    3.69149   3.12961   -1.000
 5747.00    3.65373   3.12174   -1.000
 5748.00    3.61014   3.11331   -1.000
 5749.00    3.62980   3.10501   -1.000
 5750.00    3.67898   3.09444   -1.000
 5751.00    3.66771   3.07795   -1.000
 5752.00    3.57493   3.05811   -1.000
 5753.00    3.49708   3.04439   -1.000
 5754.00    3.49819   3.04520   -1.000
 5755.00    3.56398   3.06313   -1.000
 5756.00    3.66310   3.08903   -1.000
 5757.00    3.72025   3.11039   -1.000
 5758.00    3.70218   3.11653   -1.000
 5759.00    3.64253   3.10451   -1.000
 5760.00    3.58825   3.08048   -1.000
 5761.00    3.51759   3.05770   -1.000
 5762.00    3.47245   3.04915   -1.000
 5763.00    3.51937   3.06225   -1.000
 5764.00    3.62594   3.09359   -1.000
 5765.00    3.69812   3.13154   -1.000
 5766.00    3.72594   3.16557   -1.000
 5767.00    3.72291   3.18853   -1.000
 5768.00    3.70415   3.19820   -1.000
 5769.00    3.68017   3.19638   -1.000
 5770.00    3.65150   3.18699   -1.000
 5771.00    3.62646   3.17383   -1.000
 5772.00    3.59461   3.16032   -1.000
 5773.00    3.53564   3.14951   -1.000
 5774.00    3.47353   3.14256   -1.000
 5775.00    3.40828   3.13876   -1.000
 5776.00    3.35380   3.13341   12.145
 5777.00    3.36876   3.11925   -1.000
 5778.00    3.42243   3.09092   -1.000
 5779.00    3.44888   3.04768   -1.000
 5780.00    3.41439   2.99650   -1.000
 5781.00    3.34759   2.94786   -1.000
 5782.00    3.34429   2.91234   -1.000
 5783.00    3.37204   2.89395   -1.000
 5784.00    3.35657   2.89303   -1.000
 5785.00    3.35835   2.90982   -1.000
 5786.00    3.43362   2.94103   -1.000
 5787.00    3.52813   2.97926   -1.000
 5788.00    3.59862   3.01660   -1.000
 5789.00    3.62918   3.04709   -1.000
 5790.00    3.60102   3.07064   -1.000
 5791.00    3.57036   3.09109   -1.000
 5792.00    3.57630   3.11303   -1.000
 5793.00    3.60783   3.13621   -1.000
 5794.00    3.67954   3.15643   -1.000
 5795.00    3.75187   3.16919   -1.000
 5796.00    3.74754   3.17393   -1.000
 5797.00    3.70642   3.17703   -1.000
 5798.00    3.71508   3.18567   -1.000
 5799.00    3.76665   3.20307   -1.000
 5800.00    3.82582   3.22377   -1.000
 5801.00    3.86455   3.23875   -1.000
 5802.00    3.85119   3.24163   -1.000
 5803.00    3.79193   3.23133   -1.000
 5804.00    3.71782   3.21412   -1.000
 5805.00    3.68302   3.19813   -1.000
 5806.00    3.69733   3.18952   -1.000
 5807.00    3.72270   3.18985   -1.000
 5808.00    3.74489   3.19727   -1.000
 5809.00    3.76954   3.20793   -1.000
 5810.00    3.78721   3.21726   -1.000
 5811.00    3.80023   3.22084   -1.000
 5812.00    3.80466   3.21639   -1.000
 5813.00    3.78802   3.20425   -1.000
 5814.00    3.75534   3.18860   -1.000
 5815.00    3.71092   3.17660   -1.000
 5816.00    3.69830   3.17615   -1.000
 5817.00    3.73203   3.18923   -1.000
 5818.00    3.78391   3.21193   -1.000
 5819.00    3.83784   3.23556   -1.000
 5820.00    3.87632   3.25324   -1.000
 5821.00    3.88826   3.26235   -1.000
 5822.00    3.87273   3.26458   -1.000
 5823.00    3.85165   3.26443   -1.000
 5824.00    3.84446   3.26486   -1.000
 5825.00    3.85518   3.26742   -1.000
 5826.00    3.87089   3.27186   -1.000
 5827.00    3.88586   3.27724   -1.000
 5828.00    3.88492   3.28261   -1.000
 5829.00    3.87863   3.28611   -1.000
 5830.00    3.89090   3.28627   -1.000
 5831.00    3.87465   3.28235   -1.000
 5832.00    3.86407   3.27459   -1.000
 5833.00    3.85242   3.26463   -1.000
 5834.00    3.83147   3.25499   -1.000
 5835.00    3.82687   3.24854   -1.000
 5836.00    3.83909   3.24619   -1.000
 5837.00    3.84258   3.24820   -1.000
 5838.00    3.81854   3.25546   -1.000
 5839.00    3.80474   3.26741   -1.000
 5840.00    3.83382   3.28154   -1.000
 5841.00    3.87514   3.29330   -1.000
 5842.00    3.88563   3.29803   -1.000
 5843.00    3.86975   3.29309   -1.000
 5844.00    3.82969   3.27870   -1.000
 5845.00    3.77827   3.25792   -1.000
 5846.00    3.74616   3.23552   -1.000
 5847.00    3.72764   3.21573   -1.000
 5848.00    3.71990   3.20029   -1.000
 5849.00    3.72680   3.18745   -1.000
 5850.00    3.73304   3.17339   -1.000
 5851.00    3.71361   3.15616   -1.000
 5852.00    3.67315   3.13613   -1.000
 5853.00    3.64144   3.11526   -1.000
 5854.00    3.62442   3.09426   -1.000
 5855.00    3.60841   3.07218   -1.000
 5856.00    3.56966   3.05118   -1.000
 5857.00    3.53942   3.03696   -1.000
 5858.00    3.54341   3.03566   -1.000
 5859.00    3.58743   3.04911   -1.000
 5860.00    3.64662   3.07136   -1.000
 5861.00    3.69148   3.09554   -1.000
 5862.00    3.69729   3.11536   -1.000
 5863.00    3.70040   3.12830   -1.000
 5864.00    3.70991   3.13476   -1.000
 5865.00    3.68251   3.13698   -1.000
 5866.00    3.65249   3.13966   -1.000
 5867.00    3.64153   3.14814   -1.000
 5868.00    3.69079   3.16276   -1.000
 5869.00    3.75045   3.18016   -1.000
 5870.00    3.78872   3.19554   -1.000
 5871.00    3.78758   3.20524   -1.000
 5872.00    3.72526   3.20873   -1.000
 5873.00    3.71915   3.20730   -1.000
 5874.00    3.75058   3.20216   -1.000
 5875.00    3.74576   3.19271   -1.000
 5876.00    3.72088   3.17799   -1.000
 5877.00    3.69318   3.15871   -1.000
 5878.00    3.66845   3.13721   -1.000
 5879.00    3.63243   3.11752   -1.000
 5880.00    3.59223   3.10279   -1.000
 5881.00    3.50218   3.09350   -1.000
 5882.00    3.34680   3.08513   -1.000
 5883.00    3.07886   3.07100   12.413
 5884.00    2.70791   3.04311   -1.000
 5885.00    2.41674   2.99020   -1.000
 5886.00    2.48544   2.90219   -1.000
 5887.00    2.70251   2.77849   14.224
 5888.00    2.69560   2.63416   13.676
 5889.00    2.41909   2.50230   13.320
 5890.00    2.11363   2.41436   -1.000
 5891.00    2.04295   2.38533   -1.000
 5892.00    2.27016   2.39900   13.791
 5893.00    2.59622   2.42992   13.474
 5894.00    2.77668   2.45911   -1.000
 5895.00    2.78536   2.48726   -1.000
 5896.00    2.78232   2.53240   -1.000
 5897.00    2.93238   2.60303   -1.000
 5898.00    3.18413   2.69634   -1.000
 5899.00    3.38287   2.79912   -1.000
 5900.00    3.50481   2.89592   -1.000
 5901.00    3.58674   2.97445   -1.000
 5902.00    3.61914   3.03041   -1.000
 5903.00    3.61767   3.06594   -1.000
 5904.00    3.60421   3.08657   -1.000
 5905.00    3.59122   3.09895   -1.000
 5906.00    3.58907   3.10907   -1.000
 5907.00    3.60307   3.11968   -1.000
 5908.00    3.63428   3.13044   -1.000
 5909.00    3.65828   3.13927   -1.000
 5910.00    3.67779   3.14255   -1.000
 5911.00    3.67610   3.13672   -1.000
 5912.00    3.64510   3.12110   -1.000
 5913.00    3.57892   3.09919   -1.000
 5914.00    3.51441   3.07899   -1.000
 5915.00    3.49568   3.06835   -1.000
 5916.00    3.52173   3.07042   -1.000
 5917.00    3.57877   3.08420   -1.000
 5918.00    3.62940   3.10396   -1.000
 5919.00    3.65529   3.12346   -1.000
 5920.00    3.64082   3.13832   -1.000
 5921.00    3.62943   3.14789   -1.000
 5922.00    3.64580   3.15440   -1.000
 5923.00    3.66453   3.16089   -1.000
 5924.00    3.68348   3.16766   -1.000
 5925.00    3.70648   3.17239   -1.000
 5926.00    3.71622   3.17191   -1.000
 5927.00    3.69529   3.16462   -1.000
 5928.00    3.66241   3.15333   -1.000
 5929.00    3.63515   3.14298   -1.000
 5930.00    3.63837   3.13835   -1.000
 5931.00    3.64641   3.13935   -1.000
 5932.00    3.67979   3.14297   -1.000
 5933.00    3.69462   3.14700   -1.000
 5934.00    3.66359   3.15172   -1.000
 5935.00    3.65536   3.15947   -1.000
 5936.00    3.68180   3.16951   -1.000
 5937.00    3.70723   3.17834   -1.000
 5938.00    3.71453   3.18254   -1.000
 5939.00    3.71092   3.17979   -1.000
 5940.00    3.67932   3.17170   -1.000
 5941.00    3.63426   3.16331   -1.000
 5942.00    3.62764   3.16017   -1.000
 5943.00    3.65491   3.16373   -1.000
 5944.00    3.71243   3.17137   -1.000
 5945.00    3.74663   3.17775   -1.000
 5946.00    3.74555   3.17845   -1.000
 5947.00    3.72672   3.17280   -1.000
 5948.00    3.67820   3.16429   -1.000
 5949.00    3.65067   3.15722   -1.000
 5950.00    3.67234   3.15237   -1.000
 5951.00    3.70190   3.14921   -1.000
 5952.00    3.67202   3.14695   -1.000
 5953.00    3.64274   3.14565   -1.000
 5954.00    3.64941   3.14536   -1.000
 5955.00    3.67154   3.14529   -1.000
 5956.00    3.67087   3.14677   -1.000
 5957.00    3.64142   3.15310   -1.000
 5958.00    3.65585   3.16600   -1.000
 5959.00    3.71682   3.18468   -1.000
 5960.00    3.77174   3.20537   -1.000
 5961.00    3.80031   3.22285   -1.000
 5962.00    3.79699   3.23339   -1.000
 5963.00    3.76379   3.23612   -1.000
 5964.00    3.73439   3.23365   -1.000
 5965.00    3.71154   3.23083   -1.000
 5966.00    3.71571   3.23232   -1.000
 5967.00    3.75601   3.23946   -1.000
 5968.00    3.77801   3.25095   -1.000
 5969.00    3.81277   3.26379   -1.000
 5970.00    3.84590   3.27416   -1.000
 5971.00    3.84063   3.27841   -1.000
 5972.00    3.82571   3.27417   -1.000
 5973.00    3.80039   3.26065   -1.000
 5974.00    3.77068   3.23946   -1.000
 5975.00    3.72863   3.21522   -1.000
 5976.00    3.70096   3.19441   -1.000
 5977.00    3.68330   3.18194   -1.000
 5978.00    3.68434   3.17940   -1.000
 5979.00    3.71313   3.18315   -1.000
 5980.00    3.74928   3.18643   -1.000
 5981.00    3.76155   3.18263   -1.000
 5982.00    3.73960   3.17072   -1.000
 5983.00    3.66569   3.15569   -1.000
 5984.00    3.61957   3.14593   -1.000
 5985.00    3.64470   3.14717   -1.000
 5986.00    3.69847   3.15902   -1.000
 5987.00    3.74764   3.17801   -1.000
 5988.00    3.76763   3.19909   -1.000
 5989.00    3.80338   3.21823   -1.000
 5990.00    3.80237   3.23419   -1.000
 5991.00    3.78049   3.24805   -1.000
 5992.00    3.79051   3.26032   -1.000
 5993.00    3.80547   3.26900   -1.000
 5994.00    3.83151   3.27053   -1.000
 5995.00    3.82866   3.26301   -1.000
 5996.00    3.79300   3.24885   -1.000
 5997.00    3.76185   3.23335   -1.000
 5998.00    3.72790   3.22215   -1.000
 5999.00    3.72175   3.21703   -1.000
 6000.00    3.74501   3.21627   -1.000
 6001.00    3.73717   3.21667   -1.000
 6002.00    3.72882   3.21555   -1.000
 6003.00    3.71524   3.21192   -1.000
 6004.00    3.69986   3.20431   -1.000
 6005.00    3.67652   3.19229   -1.000
 6006.00    3.64017   3.17884   -1.000
 6007.00    3.60512   3.16914   -1.000
 6008.00    3.62354   3.16819   -1.000
 6009.00    3.68969   3.17535   -1.000
 6010.00    3.75595   3.18470   -1.000
 6011.00    3.78330   3.19071   -1.000
 6012.00    3.74412   3.19105   -1.000
 6013.00    3.71821   3.18756   -1.000
 6014.00    3.70806   3.18282   -1.000
 6015.00    3.71493   3.17816   -1.000
 6016.00    3.72860   3.17434   -1.000
 6017.00    3.71063   3.17101   -1.000
 6018.00    3.71030   3.16692   -1.000
 6019.00    3.72321   3.16293   -1.000
 6020.00    3.72451   3.16204   -1.000
 6021.00    3.70684   3.16671   -1.000
 6022.00    3.71708   3.17833   -1.000
 6023.00    3.75130   3.19630   -1.000
 6024.00    3.77150   3.21855   -1.000
 6025.00    3.78962   3.24244   -1.000
 6026.00    3.82964   3.26599   -1.000
 6027.00    3.86952   3.28830   -1.000
 6028.00    3.88558   3.30879   -1.000
 6029.00    3.89551   3.32722   -1.000
 6030.00    3.88729   3.34424   -1.000
 6031.00    3.88076   3.36080   -1.000
 6032.00    3.89569   3.37760   -1.000
 6033.00    3.91989   3.39413   -1.000
 6034.00    3.92051   3.40771   -1.000
 6035.00    3.91023   3.41504   -1.000
 6036.00    3.91734   3.41452   -1.000
 6037.00    3.92051   3.40679   -1.000
 6038.00    3.91298   3.39517   -1.000
 6039.00    3.89509   3.38419   -1.000
 6040.00    3.88137   3.37818   -1.000
 6041.00    3.86376   3.37913   -1.000
 6042.00    3.88356   3.38654   -1.000
 6043.00    3.91494   3.39777   -1.000
 6044.00    3.93480   3.40960   -1.000
 6045.00    3.97377   3.42001   -1.000
 6046.00    3.98172   3.42768   -1.000
 6047.00    3.97538   3.43231   -1.000
 6048.00    3.97930   3.43374   -1.000
 6049.00    3.97529   3.43136   -1.000
 6050.00    3.98573   3.42394   -1.000
 6051.00    3.97435   3.41075   -1.000
 6052.00    3.95211   3.39263   -1.000
 6053.00    3.93049   3.37203   -1.000
 6054.00    3.91724   3.35254   -1.000
 6055.00    3.88307   3.33820   -1.000
 6056.00    3.85927   3.33188   -1.000
 6057.00    3.87998   3.33343   -1.000
 6058.00    3.81267   3.33963   -1.000
 6059.00    3.62638   3.34515   -1.000
 6060.00    3.86885   3.34487   -1.000
 6061.00    3.81805   3.33636   -1.000
 6062.00    2.66863   3.32130    4.613
 6063.00    1.82032   3.30562   -1.000
 6064.00    3.08162   3.29744   12.423
 6065.00    3.77851   3.30317   -1.000
 6066.00    3.91591   3.32374   -1.000
 6067.00    3.61781   3.35435   -1.000
 6068.00    1.64995   3.38755   -1.000
 6069.00    2.89893   3.41710   -1.000
 6070.00    3.98884   3.43913   -1.000
 6071.00    4.06110   3.45220   -1.000
 6072.00    4.05446   3.45641   -1.000
 6073.00    4.05294   3.45230   -1.000
 6074.00    4.03003   3.44031   -1.000
 6075.00    4.01210   3.42131   -1.000
 6076.00    3.98074   3.39726   -1.000
 6077.00    3.93679   3.37119   -1.000
 6078.00    3.87904   3.34645   -1.000
 6079.00    3.85303   3.32530   -1.000
 6080.00    3.87279   3.30898   -1.000
 6081.00    3.83884   3.29824   -1.000
 6082.00    3.81697   3.29341   -1.000
 6083.00    3.85542   3.29378   -1.000
 6084.00    3.87013   3.29812   -1.000
 6085.00    3.86669   3.30445   -1.000
 6086.00    3.86812   3.30994   -1.000
 6087.00    3.88182   3.31181   -1.000
 6088.00    3.88891   3.30880   -1.000
 6089.00    3.87251   3.30257   -1.000
 6090.00    3.83612   3.29711   -1.000
 6091.00    3.79399   3.29660   -1.000
 6092.00    3.79439   3.30346   -1.000
 6093.00    3.83907   3.31700   -1.000
 6094.00    3.89573   3.33382   -1.000
 6095.00    3.92705   3.34950   -1.000
 6096.00    3.92413   3.36060   -1.000
 6097.00    3.92416   3.36415   -1.000
 6098.00    3.92572   3.35688   -1.000
 6099.00    3.92764   3.33691   -1.000
 6100.00    3.91131   3.30629   -1.000
 6101.00    3.82916   3.27344   -1.000
 6102.00    3.70699   3.25024   -1.000
 6103.00    3.67177   3.24511   -1.000
 6104.00    3.74279   3.25902   -1.000
 6105.00    3.82045   3.28582   -1.000
 6106.00    3.86421   3.31713   -1.000
 6107.00    3.90163   3.34588   -1.000
 6108.00    3.88858   3.36813   -1.000
 6109.00    3.87605   3.38335   -1.000
 6110.00    3.88137   3.39369   -1.000
 6111.00    3.89202   3.40170   -1.000
 6112.00    3.92480   3.40846   -1.000
 6113.00    3.93542   3.41289   -1.000
 6114.00    3.93251   3.41283   -1.000
 6115.00    3.91855   3.40655   -1.000
 6116.00    3.90226   3.39273   -1.000
 6117.00    3.89610   3.37042   -1.000
 6118.00    3.88213   3.33999   -1.000
 6119.00    3.83042   3.30466   -1.000
 6120.00    3.76072   3.27137   -1.000
 6121.00    3.68346   3.24882   -1.000
 6122.00    3.65731   3.24322   -1.000
 6123.00    3.73956   3.25369   -1.000
 6124.00    3.84859   3.27376   -1.000
 6125.00    3.90146   3.29590   -1.000
 6126.00    3.89892   3.31540   -1.000
 6127.00    3.84733   3.33217   -1.000
 6128.00    3.81506   3.34834   -1.000
 6129.00    3.83322   3.36444   -1.000
 6130.00    3.85856   3.37682   -1.000
 6131.00    3.91213   3.37823   -1.000
 6132.00    3.93036   3.36089   -1.000
 6133.00    3.89771   3.32176   -1.000
 6134.00    3.79319   3.26649   -1.000
 6135.00    3.63707   3.21020   -1.000
 6136.00    3.52096   3.17097   -1.000
 6137.00    3.48789   3.16084   -1.000
 6138.00    3.58630   3.17980   -1.000
 6139.00    3.75116   3.21782   -1.000
 6140.00    3.84209   3.26283   -1.000
 6141.00    3.85740   3.30596   -1.000
 6142.00    3.84410   3.34274   -1.000
 6143.00    3.88068   3.37116   -1.000
 6144.00    3.92388   3.38977   -1.000
 6145.00    3.93018   3.39726   -1.000
 6146.00    3.90252   3.39357   -1.000
 6147.00    3.85490   3.38123   -1.000
 6148.00    3.80887   3.36503   -1.000
 6149.00    3.74745   3.35040   -1.000
 6150.00    3.74582   3.34045   -1.000
 6151.00    3.75732   3.33473   -1.000
 6152.00    3.74870   3.33018   -1.000
 6153.00    3.73559   3.32344   -1.000
 6154.00    3.69850   3.31254   -1.000
 6155.00    3.65156   3.29585   -1.000
 6156.00    3.66349   3.27104   -1.000
 6157.00    3.63620   3.23456   -1.000
 6158.00    3.57033   3.18385   -1.000
 6159.00    3.50202   3.12104   -1.000
 6160.00    3.36863   3.05591   -1.000
 6161.00    3.21497   3.00347   -1.000
 6162.00    3.15316   2.97616   12.973
 6163.00    3.19528   2.97825   -1.000
 6164.00    3.29500   3.00302   -1.000
 6165.00    3.37428   3.03689   -1.000
 6166.00    3.43107   3.06590   -1.000
 6167.00    3.45287   3.08326   -1.000
 6168.00    3.41940   3.09156   -1.000
 6169.00    3.37626   3.09936   -1.000
 6170.00    3.33780   3.11396   -1.000
 6171.00    3.39933   3.13689   -1.000
 6172.00    3.50226   3.16479   -1.000
 6173.00    3.52858   3.19213   -1.000
 6174.00    3.50415   3.21481   -1.000
 6175.00    3.49957   3.23215   -1.000
 6176.00    3.51585   3.24624   -1.000
 6177.00    3.56012   3.25940   -1.000
 6178.00    3.58508   3.27290   -1.000
 6179.00    3.58263   3.28678   -1.000
 6180.00    3.57670   3.29952   -1.000
 6181.00    3.58539   3.30826   -1.000
 6182.00    3.58882   3.31013   -1.000
 6183.00    3.58531   3.30293   -1.000
 6184.00    3.58819   3.28616   -1.000
 6185.00    3.56772   3.26121   -1.000
 6186.00    3.52016   3.23099   -1.000
 6187.00    3.48472   3.19870   -1.000
 6188.00    3.43009   3.16752   -1.000
 6189.00    3.38662   3.14218   -1.000
 6190.00    3.33109   3.12859   12.702
 6191.00    3.28184   3.13125   12.616
 6192.00    3.32122   3.15068   12.594
 6193.00    3.41565   3.18177   -1.000
 6194.00    3.49922   3.21610   -1.000
 6195.00    3.54703   3.24452   -1.000
 6196.00    3.53340   3.26132   -1.000
 6197.00    3.50686   3.26632   -1.000
 6198.00    3.45658   3.26542   12.633
 6199.00    3.39445   3.26608   12.590
 6200.00    3.41345   3.27349   12.590
 6201.00    3.46972   3.28865   12.570
 6202.00    3.55768   3.30853   -1.000
 6203.00    3.62108   3.32883   -1.000
 6204.00    3.63018   3.34569   -1.000
 6205.00    3.63352   3.35693   -1.000
 6206.00    3.63250   3.36147   -1.000
 6207.00    3.63725   3.35837   -1.000
 6208.00    3.60962   3.34656   -1.000
 6209.00    3.57529   3.32495   -1.000
 6210.00    3.55602   3.29313   -1.000
 6211.00    3.52495   3.25306   -1.000
 6212.00    3.46233   3.20944   -1.000
 6213.00    3.38199   3.16931   -1.000
 6214.00    3.33146   3.13898   13.238
 6215.00    3.30116   3.12135   13.198
 6216.00    3.32223   3.11497   -1.000
 6217.00    3.38504   3.11540   -1.000
 6218.00    3.40459   3.11929   -1.000
 6219.00    3.38715   3.12513   -1.000
 6220.00    3.38960   3.13318   -1.000
 6221.00    3.41554   3.14372   -1.000
 6222.00    3.42387   3.15595   -1.000
 6223.00    3.42958   3.16788   -1.000
 6224.00    3.45272   3.17636   -1.000
 6225.00    3.43207   3.17770   -1.000
 6226.00    3.44975   3.16884   -1.000
 6227.00    3.44290   3.14872   -1.000
 6228.00    3.40310   3.12082   -1.000
 6229.00    3.34491   3.09321   -1.000
 6230.00    3.25819   3.07611   12.968
 6231.00    3.24673   3.07729   12.902
 6232.00    3.29466   3.09811   12.983
 6233.00    3.35749   3.13212   -1.000
 6234.00    3.46853   3.16759   -1.000
 6235.00    3.53599   3.19319   -1.000
 6236.00    3.51583   3.20191   -1.000
 6237.00    3.47763   3.19350   -1.000
 6238.00    3.45578   3.17275   -1.000
 6239.00    3.39484   3.14647   -1.000
 6240.00    3.35253   3.12040   -1.000
 6241.00    3.33239   3.09851   -1.000
 6242.00    3.31095   3.08367   -1.000
 6243.00    3.30898   3.07804   -1.000
 6244.00    3.31204   3.08318   -1.000
 6245.00    3.33094   3.09910   -1.000
 6246.00    3.37227   3.12271   -1.000
 6247.00    3.44074   3.14744   -1.000
 6248.00    3.48744   3.16550   -1.000
 6249.00    3.48826   3.17036   -1.000
 6250.00    3.45850   3.15992   -1.000
 6251.00    3.39371   3.13717   -1.000
 6252.00    3.32430   3.10804   -1.000
 6253.00    3.28858   3.07854   -1.000
 6254.00    3.28132   3.05274   -1.000
 6255.00    3.27524   3.03351   -1.000
 6256.00    3.27203   3.02379   -1.000
 6257.00    3.23539   3.02667   -1.000
 6258.00    3.22835   3.04438   13.128
 6259.00    3.27476   3.07597   13.058
 6260.00    3.36361   3.11667   -1.000
 6261.00    3.44120   3.15881   -1.000
 6262.00    3.47506   3.19482   -1.000
 6263.00    3.48960   3.22031   -1.000
 6264.00    3.45496   3.23533   -1.000
 6265.00    3.41299   3.24278   13.203
 6266.00    3.39338   3.24606   13.189
 6267.00    3.43790   3.24810   13.144
 6268.00    3.46531   3.25071   -1.000
 6269.00    3.43341   3.25453   13.145
 6270.00    3.41975   3.25911   13.239
 6271.00    3.41408   3.26278   13.346
 6272.00    3.36713   3.26298   13.558
 6273.00    3.29158   3.25719   13.899
 6274.00    3.21710   3.24427   14.155
 6275.00    3.19941   3.22495   14.248
 6276.00    3.16125   3.20188   14.197
 6277.00    3.11831   3.17892   13.977
 6278.00    3.09275   3.16057   13.735
 6279.00    3.03575   3.15127   13.523
 6280.00    3.01399   3.15417   13.359
 6281.00    3.09472   3.16985   13.247
 6282.00    3.24728   3.19612   13.127
 6283.00    3.35128   3.22859   13.034
 6284.00    3.43949   3.26235   13.007
 6285.00    3.50024   3.29299   -1.000
 6286.00    3.53146   3.31696   -1.000
 6287.00    3.58169   3.33164   -1.000
 6288.00    3.61528   3.33569   -1.000
 6289.00    3.61220   3.32972   -1.000
 6290.00    3.59123   3.31636   -1.000
 6291.00    3.57901   3.29918   -1.000
 6292.00    3.55320   3.28112   -1.000
 6293.00    3.59625   3.26332   -1.000
 6294.00    3.59148   3.24571   -1.000
 6295.00    3.59468   3.22851   -1.000
 6296.00    3.58841   3.21273   -1.000
 6297.00    3.55833   3.19967   -1.000
 6298.00    3.53015   3.19005   -1.000
 6299.00    3.50780   3.18427   -1.000
 6300.00    3.47767   3.18294   -1.000
 6301.00    3.44947   3.18712   -1.000
 6302.00    3.41889   3.19818   -1.000
 6303.00    3.45147   3.21669   -1.000
 6304.00    3.47474   3.24168   -1.000
 6305.00    3.51515   3.27014   -1.000
 6306.00    3.55372   3.29748   -1.000
 6307.00    3.62482   3.31880   -1.000
 6308.00    3.67156   3.33057   -1.000
 6309.00    3.67636   3.33150   -1.000
 6310.00    3.62827   3.32268   -1.000
 6311.00    3.56142   3.30660   -1.000
 6312.00    3.53794   3.28599   -1.000
 6313.00    3.53784   3.26341   -1.000
 6314.00    3.52165   3.24104   -1.000
 6315.00    3.47834   3.22126   -1.000
 6316.00    3.44860   3.20738   -1.000
 6317.00    3.46978   3.20287   -1.000
 6318.00    3.50243   3.20971   -1.000
 6319.00    3.50780   3.22757   -1.000
 6320.00    3.55167   3.25380   -1.000
 6321.00    3.61893   3.28436   -1.000
 6322.00    3.64224   3.31507   -1.000
 6323.00    3.69302   3.34266   -1.000
 6324.00    3.72764   3.36521   -1.000
 6325.00    3.74007   3.38217   -1.000
 6326.00    3.72917   3.39391   -1.000
 6327.00    3.74066   3.40139   -1.000
 6328.00    3.73387   3.40593   -1.000
 6329.00    3.72756   3.40826   -1.000
 6330.00    3.72578   3.40763   -1.000
 6331.00    3.72607   3.40196   -1.000
 6332.00    3.74572   3.38909   -1.000
 6333.00    3.76491   3.36915   -1.000
 6334.00    3.72275   3.34578   -1.000
 6335.00    3.63047   3.32517   -1.000
 6336.00    3.58729   3.31338   -1.000
 6337.00    3.60806   3.31334   -1.000
 6338.00    3.67638   3.32293   -1.000
 6339.00    3.71220   3.33622   -1.000
 6340.00    3.73553   3.34682   -1.000
 6341.00    3.73297   3.35130   -1.000
 6342.00    3.71627   3.35096   -1.000
 6343.00    3.66343   3.35044   -1.000
 6344.00    3.63530   3.35497   -1.000
 6345.00    3.67595   3.36744   -1.000
 6346.00    3.73051   3.38706   -1.000
 6347.00    3.74836   3.40997   -1.000
 6348.00    3.78786   3.43116   -1.000
 6349.00    3.80577   3.44608   -1.000
 6350.00    3.77467   3.45163   -1.000
 6351.00    3.78543   3.44667   -1.000
 6352.00    3.79252   3.43209   -1.000
 6353.00    3.74012   3.41022   -1.000
 6354.00    3.67426   3.38365   -1.000
 6355.00    3.64661   3.35449   -1.000
 6356.00    3.64314   3.32402   -1.000
 6357.00    3.62639   3.29327   -1.000
 6358.00    3.59109   3.26372   -1.000
 6359.00    3.54932   3.23811   -1.000
 6360.00    3.55775   3.22013   -1.000
 6361.00    3.54903   3.21338   -1.000
 6362.00    3.51549   3.22008   -1.000
 6363.00    3.53429   3.24027   -1.000
 6364.00    3.58351   3.27165   -1.000
 6365.00    3.65158   3.30989   -1.000
 6366.00    3.70485   3.34980   -1.000
 6367.00    3.77015   3.38694   -1.000
 6368.00    3.81816   3.41865   -1.000
 6369.00    3.81723   3.44443   -1.000
 6370.00    3.82302   3.46507   -1.000
 6371.00    3.81542   3.48158   -1.000
 6372.00    3.80320   3.49434   -1.000
 6373.00    3.80961   3.50279   -1.000
 6374.00    3.79280   3.50591   -1.000
 6375.00    3.78495   3.50326   -1.000
 6376.00    3.80324   3.49558   -1.000
 6377.00    3.77534   3.48485   -1.000
 6378.00    3.72555   3.47389   -1.000
 6379.00    3.70073   3.46547   -1.000
 6380.00    3.68816   3.46133   -1.000
 6381.00    3.72830   3.46184   -1.000
 6382.00    3.74785   3.46626   -1.000
 6383.00    3.74849   3.47333   -1.000
 6384.00    3.73453   3.48173   -1.000
 6385.00    3.73332   3.49016   -1.000
 6386.00    3.73969   3.49700   -1.000
 6387.00    3.71715   3.49994   -1.000
 6388.00    3.71331   3.49634   -1.000
 6389.00    3.69940   3.48449   -1.000
 6390.00    3.69334   3.46515   -1.000
 6391.00    3.62345   3.44259   13.347
 6392.00    3.52020   3.42306   13.327
 6393.00    3.45790   3.41209   13.412
 6394.00    3.46513   3.41101   13.618
 6395.00    3.54221   3.41592   13.935
 6396.00    3.58907   3.42010   14.034
 6397.00    3.58258   3.41907   13.885
 6398.00    3.53177   3.41397   13.660
 6399.00    3.44181   3.41078   13.595
 6400.00    3.37748   3.41614   13.635
 6401.00    3.41886   3.43234   13.710
 6402.00    3.47523   3.45514   13.912
 6403.00    3.49538   3.47635   14.129
 6404.00    3.51622   3.48861   14.271
 6405.00    3.47542   3.48924   14.331
 6406.00    3.40650   3.48058   14.405
 6407.00    3.33949   3.46774   14.525
 6408.00    3.29813   3.45549   14.603
 6409.00    3.32249   3.44658   14.624
 6410.00    3.31002   3.44175   14.637
 6411.00    3.24873   3.44094   14.718
 6412.00    3.20648   3.44392   -1.000
 6413.00    3.19550   3.44989   -1.000
 6414.00    3.18618   3.45673   -1.000
 6415.00    3.18121   3.46107   -1.000
 6416.00    3.16945   3.45973   -1.000
 6417.00    3.14601   3.45178   -1.000
 6418.00    3.12759   3.43994   -1.000
 6419.00    3.05335   3.42990   -1.000
 6420.00    2.97933   3.42783   -1.000
 6421.00    2.94118   3.43731   -1.000
 6422.00    2.96223   3.45749   -1.000
 6423.00    3.01087   3.48339   -1.000
 6424.00    2.98423   3.50800   -1.000
 6425.00    2.93188   3.52471   -1.000
 6426.00    2.94016   3.52931   -1.000
 6427.00    0.17232   3.52105   -1.000
 6428.00    0.00000   3.50323   -2.000
