###################################################################
## OUTPUT of StarlightChains_v04.for    [Cid@UFSC - 01/Apr/2007] ##
###################################################################

## Some input info
NGC6304_a_1.cxt                          [arq_obs]
Base.BC03.S                              [arq_base]
NGC6304_a_1.msk                          [arq_masks]
StCv04.C11.config                        [arq_config]
  150                                    [N_base]
    0                                    [N_YAV_components = # of components with extra extinction!]
    0                                    [i_FitPowerLaw (1/0 = Yes/No)]
-9.99                                    [alpha_PowerLaw]
CCM                                      [red_law_option]
 1.458241                                [q_norm = A(l_norm)/A(V)]

## (Re)Sampling Parameters
 3359.00                                 [l_ini (A)]
 6428.00                                 [l_fin (A)]
    1.00                                 [dl    (A)]     (OBS: dl_cushion =    50.00 A)

## Normalization info
 4020.00                                 [l_norm (A) - for base]
 4010.00                                 [llow_norm (A) - window for f_obs]
 4060.00                                 [lupp_norm (A) - window for f_obs]
6.037552E-15                             [fobs_norm (in input units)]

## S/N
 4730.00                                 [llow_SN (A) - window for S/N]
 4780.00                                 [lupp_SN (A) - window for S/N]
  34.026                                 [S/N in S/N window]
  19.978                                 [S/N in norm. window]
 118.990                                 [S/N_err in S/N window]
  69.864                                 [S/N_err in norm. window]
  1.0000                                 [fscale_chi2]

## etc...
  2147483619                             [idum_orig]
  3066                                   [NOl_eff]
  1275                                   [Nl_eff]
  1791    NSIGMA                         [Ntot_cliped & clip_method]
  1851150                                [Nglobal_steps]
   7                                     [N_chains]
  27                                     [NEX0s_base = N_base in EX0s-fits]
 0   0   1      178   2.0   5.094E+02    [Clip-Bug, RC-Crash & Burn-In warning-flags, n_censored_weights, wei_nsig_threshold & wei_limit]
    63     62.490     62.482      0.008  [idt_all, wdt_TotTime, wdt_UsrTime & wdt_SysTime (sec)]

## Synthesis Results - Best model ##

 2.46488E+00                             [chi2/Nl_eff]
     2.27126                             [adev (%)]

    98.87212                             [sum-of-x (%)]
 3.44993E-14                             [Flux_tot (units of input spectrum!)]
 2.08758E-09                             [Mini_tot (???)]
 1.04186E-09                             [Mcor_tot (???)]

   6.54                                  [v0_min  (km/s)]
  36.73                                  [vd_min  (km/s)]
 1.3062                                  [AV_min  (mag)]
 0.0000                                  [YAV_min (mag)]

# j     x_j(%)      Mini_j(%)     Mcor_j(%)     age_j(yr)     Z_j      (L/M)_j    YAV?  Mstars   component_j        a/Fe...       SSP_chi2r SSP_adev(%)   SSP_AV   SSP_x(%)
  1      2.7643     5.6622E-03    1.1345E-02    1.000000E+06  0.00010  8.160E-03    0   1.0000   age020_m22            0.0000     2.3618E+03    36.6351   4.0000    89.6086
  2      9.3395     3.2802E-03    6.5725E-03    3.160000E+06  0.00010  4.759E-02    0   1.0000   age045_m22            0.0000     2.9315E+02     9.9157   3.6341    96.9644
  3      4.5288     3.9180E-03    7.5224E-03    5.010000E+06  0.00010  1.932E-02    0   0.9582   age055_m22            0.0000     4.4443E+02    16.0447   4.0000    86.2852
  4      0.0000     0.0000E+00    0.0000E+00    6.610000E+06  0.00010  9.973E-03    0   0.9297   age061_m22            0.0000     2.2829E+03    36.3009   4.0000    92.1238
  5      0.0000     0.0000E+00    0.0000E+00    8.710000E+06  0.00010  7.690E-03    0   0.9030   age067_m22            0.0000     2.2242E+03    35.9909   4.0000    92.5644
  6      0.3978     1.0429E-03    1.8603E-03    1.000000E+07  0.00010  6.375E-03    0   0.8902   age070_m22            0.0000     2.1974E+03    36.1403   4.0000    92.7214
  7      0.0000     0.0000E+00    0.0000E+00    1.445000E+07  0.00010  4.874E-03    0   0.8589   age078_m22            0.0000     1.7484E+03    31.7303   4.0000    95.4814
  8      0.0000     0.0000E+00    0.0000E+00    2.512000E+07  0.00010  4.103E-03    0   0.8174   age090_m22            0.0000     1.0163E+03    22.0231   4.0000   100.1451
  9      0.0000     0.0000E+00    0.0000E+00    4.000000E+07  0.00010  3.654E-03    0   0.7830   age104_m22            0.0000     7.4654E+02    15.2340   4.0000   102.2540
 10      0.0000     0.0000E+00    0.0000E+00    5.500000E+07  0.00010  3.093E-03    0   0.7597   age110_m22            0.0000     6.7060E+02    13.3103   4.0000   102.4915
 11      0.0000     0.0000E+00    0.0000E+00    1.015200E+08  0.00010  2.431E-03    0   0.7138   age116_m22            0.0000     5.9223E+02     8.6650   4.0000   101.2967
 12      0.0000     0.0000E+00    0.0000E+00    1.609000E+08  0.00010  1.319E-03    0   0.6775   age120_m22            0.0000     5.4724E+02     8.9228   3.7273   100.6545
 13      0.0000     0.0000E+00    0.0000E+00    2.861200E+08  0.00010  1.075E-03    0   0.6412   age125_m22            0.0000     8.6309E+02     9.5904   3.7044   103.3730
 14      0.0000     0.0000E+00    0.0000E+00    5.088000E+08  0.00010  7.183E-04    0   0.6083   age130_m22            0.0000     9.5764E+02    10.4977   3.4295   105.0158
 15      0.0000     0.0000E+00    0.0000E+00    9.047900E+08  0.00010  4.524E-04    0   0.5785   age135_m22            0.0000     9.5561E+02    10.5557   3.2213   106.3176
 16      0.0000     0.0000E+00    0.0000E+00    1.278050E+09  0.00010  3.018E-04    0   0.5588   age138_m22            0.0000     6.1400E+02     8.2541   2.7183   104.9425
 17      0.0000     0.0000E+00    0.0000E+00    1.434000E+09  0.00010  2.691E-04    0   0.5532   age139_m22            0.0000     5.4844E+02     7.8585   2.5684   104.4559
 18      0.0000     0.0000E+00    0.0000E+00    2.500000E+09  0.00010  1.582E-04    0   0.5296   age150_m22            0.0000     5.2534E+02     7.8793   2.4944   105.2403
 19      0.0000     0.0000E+00    0.0000E+00    4.250000E+09  0.00010  1.007E-04    0   0.5110   age158_m22            0.0000     3.9820E+02     7.2999   2.3629   103.9130
 20      0.0001     1.4509E-05    1.4492E-05    6.250000E+09  0.00010  6.869E-05    0   0.4985   age166_m22            0.0000     2.9449E+02     7.0751   2.3268   101.4442
 21      0.0000     0.0000E+00    0.0000E+00    7.500000E+09  0.00010  5.873E-05    0   0.4931   age171_m22            0.0000     2.8690E+02     7.2811   2.3282   100.9371
 22      0.0000     0.0000E+00    0.0000E+00    1.000000E+10  0.00010  4.481E-05    0   0.4854   age181_m22            0.0000     2.7950E+02     7.1557   2.2852   100.5725
 23      0.0000     0.0000E+00    0.0000E+00    1.300000E+10  0.00010  3.489E-05    0   0.4791   age193_m22            0.0000     2.6374E+02     6.9443   2.2217   100.0580
 24      0.0000     2.6344E-05    2.5158E-05    1.500000E+10  0.00010  3.035E-05    0   0.4766   age201_m22            0.0000     2.5507E+02     6.8693   2.1825    99.8959
 25      0.0022     1.4936E-03    1.4170E-03    1.800000E+10  0.00010  2.510E-05    0   0.4735   age213_m22            0.0000     2.3566E+02     6.7311   2.1139    99.3657
 26      2.8890     5.7093E-03    1.1440E-02    1.000000E+06  0.00040  8.458E-03    0   1.0000   age020_m32            0.0000     2.3643E+03    37.0168   4.0000    90.1781
 27      0.0000     0.0000E+00    0.0000E+00    3.160000E+06  0.00040  3.973E-02    0   1.0000   age045_m32            0.0000     9.1740E+02    19.7750   4.0000    99.7107
 28      0.0000     0.0000E+00    0.0000E+00    5.010000E+06  0.00040  1.935E-02    0   0.9532   age055_m32            0.0000     1.4444E+03    26.1886   4.0000    95.0820
 29      0.0000     0.0000E+00    0.0000E+00    6.610000E+06  0.00040  1.204E-02    0   0.9243   age061_m32            0.0000     1.9452E+03    32.9519   4.0000    94.0750
 30      0.0036     6.3850E-06    1.1516E-05    8.710000E+06  0.00040  9.433E-03    0   0.9001   age067_m32            0.0000     1.8358E+03    32.1179   4.0000    94.9572
 31      0.0000     0.0000E+00    0.0000E+00    1.000000E+07  0.00040  8.053E-03    0   0.8877   age070_m32            0.0000     1.7573E+03    31.2722   4.0000    95.3530
 32      0.0000     0.0000E+00    0.0000E+00    1.445000E+07  0.00040  7.027E-03    0   0.8578   age078_m32            0.0000     9.5236E+02    19.3085   4.0000    98.2179
 33      0.0000     0.0000E+00    0.0000E+00    2.512000E+07  0.00040  4.707E-03    0   0.8166   age090_m32            0.0000     6.3253E+02    12.5537   4.0000    99.4727
 34      0.0000     0.0000E+00    0.0000E+00    4.000000E+07  0.00040  3.714E-03    0   0.7827   age104_m32            0.0000     5.3318E+02     9.1743   4.0000   100.2619
 35      0.0000     0.0000E+00    0.0000E+00    5.500000E+07  0.00040  2.982E-03    0   0.7593   age110_m32            0.0000     5.3067E+02     8.7602   4.0000   100.4152
 36      0.0000     0.0000E+00    0.0000E+00    1.015200E+08  0.00040  2.188E-03    0   0.7143   age116_m32            0.0000     6.4621E+02     9.2848   3.9771   100.3353
 37      0.0000     0.0000E+00    0.0000E+00    1.609000E+08  0.00040  1.690E-03    0   0.6856   age120_m32            0.0000     7.7660E+02     9.2766   3.7310   102.6847
 38      0.0000     0.0000E+00    0.0000E+00    2.861200E+08  0.00040  1.152E-03    0   0.6509   age125_m32            0.0000     8.8281E+02     9.7681   3.4427   104.4192
 39      0.0000     0.0000E+00    0.0000E+00    5.088000E+08  0.00040  7.331E-04    0   0.6182   age130_m32            0.0000     9.0991E+02    10.2913   3.2443   105.2595
 40      0.0000     0.0000E+00    0.0000E+00    9.047900E+08  0.00040  3.960E-04    0   0.5890   age135_m32            0.0000     6.1921E+02     8.4876   2.7895   104.3354
 41      0.0000     0.0000E+00    0.0000E+00    1.278050E+09  0.00040  2.854E-04    0   0.5687   age138_m32            0.0000     5.6448E+02     7.9327   2.5470   106.2710
 42      0.0000     0.0000E+00    0.0000E+00    1.434000E+09  0.00040  2.531E-04    0   0.5632   age139_m32            0.0000     5.5321E+02     7.8882   2.4885   106.2092
 43      0.0000     0.0000E+00    0.0000E+00    2.500000E+09  0.00040  1.488E-04    0   0.5386   age150_m32            0.0000     4.4178E+02     7.2305   2.2327   104.5514
 44      0.0000     0.0000E+00    0.0000E+00    4.250000E+09  0.00040  9.082E-05    0   0.5199   age158_m32            0.0000     2.7179E+02     6.4063   2.1610   101.6819
 45      1.0273     2.6989E-01    2.7450E-01    6.250000E+09  0.00040  6.362E-05    0   0.5076   age166_m32            0.0000     1.8996E+02     6.6503   2.1596    98.7438
 46      1.3461     4.2539E-01    4.2848E-01    7.500000E+09  0.00040  5.289E-05    0   0.5027   age171_m32            0.0000     1.7114E+02     6.4994   2.1198    97.5607
 47      0.0000     0.0000E+00    0.0000E+00    1.000000E+10  0.00040  3.972E-05    0   0.4948   age181_m32            0.0000     1.5360E+02     6.1962   2.0473    96.2093
 48      0.0001     6.5794E-05    6.4202E-05    1.300000E+10  0.00040  3.283E-05    0   0.4870   age193_m32            0.0000     1.8639E+02     5.8887   1.9801    98.7957
 49      0.0000     0.0000E+00    0.0000E+00    1.500000E+10  0.00040  2.925E-05    0   0.4854   age201_m32            0.0000     2.1333E+02     5.8517   1.9513   100.2811
 50      0.0000     0.0000E+00    0.0000E+00    1.800000E+10  0.00040  2.469E-05    0   0.4819   age213_m32            0.0000     2.2203E+02     5.7448   1.9010   100.7771
 51      0.2551     3.8282E-04    7.6706E-04    1.000000E+06  0.00400  1.114E-02    0   1.0000   age020_m42            0.0000     2.2140E+03    35.3463   4.0000    90.6543
 52      0.0000     0.0000E+00    0.0000E+00    3.160000E+06  0.00400  4.073E-02    0   0.9999   age045_m42            0.0000     5.4460E+02    12.8448   4.0000    99.6085
 53      0.0000     0.0000E+00    0.0000E+00    5.010000E+06  0.00400  2.534E-02    0   0.9488   age055_m42            0.0000     1.1051E+03    22.4000   4.0000    96.8563
 54      0.0001     6.4553E-08    1.1926E-07    6.610000E+06  0.00400  2.583E-02    0   0.9220   age061_m42            0.0000     4.7955E+02     9.4597   4.0000    98.5907
 55      0.0000     0.0000E+00    0.0000E+00    8.710000E+06  0.00400  1.706E-02    0   0.8983   age067_m42            0.0000     4.2969E+02     9.4058   4.0000    95.7681
 56      0.0000     0.0000E+00    0.0000E+00    1.000000E+07  0.00400  1.271E-02    0   0.8862   age070_m42            0.0000     4.7074E+02    10.3731   4.0000    94.6593
 57      0.0000     0.0000E+00    0.0000E+00    1.445000E+07  0.00400  7.666E-03    0   0.8571   age078_m42            0.0000     7.7075E+02    14.3489   4.0000    95.1993
 58      0.0000     0.0000E+00    0.0000E+00    2.512000E+07  0.00400  5.070E-03    0   0.8174   age090_m42            0.0000     3.8972E+02    10.7688   4.0000    94.7486
 59      0.0000     0.0000E+00    0.0000E+00    4.000000E+07  0.00400  3.505E-03    0   0.7851   age104_m42            0.0000     3.1280E+02    10.7330   3.8063    95.3436
 60      0.0000     0.0000E+00    0.0000E+00    5.500000E+07  0.00400  3.059E-03    0   0.7629   age110_m42            0.0000     4.0416E+02     8.2501   3.7835    99.1227
 61      0.0000     0.0000E+00    0.0000E+00    1.015200E+08  0.00400  2.268E-03    0   0.7207   age116_m42            0.0000     6.8041E+02     8.3229   3.6135   103.7518
 62      0.0000     0.0000E+00    0.0000E+00    1.609000E+08  0.00400  1.720E-03    0   0.6930   age120_m42            0.0000     7.0098E+02     8.4980   3.4368   105.4850
 63      0.0000     0.0000E+00    0.0000E+00    2.861200E+08  0.00400  1.079E-03    0   0.6613   age125_m42            0.0000     6.9235E+02     8.6628   3.0540   105.8213
 64      0.0000     0.0000E+00    0.0000E+00    5.088000E+08  0.00400  6.261E-04    0   0.6313   age130_m42            0.0000     7.5510E+02     8.8418   2.8676   108.8388
 65      0.0000     0.0000E+00    0.0000E+00    9.047900E+08  0.00400  3.535E-04    0   0.6024   age135_m42            0.0000     5.2032E+02     7.3045   2.4679   109.5870
 66      0.0000     0.0000E+00    0.0000E+00    1.278050E+09  0.00400  2.677E-04    0   0.5837   age138_m42            0.0000     2.0728E+02     6.3384   1.6896   107.4361
 67      0.0000     0.0000E+00    0.0000E+00    1.434000E+09  0.00400  1.910E-04    0   0.5716   age139_m42            0.0000     2.7715E+02     6.3557   1.8773   108.2911
 68      0.0000     0.0000E+00    0.0000E+00    2.500000E+09  0.00400  9.818E-05    0   0.5463   age150_m42            0.0000     9.9654E+01     4.5831   1.6097   103.5741
 69      0.0001     3.7442E-05    3.9529E-05    4.250000E+09  0.00400  5.491E-05    0   0.5269   age158_m42            0.0000     4.9120E+01     3.6714   1.4982   100.7881
 70      0.0000     0.0000E+00    0.0000E+00    6.250000E+09  0.00400  3.857E-05    0   0.5151   age166_m42            0.0000     3.2451E+01     3.8788   1.3497    99.4797
 71      0.0000     0.0000E+00    0.0000E+00    7.500000E+09  0.00400  3.243E-05    0   0.5110   age171_m42            0.0000     2.8256E+01     4.2101   1.2537    98.9200
 72      0.0000     0.0000E+00    0.0000E+00    1.000000E+10  0.00400  2.424E-05    0   0.5028   age181_m42            0.0000     2.5861E+01     4.6499   1.1546    98.2825
 73      0.0000     0.0000E+00    0.0000E+00    1.300000E+10  0.00400  1.883E-05    0   0.4927   age193_m42            0.0000     2.5947E+01     4.9753   1.1049    97.9644
 74      0.0000     0.0000E+00    0.0000E+00    1.500000E+10  0.00400  1.685E-05    0   0.4919   age201_m42            0.0000     2.5165E+01     4.8372   1.1136    97.9735
 75      0.0000     0.0000E+00    0.0000E+00    1.800000E+10  0.00400  1.452E-05    0   0.4874   age213_m42            0.0000     2.4241E+01     4.6216   1.1354    98.2493
 76      0.0000     0.0000E+00    0.0000E+00    1.000000E+06  0.00800  1.286E-02    0   1.0000   age020_m52            0.0000     2.0697E+03    34.6282   4.0000    92.3516
 77      0.0000     0.0000E+00    0.0000E+00    3.160000E+06  0.00800  3.147E-02    0   0.9966   age045_m52            0.0000     1.9433E+03    32.8310   4.0000    93.8419
 78      0.0000     0.0000E+00    0.0000E+00    5.010000E+06  0.00800  2.664E-02    0   0.9443   age055_m52            0.0000     1.3179E+03    25.0896   4.0000    96.5770
 79      0.0000     0.0000E+00    0.0000E+00    6.610000E+06  0.00800  2.151E-02    0   0.9177   age061_m52            0.0000     2.8876E+02    12.8067   3.8913    92.9121
 80      0.0000     0.0000E+00    0.0000E+00    8.710000E+06  0.00800  1.628E-02    0   0.8948   age067_m52            0.0000     4.1882E+02     9.7618   4.0000    95.9880
 81      0.0000     0.0000E+00    0.0000E+00    1.000000E+07  0.00800  1.215E-02    0   0.8827   age070_m52            0.0000     6.5529E+02    12.2488   4.0000    97.4404
 82      0.0000     0.0000E+00    0.0000E+00    1.445000E+07  0.00800  8.739E-03    0   0.8552   age078_m52            0.0000     6.7315E+02    12.8398   4.0000    98.9034
 83      0.0000     0.0000E+00    0.0000E+00    2.512000E+07  0.00800  5.676E-03    0   0.8162   age090_m52            0.0000     4.7844E+02     8.9531   4.0000    98.9252
 84      0.0000     0.0000E+00    0.0000E+00    4.000000E+07  0.00800  3.939E-03    0   0.7841   age104_m52            0.0000     4.6472E+02     9.5356   4.0000    98.6189
 85      0.0000     0.0000E+00    0.0000E+00    5.500000E+07  0.00800  3.155E-03    0   0.7627   age110_m52            0.0000     5.0636E+02     9.1065   3.9630    99.8676
 86      0.0000     0.0000E+00    0.0000E+00    1.015200E+08  0.00800  2.206E-03    0   0.7226   age116_m52            0.0000     5.9753E+02     8.2549   3.6996   103.8709
 87      0.0000     0.0000E+00    0.0000E+00    1.609000E+08  0.00800  1.596E-03    0   0.6963   age120_m52            0.0000     6.4114E+02     8.1498   3.4464   105.5958
 88      0.0000     0.0000E+00    0.0000E+00    2.861200E+08  0.00800  1.002E-03    0   0.6665   age125_m52            0.0000     7.6948E+02     9.5148   3.0613   108.2413
 89      0.0000     0.0000E+00    0.0000E+00    5.088000E+08  0.00800  5.759E-04    0   0.6377   age130_m52            0.0000     7.5903E+02    10.4485   2.6475   112.6944
 90      0.0000     0.0000E+00    0.0000E+00    9.047900E+08  0.00800  2.972E-04    0   0.6086   age135_m52            0.0000     4.4772E+02     9.4608   2.0650   111.7776
 91      0.0000     0.0000E+00    0.0000E+00    1.278050E+09  0.00800  2.242E-04    0   0.5907   age138_m52            0.0000     1.7769E+02     7.1259   1.4676   110.3320
 92      0.0000     0.0000E+00    0.0000E+00    1.434000E+09  0.00800  1.645E-04    0   0.5787   age139_m52            0.0000     1.7169E+02     6.3357   1.6444   109.7535
 93      0.0000     0.0000E+00    0.0000E+00    2.500000E+09  0.00800  7.723E-05    0   0.5519   age150_m52            0.0000     6.6169E+01     5.1368   1.3136   106.0151
 94      0.3470     1.3973E-01    1.4895E-01    4.250000E+09  0.00800  4.151E-05    0   0.5320   age158_m52            0.0000     4.1841E+01     4.5978   1.2565   103.3726
 95      0.0000     0.0000E+00    0.0000E+00    6.250000E+09  0.00800  3.010E-05    0   0.5197   age166_m52            0.0000     3.0416E+01     5.0958   1.0369   101.9577
 96      0.0000     0.0000E+00    0.0000E+00    7.500000E+09  0.00800  2.467E-05    0   0.5139   age171_m52            0.0000     3.0768E+01     5.3667   0.9855   101.5688
 97     11.0927     9.9575E+00    1.0084E+01    1.000000E+10  0.00800  1.862E-05    0   0.5054   age181_m52            0.0000     3.8330E+01     6.3590   0.8231   101.2713
 98     14.8271     1.7294E+01    1.7285E+01    1.300000E+10  0.00800  1.433E-05    0   0.4988   age193_m52            0.0000     5.1291E+01     7.2960   0.7001   102.0463
 99     22.7432     3.0558E+01    3.0223E+01    1.500000E+10  0.00800  1.244E-05    0   0.4936   age201_m52            0.0000     5.8678E+01     7.6694   0.6600   102.5619
100      8.5228     1.3313E+01    1.3039E+01    1.800000E+10  0.00800  1.070E-05    0   0.4888   age213_m52            0.0000     6.4807E+01     8.0244   0.6143   102.4586
101      0.0000     0.0000E+00    0.0000E+00    1.000000E+06  0.02000  1.989E-02    0   1.0000   age020_m62            0.0000     2.1485E+03    34.3843   4.0000    91.4285
102      0.0000     0.0000E+00    0.0000E+00    3.160000E+06  0.02000  3.772E-02    0   0.9858   age045_m62            0.0000     1.9001E+03    31.3920   4.0000    93.6051
103      0.0000     0.0000E+00    0.0000E+00    5.010000E+06  0.02000  3.227E-02    0   0.9342   age055_m62            0.0000     9.0722E+02    18.6689   4.0000    98.9770
104      0.0000     0.0000E+00    0.0000E+00    6.610000E+06  0.02000  2.387E-02    0   0.9090   age061_m62            0.0000     7.8152E+02    13.8605   4.0000    97.0093
105      0.0000     0.0000E+00    0.0000E+00    8.710000E+06  0.02000  1.102E-02    0   0.8861   age067_m62            0.0000     8.4801E+02    15.5234   4.0000    90.7841
106      0.0000     0.0000E+00    0.0000E+00    1.000000E+07  0.02000  1.011E-02    0   0.8751   age070_m62            0.0000     6.6692E+02    13.2973   4.0000    92.7393
107      0.0000     0.0000E+00    0.0000E+00    1.445000E+07  0.02000  7.331E-03    0   0.8472   age078_m62            0.0000     5.5495E+02    11.5502   4.0000    93.8618
108      0.0000     0.0000E+00    0.0000E+00    2.512000E+07  0.02000  4.206E-03    0   0.8099   age090_m62            0.0000     5.1942E+02    11.8624   4.0000    92.5687
109      0.0000     0.0000E+00    0.0000E+00    4.000000E+07  0.02000  3.373E-03    0   0.7799   age104_m62            0.0000     3.9473E+02    10.6873   4.0000    96.9584
110      0.0000     0.0000E+00    0.0000E+00    5.500000E+07  0.02000  2.747E-03    0   0.7595   age110_m62            0.0000     4.6531E+02     9.1880   3.8936    99.8368
111      0.0000     0.0000E+00    0.0000E+00    1.015200E+08  0.02000  1.878E-03    0   0.7221   age116_m62            0.0000     6.6023E+02     8.4778   3.6813   104.2511
112      0.0000     0.0000E+00    0.0000E+00    1.609000E+08  0.02000  1.378E-03    0   0.6978   age120_m62            0.0000     7.8708E+02     8.7140   3.4774   106.6832
113      0.0000     0.0000E+00    0.0000E+00    2.861200E+08  0.02000  8.869E-04    0   0.6700   age125_m62            0.0000     9.7848E+02    10.2090   3.0325   111.0107
114      0.0000     0.0000E+00    0.0000E+00    5.088000E+08  0.02000  4.834E-04    0   0.6430   age130_m62            0.0000     8.1985E+02    10.8707   2.5063   114.1108
115      0.0000     0.0000E+00    0.0000E+00    9.047900E+08  0.02000  2.312E-04    0   0.6152   age135_m62            0.0000     4.0109E+02     8.6287   1.8892   113.7846
116      0.0000     0.0000E+00    0.0000E+00    1.278050E+09  0.02000  1.387E-04    0   0.5927   age138_m62            0.0000     1.7098E+02     6.4569   1.5202   109.4534
117      0.0000     0.0000E+00    0.0000E+00    1.434000E+09  0.02000  1.168E-04    0   0.5865   age139_m62            0.0000     1.3552E+02     6.0015   1.4996   107.8246
118      0.0000     0.0000E+00    0.0000E+00    2.500000E+09  0.02000  5.505E-05    0   0.5610   age150_m62            0.0000     5.7180E+01     5.8322   1.1072   104.8923
119      0.0491     2.6706E-02    2.8934E-02    4.250000E+09  0.02000  3.070E-05    0   0.5407   age158_m62            0.0000     6.6358E+01     7.7342   0.7436   104.9531
120      1.5784     1.2539E+00    1.3259E+00    6.250000E+09  0.02000  2.104E-05    0   0.5277   age166_m62            0.0000     8.4195E+01     8.7557   0.5787   105.4978
121      1.4437     1.3633E+00    1.4267E+00    7.500000E+09  0.02000  1.770E-05    0   0.5223   age171_m62            0.0000     9.6892E+01     9.4150   0.4675   105.9875
122      7.6401     9.8459E+00    1.0103E+01    1.000000E+10  0.02000  1.297E-05    0   0.5121   age181_m62            0.0000     1.2737E+02    10.7439   0.2630   106.7130
123      4.2211     7.2803E+00    7.3623E+00    1.300000E+10  0.02000  9.691E-06    0   0.5047   age193_m62            0.0000     1.5086E+02    11.6799   0.1470   107.2374
124      2.5474     5.0932E+00    5.1016E+00    1.500000E+10  0.02000  8.360E-06    0   0.4999   age201_m62            0.0000     1.7329E+02    12.5069   0.0443   107.7050
125      1.3052     3.1567E+00    3.1284E+00    1.800000E+10  0.02000  6.911E-06    0   0.4946   age213_m62            0.0000     2.0318E+02    13.5816  -0.0751   108.3500
126      0.0000     0.0000E+00    0.0000E+00    1.000000E+06  0.05000  2.651E-02    0   0.9998   age020_m72            0.0000     2.1175E+03    33.9457   4.0000    92.5375
127      0.0000     0.0000E+00    0.0000E+00    3.160000E+06  0.05000  4.817E-02    0   0.9577   age045_m72            0.0000     1.5334E+03    27.2778   4.0000    96.9263
128      0.0000     0.0000E+00    0.0000E+00    5.010000E+06  0.05000  3.101E-02    0   0.9147   age055_m72            0.0000     1.0470E+03    19.4180   4.0000    97.9539
129      0.0000     0.0000E+00    0.0000E+00    6.610000E+06  0.05000  1.472E-02    0   0.8877   age061_m72            0.0000     8.9070E+02    14.0133   4.0000    93.6938
130      0.0000     0.0000E+00    0.0000E+00    8.710000E+06  0.05000  1.050E-02    0   0.8638   age067_m72            0.0000     1.1169E+03    18.8889   4.0000    96.3387
131      0.0000     0.0000E+00    0.0000E+00    1.000000E+07  0.05000  8.954E-03    0   0.8524   age070_m72            0.0000     1.3096E+03    24.2497   4.0000    97.7382
132      0.0000     0.0000E+00    0.0000E+00    1.445000E+07  0.05000  6.392E-03    0   0.8262   age078_m72            0.0000     1.1653E+03    22.8021   4.0000    98.5130
133      0.0000     0.0000E+00    0.0000E+00    2.512000E+07  0.05000  4.207E-03    0   0.7902   age090_m72            0.0000     6.5734E+02    14.0873   4.0000   100.2056
134      0.0000     0.0000E+00    0.0000E+00    4.000000E+07  0.05000  3.198E-03    0   0.7618   age104_m72            0.0000     5.1721E+02     7.8151   4.0000   101.3211
135      0.0000     0.0000E+00    0.0000E+00    5.500000E+07  0.05000  2.593E-03    0   0.7432   age110_m72            0.0000     5.9022E+02     8.2511   3.9689   102.0072
136      0.0000     0.0000E+00    0.0000E+00    1.015200E+08  0.05000  1.716E-03    0   0.7092   age116_m72            0.0000     7.2711E+02     8.4915   3.7428   104.4411
137      0.0000     0.0000E+00    0.0000E+00    1.609000E+08  0.05000  1.218E-03    0   0.6876   age120_m72            0.0000     8.5129E+02     9.0237   3.4139   107.3610
138      0.0000     0.0000E+00    0.0000E+00    2.861200E+08  0.05000  7.047E-04    0   0.6618   age125_m72            0.0000     9.0698E+02    10.6771   2.7671   111.9015
139      0.0000     0.0000E+00    0.0000E+00    5.088000E+08  0.05000  3.590E-04    0   0.6356   age130_m72            0.0000     6.5886E+02    11.1351   2.0924   115.4313
140      0.0000     0.0000E+00    0.0000E+00    9.047900E+08  0.05000  1.484E-04    0   0.6088   age135_m72            0.0000     1.9528E+02     8.3683   1.3533   108.8216
141      0.0000     0.0000E+00    0.0000E+00    1.278050E+09  0.05000  9.435E-05    0   0.5924   age138_m72            0.0000     1.0765E+02     8.5413   0.9053   106.1110
142      0.0000     0.0000E+00    0.0000E+00    1.434000E+09  0.05000  7.827E-05    0   0.5847   age139_m72            0.0000     9.1244E+01     7.9779   0.9364   105.4203
143      0.0000     0.0000E+00    0.0000E+00    2.500000E+09  0.05000  3.759E-05    0   0.5583   age150_m72            0.0000     8.6823E+01     8.8997   0.5849   104.7207
144      0.0000     0.0000E+00    0.0000E+00    4.250000E+09  0.05000  1.842E-05    0   0.5374   age158_m72            0.0000     1.2498E+02    11.0228   0.1948   104.3986
145      0.0000     0.0000E+00    0.0000E+00    6.250000E+09  0.05000  1.207E-05    0   0.5242   age166_m72            0.0000     1.7550E+02    13.3084  -0.1428   104.7589
146      0.0000     0.0000E+00    0.0000E+00    7.500000E+09  0.05000  9.993E-06    0   0.5183   age171_m72            0.0000     1.8402E+02    13.7174  -0.2065   104.8570
147      0.0000     0.0000E+00    0.0000E+00    1.000000E+10  0.05000  7.291E-06    0   0.5081   age181_m72            0.0000     2.2928E+02    15.5729  -0.4183   105.5004
148      0.0000     0.0000E+00    0.0000E+00    1.300000E+10  0.05000  5.316E-06    0   0.5018   age193_m72            0.0000     3.0555E+02    18.2846  -0.7407   106.7107
149      0.0000     0.0000E+00    0.0000E+00    1.500000E+10  0.05000  4.497E-06    0   0.4972   age201_m72            0.0000     3.4753E+02    19.6465  -0.8866   107.7230
150      0.0000     0.0000E+00    0.0000E+00    1.800000E+10  0.05000  3.739E-06    0   0.4924   age213_m72            0.0000     4.0436E+02    20.3113  -1.0000   107.7612


## Synthesis Results - Average & Chains ##

# j      x_j: min, <> & last-chain-values for 1 ...  7 chains
  1      2.7643      2.5083      2.6693      2.6939      2.5742      2.5964      2.4265      2.6297      2.6880
  2      9.3395      7.4758      7.7845      7.6547      7.4681      7.7148      7.5940      7.5102      7.7028
  3      4.5288      3.5243      3.5801      3.5869      3.7781      3.6556      4.1027      3.5844      3.5347
  4      0.0000      0.1173      0.0695      0.0953      0.0982      0.2010      0.0559      0.0000      0.0822
  5      0.0000      0.0714      0.1758      0.0000      0.0000      0.0000      0.0000      0.2276      0.0381
  6      0.3978      0.1872      0.1876      0.4038      0.2989      0.2308      0.5504      0.1757      0.0000
  7      0.0000      0.0503      0.0805      0.0000      0.0000      0.1057      0.0348      0.0769      0.0790
  8      0.0000      0.0272      0.0000      0.1474      0.0000      0.0755      0.0000      0.0000      0.1120
  9      0.0000      0.0147      0.0000      0.0000      0.0000      0.0000      0.0468      0.0000      0.0000
 10      0.0000      0.0162      0.0000      0.0000      0.0000      0.0000      0.0762      0.0000      0.0000
 11      0.0000      0.0126      0.0000      0.0156      0.0000      0.0000      0.0000      0.0112      0.0000
 12      0.0000      0.0045      0.0000      0.0000      0.0000      0.0000      0.0000      0.0000      0.0000
 13      0.0000      0.0036      0.0000      0.0000      0.0000      0.0000      0.0000      0.0000      0.0000
 14      0.0000      0.0026      0.0000      0.0000      0.0000      0.0000      0.0000      0.0000      0.0000
 15      0.0000      0.0024      0.0000      0.0000      0.0000      0.0000      0.0261      0.0000      0.0000
 16      0.0000      0.0074      0.0000      0.0000      0.0000      0.0000      0.0000      0.0000      0.0000
 17      0.0000      0.0074      0.0000      0.0000      0.0000      0.0000      0.0000      0.0016      0.0000
 18      0.0000      0.0132      0.1404      0.0000      0.0000      0.0000      0.0000      0.0000      0.0000
 19      0.0000      0.0381      0.0000      0.0000      0.0210      0.0000      0.0000      0.0000      0.0000
 20      0.0001      0.0522      0.2933      0.0000      0.0000      0.0000      0.0851      0.0000      0.1350
 21      0.0000      0.0607      0.0088      0.1609      0.1311      0.0284      0.0000      0.0000      0.0000
 22      0.0000      0.0871      0.0000      0.2454      0.0000      0.0426      0.0000      0.1112      0.0000
 23      0.0000      0.0992      0.0000      0.0000      0.0121      0.0000      0.1986      0.4915      0.0000
 24      0.0000      0.1362      0.5697      0.0411      0.2061      0.2093      0.3266      0.0000      0.2987
 25      0.0022      0.2355      0.3110      0.2416      0.2189      0.0000      0.0579      0.3276      0.1449
 26      2.8890      2.5453      2.5432      2.5424      2.4151      2.5668      2.5625      2.7480      2.5668
 27      0.0000      0.0316      0.1175      0.1371      0.0000      0.0578      0.0000      0.0000      0.0000
 28      0.0000      0.0210      0.0000      0.0000      0.0622      0.0000      0.0160      0.0000      0.0000
 29      0.0000      0.0570      0.0418      0.0204      0.0350      0.0000      0.0000      0.0082      0.0541
 30      0.0036      0.0647      0.2360      0.1266      0.3811      0.0411      0.0000      0.0000      0.0000
 31      0.0000      0.0397      0.0000      0.0000      0.1197      0.0000      0.1660      0.0000      0.0000
 32      0.0000      0.0287      0.0000      0.0625      0.0139      0.0000      0.0000      0.0227      0.0000
 33      0.0000      0.0174      0.0000      0.0000      0.0000      0.0000      0.0000      0.0849      0.0923
 34      0.0000      0.0122      0.0000      0.0000      0.0000      0.0617      0.0000      0.0180      0.0000
 35      0.0000      0.0128      0.0000      0.0000      0.0000      0.0000      0.0070      0.0000      0.0174
 36      0.0000      0.0099      0.0000      0.0000      0.0000      0.0000      0.0000      0.0000      0.0000
 37      0.0000      0.0044      0.0000      0.0000      0.0000      0.0000      0.0000      0.0000      0.0000
 38      0.0000      0.0030      0.0000      0.0000      0.0000      0.0000      0.0398      0.0000      0.0000
 39      0.0000      0.0037      0.0000      0.0000      0.0000      0.0000      0.0000      0.0000      0.0000
 40      0.0000      0.0050      0.0000      0.0000      0.0000      0.0000      0.0000      0.0000      0.0000
 41      0.0000      0.0155      0.0000      0.0000      0.0000      0.2287      0.0000      0.0000      0.0564
 42      0.0000      0.0123      0.0000      0.0000      0.0000      0.0000      0.0000      0.0000      0.0000
 43      0.0000      0.0182      0.0000      0.0000      0.0000      0.0000      0.0000      0.0000      0.0000
 44      0.0000      0.1181      0.0000      0.1951      0.3219      0.0000      0.0000      0.5542      0.0000
 45      1.0273      0.2935      0.5453      0.3113      0.7015      0.2452      0.4014      0.0000      0.4191
 46      1.3461      0.4890      0.7115      0.5406      0.4791      0.7416      0.4351      0.5766      0.5810
 47      0.0000      0.2567      0.1243      0.3125      0.0000      0.9318      0.2971      0.3415      0.2235
 48      0.0001      0.2329      0.2287      0.1930      0.0771      0.1504      0.0268      0.0000      0.5001
 49      0.0000      0.0898      0.0000      0.0510      0.1146      0.0000      0.0398      0.0000      0.0000
 50      0.0000      0.1222      0.0000      0.0386      0.1146      0.0000      0.0000      0.0000      0.0000
 51      0.2551      0.6511      0.7177      0.6629      0.6536      0.8104      0.6586      0.6455      0.7084
 52      0.0000      0.0291      0.0000      0.0685      0.0000      0.0000      0.1659      0.0000      0.0000
 53      0.0000      0.0364      0.0434      0.0000      0.0000      0.0227      0.1095      0.0000      0.0296
 54      0.0001      0.5981      0.5589      0.3151      0.4490      0.5001      0.5401      0.7334      0.5096
 55      0.0000      0.3339      0.1506      0.1681      0.3587      0.2823      0.1884      0.3055      0.3202
 56      0.0000      0.0195      0.0000      0.0000      0.0000      0.0716      0.0871      0.0000      0.0000
 57      0.0000      0.0202      0.0000      0.0000      0.0257      0.0000      0.0000      0.0000      0.0000
 58      0.0000      0.0209      0.1251      0.0000      0.0000      0.0000      0.0000      0.0000      0.1390
 59      0.0000      0.0088      0.0000      0.0000      0.0031      0.0000      0.0000      0.0000      0.0000
 60      0.0000      0.0064      0.0000      0.0000      0.0000      0.0000      0.0000      0.0000      0.0000
 61      0.0000      0.0038      0.0000      0.0000      0.1104      0.0000      0.0000      0.0000      0.0000
 62      0.0000      0.0079      0.0000      0.0000      0.0000      0.0000      0.0000      0.0000      0.0000
 63      0.0000      0.0048      0.0000      0.0407      0.0000      0.0000      0.0636      0.0000      0.0000
 64      0.0000      0.0045      0.0000      0.0000      0.0000      0.0000      0.0000      0.0000      0.0000
 65      0.0000      0.0278      0.0000      0.0000      0.2778      0.0000      0.0000      0.0084      0.1130
 66      0.0000      0.0206      0.0000      0.0783      0.0000      0.0000      0.0612      0.0000      0.0000
 67      0.0000      0.0193      0.0000      0.0000      0.0000      0.0348      0.0000      0.0000      0.0000
 68      0.0000      0.0794      0.0000      0.0512      0.0000      0.0000      0.0000      0.0535      0.0000
 69      0.0001      0.0819      0.1836      0.0727      0.0118      0.6412      0.0000      0.1394      0.0000
 70      0.0000      0.0568      0.0563      0.0000      0.0962      0.0000      0.0000      0.0000      0.0000
 71      0.0000      0.0588      0.0000      0.0000      0.0000      0.0000      0.5252      0.0000      0.0000
 72      0.0000      0.0471      0.0000      0.0000      0.0000      0.0000      0.0000      0.0000      0.0000
 73      0.0000      0.0456      0.0473      0.0000      0.0000      0.0000      0.0000      0.0000      0.0000
 74      0.0000      0.0508      0.0000      0.0000      0.2140      0.0000      0.0731      0.0000      0.0000
 75      0.0000      0.0421      0.0000      0.0000      0.0000      0.0709      0.0000      0.0231      0.0000
 76      0.0000      0.0388      0.0431      0.0899      0.0000      0.0749      0.0135      0.1581      0.0000
 77      0.0000      0.0369      0.0000      0.0000      0.0655      0.0000      0.0090      0.0000      0.3138
 78      0.0000      0.0332      0.0000      0.0000      0.0756      0.0000      0.0000      0.0000      0.0000
 79      0.0000      0.0452      0.1583      0.0000      0.0000      0.0000      0.2386      0.0000      0.0000
 80      0.0000      0.0202      0.0000      0.0000      0.0000      0.0000      0.0000      0.0000      0.0000
 81      0.0000      0.0164      0.0000      0.0000      0.0000      0.0000      0.0000      0.0000      0.0000
 82      0.0000      0.0101      0.0000      0.0000      0.0000      0.0419      0.0249      0.0000      0.0000
 83      0.0000      0.0094      0.0000      0.0000      0.0000      0.0000      0.0000      0.0000      0.0000
 84      0.0000      0.0107      0.0000      0.0000      0.0000      0.0694      0.0000      0.0971      0.0030
 85      0.0000      0.0044      0.0000      0.0000      0.0000      0.0000      0.0000      0.0000      0.0000
 86      0.0000      0.0061      0.0000      0.0997      0.0000      0.0000      0.0000      0.0000      0.0000
 87      0.0000      0.0051      0.0000      0.0000      0.0000      0.0000      0.0000      0.0000      0.0000
 88      0.0000      0.0030      0.0000      0.0000      0.0000      0.0000      0.0000      0.0000      0.0000
 89      0.0000      0.0034      0.0000      0.0000      0.0000      0.0000      0.0000      0.0000      0.0000
 90      0.0000      0.0061      0.0000      0.0000      0.0000      0.0000      0.0000      0.0000      0.0000
 91      0.0000      0.0240      0.0000      0.0000      0.0000      0.0000      0.0000      0.0000      0.0769
 92      0.0000      0.0258      0.0000      0.0000      0.0000      0.0888      0.0000      0.0000      0.0000
 93      0.0000      0.1171      0.0334      0.0823      0.0000      0.1389      0.0370      0.0046      0.2590
 94      0.3470      0.2625      0.4162      0.0506      0.1819      0.1677      0.4461      0.1374      1.2272
 95      0.0000      0.2571      0.0000      1.0242      0.0000      0.2862      0.7800      0.5784      0.1061
 96      0.0000      0.3053      0.0000      0.5504      0.7907      0.0000      0.6442      0.6190      0.3245
 97     11.0927     12.1951     12.1060     12.5014     11.9572     12.7584     12.0472     12.2644     11.9059
 98     14.8271     15.1071     15.0159     15.2427     14.8656     15.0674     14.3479     14.7137     15.1944
 99     22.7432     20.4139     20.5299     20.9478     19.9278     21.0911     20.2827     20.4442     20.4482
100      8.5228      8.4284      8.5023      7.7027      8.9076      8.5844      8.2413      8.2907      8.3069
101      0.0000      0.0462      0.0398      0.1012      0.0000      0.0133      0.0000      0.0000      0.0000
102      0.0000      0.0491      0.0607      0.0000      0.0463      0.0049      0.0000      0.0000      0.0601
103      0.0000      0.0249      0.0000      0.0000      0.0000      0.0000      0.0000      0.0000      0.0000
104      0.0000      0.0390      0.0560      0.0000      0.0000      0.0000      0.0000      0.1493      0.0000
105      0.0000      0.0445      0.0000      0.0000      0.0470      0.0871      0.0000      0.0000      0.0000
106      0.0000      0.0352      0.0000      0.1479      0.0000      0.0000      0.0000      0.1792      0.0000
107      0.0000      0.0333      0.0000      0.0000      0.2459      0.0000      0.0000      0.0000      0.0000
108      0.0000      0.0085      0.0000      0.0025      0.0000      0.0000      0.0000      0.0000      0.0000
109      0.0000      0.0067      0.0000      0.0000      0.0000      0.0000      0.0000      0.0000      0.0000
110      0.0000      0.0044      0.0000      0.0000      0.0000      0.0000      0.0000      0.0000      0.0000
111      0.0000      0.0039      0.0018      0.0000      0.0000      0.0000      0.0000      0.0000      0.0000
112      0.0000      0.0030      0.0000      0.0000      0.0000      0.0000      0.0000      0.0000      0.0000
113      0.0000      0.0039      0.0000      0.0000      0.0000      0.0000      0.0000      0.0000      0.0000
114      0.0000      0.0062      0.0038      0.0000      0.0000      0.0000      0.0000      0.0000      0.0000
115      0.0000      0.0176      0.0000      0.0000      0.0000      0.0921      0.0336      0.0000      0.0000
116      0.0000      0.0247      0.0000      0.1851      0.0000      0.0423      0.0087      0.0000      0.0140
117      0.0000      0.0209      0.0000      0.0000      0.0000      0.0000      0.0032      0.0000      0.1995
118      0.0000      0.0895      0.0474      0.0000      0.5069      0.0000      0.0000      0.0000      0.1460
119      0.0491      0.1412      0.6695      0.0000      0.0114      0.0000      0.5344      0.0000      0.0000
120      1.5784      0.2545      0.9591      0.1369      0.6038      0.0000      0.2127      0.4258      0.0000
121      1.4437      0.7672      0.2717      0.8572      0.4425      0.5990      1.3296      1.2782      1.2868
122      7.6401      6.5320      6.5337      6.3796      6.4001      6.1262      6.4418      7.2040      6.7774
123      4.2211      4.3485      4.4155      4.5393      4.2890      4.1326      4.2802      4.0886      4.0453
124      2.5474      2.3573      2.7294      2.3092      2.6608      2.3811      2.7287      2.4222      2.4528
125      1.3052      4.1037      3.8798      3.8499      4.3123      4.3535      4.0448      4.0051      4.1283
126      0.0000      0.0936      0.0000      0.1565      0.0000      0.1051      0.0000      0.0393      0.2005
127      0.0000      0.0169      0.0000      0.0000      0.0745      0.0000      0.0000      0.0000      0.0000
128      0.0000      0.0253      0.0000      0.0000      0.0000      0.0000      0.0000      0.0000      0.0000
129      0.0000      0.0396      0.0000      0.0083      0.0000      0.0000      0.0000      0.0459      0.1140
130      0.0000      0.0438      0.0000      0.0000      0.0000      0.0000      0.0000      0.0436      0.0000
131      0.0000      0.0233      0.0000      0.0000      0.0251      0.0000      0.0000      0.0000      0.0000
132      0.0000      0.0085      0.0000      0.0000      0.0000      0.0000      0.0000      0.0000      0.0000
133      0.0000      0.0093      0.0000      0.0000      0.0000      0.0000      0.0000      0.0000      0.0000
134      0.0000      0.0043      0.0000      0.0000      0.0000      0.0000      0.0000      0.0000      0.0000
135      0.0000      0.0019      0.0000      0.0000      0.0000      0.0000      0.0000      0.0000      0.0000
136      0.0000      0.0032      0.0000      0.0000      0.0000      0.0000      0.0000      0.0000      0.0000
137      0.0000      0.0039      0.0000      0.0000      0.0000      0.0000      0.0000      0.0000      0.0000
138      0.0000      0.0026      0.0000      0.0000      0.0000      0.0000      0.0000      0.0000      0.0000
139      0.0000      0.0048      0.0000      0.0000      0.0000      0.0000      0.0000      0.0000      0.0000
140      0.0000      0.0252      0.0522      0.2160      0.0000      0.0000      0.0076      0.0049      0.0000
141      0.0000      0.0269      0.0000      0.0000      0.0000      0.0000      0.0215      0.0413      0.0000
142      0.0000      0.0516      0.0000      0.2901      0.0315      0.1358      0.0000      0.0000      0.0889
143      0.0000      0.1701      0.1202      0.0000      0.6816      0.0000      0.0000      0.3137      0.0275
144      0.0000      0.1367      0.0000      0.0000      0.0000      0.1039      0.2096      0.0000      0.1761
145      0.0000      0.0990      0.0056      0.1052      0.0000      0.0000      0.0000      0.0000      0.0000
146      0.0000      0.0962      0.0000      0.0000      0.0000      0.0684      0.0000      0.0000      0.0000
147      0.0000      0.0462      0.0000      0.0984      0.0000      0.0000      0.0000      0.0000      0.0000
148      0.0000      0.1138      0.0485      0.0000      0.0084      0.0000      0.0000      0.0000      0.0000
149      0.0000      0.0944      0.0000      0.0000      0.0000      0.0000      0.0000      0.0000      0.0000
150      0.0000      0.0376      0.0000      0.0000      0.0000      0.0000      0.0000      0.0000      0.0336

# j      m_j: min, <> & last-chain-values for 1 ...  7 chains
  1  1.1345E-02  9.9084E-03  1.0626E-02  1.0796E-02  1.0235E-02  1.0324E-02  9.7041E-03  1.0489E-02  1.0731E-02
  2  6.5725E-03  5.0635E-03  5.3138E-03  5.2600E-03  5.0912E-03  5.2598E-03  5.2073E-03  5.1362E-03  5.2726E-03
  3  7.5224E-03  5.6342E-03  5.7682E-03  5.8175E-03  6.0793E-03  5.8825E-03  6.6401E-03  5.7859E-03  5.7108E-03
  4  0.0000E+00  3.5262E-04  2.1038E-04  2.9067E-04  2.9711E-04  6.0791E-04  1.7008E-04  0.0000E+00  2.4949E-04
  5  0.0000E+00  2.7016E-04  6.7056E-04  0.0000E+00  0.0000E+00  0.0000E+00  0.0000E+00  8.6983E-04  1.4559E-04
  6  1.8603E-03  8.4276E-04  8.5094E-04  1.8441E-03  1.3540E-03  1.0456E-03  2.5082E-03  7.9855E-04  0.0000E+00
  7  0.0000E+00  2.8590E-04  4.6070E-04  0.0000E+00  0.0000E+00  6.0440E-04  2.0029E-04  4.4127E-04  4.5365E-04
  8  0.0000E+00  1.7498E-04  0.0000E+00  9.6008E-04  0.0000E+00  4.8788E-04  0.0000E+00  0.0000E+00  7.2716E-04
  9  0.0000E+00  1.0129E-04  0.0000E+00  0.0000E+00  0.0000E+00  0.0000E+00  3.2725E-04  0.0000E+00  0.0000E+00
 10  0.0000E+00  1.2801E-04  0.0000E+00  0.0000E+00  0.0000E+00  0.0000E+00  6.1106E-04  0.0000E+00  0.0000E+00
 11  0.0000E+00  1.1963E-04  0.0000E+00  1.4985E-04  0.0000E+00  0.0000E+00  0.0000E+00  1.0711E-04  0.0000E+00
 12  0.0000E+00  7.3874E-05  0.0000E+00  0.0000E+00  0.0000E+00  0.0000E+00  0.0000E+00  0.0000E+00  0.0000E+00
 13  0.0000E+00  6.9017E-05  0.0000E+00  0.0000E+00  0.0000E+00  0.0000E+00  0.0000E+00  0.0000E+00  0.0000E+00
 14  0.0000E+00  7.0442E-05  0.0000E+00  0.0000E+00  0.0000E+00  0.0000E+00  0.0000E+00  0.0000E+00  0.0000E+00
 15  0.0000E+00  9.9421E-05  0.0000E+00  0.0000E+00  0.0000E+00  0.0000E+00  1.0882E-03  0.0000E+00  0.0000E+00
 16  0.0000E+00  4.3987E-04  0.0000E+00  0.0000E+00  0.0000E+00  0.0000E+00  0.0000E+00  0.0000E+00  0.0000E+00
 17  0.0000E+00  4.9048E-04  0.0000E+00  0.0000E+00  0.0000E+00  0.0000E+00  0.0000E+00  1.0529E-04  0.0000E+00
 18  0.0000E+00  1.4294E-03  1.5269E-02  0.0000E+00  0.0000E+00  0.0000E+00  0.0000E+00  0.0000E+00  0.0000E+00
 19  0.0000E+00  6.2252E-03  0.0000E+00  0.0000E+00  3.4628E-03  0.0000E+00  0.0000E+00  0.0000E+00  0.0000E+00
 20  1.4492E-05  1.2214E-02  6.9157E-02  0.0000E+00  0.0000E+00  0.0000E+00  2.0163E-02  0.0000E+00  3.1924E-02
 21  0.0000E+00  1.6423E-02  2.3978E-03  4.4188E-02  3.5722E-02  7.7498E-03  0.0000E+00  0.0000E+00  0.0000E+00
 22  0.0000E+00  3.0422E-02  0.0000E+00  8.6917E-02  0.0000E+00  1.4972E-02  0.0000E+00  3.9193E-02  0.0000E+00
 23  0.0000E+00  4.3914E-02  0.0000E+00  0.0000E+00  5.3711E-03  0.0000E+00  8.9003E-02  2.1966E-01  0.0000E+00
 24  2.5158E-05  6.8953E-02  2.9060E-01  2.1129E-02  1.0501E-01  1.0666E-01  1.6735E-01  0.0000E+00  1.5279E-01
 25  1.4170E-03  1.4320E-01  1.9061E-01  1.4906E-01  1.3398E-01  0.0000E+00  3.5631E-02  2.0117E-01  8.9056E-02
 26  1.1440E-02  9.7001E-03  9.7678E-03  9.8300E-03  9.2640E-03  9.8464E-03  9.8870E-03  1.0574E-02  9.8861E-03
 27  0.0000E+00  2.5600E-05  9.6057E-05  1.1282E-04  0.0000E+00  4.7186E-05  0.0000E+00  0.0000E+00  0.0000E+00
 28  0.0000E+00  3.3326E-05  0.0000E+00  0.0000E+00  9.9442E-05  0.0000E+00  2.5752E-05  0.0000E+00  0.0000E+00
 29  0.0000E+00  1.4102E-04  1.0423E-04  5.1090E-05  8.7229E-05  0.0000E+00  0.0000E+00  2.0382E-05  1.3530E-04
 30  1.1516E-05  1.9890E-04  7.3167E-04  3.9494E-04  1.1799E-03  1.2738E-04  0.0000E+00  0.0000E+00  0.0000E+00
 31  0.0000E+00  1.4124E-04  0.0000E+00  0.0000E+00  4.2818E-04  0.0000E+00  5.9705E-04  0.0000E+00  0.0000E+00
 32  0.0000E+00  1.1281E-04  0.0000E+00  2.4939E-04  5.5243E-05  0.0000E+00  0.0000E+00  9.0200E-05  0.0000E+00
 33  0.0000E+00  9.7424E-05  0.0000E+00  0.0000E+00  0.0000E+00  0.0000E+00  0.0000E+00  4.7927E-04  5.2169E-04
 34  0.0000E+00  8.3210E-05  0.0000E+00  0.0000E+00  0.0000E+00  4.2173E-04  0.0000E+00  1.2332E-04  0.0000E+00
 35  0.0000E+00  1.0498E-04  0.0000E+00  0.0000E+00  0.0000E+00  0.0000E+00  5.8377E-05  0.0000E+00  1.4461E-04
 36  0.0000E+00  1.0388E-04  0.0000E+00  0.0000E+00  0.0000E+00  0.0000E+00  0.0000E+00  0.0000E+00  0.0000E+00
 37  0.0000E+00  5.7361E-05  0.0000E+00  0.0000E+00  0.0000E+00  0.0000E+00  0.0000E+00  0.0000E+00  0.0000E+00
 38  0.0000E+00  5.5076E-05  0.0000E+00  0.0000E+00  0.0000E+00  0.0000E+00  7.3394E-04  0.0000E+00  0.0000E+00
 39  0.0000E+00  1.0043E-04  0.0000E+00  0.0000E+00  0.0000E+00  0.0000E+00  0.0000E+00  0.0000E+00  0.0000E+00
 40  0.0000E+00  2.4195E-04  0.0000E+00  0.0000E+00  0.0000E+00  0.0000E+00  0.0000E+00  0.0000E+00  0.0000E+00
 41  0.0000E+00  9.9283E-04  0.0000E+00  0.0000E+00  0.0000E+00  1.4783E-02  0.0000E+00  0.0000E+00  3.6638E-03
 42  0.0000E+00  8.7995E-04  0.0000E+00  0.0000E+00  0.0000E+00  0.0000E+00  0.0000E+00  0.0000E+00  0.0000E+00
 43  0.0000E+00  2.1245E-03  0.0000E+00  0.0000E+00  0.0000E+00  0.0000E+00  0.0000E+00  0.0000E+00  0.0000E+00
 44  0.0000E+00  2.1795E-02  0.0000E+00  3.6532E-02  5.9775E-02  0.0000E+00  0.0000E+00  1.0325E-01  0.0000E+00
 45  2.7450E-01  7.5473E-02  1.4133E-01  8.1217E-02  1.8157E-01  6.3475E-02  1.0450E-01  0.0000E+00  1.0893E-01
 46  4.2848E-01  1.4981E-01  2.1967E-01  1.6804E-01  1.4772E-01  2.2871E-01  1.3495E-01  1.7838E-01  1.7989E-01
 47  0.0000E+00  1.0309E-01  5.0286E-02  1.2729E-01  0.0000E+00  3.7660E-01  1.2078E-01  1.3846E-01  9.0712E-02
 48  6.4202E-05  1.1135E-01  1.1021E-01  9.3611E-02  3.7119E-02  7.2406E-02  1.2990E-02  0.0000E+00  2.4165E-01
 49  0.0000E+00  4.8033E-02  0.0000E+00  2.7680E-02  6.1720E-02  0.0000E+00  2.1550E-02  0.0000E+00  0.0000E+00
 50  0.0000E+00  7.6909E-02  0.0000E+00  2.4658E-02  7.2553E-02  0.0000E+00  0.0000E+00  0.0000E+00  0.0000E+00
 51  7.6706E-04  1.8840E-03  2.0929E-03  1.9459E-03  1.9034E-03  2.3603E-03  1.9292E-03  1.8859E-03  2.0714E-03
 52  0.0000E+00  2.2997E-05  0.0000E+00  5.5013E-05  0.0000E+00  0.0000E+00  1.3290E-04  0.0000E+00  0.0000E+00
 53  0.0000E+00  4.3939E-05  5.2802E-05  0.0000E+00  0.0000E+00  2.7563E-05  1.3382E-04  0.0000E+00  3.6065E-05
 54  1.1926E-07  6.8815E-04  6.4812E-04  3.6786E-04  5.1992E-04  5.7923E-04  6.2917E-04  8.5208E-04  5.9256E-04
 55  0.0000E+00  5.6670E-04  2.5752E-04  2.8944E-04  6.1284E-04  4.8229E-04  3.2378E-04  5.2349E-04  5.4916E-04
 56  0.0000E+00  4.3751E-05  0.0000E+00  0.0000E+00  0.0000E+00  1.6203E-04  1.9824E-04  0.0000E+00  0.0000E+00
 57  0.0000E+00  7.2929E-05  0.0000E+00  0.0000E+00  9.3272E-05  0.0000E+00  0.0000E+00  0.0000E+00  0.0000E+00
 58  0.0000E+00  1.0855E-04  6.5524E-04  0.0000E+00  0.0000E+00  0.0000E+00  0.0000E+00  0.0000E+00  7.2999E-04
 59  0.0000E+00  6.3609E-05  0.0000E+00  0.0000E+00  2.2389E-05  0.0000E+00  0.0000E+00  0.0000E+00  0.0000E+00
 60  0.0000E+00  5.1428E-05  0.0000E+00  0.0000E+00  0.0000E+00  0.0000E+00  0.0000E+00  0.0000E+00  0.0000E+00
 61  0.0000E+00  3.9144E-05  0.0000E+00  0.0000E+00  1.1378E-03  0.0000E+00  0.0000E+00  0.0000E+00  0.0000E+00
 62  0.0000E+00  1.0235E-04  0.0000E+00  0.0000E+00  0.0000E+00  0.0000E+00  0.0000E+00  0.0000E+00  0.0000E+00
 63  0.0000E+00  9.4440E-05  0.0000E+00  8.1472E-04  0.0000E+00  0.0000E+00  1.2715E-03  0.0000E+00  0.0000E+00
 64  0.0000E+00  1.4470E-04  0.0000E+00  0.0000E+00  0.0000E+00  0.0000E+00  0.0000E+00  0.0000E+00  0.0000E+00
 65  0.0000E+00  1.5294E-03  0.0000E+00  0.0000E+00  1.5361E-02  0.0000E+00  0.0000E+00  4.6546E-04  6.2701E-03
 66  0.0000E+00  1.4483E-03  0.0000E+00  5.5825E-03  0.0000E+00  0.0000E+00  4.3540E-03  0.0000E+00  0.0000E+00
 67  0.0000E+00  1.8617E-03  0.0000E+00  0.0000E+00  0.0000E+00  3.3836E-03  0.0000E+00  0.0000E+00  0.0000E+00
 68  0.0000E+00  1.4240E-02  0.0000E+00  9.3154E-03  0.0000E+00  0.0000E+00  0.0000E+00  9.6948E-03  0.0000E+00
 69  3.9529E-05  2.5343E-02  5.7227E-02  2.2805E-02  3.6878E-03  1.9963E-01  0.0000E+00  4.3525E-02  0.0000E+00
 70  0.0000E+00  2.4454E-02  2.4431E-02  0.0000E+00  4.1674E-02  0.0000E+00  0.0000E+00  0.0000E+00  0.0000E+00
 71  0.0000E+00  2.9881E-02  0.0000E+00  0.0000E+00  0.0000E+00  0.0000E+00  2.7004E-01  0.0000E+00  0.0000E+00
 72  0.0000E+00  3.1505E-02  0.0000E+00  0.0000E+00  0.0000E+00  0.0000E+00  0.0000E+00  0.0000E+00  0.0000E+00
 73  0.0000E+00  3.8474E-02  4.0194E-02  0.0000E+00  0.0000E+00  0.0000E+00  0.0000E+00  0.0000E+00  0.0000E+00
 74  0.0000E+00  4.7785E-02  0.0000E+00  0.0000E+00  2.0270E-01  0.0000E+00  6.9646E-02  0.0000E+00  0.0000E+00
 75  0.0000E+00  4.5529E-02  0.0000E+00  0.0000E+00  0.0000E+00  7.7183E-02  0.0000E+00  2.5202E-02  0.0000E+00
 76  0.0000E+00  9.7341E-05  1.0897E-04  2.2869E-04  0.0000E+00  1.8903E-04  3.4177E-05  4.0010E-04  0.0000E+00
 77  0.0000E+00  3.7671E-05  0.0000E+00  0.0000E+00  6.7263E-05  0.0000E+00  9.3109E-06  0.0000E+00  3.2373E-04
 78  0.0000E+00  3.7919E-05  0.0000E+00  0.0000E+00  8.6998E-05  0.0000E+00  0.0000E+00  0.0000E+00  0.0000E+00
 79  0.0000E+00  6.2155E-05  2.1945E-04  0.0000E+00  0.0000E+00  0.0000E+00  3.3226E-04  0.0000E+00  0.0000E+00
 80  0.0000E+00  3.5768E-05  0.0000E+00  0.0000E+00  0.0000E+00  0.0000E+00  0.0000E+00  0.0000E+00  0.0000E+00
 81  0.0000E+00  3.8383E-05  0.0000E+00  0.0000E+00  0.0000E+00  0.0000E+00  0.0000E+00  0.0000E+00  0.0000E+00
 82  0.0000E+00  3.1977E-05  0.0000E+00  0.0000E+00  0.0000E+00  1.3301E-04  7.9663E-05  0.0000E+00  0.0000E+00
 83  0.0000E+00  4.3770E-05  0.0000E+00  0.0000E+00  0.0000E+00  0.0000E+00  0.0000E+00  0.0000E+00  0.0000E+00
 84  0.0000E+00  6.8728E-05  0.0000E+00  0.0000E+00  0.0000E+00  4.4839E-04  0.0000E+00  6.2914E-04  1.9518E-05
 85  0.0000E+00  3.3942E-05  0.0000E+00  0.0000E+00  0.0000E+00  0.0000E+00  0.0000E+00  0.0000E+00  0.0000E+00
 86  0.0000E+00  6.4882E-05  0.0000E+00  1.0685E-03  0.0000E+00  0.0000E+00  0.0000E+00  0.0000E+00  0.0000E+00
 87  0.0000E+00  7.1171E-05  0.0000E+00  0.0000E+00  0.0000E+00  0.0000E+00  0.0000E+00  0.0000E+00  0.0000E+00
 88  0.0000E+00  6.5362E-05  0.0000E+00  0.0000E+00  0.0000E+00  0.0000E+00  0.0000E+00  0.0000E+00  0.0000E+00
 89  0.0000E+00  1.2154E-04  0.0000E+00  0.0000E+00  0.0000E+00  0.0000E+00  0.0000E+00  0.0000E+00  0.0000E+00
 90  0.0000E+00  4.0455E-04  0.0000E+00  0.0000E+00  0.0000E+00  0.0000E+00  0.0000E+00  0.0000E+00  0.0000E+00
 91  0.0000E+00  2.0424E-03  0.0000E+00  0.0000E+00  0.0000E+00  0.0000E+00  0.0000E+00  0.0000E+00  6.6026E-03
 92  0.0000E+00  2.9244E-03  0.0000E+00  0.0000E+00  0.0000E+00  1.0135E-02  0.0000E+00  0.0000E+00  0.0000E+00
 93  0.0000E+00  2.6977E-02  7.7619E-03  1.9236E-02  0.0000E+00  3.2214E-02  8.6176E-03  1.0704E-03  6.0284E-02
 94  1.4895E-01  1.0846E-01  1.7327E-01  2.1223E-02  7.5623E-02  6.9750E-02  1.8658E-01  5.7314E-02  5.1237E-01
 95  0.0000E+00  1.4308E-01  0.0000E+00  5.7826E-01  0.0000E+00  1.6035E-01  4.3948E-01  3.2502E-01  5.9693E-02
 96  0.0000E+00  2.0502E-01  0.0000E+00  3.7496E-01  5.3440E-01  0.0000E+00  4.3788E-01  4.1966E-01  2.2022E-01
 97  1.0084E+01  1.0670E+01  1.0674E+01  1.1096E+01  1.0530E+01  1.1236E+01  1.0671E+01  1.0834E+01  1.0527E+01
 98  1.7285E+01  1.6950E+01  1.6979E+01  1.7350E+01  1.6788E+01  1.7017E+01  1.6298E+01  1.6669E+01  1.7229E+01
 99  3.0223E+01  2.6109E+01  2.6462E+01  2.7181E+01  2.5653E+01  2.7153E+01  2.6263E+01  2.6402E+01  2.6430E+01
100  1.3039E+01  1.2411E+01  1.2617E+01  1.1507E+01  1.3202E+01  1.2724E+01  1.2286E+01  1.2327E+01  1.2362E+01
101  0.0000E+00  7.4940E-05  6.4974E-05  1.6630E-04  0.0000E+00  2.1691E-05  0.0000E+00  0.0000E+00  0.0000E+00
102  0.0000E+00  4.1381E-05  5.1513E-05  0.0000E+00  3.9251E-05  4.1393E-06  0.0000E+00  0.0000E+00  5.1143E-05
103  0.0000E+00  2.3189E-05  0.0000E+00  0.0000E+00  0.0000E+00  0.0000E+00  0.0000E+00  0.0000E+00  0.0000E+00
104  0.0000E+00  4.7883E-05  6.9332E-05  0.0000E+00  0.0000E+00  0.0000E+00  0.0000E+00  1.8506E-04  0.0000E+00
105  0.0000E+00  1.1532E-04  0.0000E+00  0.0000E+00  1.2257E-04  2.2727E-04  0.0000E+00  0.0000E+00  0.0000E+00
106  0.0000E+00  9.8302E-05  0.0000E+00  4.1870E-04  0.0000E+00  0.0000E+00  0.0000E+00  5.0481E-04  0.0000E+00
107  0.0000E+00  1.2419E-04  0.0000E+00  0.0000E+00  9.2196E-04  0.0000E+00  0.0000E+00  0.0000E+00  0.0000E+00
108  0.0000E+00  5.2651E-05  0.0000E+00  1.5902E-05  0.0000E+00  0.0000E+00  0.0000E+00  0.0000E+00  0.0000E+00
109  0.0000E+00  5.0044E-05  0.0000E+00  0.0000E+00  0.0000E+00  0.0000E+00  0.0000E+00  0.0000E+00  0.0000E+00
110  0.0000E+00  3.9207E-05  0.0000E+00  0.0000E+00  0.0000E+00  0.0000E+00  0.0000E+00  0.0000E+00  0.0000E+00
111  0.0000E+00  4.8058E-05  2.2962E-05  0.0000E+00  0.0000E+00  0.0000E+00  0.0000E+00  0.0000E+00  0.0000E+00
112  0.0000E+00  4.9279E-05  0.0000E+00  0.0000E+00  0.0000E+00  0.0000E+00  0.0000E+00  0.0000E+00  0.0000E+00
113  0.0000E+00  9.6164E-05  0.0000E+00  0.0000E+00  0.0000E+00  0.0000E+00  0.0000E+00  0.0000E+00  0.0000E+00
114  0.0000E+00  2.6738E-04  1.6569E-04  0.0000E+00  0.0000E+00  0.0000E+00  0.0000E+00  0.0000E+00  0.0000E+00
115  0.0000E+00  1.5084E-03  0.0000E+00  0.0000E+00  0.0000E+00  7.9534E-03  2.9165E-03  0.0000E+00  0.0000E+00
116  0.0000E+00  3.4058E-03  0.0000E+00  2.5863E-02  0.0000E+00  5.8643E-03  1.2072E-03  0.0000E+00  1.9444E-03
117  0.0000E+00  3.3769E-03  0.0000E+00  0.0000E+00  0.0000E+00  0.0000E+00  5.2833E-04  0.0000E+00  3.2629E-02
118  0.0000E+00  2.9393E-02  1.5696E-02  0.0000E+00  1.6758E-01  0.0000E+00  0.0000E+00  0.0000E+00  4.8472E-02
119  2.8934E-02  8.0178E-02  3.8307E-01  0.0000E+00  6.5249E-03  0.0000E+00  3.0714E-01  0.0000E+00  0.0000E+00
120  1.3259E+00  2.0574E-01  7.8140E-01  1.1229E-01  4.9131E-01  0.0000E+00  1.7409E-01  3.4757E-01  0.0000E+00
121  1.4267E+00  7.2973E-01  2.6049E-01  8.2717E-01  4.2359E-01  5.7353E-01  1.2804E+00  1.2276E+00  1.2370E+00
122  1.0103E+01  8.3133E+00  8.3804E+00  8.2371E+00  8.1984E+00  7.8480E+00  8.3001E+00  9.2574E+00  8.7171E+00
123  7.3623E+00  7.2998E+00  7.4702E+00  7.7308E+00  7.2469E+00  6.9831E+00  7.2743E+00  6.9301E+00  6.8629E+00
124  5.1016E+00  4.5436E+00  5.3019E+00  4.5154E+00  5.1621E+00  4.6197E+00  5.3247E+00  4.7140E+00  4.7779E+00
125  3.1284E+00  9.4667E+00  9.0201E+00  9.0102E+00  1.0013E+01  1.0109E+01  9.4464E+00  9.3288E+00  9.6245E+00
126  0.0000E+00  1.1380E-04  0.0000E+00  1.9296E-04  0.0000E+00  1.2862E-04  0.0000E+00  4.8271E-05  2.4635E-04
127  0.0000E+00  1.0823E-05  0.0000E+00  0.0000E+00  4.8041E-05  0.0000E+00  0.0000E+00  0.0000E+00  0.0000E+00
128  0.0000E+00  2.4039E-05  0.0000E+00  0.0000E+00  0.0000E+00  0.0000E+00  0.0000E+00  0.0000E+00  0.0000E+00
129  0.0000E+00  7.6955E-05  0.0000E+00  1.6459E-05  0.0000E+00  0.0000E+00  0.0000E+00  9.0046E-05  2.2388E-04
130  0.0000E+00  1.1622E-04  0.0000E+00  0.0000E+00  0.0000E+00  0.0000E+00  0.0000E+00  1.1667E-04  0.0000E+00
131  0.0000E+00  7.1651E-05  0.0000E+00  0.0000E+00  7.7510E-05  0.0000E+00  0.0000E+00  0.0000E+00  0.0000E+00
132  0.0000E+00  3.5587E-05  0.0000E+00  0.0000E+00  0.0000E+00  0.0000E+00  0.0000E+00  0.0000E+00  0.0000E+00
133  0.0000E+00  5.6517E-05  0.0000E+00  0.0000E+00  0.0000E+00  0.0000E+00  0.0000E+00  0.0000E+00  0.0000E+00
134  0.0000E+00  3.3062E-05  0.0000E+00  0.0000E+00  0.0000E+00  0.0000E+00  0.0000E+00  0.0000E+00  0.0000E+00
135  0.0000E+00  1.7970E-05  0.0000E+00  0.0000E+00  0.0000E+00  0.0000E+00  0.0000E+00  0.0000E+00  0.0000E+00
136  0.0000E+00  4.3054E-05  0.0000E+00  0.0000E+00  0.0000E+00  0.0000E+00  0.0000E+00  0.0000E+00  0.0000E+00
137  0.0000E+00  7.0304E-05  0.0000E+00  0.0000E+00  0.0000E+00  0.0000E+00  0.0000E+00  0.0000E+00  0.0000E+00
138  0.0000E+00  7.7430E-05  0.0000E+00  0.0000E+00  0.0000E+00  0.0000E+00  0.0000E+00  0.0000E+00  0.0000E+00
139  0.0000E+00  2.7626E-04  0.0000E+00  0.0000E+00  0.0000E+00  0.0000E+00  0.0000E+00  0.0000E+00  0.0000E+00
140  0.0000E+00  3.3310E-03  6.9527E-03  2.8974E-02  0.0000E+00  0.0000E+00  1.0163E-03  6.5553E-04  0.0000E+00
141  0.0000E+00  5.4357E-03  0.0000E+00  0.0000E+00  0.0000E+00  0.0000E+00  4.3982E-03  8.4419E-03  0.0000E+00
142  0.0000E+00  1.2424E-02  0.0000E+00  7.0872E-02  7.6439E-03  3.2911E-02  0.0000E+00  0.0000E+00  2.1639E-02
143  0.0000E+00  8.1459E-02  5.7991E-02  0.0000E+00  3.2844E-01  0.0000E+00  0.0000E+00  1.5162E-01  1.3300E-02
144  0.0000E+00  1.2855E-01  0.0000E+00  0.0000E+00  0.0000E+00  9.8306E-02  1.9956E-01  0.0000E+00  1.6733E-01
145  0.0000E+00  1.3855E-01  7.9559E-03  1.4937E-01  0.0000E+00  0.0000E+00  0.0000E+00  0.0000E+00  0.0000E+00
146  0.0000E+00  1.6077E-01  0.0000E+00  0.0000E+00  0.0000E+00  1.1507E-01  0.0000E+00  0.0000E+00  0.0000E+00
147  0.0000E+00  1.0384E-01  0.0000E+00  2.2433E-01  0.0000E+00  0.0000E+00  0.0000E+00  0.0000E+00  0.0000E+00
148  0.0000E+00  3.4623E-01  1.4883E-01  0.0000E+00  2.5648E-02  0.0000E+00  0.0000E+00  0.0000E+00  0.0000E+00
149  0.0000E+00  3.3645E-01  0.0000E+00  0.0000E+00  0.0000E+00  0.0000E+00  0.0000E+00  0.0000E+00  0.0000E+00
150  0.0000E+00  1.5981E-01  0.0000E+00  0.0000E+00  0.0000E+00  0.0000E+00  0.0000E+00  0.0000E+00  1.4412E-01

# AV, chi2 & Mass for <> & i_chain = 1 ...  7 solutions
AV       1.3062      1.2793      1.2923      1.2924      1.2888      1.2941      1.2886      1.2902      1.2893
chi2 2.4649E+00  2.5686E+00  2.5173E+00  2.5212E+00  2.5310E+00  2.5186E+00  2.5282E+00  2.5245E+00  2.5317E+00
Mass 1.0419E-09  1.0441E-09  1.0543E-09  1.0475E-09  1.0507E-09  1.0581E-09  1.0443E-09  1.0493E-09  1.0472E-09
   6.54                                  [v0_min (km/s) before EX0s...]
  36.73                                  [vd_min (km/s) before EX0s...]


## Synthetic spectrum (Best Model) ##l_obs f_obs f_syn wei
 3070    [Nl_obs]
 3359.00    0.00000   0.41382   -2.000
 3360.00    0.00000   0.38238   -2.000
 3361.00    0.11146   0.38294   -1.000
 3362.00    0.24548   0.41170   -1.000
 3363.00    0.26030   0.45227   -1.000
 3364.00    0.28348   0.48253   -1.000
 3365.00    0.30812   0.48917   -1.000
 3366.00    0.29914   0.47203   -1.000
 3367.00    0.27284   0.44770   -1.000
 3368.00    0.25068   0.42454   -1.000
 3369.00    0.25452   0.41008   -1.000
 3370.00    0.26359   0.40224   -1.000
 3371.00    0.25439   0.39821   -1.000
 3372.00    0.24785   0.40200   -1.000
 3373.00    0.25042   0.42064   -1.000
 3374.00    0.27259   0.45129   -1.000
 3375.00    0.29779   0.48490   -1.000
 3376.00    0.30768   0.50744   -1.000
 3377.00    0.32791   0.50728   -1.000
 3378.00    0.35324   0.48290   -1.000
 3379.00    0.35345   0.45528   -1.000
 3380.00    0.32818   0.44047   -1.000
 3381.00    0.31826   0.44611   -1.000
 3382.00    0.32149   0.46282   -1.000
 3383.00    0.31359   0.47925   -1.000
 3384.00    0.31172   0.49100   -1.000
 3385.00    0.30912   0.50176   -1.000
 3386.00    0.31942   0.50674   -1.000
 3387.00    0.34197   0.50660   -1.000
 3388.00    0.35331   0.50609   -1.000
 3389.00    0.36959   0.50543   -1.000
 3390.00    0.36658   0.50071   -1.000
 3391.00    0.35933   0.48621   -1.000
 3392.00    0.36017   0.46822   -1.000
 3393.00    0.35575   0.46212   -1.000
 3394.00    0.37049   0.47244   -1.000
 3395.00    0.37382   0.49559   -1.000
 3396.00    0.37491   0.51782   -1.000
 3397.00    0.41248   0.53639   -1.000
 3398.00    0.44715   0.55249   -1.000
 3399.00    0.45640   0.56046   -1.000
 3400.00    0.46654   0.55702   -1.000
 3401.00    0.45553   0.54581   -1.000
 3402.00    0.42909   0.52897   -1.000
 3403.00    0.42083   0.51435   -1.000
 3404.00    0.42647   0.50519   -1.000
 3405.00    0.43072   0.49858   -1.000
 3406.00    0.40968   0.49143   -1.000
 3407.00    0.38940   0.48452   -1.000
 3408.00    0.38597   0.48295   -1.000
 3409.00    0.39738   0.48720   -1.000
 3410.00    0.40707   0.49612   -1.000
 3411.00    0.39915   0.49740   -1.000
 3412.00    0.40674   0.48399   -1.000
 3413.00    0.40999   0.46488   -1.000
 3414.00    0.40743   0.45088   -1.000
 3415.00    0.40683   0.45549   -1.000
 3416.00    0.39692   0.47356   -1.000
 3417.00    0.41079   0.50013   -1.000
 3418.00    0.44406   0.52531   -1.000
 3419.00    0.46476   0.54571   -1.000
 3420.00    0.49117   0.55348   -1.000
 3421.00    0.49696   0.54521   -1.000
 3422.00    0.47142   0.52382   -1.000
 3423.00    0.44539   0.50907   -1.000
 3424.00    0.44892   0.50707   -1.000
 3425.00    0.47094   0.51112   64.307
 3426.00    0.47563   0.51534   64.231
 3427.00    0.47668   0.52299   62.425
 3428.00    0.47245   0.54018   -1.000
 3429.00    0.47245   0.56339   -1.000
 3430.00    0.49012   0.56930   -1.000
 3431.00    0.49830   0.55305   -1.000
 3432.00    0.47768   0.52766   -1.000
 3433.00    0.46945   0.51265   -1.000
 3434.00    0.48787   0.51839   -1.000
 3435.00    0.49013   0.52925   61.274
 3436.00    0.47843   0.52967   -1.000
 3437.00    0.47116   0.51596   -1.000
 3438.00    0.45353   0.49153   -1.000
 3439.00    0.42298   0.45590   62.262
 3440.00    0.40407   0.42083   65.560
 3441.00    0.38203   0.39699   70.065
 3442.00    0.38173   0.39271   74.462
 3443.00    0.39558   0.40433   76.164
 3444.00    0.39738   0.42241   76.070
 3445.00    0.41411   0.43975   74.520
 3446.00    0.43222   0.45954   71.029
 3447.00    0.43538   0.48173   67.112
 3448.00    0.44855   0.50649   -1.000
 3449.00    0.48101   0.52920   -1.000
 3450.00    0.51142   0.53669   -1.000
 3451.00    0.52291   0.52260  509.366
 3452.00    0.51079   0.50616  509.366
 3453.00    0.49174   0.50196   -1.000
 3454.00    0.48470   0.51131   -1.000
 3455.00    0.50044   0.52045   -1.000
 3456.00    0.50818   0.51538   -1.000
 3457.00    0.49257   0.49814  509.366
 3458.00    0.47009   0.47514  509.366
 3459.00    0.47167   0.45858   -1.000
 3460.00    0.47071   0.44938  124.882
 3461.00    0.44549   0.45272   61.560
 3462.00    0.46666   0.47092   61.855
 3463.00    0.50710   0.49821  100.172
 3464.00    0.52268   0.50787   -1.000
 3465.00    0.53742   0.50198   -1.000
 3466.00    0.52353   0.49749   -1.000
 3467.00    0.49283   0.50388   -1.000
 3468.00    0.50527   0.52212   -1.000
 3469.00    0.55280   0.53975   -1.000
 3470.00    0.57043   0.54565   -1.000
 3471.00    0.54969   0.53360   -1.000
 3472.00    0.53241   0.51059   -1.000
 3473.00    0.53402   0.48150   -1.000
 3474.00    0.52471   0.45375   -1.000
 3475.00    0.47815   0.43287   -1.000
 3476.00    0.44726   0.43118  127.425
 3477.00    0.47218   0.44846   62.684
 3478.00    0.49826   0.47436   63.437
 3479.00    0.50903   0.49709  100.425
 3480.00    0.51242   0.51083  509.366
 3481.00    0.51245   0.51273  509.366
 3482.00    0.52249   0.50320   -1.000
 3483.00    0.52607   0.49127   -1.000
 3484.00    0.52816   0.48873   -1.000
 3485.00    0.53251   0.50506   -1.000
 3486.00    0.52785   0.52654  509.366
 3487.00    0.55125   0.53620   -1.000
 3488.00    0.55802   0.52268   -1.000
 3489.00    0.51504   0.49345   -1.000
 3490.00    0.47927   0.46715   -1.000
 3491.00    0.48630   0.45774   -1.000
 3492.00    0.49148   0.46610   -1.000
 3493.00    0.49999   0.47988   -1.000
 3494.00    0.50530   0.48835   -1.000
 3495.00    0.49491   0.48303   -1.000
 3496.00    0.48337   0.47178   -1.000
 3497.00    0.49095   0.47467   -1.000
 3498.00    0.52440   0.49962   -1.000
 3499.00    0.55166   0.53326   -1.000
 3500.00    0.56657   0.55212   -1.000
 3501.00    0.58408   0.55881   -1.000
 3502.00    0.59250   0.56659   -1.000
 3503.00    0.59840   0.57158   -1.000
 3504.00    0.60492   0.56524   -1.000
 3505.00    0.58543   0.55069   -1.000
 3506.00    0.55795   0.53839   -1.000
 3507.00    0.55540   0.53628   -1.000
 3508.00    0.56974   0.53593   -1.000
 3509.00    0.56397   0.52649   -1.000
 3510.00    0.55066   0.51350   -1.000
 3511.00    0.53387   0.50015   -1.000
 3512.00    0.52291   0.48568   -1.000
 3513.00    0.51521   0.47108   -1.000
 3514.00    0.51274   0.46652   -1.000
 3515.00    0.51226   0.48509   -1.000
 3516.00    0.53464   0.52360   -1.000
 3517.00    0.57720   0.55727   -1.000
 3518.00    0.60366   0.57043   -1.000
 3519.00    0.58520   0.55628   -1.000
 3520.00    0.55282   0.52927   -1.000
 3521.00    0.51952   0.50086   -1.000
 3522.00    0.49845   0.47903   -1.000
 3523.00    0.48704   0.45857   -1.000
 3524.00    0.47626   0.43855   -1.000
 3525.00    0.45723   0.42704   -1.000
 3526.00    0.45065   0.43989   62.049
 3527.00    0.47279   0.47219   63.221
 3528.00    0.50797   0.51225   97.939
 3529.00    0.55177   0.54032   -1.000
 3530.00    0.56384   0.54881   -1.000
 3531.00    0.55348   0.54087   -1.000
 3532.00    0.55229   0.53532   -1.000
 3533.00    0.55665   0.54136   -1.000
 3534.00    0.56102   0.55341  509.366
 3535.00    0.56255   0.56334  509.366
 3536.00    0.57775   0.56608   -1.000
 3537.00    0.57146   0.56930  493.812
 3538.00    0.56570   0.58004   -1.000
 3539.00    0.57546   0.58727   -1.000
 3540.00    0.56981   0.58392   -1.000
 3541.00    0.56585   0.57337   -1.000
 3542.00    0.56859   0.56850  488.402
 3543.00    0.56302   0.57653   -1.000
 3544.00    0.54143   0.58742   -1.000
 3545.00    0.54849   0.59178   -1.000
 3546.00    0.55359   0.58578   -1.000
 3547.00    0.54529   0.57807   -1.000
 3548.00    0.54494   0.57644   -1.000
 3549.00    0.54342   0.57921   -1.000
 3550.00    0.54815   0.57951   -1.000
 3551.00    0.54527   0.57100   -1.000
 3552.00    0.52692   0.55503   -1.000
 3553.00    0.49650   0.53876   -1.000
 3554.00    0.49074   0.53201   -1.000
 3555.00    0.49372   0.53712   -1.000
 3556.00    0.51976   0.54318   -1.000
 3557.00    0.51831   0.54404   -1.000
 3558.00    0.50714   0.53920   -1.000
 3559.00    0.51111   0.53669   -1.000
 3560.00    0.49453   0.54365   -1.000
 3561.00    0.49765   0.55749   -1.000
 3562.00    0.52355   0.56863   -1.000
 3563.00    0.51119   0.55547   -1.000
 3564.00    0.47428   0.51746   -1.000
 3565.00    0.45299   0.47412   -1.000
 3566.00    0.45010   0.45302  137.322
 3567.00    0.43173   0.45442   62.750
 3568.00    0.41651   0.45474   64.047
 3569.00    0.41116   0.44372   63.433
 3570.00    0.42512   0.43370   64.037
 3571.00    0.44924   0.43648   65.864
 3572.00    0.47552   0.45453   65.783
 3573.00    0.47647   0.47236   63.347
 3574.00    0.48651   0.48444   93.273
 3575.00    0.49334   0.49223  509.366
 3576.00    0.49504   0.49537  509.366
 3577.00    0.48572   0.48707  509.366
 3578.00    0.46318   0.46774  509.366
 3579.00    0.43606   0.43680  509.366
 3580.00    0.41742   0.40790  144.335
 3581.00    0.39591   0.39060   65.710
 3582.00    0.39328   0.39195   70.368
 3583.00    0.39543   0.40125   72.927
 3584.00    0.39077   0.40135   73.309
 3585.00    0.38806   0.39228   74.190
 3586.00    0.39207   0.38558   76.295
 3587.00    0.37743   0.39196   78.280
 3588.00    0.38116   0.41182   77.399
 3589.00    0.41555   0.44430   73.365
 3590.00    0.45177   0.48089   69.594
 3591.00    0.48113   0.51074   65.091
 3592.00    0.50640   0.52209   91.741
 3593.00    0.52063   0.52297  509.366
 3594.00    0.52076   0.52940   -1.000
 3595.00    0.53508   0.54735   -1.000
 3596.00    0.56460   0.57104   -1.000
 3597.00    0.57787   0.58702   -1.000
 3598.00    0.58218   0.59774   -1.000
 3599.00    0.58498   0.60787   -1.000
 3600.00    0.58121   0.60838   -1.000
 3601.00    0.56777   0.58793   -1.000
 3602.00    0.56355   0.55570  472.630
 3603.00    0.55100   0.52335   -1.000
 3604.00    0.53518   0.50384   -1.000
 3605.00    0.50872   0.49863   -1.000
 3606.00    0.49835   0.49742  509.366
 3607.00    0.49512   0.48779   -1.000
 3608.00    0.47450   0.47022   -1.000
 3609.00    0.46873   0.46158   -1.000
 3610.00    0.48066   0.47069   -1.000
 3611.00    0.49213   0.49392  509.366
 3612.00    0.50978   0.51362  509.366
 3613.00    0.52532   0.52727  509.366
 3614.00    0.53728   0.54215  509.366
 3615.00    0.54793   0.55578   -1.000
 3616.00    0.55487   0.54846   -1.000
 3617.00    0.52225   0.51438   -1.000
 3618.00    0.47437   0.46780   -1.000
 3619.00    0.45193   0.45005  509.366
 3620.00    0.46600   0.47011  143.707
 3621.00    0.51415   0.51366   89.462
 3622.00    0.56138   0.55393   -1.000
 3623.00    0.57088   0.57732   -1.000
 3624.00    0.57833   0.59521   -1.000
 3625.00    0.60256   0.62297   -1.000
 3626.00    0.61807   0.65329   -1.000
 3627.00    0.63520   0.67070   -1.000
 3628.00    0.64062   0.65866   -1.000
 3629.00    0.60109   0.61462   -1.000
 3630.00    0.54690   0.54902  448.422
 3631.00    0.49784   0.50143  485.047
 3632.00    0.46955   0.48640   -1.000
 3633.00    0.47921   0.50119   -1.000
 3634.00    0.50608   0.52646   -1.000
 3635.00    0.53593   0.54906   -1.000
 3636.00    0.57116   0.56423   -1.000
 3637.00    0.59311   0.58177   -1.000
 3638.00    0.60509   0.60646  494.169
 3639.00    0.60759   0.62860   -1.000
 3640.00    0.62035   0.63844   -1.000
 3641.00    0.60750   0.63044   -1.000
 3642.00    0.59276   0.60791   -1.000
 3643.00    0.57587   0.58151   -1.000
 3644.00    0.55749   0.55744  477.267
 3645.00    0.53459   0.53773  499.247
 3646.00    0.51057   0.52052   -1.000
 3647.00    0.50949   0.50511  509.366
 3648.00    0.52902   0.50316   -1.000
 3649.00    0.52646   0.51715   -1.000
 3650.00    0.53292   0.54682   -1.000
 3651.00    0.57004   0.58230   -1.000
 3652.00    0.60857   0.61684   -1.000
 3653.00    0.62748   0.63679   -1.000
 3654.00    0.62655   0.64668   -1.000
 3655.00    0.62939   0.65484   -1.000
 3656.00    0.65622   0.66666   -1.000
 3657.00    0.66130   0.68302   -1.000
 3658.00    0.65904   0.69429   -1.000
 3659.00    0.67348   0.69822   -1.000
 3660.00    0.67795   0.69458   -1.000
 3661.00    0.67522   0.68364   -1.000
 3662.00    0.66713   0.66609  421.563
 3663.00    0.64483   0.65221   -1.000
 3664.00    0.62835   0.64748   -1.000
 3665.00    0.63573   0.64992   -1.000
 3666.00    0.62922   0.65088   -1.000
 3667.00    0.61248   0.64192   -1.000
 3668.00    0.61447   0.62574   -1.000
 3669.00    0.62234   0.61388  445.855
 3670.00    0.61497   0.62063   -1.000
 3671.00    0.61545   0.64253   -1.000
 3672.00    0.64813   0.66166   -1.000
 3673.00    0.67123   0.67003  436.627
 3674.00    0.66941   0.66945  430.434
 3675.00    0.66137   0.66039  429.497
 3676.00    0.63656   0.64010   -1.000
 3677.00    0.60945   0.61220  434.914
 3678.00    0.57898   0.58405   -1.000
 3679.00    0.56516   0.56531  462.500
 3680.00    0.56905   0.56459  475.773
 3681.00    0.58114   0.58098  483.316
 3682.00    0.59765   0.60108  477.905
 3683.00    0.61299   0.61272  464.768
 3684.00    0.59887   0.60503   -1.000
 3685.00    0.57634   0.58027  455.361
 3686.00    0.54458   0.54900  469.214
 3687.00    0.54282   0.53567   -1.000
 3688.00    0.56648   0.55030   -1.000
 3689.00    0.60116   0.59044   -1.000
 3690.00    0.62353   0.63708   -1.000
 3691.00    0.65348   0.66832   -1.000
 3692.00    0.66327   0.67004   -1.000
 3693.00    0.65320   0.65187  420.482
 3694.00    0.64321   0.63607  426.699
 3695.00    0.63397   0.63074  436.742
 3696.00    0.64540   0.63637  440.000
 3697.00    0.66136   0.65083   -1.000
 3698.00    0.66779   0.67594   -1.000
 3699.00    0.68582   0.69876   -1.000
 3700.00    0.70505   0.70891   -1.000
 3701.00    0.69547   0.69702  402.753
 3702.00    0.65300   0.66087   -1.000
 3703.00    0.60433   0.60259  413.049
 3704.00    0.55658   0.54609   -1.000
 3705.00    0.52050   0.50657   -1.000
 3706.00    0.50589   0.49537   -1.000
 3707.00    0.51114   0.50116   -1.000
 3708.00    0.52852   0.51283   -1.000
 3709.00    0.55299   0.53235   -1.000
 3710.00    0.57385   0.56442   -1.000
 3711.00    0.60108   0.60293  489.722
 3712.00    0.65694   0.64395   -1.000
 3713.00    0.69755   0.67835   -1.000
 3714.00    0.70614   0.69616  420.397
 3715.00    0.69324   0.69233  403.490
 3716.00    0.69050   0.67152   -1.000
 3717.00    0.67297   0.63267   -1.000
 3718.00    0.60856   0.57437   -1.000
 3719.00    0.52325   0.50502   -1.000
 3720.00    0.46965   0.44530   -1.000
 3721.00    0.45720   0.42395   -1.000
 3722.00    0.48043   0.44666   -1.000
 3723.00    0.52662   0.49769   86.032
 3724.00    0.58298   0.55750   -1.000
 3725.00    0.61005   0.59727   -1.000
 3726.00    0.62116   0.60103   -1.000
 3727.00    0.61131   0.58684   -1.000
 3728.00    0.60804   0.58317   -1.000
 3729.00    0.61828   0.58896   -1.000
 3730.00    0.61782   0.58581   -1.000
 3731.00    0.57483   0.55859   -1.000
 3732.00    0.53259   0.50249   -1.000
 3733.00    0.47029   0.44195   -1.000
 3734.00    0.41092   0.39333   -1.000
 3735.00    0.39794   0.37228   63.063
 3736.00    0.40720   0.38334   69.138
 3737.00    0.43687   0.42640   69.758
 3738.00    0.48957   0.48625   65.212
 3739.00    0.53705   0.54990   83.420
 3740.00    0.58536   0.59252  509.366
 3741.00    0.59019   0.60179   -1.000
 3742.00    0.57537   0.57718  455.675
 3743.00    0.54492   0.53912  459.570
 3744.00    0.51437   0.50071   -1.000
 3745.00    0.48822   0.47464   -1.000
 3746.00    0.46554   0.45475   -1.000
 3747.00    0.44653   0.42955   -1.000
 3748.00    0.41914   0.40487  165.666
 3749.00    0.42483   0.39902   62.992
 3750.00    0.45903   0.42634   66.073
 3751.00    0.51006   0.48426   90.632
 3752.00    0.57231   0.54764   -1.000
 3753.00    0.61818   0.60315   -1.000
 3754.00    0.65600   0.64636   -1.000
 3755.00    0.67505   0.65836   -1.000
 3756.00    0.64168   0.62729   -1.000
 3757.00    0.57263   0.56951  412.496
 3758.00    0.52568   0.51765   -1.000
 3759.00    0.52463   0.50430   -1.000
 3760.00    0.54244   0.51973   -1.000
 3761.00    0.56043   0.54003   -1.000
 3762.00    0.56135   0.54947   -1.000
 3763.00    0.55943   0.55041   -1.000
 3764.00    0.56257   0.55133   -1.000
 3765.00    0.56927   0.54975   -1.000
 3766.00    0.56213   0.54220   -1.000
 3767.00    0.55677   0.53825   -1.000
 3768.00    0.57300   0.54312   -1.000
 3769.00    0.58419   0.55050   -1.000
 3770.00    0.59528   0.55890   -1.000
 3771.00    0.61930   0.57745   -1.000
 3772.00    0.63913   0.60440   -1.000
 3773.00    0.65345   0.62871   -1.000
 3774.00    0.65884   0.64058   -1.000
 3775.00    0.64987   0.64297  423.617
 3776.00    0.64291   0.64591  422.588
 3777.00    0.64848   0.65388   -1.000
 3778.00    0.65426   0.66853   -1.000
 3779.00    0.67219   0.68580   -1.000
 3780.00    0.69683   0.70197   -1.000
 3781.00    0.71182   0.71238  397.226
 3782.00    0.71122   0.71738   -1.000
 3783.00    0.71009   0.71782   -1.000
 3784.00    0.69957   0.70414   -1.000
 3785.00    0.67504   0.66873  388.662
 3786.00    0.62032   0.62392  401.124
 3787.00    0.58099   0.58465  425.259
 3788.00    0.56884   0.56120   -1.000
 3789.00    0.54962   0.55884   -1.000
 3790.00    0.57257   0.57157  478.905
 3791.00    0.58728   0.58371  476.023
 3792.00    0.58568   0.58409  468.415
 3793.00    0.56994   0.56629  467.089
 3794.00    0.53684   0.54196  477.445
 3795.00    0.52751   0.51988   -1.000
 3796.00    0.52344   0.49766   -1.000
 3797.00    0.49479   0.47260   -1.000
 3798.00    0.48879   0.45871   -1.000
 3799.00    0.50019   0.47400   -1.000
 3800.00    0.54048   0.52044   -1.000
 3801.00    0.58050   0.57597   -1.000
 3802.00    0.61205   0.62429   -1.000
 3803.00    0.62235   0.65421   -1.000
 3804.00    0.62659   0.66366   -1.000
 3805.00    0.63747   0.64994   -1.000
 3806.00    0.60777   0.62641   -1.000
 3807.00    0.56857   0.61431   -1.000
 3808.00    0.57554   0.62478   -1.000
 3809.00    0.59358   0.64860   -1.000
 3810.00    0.61255   0.66509   -1.000
 3811.00    0.62116   0.65866   -1.000
 3812.00    0.59525   0.62436   -1.000
 3813.00    0.56329   0.57880   -1.000
 3814.00    0.53386   0.53668  467.259
 3815.00    0.50047   0.51529   -1.000
 3816.00    0.48673   0.51775   -1.000
 3817.00    0.49677   0.52936   -1.000
 3818.00    0.49839   0.52669   -1.000
 3819.00    0.47289   0.49984   -1.000
 3820.00    0.45187   0.47623   -1.000
 3821.00    0.44038   0.47678   -1.000
 3822.00    0.46578   0.49399   -1.000
 3823.00    0.47966   0.49868   -1.000
 3824.00    0.45379   0.47533   -1.000
 3825.00    0.41417   0.44608   -1.000
 3826.00    0.40376   0.42947   -1.000
 3827.00    0.40953   0.42964   64.283
 3828.00    0.41750   0.43956   65.125
 3829.00    0.42420   0.45097   64.397
 3830.00    0.41497   0.45281   63.341
 3831.00    0.41380   0.43818   62.787
 3832.00    0.38673   0.41302   64.150
 3833.00    0.37755   0.38966   67.697
 3834.00    0.38412   0.38251   72.315
 3835.00    0.40105   0.38754   73.476
 3836.00    0.41230   0.39732   71.540
 3837.00    0.40392   0.40307   68.971
 3838.00    0.38538   0.40275   68.268
 3839.00    0.38281   0.40761   69.837
 3840.00    0.40251   0.42764   70.747
 3841.00    0.45120   0.46863   68.661
 3842.00    0.49183   0.51597   85.220
 3843.00    0.52237   0.55685   -1.000
 3844.00    0.53586   0.57988   -1.000
 3845.00    0.54740   0.58862   -1.000
 3846.00    0.54000   0.59276   -1.000
 3847.00    0.54050   0.59452   -1.000
 3848.00    0.53943   0.58544   -1.000
 3849.00    0.51554   0.57102   -1.000
 3850.00    0.49926   0.56375   -1.000
 3851.00    0.50343   0.57215   -1.000
 3852.00    0.51666   0.58514   -1.000
 3853.00    0.52556   0.58741   -1.000
 3854.00    0.51934   0.57620   -1.000
 3855.00    0.49461   0.55909   -1.000
 3856.00    0.47940   0.54251   -1.000
 3857.00    0.46888   0.52331   -1.000
 3858.00    0.44760   0.49913   -1.000
 3859.00    0.42039   0.48353   -1.000
 3860.00    0.41757   0.49213   -1.000
 3861.00    0.45201   0.52871   -1.000
 3862.00    0.49847   0.57311   -1.000
 3863.00    0.53313   0.59814   -1.000
 3864.00    0.54152   0.59797   -1.000
 3865.00    0.53059   0.58692   -1.000
 3866.00    0.52915   0.58005   -1.000
 3867.00    0.51671   0.57837   -1.000
 3868.00    0.50868   0.57258   -1.000
 3869.00    0.48796   0.55810   -1.000
 3870.00    0.45235   0.53313   -1.000
 3871.00    0.44477   0.51282   -1.000
 3872.00    0.46131   0.50819   -1.000
 3873.00    0.48856   0.53026   78.440
 3874.00    0.53790   0.56889   -1.000
 3875.00    0.56573   0.59795   -1.000
 3876.00    0.56019   0.59220   -1.000
 3877.00    0.53068   0.56031   -1.000
 3878.00    0.50362   0.53686   -1.000
 3879.00    0.50191   0.53386   -1.000
 3880.00    0.49737   0.53948   -1.000
 3881.00    0.48844   0.54425   -1.000
 3882.00    0.48622   0.54795   -1.000
 3883.00    0.52610   0.55759   -1.000
 3884.00    0.57821   0.56105   -1.000
 3885.00    0.57948   0.53888   -1.000
 3886.00    0.55256   0.50390   -1.000
 3887.00    0.53146   0.47563   -1.000
 3888.00    0.53690   0.46994   -1.000
 3889.00    0.56696   0.49287   -1.000
 3890.00    0.59851   0.53925   -1.000
 3891.00    0.65835   0.59453   -1.000
 3892.00    0.69605   0.63718   -1.000
 3893.00    0.69763   0.65085   -1.000
 3894.00    0.68441   0.64482   -1.000
 3895.00    0.66837   0.64206   -1.000
 3896.00    0.67523   0.64924   -1.000
 3897.00    0.69533   0.65726   -1.000
 3898.00    0.70168   0.65721   -1.000
 3899.00    0.68831   0.65141   -1.000
 3900.00    0.67347   0.65141   -1.000
 3901.00    0.68780   0.65690   -1.000
 3902.00    0.70068   0.65664   -1.000
 3903.00    0.68218   0.64606   -1.000
 3904.00    0.65201   0.62791   -1.000
 3905.00    0.62667   0.61493   -1.000
 3906.00    0.62623   0.62043   -1.000
 3907.00    0.65141   0.65001  444.790
 3908.00    0.68967   0.68837  435.232
 3909.00    0.72591   0.71781   -1.000
 3910.00    0.74695   0.73360   -1.000
 3911.00    0.75392   0.74334   -1.000
 3912.00    0.76311   0.74665   -1.000
 3913.00    0.75797   0.74188   -1.000
 3914.00    0.74593   0.72998   -1.000
 3915.00    0.72545   0.71773  375.399
 3916.00    0.72283   0.70704   -1.000
 3917.00    0.72545   0.69472   -1.000
 3918.00    0.70590   0.67526   -1.000
 3919.00    0.67550   0.64528   -1.000
 3920.00    0.63586   0.61575   -1.000
 3921.00    0.60656   0.59922   -1.000
 3922.00    0.60515   0.60112   -1.000
 3923.00    0.60837   0.61217  459.893
 3924.00    0.61624   0.61591  454.445
 3925.00    0.60170   0.60393  448.625
 3926.00    0.57299   0.57031  456.562
 3927.00    0.51763   0.52325  484.409
 3928.00    0.44565   0.47181   -1.000
 3929.00    0.39880   0.42506   -1.000
 3930.00    0.35302   0.38425   69.922
 3931.00    0.31019   0.34316   81.954
 3932.00    0.27192   0.30176   96.081
 3933.00    0.24991   0.27125  113.484
 3934.00    0.24490   0.27023   -1.000
 3935.00    0.26188   0.30046   -1.000
 3936.00    0.31324   0.34763   -1.000
 3937.00    0.37058   0.40030  111.216
 3938.00    0.41521   0.45676   -1.000
 3939.00    0.46381   0.50552   75.783
 3940.00    0.51532   0.54252   81.725
 3941.00    0.52114   0.56232   -1.000
 3942.00    0.53588   0.56442   -1.000
 3943.00    0.53762   0.56584   -1.000
 3944.00    0.54121   0.58230   -1.000
 3945.00    0.58623   0.61349   -1.000
 3946.00    0.64787   0.64383   -1.000
 3947.00    0.66223   0.66212  440.937
 3948.00    0.68536   0.67375   -1.000
 3949.00    0.70867   0.69056   -1.000
 3950.00    0.72915   0.70937   -1.000
 3951.00    0.74166   0.71427   -1.000
 3952.00    0.73063   0.71218   -1.000
 3953.00    0.72624   0.71898  388.627
 3954.00    0.74781   0.72764   -1.000
 3955.00    0.73852   0.72502   -1.000
 3956.00    0.72954   0.71324   -1.000
 3957.00    0.71773   0.70300   -1.000
 3958.00    0.71517   0.70085   -1.000
 3959.00    0.70327   0.68881   -1.000
 3960.00    0.64222   0.64262  395.664
 3961.00    0.56287   0.58215   -1.000
 3962.00    0.52565   0.53226  458.344
 3963.00    0.50789   0.50129   -1.000
 3964.00    0.47692   0.47566  509.366
 3965.00    0.42019   0.43349  220.861
 3966.00    0.36638   0.37530   65.637
 3967.00    0.31190   0.31351   77.770
 3968.00    0.26903   0.27284   95.900
 3969.00    0.26129   0.26963  115.168
 3970.00    0.29819   0.30180  122.695
 3971.00    0.35433   0.35563  110.696
 3972.00    0.42016   0.41952   91.062
 3973.00    0.49064   0.48324   75.128
 3974.00    0.55857   0.54501   79.105
 3975.00    0.61762   0.60018   -1.000
 3976.00    0.66152   0.65001   -1.000
 3977.00    0.72255   0.69699   -1.000
 3978.00    0.77210   0.74043   -1.000
 3979.00    0.80988   0.77850   -1.000
 3980.00    0.83471   0.79719   -1.000
 3981.00    0.82833   0.79651   -1.000
 3982.00    0.81859   0.78574   -1.000
 3983.00    0.81742   0.78054   -1.000
 3984.00    0.81942   0.79135   -1.000
 3985.00    0.84011   0.80942   -1.000
 3986.00    0.86797   0.82711   -1.000
 3987.00    0.88628   0.84448   -1.000
 3988.00    0.90826   0.85746   -1.000
 3989.00    0.91311   0.86119   -1.000
 3990.00    0.89663   0.86376   -1.000
 3991.00    0.90326   0.87351   -1.000
 3992.00    0.93051   0.88800   -1.000
 3993.00    0.93388   0.89637   -1.000
 3994.00    0.91836   0.89016   -1.000
 3995.00    0.90843   0.87025   -1.000
 3996.00    0.88748   0.84781   -1.000
 3997.00    0.87615   0.84188   -1.000
 3998.00    0.89101   0.85818   -1.000
 3999.00    0.91992   0.88921   -1.000
 4000.00    0.95520   0.91716   -1.000
 4001.00    0.97364   0.93622   -1.000
 4002.00    0.99954   0.94052   -1.000
 4003.00    0.99247   0.92155   -1.000
 4004.00    0.93287   0.87678   -1.000
 4005.00    0.87440   0.83456   -1.000
 4006.00    0.87280   0.82943   -1.000
 4007.00    0.91796   0.86225   -1.000
 4008.00    0.94911   0.90732   -1.000
 4009.00    0.97369   0.93593   -1.000
 4010.00    0.97664   0.94896   -1.000
 4011.00    0.97205   0.95371   -1.000
 4012.00    1.01263   0.95423   -1.000
 4013.00    1.01375   0.95853   -1.000
 4014.00    0.99196   0.96622   -1.000
 4015.00    0.99796   0.96884   -1.000
 4016.00    1.00000   0.96510   -1.000
 4017.00    0.99985   0.96241   -1.000
 4018.00    0.98967   0.96916   -1.000
 4019.00    1.00089   0.97991   -1.000
 4020.00    1.00718   0.98594   -1.000
 4021.00    1.00053   0.98202   -1.000
 4022.00    1.00365   0.97275   -1.000
 4023.00    0.99853   0.96130   -1.000
 4024.00    0.99275   0.95181   -1.000
 4025.00    0.99891   0.95479   -1.000
 4026.00    1.03060   0.97797   -1.000
 4027.00    1.06122   1.00589   -1.000
 4028.00    1.05988   1.00927   -1.000
 4029.00    1.01373   0.97296   -1.000
 4030.00    0.95539   0.91057   -1.000
 4031.00    0.92438   0.85847   -1.000
 4032.00    0.90802   0.83218   -1.000
 4033.00    0.90114   0.83441   -1.000
 4034.00    0.92149   0.86219   -1.000
 4035.00    0.97338   0.91369   -1.000
 4036.00    1.02464   0.97262   -1.000
 4037.00    1.06939   1.02280   -1.000
 4038.00    1.09179   1.04226   -1.000
 4039.00    1.07347   1.03254   -1.000
 4040.00    1.05663   1.01266   -1.000
 4041.00    1.03576   1.00048   -1.000
 4042.00    1.02583   0.98326   -1.000
 4043.00    1.00486   0.93192   -1.000
 4044.00    0.92386   0.84848   -1.000
 4045.00    0.83212   0.78255   -1.000
 4046.00    0.82238   0.78683   -1.000
 4047.00    0.89759   0.85866   -1.000
 4048.00    0.97064   0.93988   -1.000
 4049.00    1.00883   0.99780   -1.000
 4050.00    1.04768   1.02027   -1.000
 4051.00    1.04927   1.01762   -1.000
 4052.00    1.02293   1.00005   -1.000
 4053.00    1.01989   0.97562   -1.000
 4054.00    1.00662   0.95401   -1.000
 4055.00    0.96782   0.93746   -1.000
 4056.00    0.95332   0.92164   -1.000
 4057.00    0.96105   0.91037   -1.000
 4058.00    0.94577   0.91985   -1.000
 4059.00    0.97202   0.94900   -1.000
 4060.00    1.01465   0.96950   -1.000
 4061.00    1.00300   0.95095   -1.000
 4062.00    0.94785   0.89069   -1.000
 4063.00    0.88028   0.83823   -1.000
 4064.00    0.86026   0.82673   -1.000
 4065.00    0.89809   0.84609   -1.000
 4066.00    0.94016   0.87961   -1.000
 4067.00    0.99103   0.91464   -1.000
 4068.00    1.01854   0.94357   -1.000
 4069.00    1.03607   0.95209   -1.000
 4070.00    1.00534   0.92633   -1.000
 4071.00    0.96308   0.88852   -1.000
 4072.00    0.94255   0.88440   -1.000
 4073.00    0.98339   0.91174   -1.000
 4074.00    1.00277   0.93190   -1.000
 4075.00    0.96853   0.91151   -1.000
 4076.00    0.91340   0.86136   -1.000
 4077.00    0.86399   0.83105   -1.000
 4078.00    0.87522   0.84556   -1.000
 4079.00    0.94284   0.90448   -1.000
 4080.00    1.00419   0.97115   -1.000
 4081.00    1.05404   1.01045   -1.000
 4082.00    1.04151   1.00802   -1.000
 4083.00    1.00606   0.98025   -1.000
 4084.00    0.98950   0.95878   -1.000
 4085.00    0.99940   0.96394   -1.000
 4086.00    1.03152   0.99821   -1.000
 4087.00    1.09240   1.04140   -1.000
 4088.00    1.12428   1.07400   -1.000
 4089.00    1.13368   1.08129   -1.000
 4090.00    1.11217   1.06607   -1.000
 4091.00    1.08297   1.04507   -1.000
 4092.00    1.06111   1.03305   -1.000
 4093.00    1.06717   1.02303   -1.000
 4094.00    1.06278   1.00284   -1.000
 4095.00    1.01556   0.97016   -1.000
 4096.00    0.97931   0.93552   -1.000
 4097.00    0.96971   0.91334   -1.000
 4098.00    0.96008   0.89348   -1.000
 4099.00    0.92113   0.85402   -1.000
 4100.00    0.87433   0.79712   -1.000
 4101.00    0.81569   0.75370   -1.000
 4102.00    0.80924   0.75106   -1.000
 4103.00    0.86134   0.79984   -1.000
 4104.00    0.92447   0.87132   -1.000
 4105.00    0.96554   0.93394   -1.000
 4106.00    1.01450   0.97288   -1.000
 4107.00    1.03769   0.98889   -1.000
 4108.00    1.03350   0.98591   -1.000
 4109.00    1.01910   0.97379   -1.000
 4110.00    0.98829   0.96373   -1.000
 4111.00    0.97273   0.96673  306.789
 4112.00    0.98137   0.98291  310.109
 4113.00    1.00383   1.00745  305.536
 4114.00    1.02141   1.03131   -1.000
 4115.00    1.05241   1.04625  293.738
 4116.00    1.04648   1.04378  289.467
 4117.00    1.04649   1.02222   -1.000
 4118.00    1.01185   0.99448   -1.000
 4119.00    0.98892   0.97768  296.305
 4120.00    1.00165   0.97970   -1.000
 4121.00    1.00499   0.98915   -1.000
 4122.00    0.99329   0.99551  303.968
 4123.00    0.99713   1.00314  301.306
 4124.00    1.01402   1.01437  301.247
 4125.00    1.03371   1.02194  297.604
 4126.00    1.05056   1.01652   -1.000
 4127.00    1.04122   0.99943   -1.000
 4128.00    1.01304   0.98364   -1.000
 4129.00    0.98317   0.97465  303.043
 4130.00    0.97460   0.95871   -1.000
 4131.00    0.95760   0.93076   -1.000
 4132.00    0.93562   0.90370   -1.000
 4133.00    0.89953   0.90229  321.888
 4134.00    0.92824   0.93371  330.881
 4135.00    0.98610   0.98044  329.893
 4136.00    1.02593   1.02224  317.865
 4137.00    1.05773   1.05121  302.319
 4138.00    1.06791   1.06864  293.292
 4139.00    1.07280   1.07472  288.727
 4140.00    1.07220   1.05805   -1.000
 4141.00    1.03050   1.00770   -1.000
 4142.00    0.94112   0.93561  291.684
 4143.00    0.86242   0.88593   -1.000
 4144.00    0.87945   0.89006   -1.000
 4145.00    0.93320   0.93783  347.473
 4146.00    0.99055   0.99198  332.745
 4147.00    0.99867   1.01690   -1.000
 4148.00    1.01461   1.01262  302.948
 4149.00    0.99705   0.99742  301.133
 4150.00    0.99274   0.98818  307.517
 4151.00    0.97289   0.98638   -1.000
 4152.00    0.96283   0.98348   -1.000
 4153.00    0.95252   0.97422   -1.000
 4154.00    0.94056   0.96328   -1.000
 4155.00    0.95595   0.95947  318.380
 4156.00    1.20425   0.96956   -1.000
 4157.00    1.21629   0.99055   -1.000
 4158.00    0.74746   1.01796   -1.000
 4159.00    0.79710   1.04404   -1.000
 4160.00    1.04755   1.06246   -1.000
 4161.00    1.06666   1.07529   -1.000
 4162.00    1.06169   1.08435   -1.000
 4163.00    1.06949   1.08712   -1.000
 4164.00    1.05100   1.07870   -1.000
 4165.00    1.01596   1.06034   -1.000
 4166.00    0.98512   1.03650   -1.000
 4167.00    0.97417   1.02300   -1.000
 4168.00    0.97806   1.02684   -1.000
 4169.00    1.00022   1.03463   -1.000
 4170.00    0.99739   1.02235   -1.000
 4171.00    0.96173   0.97941   -1.000
 4172.00    0.91256   0.93290   -1.000
 4173.00    0.88462   0.91347   -1.000
 4174.00    0.89634   0.92785   -1.000
 4175.00    0.92976   0.95523   -1.000
 4176.00    0.95590   0.97099   -1.000
 4177.00    0.94014   0.97657   -1.000
 4178.00    0.93791   0.98528   -1.000
 4179.00    0.96394   0.99758   -1.000
 4180.00    0.97650   1.00489   -1.000
 4181.00    0.98125   1.00205   -1.000
 4182.00    0.95997   1.00012   -1.000
 4183.00    0.97605   1.01658   -1.000
 4184.00    1.01481   1.03641   -1.000
 4185.00    1.04789   1.03832  305.514
 4186.00    1.01848   1.01630  300.747
 4187.00    0.97717   0.99166   -1.000
 4188.00    0.95987   0.99231   -1.000
 4189.00    0.99220   1.01025   -1.000
 4190.00    1.00861   1.02570   -1.000
 4191.00    1.01717   1.03852   -1.000
 4192.00    1.03627   1.05379   -1.000
 4193.00    1.05156   1.06376   -1.000
 4194.00    1.03127   1.05113   -1.000
 4195.00    0.99599   1.00916   -1.000
 4196.00    0.94979   0.96352   -1.000
 4197.00    0.92044   0.93261   -1.000
 4198.00    0.91855   0.92172  330.104
 4199.00    0.94518   0.92197   -1.000
 4200.00    0.93713   0.92753   -1.000
 4201.00    0.95238   0.93468   -1.000
 4202.00    0.96025   0.94585   -1.000
 4203.00    0.98778   0.96922   -1.000
 4204.00    1.00545   1.00382  323.035
 4205.00    1.01501   1.03736   -1.000
 4206.00    1.05096   1.06511   -1.000
 4207.00    1.09869   1.08694   -1.000
 4208.00    1.09648   1.09403  301.380
 4209.00    1.08143   1.08785  296.005
 4210.00    1.07546   1.08227   -1.000
 4211.00    1.07090   1.08614   -1.000
 4212.00    1.06280   1.09022   -1.000
 4213.00    1.05742   1.07073   -1.000
 4214.00    0.99817   1.02819   -1.000
 4215.00    0.95011   0.99746   -1.000
 4216.00    0.98410   1.00439   -1.000
 4217.00    1.05329   1.05550  327.107
 4218.00    1.12001   1.11166  314.257
 4219.00    1.16078   1.15032  294.371
 4220.00    1.18045   1.16162   -1.000
 4221.00    1.17903   1.14622   -1.000
 4222.00    1.14135   1.09963   -1.000
 4223.00    1.05496   1.02358   -1.000
 4224.00    0.95679   0.92071   -1.000
 4225.00    0.85302   0.82195   -1.000
 4226.00    0.76823   0.76632  341.859
 4227.00    0.76567   0.79494   -1.000
 4228.00    0.88175   0.89699   -1.000
 4229.00    1.01500   1.01957  381.846
 4230.00    1.11185   1.09466   -1.000
 4231.00    1.13184   1.11116   -1.000
 4232.00    1.11861   1.09174   -1.000
 4233.00    1.08961   1.06075   -1.000
 4234.00    1.06035   1.03120   -1.000
 4235.00    1.03375   1.01306   -1.000
 4236.00    1.01594   1.00540   -1.000
 4237.00    1.01696   1.01042  308.065
 4238.00    1.04161   1.03016   -1.000
 4239.00    1.07294   1.05717   -1.000
 4240.00    1.09663   1.08371   -1.000
 4241.00    1.10581   1.10766  298.290
 4242.00    1.13326   1.12769  292.583
 4243.00    1.16438   1.14934   -1.000
 4244.00    1.18068   1.17053  287.505
 4245.00    1.17652   1.17078  282.281
 4246.00    1.14370   1.13516  276.944
 4247.00    1.08830   1.08104  281.006
 4248.00    1.05411   1.03020   -1.000
 4249.00    1.03227   1.00311   -1.000
 4250.00    1.01694   1.00281   -1.000
 4251.00    1.03442   1.02549   -1.000
 4252.00    1.06934   1.04503   -1.000
 4253.00    1.06197   1.04166   -1.000
 4254.00    1.04095   1.03079  296.373
 4255.00    1.04328   1.04143  299.023
 4256.00    1.09193   1.07759   -1.000
 4257.00    1.12987   1.09677   -1.000
 4258.00    1.09174   1.06562   -1.000
 4259.00    1.02486   1.01043   -1.000
 4260.00    0.98867   0.97929  301.133
 4261.00    0.99305   1.00649   -1.000
 4262.00    1.05253   1.07659   -1.000
 4263.00    1.13857   1.15158   -1.000
 4264.00    1.18267   1.19521   -1.000
 4265.00    1.19990   1.20267  277.748
 4266.00    1.19960   1.18703  271.963
 4267.00    1.16889   1.15481   -1.000
 4268.00    1.10580   1.10404  276.933
 4269.00    1.05951   1.03927   -1.000
 4270.00    1.00990   0.96454   -1.000
 4271.00    0.92374   0.90693   -1.000
 4272.00    0.88793   0.88438  327.936
 4273.00    0.91542   0.89946   -1.000
 4274.00    0.95283   0.93814   -1.000
 4275.00    0.99820   0.99440  340.668
 4276.00    1.07354   1.06301   -1.000
 4277.00    1.13810   1.12521   -1.000
 4278.00    1.15265   1.14462  295.465
 4279.00    1.12231   1.12246  282.831
 4280.00    1.07716   1.08790   -1.000
 4281.00    1.05176   1.07657   -1.000
 4282.00    1.06616   1.08913   -1.000
 4283.00    1.09051   1.09619  306.957
 4284.00    1.07943   1.08593  302.445
 4285.00    1.04422   1.06524   -1.000
 4286.00    1.02198   1.04559   -1.000
 4287.00    1.02566   1.02486  313.919
 4288.00    0.99704   0.98982  321.554
 4289.00    0.93794   0.94718   -1.000
 4290.00    0.90497   0.93113   -1.000
 4291.00    0.95134   0.95938  355.999
 4292.00    1.02591   1.01106   -1.000
 4293.00    1.07156   1.04228   -1.000
 4294.00    1.06419   1.03962   -1.000
 4295.00    1.02930   1.01945   -1.000
 4296.00    1.01797   0.98948   -1.000
 4297.00    0.98035   0.93982   -1.000
 4298.00    0.90100   0.87572   -1.000
 4299.00    0.80919   0.81775  344.508
 4300.00    0.78155   0.79043  375.076
 4301.00    0.80903   0.79444   -1.000
 4302.00    0.81395   0.81250   -1.000
 4303.00    0.84112   0.82892   -1.000
 4304.00    0.86989   0.83946   -1.000
 4305.00    0.86775   0.83475   -1.000
 4306.00    0.83284   0.80728   -1.000
 4307.00    0.78385   0.76935   -1.000
 4308.00    0.75717   0.74638   -1.000
 4309.00    0.76349   0.75899   -1.000
 4310.00    0.80876   0.80245   -1.000
 4311.00    0.87512   0.86232   -1.000
 4312.00    0.93698   0.92249   -1.000
 4313.00    0.98428   0.98742  364.128
 4314.00    1.04611   1.07178   -1.000
 4315.00    1.13753   1.17034   -1.000
 4316.00    1.25691   1.26726   -1.000
 4317.00    1.33749   1.32685  284.540
 4318.00    1.33733   1.33749  263.812
 4319.00    1.31855   1.31557  255.465
 4320.00    1.26731   1.28007   -1.000
 4321.00    1.24510   1.22793   -1.000
 4322.00    1.19219   1.15444   -1.000
 4323.00    1.10898   1.05525   -1.000
 4324.00    0.98773   0.96182   -1.000
 4325.00    0.92146   0.92533  312.221
 4326.00    0.95054   0.97806   -1.000
 4327.00    1.07678   1.09096   -1.000
 4328.00    1.20065   1.20461  326.324
 4329.00    1.25810   1.26270  291.413
 4330.00    1.26015   1.27379   -1.000
 4331.00    1.26593   1.27133  267.439
 4332.00    1.26557   1.28071   -1.000
 4333.00    1.28311   1.29899   -1.000
 4334.00    1.30863   1.30686  262.235
 4335.00    1.30374   1.28447   -1.000
 4336.00    1.26692   1.21493   -1.000
 4337.00    1.14575   1.10748   -1.000
 4338.00    1.04832   0.99155   -1.000
 4339.00    0.98140   0.91717   -1.000
 4340.00    0.94365   0.90572   -1.000
 4341.00    0.97730   0.95589   -1.000
 4342.00    1.07732   1.04287   -1.000
 4343.00    1.15058   1.12897   -1.000
 4344.00    1.19336   1.18903  309.627
 4345.00    1.23806   1.22780  291.546
 4346.00    1.26758   1.25655  282.884
 4347.00    1.27243   1.28441   -1.000
 4348.00    1.29708   1.30724   -1.000
 4349.00    1.31123   1.29555   -1.000
 4350.00    1.25845   1.23223   -1.000
 4351.00    1.15931   1.15303  265.152
 4352.00    1.09411   1.11023   -1.000
 4353.00    1.13609   1.13324  302.098
 4354.00    1.20538   1.19110   -1.000
 4355.00    1.24197   1.24352  291.225
 4356.00    1.27804   1.27283  278.050
 4357.00    1.30051   1.27917   -1.000
 4358.00    1.28251   1.26579   -1.000
 4359.00    1.24207   1.25467   -1.000
 4360.00    1.24393   1.26956   -1.000
 4361.00    1.30821   1.30223  274.191
 4362.00    1.33540   1.33394  268.285
 4363.00    1.33424   1.35644   -1.000
 4364.00    1.34558   1.37057   -1.000
 4365.00    1.37041   1.36810  256.524
 4366.00    1.34492   1.33696  253.550
 4367.00    1.28177   1.28825   -1.000
 4368.00    1.25313   1.25664  262.141
 4369.00    1.26552   1.25052   -1.000
 4370.00    1.27972   1.25332   -1.000
 4371.00    1.28865   1.24580   -1.000
 4372.00    1.26921   1.21896   -1.000
 4373.00    1.21333   1.17390   -1.000
 4374.00    1.13482   1.12902  272.490
 4375.00    1.12839   1.12153  284.276
 4376.00    1.18806   1.16152   -1.000
 4377.00    1.24940   1.22405   -1.000
 4378.00    1.29075   1.26365   -1.000
 4379.00    1.28135   1.26275   -1.000
 4380.00    1.27486   1.22179   -1.000
 4381.00    1.22184   1.13738   -1.000
 4382.00    1.11405   1.01754   -1.000
 4383.00    0.98437   0.91853   -1.000
 4384.00    0.91282   0.89878   -1.000
 4385.00    0.99376   0.96690   -1.000
 4386.00    1.11207   1.07281   -1.000
 4387.00    1.19008   1.14286   -1.000
 4388.00    1.21704   1.16128   -1.000
 4389.00    1.20679   1.15521   -1.000
 4390.00    1.18852   1.15476   -1.000
 4391.00    1.20531   1.17003   -1.000
 4392.00    1.23867   1.19062   -1.000
 4393.00    1.23435   1.19990   -1.000
 4394.00    1.21424   1.19822   -1.000
 4395.00    1.21874   1.21204  275.691
 4396.00    1.27102   1.25353   -1.000
 4397.00    1.33662   1.29082   -1.000
 4398.00    1.32354   1.28972   -1.000
 4399.00    1.26999   1.25129   -1.000
 4400.00    1.23550   1.21824   -1.000
 4401.00    1.23417   1.20965   -1.000
 4402.00    1.25869   1.19927   -1.000
 4403.00    1.21799   1.15717   -1.000
 4404.00    1.13425   1.09778   -1.000
 4405.00    1.09505   1.07042   -1.000
 4406.00    1.13113   1.09536   -1.000
 4407.00    1.18982   1.13821   -1.000
 4408.00    1.19945   1.17988   -1.000
 4409.00    1.21654   1.23078   -1.000
 4410.00    1.29257   1.29684  284.843
 4411.00    1.36048   1.35331  273.319
 4412.00    1.39341   1.36113   -1.000
 4413.00    1.36179   1.31391   -1.000
 4414.00    1.28133   1.24357   -1.000
 4415.00    1.21195   1.19020   -1.000
 4416.00    1.18979   1.19599  273.204
 4417.00    1.24987   1.25309  282.637
 4418.00    1.30586   1.32279   -1.000
 4419.00    1.34338   1.36700   -1.000
 4420.00    1.37063   1.37042  258.575
 4421.00    1.34123   1.33833  251.519
 4422.00    1.28413   1.30226   -1.000
 4423.00    1.27237   1.29042   -1.000
 4424.00    1.28201   1.29945   -1.000
 4425.00    1.29632   1.31176   -1.000
 4426.00    1.27223   1.31839   -1.000
 4427.00    1.26796   1.32501   -1.000
 4428.00    1.28639   1.32818   -1.000
 4429.00    1.28354   1.32309   -1.000
 4430.00    1.26540   1.31428   -1.000
 4431.00    1.27281   1.31378   -1.000
 4432.00    1.27910   1.31421   -1.000
 4433.00    1.26062   1.28950   -1.000
 4434.00    1.21252   1.24700   -1.000
 4435.00    1.17561   1.22820   -1.000
 4436.00    1.21893   1.26397   -1.000
 4437.00    1.29754   1.34308   -1.000
 4438.00    1.35803   1.41006   -1.000
 4439.00    1.40555   1.42915   -1.000
 4440.00    1.37440   1.39237   -1.000
 4441.00    1.30113   1.33131   -1.000
 4442.00    1.26785   1.28505   -1.000
 4443.00    1.25235   1.28454   -1.000
 4444.00    1.27942   1.32926   -1.000
 4445.00    1.35423   1.39095   -1.000
 4446.00    1.41493   1.43362   -1.000
 4447.00    1.42380   1.44484   -1.000
 4448.00    1.40510   1.44054   -1.000
 4449.00    1.41029   1.43585   -1.000
 4450.00    1.38614   1.42839   -1.000
 4451.00    1.37497   1.41680   -1.000
 4452.00    1.37398   1.39444   -1.000
 4453.00    1.34399   1.35161  254.463
 4454.00    1.29991   1.29118  256.393
 4455.00    1.24786   1.24748  266.308
 4456.00    1.24395   1.24139  278.783
 4457.00    1.26101   1.25512  284.191
 4458.00    1.27895   1.26365   -1.000
 4459.00    1.26272   1.25779  273.915
 4460.00    1.24844   1.24784  274.334
 4461.00    1.23968   1.24934  275.812
 4462.00    1.26782   1.27602  278.785
 4463.00    1.31331   1.32304  281.251
 4464.00    1.35362   1.36440  275.318
 4465.00    1.37841   1.38257  264.197
 4466.00    1.37206   1.38062  258.178
 4467.00    1.36192   1.36883  258.050
 4468.00    1.35383   1.35513  258.243
 4469.00    1.33924   1.34840   -1.000
 4470.00    1.34067   1.36180   -1.000
 4471.00    1.38037   1.40152   -1.000
 4472.00    1.41514   1.44936   -1.000
 4473.00    1.45273   1.48799   -1.000
 4474.00    1.49417   1.51062   -1.000
 4475.00    1.50164   1.52393   -1.000
 4476.00    1.50877   1.54289   -1.000
 4477.00    1.53024   1.55648   -1.000
 4478.00    1.52800   1.53698   -1.000
 4479.00    1.46244   1.47564   -1.000
 4480.00    1.38512   1.40052   -1.000
 4481.00    1.34242   1.35967   -1.000
 4482.00    1.35405   1.37462   -1.000
 4483.00    1.40932   1.43728   -1.000
 4484.00    1.47439   1.51034   -1.000
 4485.00    1.52244   1.55990   -1.000
 4486.00    1.53309   1.56710   -1.000
 4487.00    1.51219   1.53234   -1.000
 4488.00    1.46609   1.47363   -1.000
 4489.00    1.41731   1.42887   -1.000
 4490.00    1.39330   1.42548   -1.000
 4491.00    1.43588   1.45594   -1.000
 4492.00    1.48925   1.48201  253.966
 4493.00    1.46496   1.46894  247.010
 4494.00    1.41412   1.43005   -1.000
 4495.00    1.38089   1.40480   -1.000
 4496.00    1.38446   1.41854   -1.000
 4497.00    1.43527   1.46273   -1.000
 4498.00    1.49930   1.50604  257.155
 4499.00    1.51438   1.52587   -1.000
 4500.00    1.50094   1.52134   -1.000
 4501.00    1.48180   1.51751   -1.000
 4502.00    1.48002   1.53739   -1.000
 4503.00    1.53208   1.57670   -1.000
 4504.00    1.58316   1.61795   -1.000
 4505.00    1.59801   1.63901   -1.000
 4506.00    1.58046   1.63213   -1.000
 4507.00    1.55838   1.61165   -1.000
 4508.00    1.55798   1.59761   -1.000
 4509.00    1.57880   1.59832   -1.000
 4510.00    1.58731   1.60560   -1.000
 4511.00    1.58387   1.60312   -1.000
 4512.00    1.55854   1.58097   -1.000
 4513.00    1.52992   1.54996   -1.000
 4514.00    1.50240   1.52641   -1.000
 4515.00    1.51600   1.51642  240.637
 4516.00    1.52700   1.51625  242.083
 4517.00    1.52381   1.51546  240.830
 4518.00    1.51634   1.51563  240.673
 4519.00    1.52345   1.52959  243.682
 4520.00    1.55547   1.55270  245.081
 4521.00    1.56362   1.56576  240.822
 4522.00    1.54463   1.55539   -1.000
 4523.00    1.50434   1.52721   -1.000
 4524.00    1.48311   1.49622   -1.000
 4525.00    1.44558   1.46281   -1.000
 4526.00    1.40595   1.41974   -1.000
 4527.00    1.35853   1.37045   -1.000
 4528.00    1.30511   1.33116   -1.000
 4529.00    1.32655   1.32051  269.023
 4530.00    1.34508   1.34024  272.201
 4531.00    1.38076   1.37457  270.163
 4532.00    1.41375   1.39819   -1.000
 4533.00    1.38898   1.39404  260.515
 4534.00    1.34313   1.37334   -1.000
 4535.00    1.32342   1.36858   -1.000
 4536.00    1.37421   1.40972   -1.000
 4537.00    1.49383   1.48158   -1.000
 4538.00    1.55096   1.53914   -1.000
 4539.00    1.56124   1.55293  241.293
 4540.00    1.52235   1.53322   -1.000
 4541.00    1.50355   1.51401   -1.000
 4542.00    1.49778   1.51313   -1.000
 4543.00    1.53077   1.52065  242.669
 4544.00    1.54977   1.51964   -1.000
 4545.00    0.51385   1.50748   -1.000
 4546.00   -0.01097   1.49614    0.000
 4547.00   -0.02338   1.48863    0.000
 4548.00    0.97600   1.47535   -1.000
 4549.00    0.54347   1.45895   -1.000
 4550.00    0.84506   1.45555   -1.000
 4551.00    1.52586   1.47147   -1.000
 4552.00    1.47679   1.48588  254.722
 4553.00    1.45005   1.47843   -1.000
 4554.00    1.45796   1.46237  251.589
 4555.00    1.47842   1.46234   -1.000
 4556.00    1.50090   1.49376  257.894
 4557.00    1.55138   1.54740  254.046
 4558.00    1.59985   1.59405  244.774
 4559.00    1.59894   1.61882   -1.000
 4560.00    1.60282   1.62814   -1.000
 4561.00    1.61109   1.62532   -1.000
 4562.00    1.58624   1.60731   -1.000
 4563.00    1.57156   1.57138  231.944
 4564.00    1.53137   1.53331  237.305
 4565.00    1.49139   1.51811   -1.000
 4566.00    1.51909   1.53703   -1.000
 4567.00    1.56905   1.57847  244.793
 4568.00    1.61015   1.61484  238.589
 4569.00    1.60782   1.62164   -1.000
 4570.00    1.55695   1.59961   -1.000
 4571.00    1.51870   1.56838   -1.000
 4572.00    1.53391   1.55430   -1.000
 4573.00    1.57091   1.57262  244.527
 4574.00    1.60792   1.60601  242.889
 4575.00    1.60800   1.62598   -1.000
 4576.00    1.58553   1.62602   -1.000
 4577.00    1.58124   1.61253   -1.000
 4578.00    1.57244   1.58503   -1.000
 4579.00    1.52276   1.54369   -1.000
 4580.00    1.49451   1.50315  238.635
 4581.00    1.48712   1.48358  245.765
 4582.00    1.50047   1.48890   -1.000
 4583.00    1.51511   1.50291   -1.000
 4584.00    1.51051   1.51050  246.824
 4585.00    1.49656   1.51082   -1.000
 4586.00    1.50806   1.51777  245.635
 4587.00    1.54813   1.54570  247.177
 4588.00    1.58486   1.58621  243.876
 4589.00    1.61316   1.61478  237.515
 4590.00    1.60579   1.61705  232.427
 4591.00    1.57885   1.59538   -1.000
 4592.00    1.53725   1.56392   -1.000
 4593.00    1.52469   1.53995   -1.000
 4594.00    1.51388   1.53104   -1.000
 4595.00    1.52506   1.52810  244.241
 4596.00    1.53987   1.52891  242.209
 4597.00    1.54815   1.53768  240.293
 4598.00    1.55955   1.54894  239.617
 4599.00    1.54887   1.55486  239.113
 4600.00    1.53900   1.55444   -1.000
 4601.00    1.52538   1.55292   -1.000
 4602.00    1.54164   1.55569   -1.000
 4603.00    1.54570   1.56070   -1.000
 4604.00    1.55557   1.56225  241.017
 4605.00    1.56813   1.56472  238.298
 4606.00    1.57866   1.57999  238.595
 4607.00    1.61132   1.61449  238.233
 4608.00    1.64212   1.65840   -1.000
 4609.00    1.68648   1.69198  231.102
 4610.00    1.69795   1.69920  226.154
 4611.00    1.65377   1.68163   -1.000
 4612.00    1.63564   1.65695   -1.000
 4613.00    1.63702   1.64107  227.326
 4614.00    1.63714   1.64285  229.881
 4615.00    1.64980   1.65764  231.409
 4616.00    1.65336   1.67085   -1.000
 4617.00    1.65145   1.67543   -1.000
 4618.00    1.63886   1.67268   -1.000
 4619.00    1.63348   1.66814   -1.000
 4620.00    1.64183   1.66995   -1.000
 4621.00    1.66456   1.68055   -1.000
 4622.00    1.68179   1.69121  228.231
 4623.00    1.66891   1.69244   -1.000
 4624.00    1.66676   1.68547   -1.000
 4625.00    1.66776   1.67873  224.982
 4626.00    1.65844   1.67510   -1.000
 4627.00    1.65983   1.67454   -1.000
 4628.00    1.65748   1.67574   -1.000
 4629.00    1.65139   1.67777   -1.000
 4630.00    1.65086   1.68212   -1.000
 4631.00    1.66987   1.68774   -1.000
 4632.00    1.68223   1.68575  228.837
 4633.00    1.65302   1.67177   -1.000
 4634.00    1.63517   1.65264   -1.000
 4635.00    1.63528   1.63907  230.330
 4636.00    1.62564   1.62734  232.920
 4637.00    1.60234   1.61118  232.834
 4638.00    1.57520   1.59435   -1.000
 4639.00    1.57325   1.58516  237.691
 4640.00    1.60243   1.59258  238.775
 4641.00    1.64617   1.61679   -1.000
 4642.00    1.65665   1.64301   -1.000
 4643.00    1.66599   1.65055   -1.000
 4644.00    1.65338   1.63001   -1.000
 4645.00    1.60988   1.58984   -1.000
 4646.00    1.55214   1.54202  230.461
 4647.00    1.53301   1.51044   -1.000
 4648.00    1.55025   1.51357   -1.000
 4649.00    1.59712   1.54744   -1.000
 4650.00    1.61746   1.59533   -1.000
 4651.00    1.63401   1.63716  235.115
 4652.00    1.64602   1.65667  231.765
 4653.00    1.63863   1.65018  231.225
 4654.00    1.58952   1.62476   -1.000
 4655.00    1.57372   1.59989   -1.000
 4656.00    1.58501   1.59833   -1.000
 4657.00    1.61563   1.63047   -1.000
 4658.00    1.66449   1.68688   -1.000
 4659.00    1.73151   1.73995  232.376
 4660.00    1.75761   1.76276  223.507
 4661.00    1.73516   1.74709  218.282
 4662.00    1.69030   1.70934   -1.000
 4663.00    1.65439   1.66834   -1.000
 4664.00    1.63123   1.63311  225.665
 4665.00    1.61326   1.59074   -1.000
 4666.00    1.54893   1.53326   -1.000
 4667.00    1.47242   1.48023  234.551
 4668.00    1.45202   1.46280  244.301
 4669.00    1.49724   1.49736  254.556
 4670.00    1.58412   1.56017   -1.000
 4671.00    1.63422   1.61475   -1.000
 4672.00    1.65265   1.64229   -1.000
 4673.00    1.64505   1.64730  231.093
 4674.00    1.63083   1.65099   -1.000
 4675.00    1.65160   1.66559  229.542
 4676.00    1.69773   1.68396   -1.000
 4677.00    1.70780   1.68504   -1.000
 4678.00    1.67727   1.66047   -1.000
 4679.00    1.61394   1.62439  223.941
 4680.00    1.58483   1.59259  228.604
 4681.00    1.58013   1.57842  233.179
 4682.00    1.58942   1.58663  237.084
 4683.00    1.62748   1.61166   -1.000
 4684.00    1.66657   1.63735   -1.000
 4685.00    1.68459   1.65129   -1.000
 4686.00    1.66750   1.65238   -1.000
 4687.00    1.65459   1.64577  228.317
 4688.00    1.65244   1.63900   -1.000
 4689.00    1.64952   1.63499   -1.000
 4690.00    1.65314   1.63305   -1.000
 4691.00    1.65146   1.63202   -1.000
 4692.00    1.65301   1.63540   -1.000
 4693.00    1.67552   1.64978   -1.000
 4694.00    1.70998   1.67269   -1.000
 4695.00    1.73584   1.69329   -1.000
 4696.00    1.75031   1.69901   -1.000
 4697.00    1.71065   1.67956   -1.000
 4698.00    1.65383   1.64028   -1.000
 4699.00    1.61538   1.60240   -1.000
 4700.00    1.61264   1.58143   -1.000
 4701.00    1.60562   1.56881   -1.000
 4702.00    1.59202   1.55714   -1.000
 4703.00    1.56641   1.55660   -1.000
 4704.00    1.60349   1.57315   -1.000
 4705.00    1.64334   1.59580   -1.000
 4706.00    1.64607   1.60434   -1.000
 4707.00    1.60396   1.59303   -1.000
 4708.00    1.58754   1.57663   -1.000
 4709.00    1.57984   1.57587  239.750
 4710.00    1.59832   1.59832  242.278
 4711.00    1.65586   1.63074   -1.000
 4712.00    1.69490   1.65205   -1.000
 4713.00    1.69728   1.64820   -1.000
 4714.00    1.66536   1.63202   -1.000
 4715.00    1.64699   1.63334   -1.000
 4716.00    1.67672   1.66152   -1.000
 4717.00    1.71007   1.70415  231.893
 4718.00    1.73816   1.74277  227.629
 4719.00    1.74586   1.76799   -1.000
 4720.00    1.76001   1.77875   -1.000
 4721.00    1.75730   1.77600   -1.000
 4722.00    1.74723   1.76425   -1.000
 4723.00    1.73352   1.75875   -1.000
 4724.00    1.76346   1.76600  223.294
 4725.00    1.76928   1.76601  222.232
 4726.00    1.72927   1.73737  219.892
 4727.00    1.66570   1.67982  219.984
 4728.00    1.59424   1.61813   -1.000
 4729.00    1.55824   1.58420   -1.000
 4730.00    1.59014   1.58628  238.848
 4731.00    1.62913   1.61160   -1.000
 4732.00    1.63177   1.64344  236.148
 4733.00    1.64620   1.67279   -1.000
 4734.00    1.68528   1.69220  231.497
 4735.00    1.71387   1.69563   -1.000
 4736.00    1.70000   1.68978  228.051
 4737.00    1.68023   1.68860  226.784
 4738.00    1.70204   1.70065  228.883
 4739.00    1.73345   1.71881   -1.000
 4740.00    1.72512   1.72683  226.715
 4741.00    1.70836   1.72419  226.504
 4742.00    1.71273   1.72574  227.736
 4743.00    1.72414   1.73312  228.142
 4744.00    1.73627   1.73984  226.505
 4745.00    1.74676   1.74934  224.072
 4746.00    1.74860   1.76340  224.241
 4747.00    1.75351   1.77898   -1.000
 4748.00    1.76519   1.79208   -1.000
 4749.00    1.75199   1.80023   -1.000
 4750.00    1.75509   1.80376   -1.000
 4751.00    1.76392   1.80054   -1.000
 4752.00    1.73643   1.78633   -1.000
 4753.00    1.72234   1.76348   -1.000
 4754.00    1.69569   1.74105   -1.000
 4755.00    1.69433   1.72641   -1.000
 4756.00    1.69416   1.72368   -1.000
 4757.00    1.68678   1.73213   -1.000
 4758.00    1.70215   1.74780   -1.000
 4759.00    1.71659   1.76564   -1.000
 4760.00    1.72078   1.77524   -1.000
 4761.00    1.70125   1.76307   -1.000
 4762.00    1.64989   1.72954   -1.000
 4763.00    1.61673   1.68906   -1.000
 4764.00    1.60985   1.65979   -1.000
 4765.00    1.59204   1.64328   -1.000
 4766.00    1.59275   1.63721   -1.000
 4767.00    1.61810   1.65015   -1.000
 4768.00    1.67392   1.68905   27.963
 4769.00    1.70827   1.74099   23.594
 4770.00    1.71948   1.77851   23.078
 4771.00    1.71434   1.78430   22.734
 4772.00    1.70159   1.77429   22.734
 4773.00    1.71845   1.77684   22.913
 4774.00    1.73249   1.80175   23.117
 4775.00    1.75799   1.83373   22.902
 4776.00    1.77648   1.85239   22.432
 4777.00    1.77488   1.85864   22.239
 4778.00    1.77074   1.85834   22.241
 4779.00    1.74421   1.84941   22.302
 4780.00    1.71538   1.83295   22.439
 4781.00    1.70558   1.81559   22.681
 4782.00    1.70493   1.79827   22.830
 4783.00    1.69281   1.78037   22.895
 4784.00    1.69564   1.76732   23.000
 4785.00    1.70293   1.76114   23.178
 4786.00    1.68924   1.75351   23.192
 4787.00    1.67330   1.74231   23.258
 4788.00    1.67229   1.73711   23.473
 4789.00    1.68403   1.73853   23.622
 4790.00    1.69555   1.74413   23.616
 4791.00    1.71457   1.75899   23.510
 4792.00    1.73744   1.78947   23.367
 4793.00    1.76303   1.83379   23.135
 4794.00    1.80798   1.88159   22.771
 4795.00    1.83437   1.91520   22.278
 4796.00    1.82525   1.92142   21.880
 4797.00    1.79319   1.89717   21.764
 4798.00    1.74281   1.85178   21.949
 4799.00    1.72116   1.80865   22.367
 4800.00    1.73028   1.79395   22.793
 4801.00    1.75402   1.81390   23.084
 4802.00    1.78437   1.85370   22.940
 4803.00    1.78499   1.88453   22.504
 4804.00    1.76813   1.88228   22.162
 4805.00    1.74301   1.85531   22.151
 4806.00    1.72986   1.82514   22.416
 4807.00    1.73290   1.80601   22.708
 4808.00    1.73065   1.79979   22.925
 4809.00    1.73567   1.80650   22.947
 4810.00    1.76271   1.82347   22.894
 4811.00    1.76707   1.84159   22.796
 4812.00    1.77090   1.85221   22.603
 4813.00    1.78640   1.85529   22.434
 4814.00    1.80548   1.85824   22.314
 4815.00    1.79829   1.86799   22.280
 4816.00    1.81289   1.88585   22.230
 4817.00    1.81788   1.90746   22.154
 4818.00    1.83153   1.92690   22.022
 4819.00    1.84875   1.93898   21.884
 4820.00    1.84069   1.94172   21.789
 4821.00    1.81593   1.92789   21.771
 4822.00    1.78326   1.89089   21.771
 4823.00    1.73991   1.84213   21.937
 4824.00    1.73784   1.80845   22.465
 4825.00    1.76376   1.80924   22.921
 4826.00    1.80670   1.83763   22.944
 4827.00    1.80818   1.86189   22.583
 4828.00    1.79163   1.86331   22.224
 4829.00    1.77436   1.85029   22.255
 4830.00    1.76047   1.83553   22.498
 4831.00    1.74673   1.81914   22.658
 4832.00    1.74706   1.80408   22.672
 4833.00    1.75569   1.80374   22.850
 4834.00    1.79118   1.82333   22.916
 4835.00    1.80912   1.85159   22.605
 4836.00    1.80536   1.86856   22.292
 4837.00    1.79291   1.86881   22.179
 4838.00    1.78120   1.85541   22.200
 4839.00    1.74384   1.83079   22.297
 4840.00    1.71183   1.80619   22.574
 4841.00    1.72683   1.79468   22.967
 4842.00    1.75603   1.79538   23.041
 4843.00    1.77290   1.80082   22.998
 4844.00    1.79906   1.81449   22.892
 4845.00    1.81706   1.84212   22.728
 4846.00    1.81937   1.86891   22.509
 4847.00    1.80880   1.87219   22.174
 4848.00    1.77831   1.84965   22.023
 4849.00    1.76488   1.82900   22.386
 4850.00    1.78702   1.83219   22.745
 4851.00    1.80527   1.84799   22.795
 4852.00    1.79682   1.85651   22.520
 4853.00    1.78004   1.84256   22.423
 4854.00    1.73265   1.80058   22.525
 4855.00    1.69328   1.74486   22.709
 4856.00    1.67446   1.70782   23.312
 4857.00    1.68160   1.69994   23.986
 4858.00    1.66367   1.69142   24.049
 4859.00    1.58146   1.63291   23.827
 4860.00    1.43638   1.50940   24.331
 4861.00    1.33310   1.38878   26.196
 4862.00    1.35573   1.34709   29.163
 4863.00    1.47397   1.41055   30.935
 4864.00    1.58704   1.52634   29.556
 4865.00    1.64040   1.62897   27.021
 4866.00    1.68109   1.69908   25.292
 4867.00    1.70044   1.74382   24.306
 4868.00    1.71851   1.76555   23.740
 4869.00    1.71183   1.76161   23.479
 4870.00    1.67399   1.72464   23.361
 4871.00    1.62216   1.66553   23.514
 4872.00    1.59948   1.62257   24.103
 4873.00    1.64154   1.63644   24.715
 4874.00    1.69298   1.69396   24.643
 4875.00    1.70547   1.74694   24.013
 4876.00    1.72913   1.77745   23.546
 4877.00    1.74627   1.79778   23.327
 4878.00    1.76016   1.82577   23.193
 4879.00    1.78305   1.85761   23.107
 4880.00    1.77517   1.87541   22.815
 4881.00    1.75141   1.86741   22.554
 4882.00    1.73392   1.84271   22.677
 4883.00    1.74752   1.82323   23.027
 4884.00    1.74157   1.80951   23.210
 4885.00    1.70945   1.78426   23.167
 4886.00    1.68440   1.75310   23.253
 4887.00    1.68511   1.73896   23.574
 4888.00    1.69510   1.73983   23.746
 4889.00    1.67909   1.73096   23.662
 4890.00    1.64817   1.69880   23.610
 4891.00    1.62153   1.66677   23.891
 4892.00    1.66982   1.68457   24.395
 4893.00    1.77735   1.76649   24.364
 4894.00    1.86278   1.87881   23.525
 4895.00    1.91289   1.96987   22.447
 4896.00    1.92587   2.01539   21.714
 4897.00    1.92190   2.02155   21.266
 4898.00    1.90443   2.00383   21.110
 4899.00    1.86377   1.97327   21.131
 4900.00    1.83281   1.94116   21.513
 4901.00    1.83087   1.91969   22.020
 4902.00    1.82340   1.90660   22.317
 4903.00    1.80747   1.89419   22.273
 4904.00    1.81382   1.89150   22.274
 4905.00    1.84769   1.91450   22.505
 4906.00    1.88616   1.95352   22.362
 4907.00    1.88931   1.96837   21.921
 4908.00    1.85654   1.94001   21.691
 4909.00    1.79014   1.88307   21.822
 4910.00    1.76138   1.82717   22.290
 4911.00    1.78038   1.80248   22.919
 4912.00    1.77834   1.81837   23.287
 4913.00    1.82162   1.86066   23.094
 4914.00    1.86108   1.90532   22.692
 4915.00    1.87947   1.93935   22.360
 4916.00    1.89060   1.94891   22.067
 4917.00    1.84316   1.91044   21.853
 4918.00    1.73406   1.81335   21.898
 4919.00    1.63050   1.69229   22.533
 4920.00    1.59082   1.60181   23.686
 4921.00    1.62627   1.58932   24.861
 4922.00    1.69713   1.64615   25.331
 4923.00    1.74652   1.71981   24.719
 4924.00    1.76711   1.76713   23.830
 4925.00    1.77492   1.79544   23.371
 4926.00    1.82103   1.83445   23.287
 4927.00    1.86017   1.88652   23.049
 4928.00    1.88670   1.93411   22.504
 4929.00    1.92001   1.97264   22.061
 4930.00    1.93459   1.99868   21.817
 4931.00    1.91480   1.99961   21.657
 4932.00    1.88372   1.96717   21.523
 4933.00    1.84056   1.91097   21.664
 4934.00    1.81485   1.86330   22.179
 4935.00    1.81462   1.85150   22.950
 4936.00    1.80996   1.85484   23.174
 4937.00    1.77986   1.83187   22.848
 4938.00    1.72551   1.78035   22.745
 4939.00    1.71162   1.74620   23.273
 4940.00    1.76541   1.77251   23.934
 4941.00    1.83896   1.84812   23.910
 4942.00    1.89939   1.93075   23.212
 4943.00    1.93691   1.98188   22.452
 4944.00    1.95175   1.99675   21.973
 4945.00    1.93858   1.98752   21.730
 4946.00    1.90849   1.97415   21.701
 4947.00    1.91119   1.97514   21.829
 4948.00    1.94538   1.99405   21.901
 4949.00    1.95037   2.01906   21.755
 4950.00    1.95036   2.03463   21.507
 4951.00    1.96702   2.03736   21.401
 4952.00    1.96139   2.02846   21.317
 4953.00    1.93997   2.01290   21.384
 4954.00    1.91217   1.99147   21.526
 4955.00    1.87193   1.94847   21.753
 4956.00    1.78275   1.86475   22.022
 4957.00    1.70056   1.75636   22.540
 4958.00    1.69626   1.69978   23.583
 4959.00    1.76809   1.74657   24.604
 4960.00    1.86109   1.85470   24.435
 4961.00    1.91518   1.95203   23.214
 4962.00    1.91246   1.99525   22.290
 4963.00    1.91080   1.99288   21.988
 4964.00    1.88675   1.96526   22.034
 4965.00    1.85768   1.92244   22.196
 4966.00    1.83018   1.87968   22.441
 4967.00    1.80191   1.85793   22.871
 4968.00    1.79949   1.85646   23.214
 4969.00    1.81454   1.86430   23.286
 4970.00    1.83608   1.88098   23.232
 4971.00    1.86594   1.90821   23.083
 4972.00    1.88409   1.94312   22.852
 4973.00    1.90051   1.97671   22.607
 4974.00    1.91666   1.99719   22.342
 4975.00    1.92463   2.00028   22.118
 4976.00    1.91090   1.98728   22.001
 4977.00    1.87729   1.95811   22.099
 4978.00    1.84328   1.92074   22.316
 4979.00    1.81357   1.88831   22.604
 4980.00    1.78572   1.85961   22.960
 4981.00    1.74699   1.81840   23.265
 4982.00    1.69428   1.75596   23.584
 4983.00    1.66319   1.69377   24.256
 4984.00    1.68509   1.67343   25.053
 4985.00    1.73233   1.70630   25.247
 4986.00    1.78605   1.77549   24.876
 4987.00    1.84689   1.85044   24.227
 4988.00    1.87757   1.90516   23.475
 4989.00    1.87265   1.91886   22.854
 4990.00    1.85038   1.90183   22.734
 4991.00    1.83238   1.88499   22.999
 4992.00    1.84200   1.88491   23.264
 4993.00    1.85667   1.89646   23.329
 4994.00    1.86246   1.90733   23.170
 4995.00    1.85659   1.91712   23.044
 4996.00    1.86524   1.93067   23.014
 4997.00    1.87744   1.93730   22.921
 4998.00    1.85600   1.92023   22.805
 4999.00    1.81425   1.87846   22.882
 5000.00    1.78911   1.82677   23.150
 5001.00    1.78103   1.79342   23.582
 5002.00    1.79009   1.78646   23.924
 5003.00    1.80585   1.79002   24.009
 5004.00    1.80090   1.78087   23.839
 5005.00    1.75788   1.74990   23.662
 5006.00    1.71785   1.71762   23.879
 5007.00    1.73896   1.71966   24.428
 5008.00    1.81224   1.77061   24.689
 5009.00    1.85787   1.83500   24.261
 5010.00    1.84866   1.86612   23.550
 5011.00    1.81649   1.84400   23.181
 5012.00    1.75545   1.78357   23.350
 5013.00    1.69240   1.71959   23.957
 5014.00    1.67279   1.68302   24.816
 5015.00    1.70246   1.68924   25.488
 5016.00    1.73614   1.71870   25.542
 5017.00    1.76186   1.74268   25.079
 5018.00    1.77144   1.75139   24.542
 5019.00    1.77811   1.76072   24.336
 5020.00    1.78745   1.78046   24.317
 5021.00    1.79628   1.79532   24.112
 5022.00    1.78720   1.79884   23.893
 5023.00    1.78796   1.80667   23.923
 5024.00    1.82845   1.83105   23.992
 5025.00    1.85863   1.85933   23.902
 5026.00    1.84343   1.86830   23.677
 5027.00    1.83091   1.85484   23.493
 5028.00    1.82932   1.84578   23.537
 5029.00    1.84746   1.86141   23.653
 5030.00    1.88511   1.89766   23.520
 5031.00    1.92005   1.94075   23.131
 5032.00    1.95365   1.98055   22.772
 5033.00    1.96413   2.00588   22.414
 5034.00    1.93053   1.99762   22.128
 5035.00    1.86825   1.94961   22.090
 5036.00    1.81955   1.88767   22.624
 5037.00    1.79235   1.84899   23.487
 5038.00    1.76706   1.82622   24.022
 5039.00    1.73475   1.78373   24.184
 5040.00    1.66553   1.71150   24.424
 5041.00    1.61508   1.64934   25.212
 5042.00    1.66841   1.65816   26.240
 5043.00    1.78782   1.74637   26.531
 5044.00    1.87105   1.86933   25.564
 5045.00    1.98151   1.97125   24.057
 5046.00    1.72768   2.02355   -1.000
 5047.00    0.60481   2.01966   -1.000
 5048.00    0.10101   1.96824   -1.000
 5049.00    0.19508   1.89734   -1.000
 5050.00    1.19281   1.84477   -1.000
 5051.00    1.76339   1.82813   15.919
 5052.00    1.85835   1.84251   27.043
 5053.00    1.89578   1.88254   23.687
 5054.00    1.94525   1.93841   23.428
 5055.00    1.97289   1.98703   22.848
 5056.00    1.99088   2.01334   22.389
 5057.00    1.98667   2.02349   22.125
 5058.00    1.97636   2.02907   22.019
 5059.00    1.99162   2.03907   22.031
 5060.00    2.00840   2.05704   22.073
 5061.00    2.01423   2.07746   22.077
 5062.00    2.00925   2.08033   21.964
 5063.00    1.96148   2.04547   21.931
 5064.00    1.90229   1.97624   22.152
 5065.00    1.86874   1.90658   22.707
 5066.00    1.85530   1.87456   23.482
 5067.00    1.87446   1.87720   23.910
 5068.00    1.88888   1.89148   23.765
 5069.00    1.90342   1.90830   23.418
 5070.00    1.92541   1.92675   23.266
 5071.00    1.92000   1.93553   23.169
 5072.00    1.90127   1.92680   23.027
 5073.00    1.90021   1.91489   23.120
 5074.00    1.91827   1.91742   23.309
 5075.00    1.93645   1.93064   23.149
 5076.00    1.93303   1.94139   22.934
 5077.00    1.92020   1.93720   22.864
 5078.00    1.87540   1.90263   22.844
 5079.00    1.80126   1.83312   23.001
 5080.00    1.76249   1.76374   23.645
 5081.00    1.76890   1.74633   24.697
 5082.00    1.80100   1.77679   25.236
 5083.00    1.83080   1.81865   24.917
 5084.00    1.86528   1.85813   24.377
 5085.00    1.91373   1.89788   23.997
 5086.00    1.94694   1.93392   23.581
 5087.00    1.94362   1.95760   23.164
 5088.00    1.94370   1.96880   22.935
 5089.00    1.96059   1.97761   22.869
 5090.00    1.97681   1.98932   22.779
 5091.00    1.99417   2.00533   22.627
 5092.00    2.02621   2.02751   22.490
 5093.00    2.03530   2.05152   22.372
 5094.00    2.03112   2.06222   22.153
 5095.00    1.99136   2.04281   21.937
 5096.00    1.94840   1.99228   22.026
 5097.00    1.89508   1.92402   22.418
 5098.00    1.85144   1.86054   22.902
 5099.00    1.83429   1.82497   23.441
 5100.00    1.86628   1.84055   23.956
 5101.00    1.92824   1.89786   24.152
 5102.00    1.96157   1.95781   23.739
 5103.00    1.96745   1.98251   23.071
 5104.00    1.95611   1.97281   22.735
 5105.00    1.93212   1.94979   22.780
 5106.00    1.88951   1.92310   23.038
 5107.00    1.86048   1.89512   23.335
 5108.00    1.86642   1.87127   23.624
 5109.00    1.86762   1.85733   23.918
 5110.00    1.88212   1.86246   23.978
 5111.00    1.91347   1.89001   23.853
 5112.00    1.94021   1.93256   23.685
 5113.00    1.96570   1.97176   23.392
 5114.00    1.99368   1.99802   23.089
 5115.00    2.01012   2.01740   22.808
 5116.00    2.02944   2.03772   22.582
 5117.00    2.04766   2.05910   22.438
 5118.00    2.04432   2.07344   22.236
 5119.00    2.02941   2.06896   22.034
 5120.00    2.00325   2.04223   22.027
 5121.00    1.96122   1.99972   22.255
 5122.00    1.92187   1.94710   22.581
 5123.00    1.88582   1.89032   22.945
 5124.00    1.85012   1.84557   23.474
 5125.00    1.84682   1.82803   24.156
 5126.00    1.86462   1.83480   24.491
 5127.00    1.86773   1.84737   24.377
 5128.00    1.86522   1.85336   24.224
 5129.00    1.85985   1.85792   24.089
 5130.00    1.87223   1.87150   24.071
 5131.00    1.91006   1.89864   24.068
 5132.00    1.93788   1.92979   23.838
 5133.00    1.95963   1.95571   23.455
 5134.00    1.98067   1.97675   23.201
 5135.00    1.99086   1.99251   22.993
 5136.00    1.99044   1.99234   22.785
 5137.00    1.94640   1.95980   22.684
 5138.00    1.90175   1.90504   22.956
 5139.00    1.88159   1.86835   23.480
 5140.00    1.88845   1.86516   23.916
 5141.00    1.89145   1.87477   24.050
 5142.00    1.88185   1.87370   23.902
 5143.00    1.86888   1.86857   23.958
 5144.00    1.88450   1.87928   24.292
 5145.00    1.90481   1.89546   24.314
 5146.00    1.89764   1.88920   23.975
 5147.00    1.89159   1.87045   23.791
 5148.00    1.90516   1.86701   23.928
 5149.00    1.91355   1.88194   24.042
 5150.00    1.91284   1.89357   23.849
 5151.00    1.89774   1.88447   23.661
 5152.00    1.87168   1.86518   23.828
 5153.00    1.85925   1.85428   24.229
 5154.00    1.88016   1.86109   24.477
 5155.00    1.91678   1.89091   24.434
 5156.00    1.97756   1.94043   24.064
 5157.00    2.03866   1.99319   23.492
 5158.00    2.06091   2.03077   22.892
 5159.00    2.06253   2.04801   22.418
 5160.00    2.06145   2.04786   22.178
 5161.00    2.04699   2.03302   22.130
 5162.00    2.02555   2.00440   22.183
 5163.00    1.99248   1.96183   22.295
 5164.00    1.93245   1.89895   22.510
 5165.00    1.81886   1.80108   22.832
 5166.00    1.65429   1.65826   23.544
 5167.00    1.51464   1.50730   25.164
 5168.00    1.47637   1.43736   27.644
 5169.00    1.54697   1.47578   29.853
 5170.00    1.61386   1.55273   30.023
 5171.00    1.58148   1.55527   28.580
 5172.00    1.46574   1.47114   27.792
 5173.00    1.42813   1.42096   28.910
 5174.00    1.57294   1.49205   -1.000
 5175.00    1.75529   1.66058   -1.000
 5176.00    1.88035   1.82057   27.856
 5177.00    1.94108   1.91004   25.313
 5178.00    1.96388   1.94265   24.029
 5179.00    1.95277   1.94391   23.578
 5180.00    1.89607   1.91260   23.471
 5181.00    1.78594   1.82197   23.620
 5182.00    1.61685   1.65976   24.263
 5183.00    1.45324   1.48938   25.736
 5184.00    1.42638   1.40767   28.378
 5185.00    1.57689   1.48453   -1.000
 5186.00    1.77898   1.66680   -1.000
 5187.00    1.90566   1.83374   27.782
 5188.00    1.96216   1.92570   25.142
 5189.00    1.97971   1.95964   23.937
 5190.00    1.97603   1.95585   23.579
 5191.00    1.92604   1.91132   23.456
 5192.00    1.86568   1.84098   23.600
 5193.00    1.85589   1.79964   24.198
 5194.00    1.89230   1.81353   24.911
 5195.00    1.92206   1.84704   24.997
 5196.00    1.95838   1.87870   24.624
 5197.00    1.99666   1.91509   24.237
 5198.00    2.01905   1.95971   23.884
 5199.00    2.04951   2.00315   23.444
 5200.00    2.07087   2.03139   23.020
 5201.00    2.06855   2.03687   22.768
 5202.00    2.04560   2.01727   22.698
 5203.00    1.99759   1.97132   22.818
 5204.00    1.94278   1.89934   23.163
 5205.00    1.88948   1.81942   23.663
 5206.00    1.85124   1.75780   24.344
 5207.00    1.85070   1.72870   -1.000
 5208.00    1.84980   1.72389   -1.000
 5209.00    1.83881   1.73766   -1.000
 5210.00    1.88284   1.78628   -1.000
 5211.00    1.97570   1.87406   -1.000
 5212.00    2.06058   1.96899   24.770
 5213.00    2.10891   2.03584   23.824
 5214.00    2.10658   2.04839   22.879
 5215.00    2.07572   2.01390   22.271
 5216.00    2.03312   1.96816   22.295
 5217.00    2.02262   1.95545   22.747
 5218.00    2.06714   1.98905   23.116
 5219.00    2.11610   2.04420   23.072
 5220.00    2.13772   2.09269   22.661
 5221.00    2.14048   2.11743   22.264
 5222.00    2.13392   2.11015   22.042
 5223.00    2.09667   2.06684   21.931
 5224.00    2.01274   1.98869   22.094
 5225.00    1.91784   1.88397   22.649
 5226.00    1.85557   1.78621   23.512
 5227.00    1.86145   1.74704   -1.000
 5228.00    1.94063   1.79392   -1.000
 5229.00    2.04610   1.90165   -1.000
 5230.00    2.11773   2.00916   -1.000
 5231.00    2.13234   2.05406   22.996
 5232.00    2.10232   2.03033   22.422
 5233.00    2.06112   1.97547   22.277
 5234.00    2.03954   1.94579   22.574
 5235.00    2.07949   1.97090   23.007
 5236.00    2.13596   2.03257   23.108
 5237.00    2.17029   2.09947   22.723
 5238.00    2.19136   2.14213   22.177
 5239.00    2.18787   2.15532   21.835
 5240.00    2.19137   2.15305   21.746
 5241.00    2.20253   2.14680   21.791
 5242.00    2.19945   2.14184   21.790
 5243.00    2.20549   2.14495   21.688
 5244.00    2.21743   2.15490   21.666
 5245.00    2.19028   2.15198   21.651
 5246.00    2.12451   2.11489   21.611
 5247.00    2.06839   2.05503   21.886
 5248.00    2.05307   2.00981   22.502
 5249.00    2.06154   1.99013   23.094
 5250.00    2.06238   1.98163   23.310
 5251.00    2.06059   1.98405   23.347
 5252.00    2.07127   2.00421   23.461
 5253.00    2.08896   2.02602   23.441
 5254.00    2.09982   2.03214   23.181
 5255.00    2.11464   2.03340   22.915
 5256.00    2.15321   2.06181   22.843
 5257.00    2.20950   2.12815   22.741
 5258.00    2.26216   2.19199   22.328
 5259.00    2.26205   2.21429   21.743
 5260.00    2.20661   2.18303   21.415
 5261.00    2.12262   2.10446   21.491
 5262.00    2.02516   1.99684   21.956
 5263.00    1.93874   1.88697   22.784
 5264.00    1.87621   1.79491   23.837
 5265.00    1.84767   1.74134   -1.000
 5266.00    1.86391   1.73524   -1.000
 5267.00    1.89382   1.76019   -1.000
 5268.00    1.89247   1.76340   -1.000
 5269.00    1.83254   1.71683   -1.000
 5270.00    1.81177   1.67719   -1.000
 5271.00    1.89566   1.71495   -1.000
 5272.00    2.01399   1.83270   -1.000
 5273.00    2.07161   1.94366   -1.000
 5274.00    2.08135   1.98102   23.581
 5275.00    2.09826   1.98239   -1.000
 5276.00    2.13067   2.00817   -1.000
 5277.00    2.19671   2.07786   -1.000
 5278.00    2.26418   2.15650   -1.000
 5279.00    2.27021   2.19099   22.023
 5280.00    2.22574   2.16679   21.486
 5281.00    2.16690   2.10730   21.439
 5282.00    2.12109   2.04535   21.832
 5283.00    2.09782   2.00538   22.397
 5284.00    2.11716   2.01352   22.869
 5285.00    2.22622   2.07877   -1.000
 5286.00    2.31882   2.17365   -1.000
 5287.00    2.32132   2.24129   22.180
 5288.00    2.30773   2.26450   21.483
 5289.00    2.31439   2.26927   21.139
 5290.00    2.32780   2.27658   21.169
 5291.00    2.32994   2.28406   21.213
 5292.00    2.32486   2.27833   21.128
 5293.00    2.31794   2.25983   21.052
 5294.00    2.29748   2.23733   21.118
 5295.00    2.24782   2.19826   21.296
 5296.00    2.16844   2.12462   21.552
 5297.00    2.09468   2.03477   22.031
 5298.00    2.06214   1.97690   22.798
 5299.00    2.09441   1.98653   -1.000
 5300.00    2.15731   2.03957   -1.000
 5301.00    2.18994   2.08622   -1.000
 5302.00    2.21100   2.11987   22.677
 5303.00    2.25778   2.16403   22.437
 5304.00    2.31538   2.22541   22.216
 5305.00    2.34774   2.27827   21.728
 5306.00    2.34475   2.29158   21.253
 5307.00    2.32222   2.27601   21.082
 5308.00    2.30990   2.26494   21.203
 5309.00    2.33479   2.27637   21.403
 5310.00    2.35987   2.30054   21.379
 5311.00    2.37512   2.31187   21.176
 5312.00    2.36488   2.30329   21.007
 5313.00    2.34281   2.28533   20.974
 5314.00    2.34448   2.26417   21.061
 5315.00    2.33546   2.24012   21.165
 5316.00    2.31194   2.21513   21.295
 5317.00    2.30579   2.19924   21.488
 5318.00    2.30228   2.20310   21.688
 5319.00    2.30453   2.21686   21.762
 5320.00    2.30620   2.22343   21.657
 5321.00    2.30164   2.21710   21.535
 5322.00    2.27777   2.19451   21.554
 5323.00    2.23897   2.15388   21.684
 5324.00    2.20544   2.10975   21.903
 5325.00    2.18957   2.07582   -1.000
 5326.00    2.13432   2.02999   22.522
 5327.00    2.02957   1.94192   22.588
 5328.00    1.93755   1.84274   22.966
 5329.00    1.94562   1.81414   -1.000
 5330.00    2.07316   1.90435   -1.000
 5331.00    2.20085   2.04239   -1.000
 5332.00    2.25014   2.13682   -1.000
 5333.00    2.27149   2.17790   22.531
 5334.00    2.30922   2.20394   22.131
 5335.00    2.33310   2.23480   21.925
 5336.00    2.32553   2.25713   21.686
 5337.00    2.30667   2.25357   21.532
 5338.00    2.28648   2.22332   21.588
 5339.00    2.24783   2.16681   21.735
 5340.00    2.18679   2.09999   21.936
 5341.00    2.16390   2.06506   22.375
 5342.00    2.21341   2.09368   -1.000
 5343.00    2.28501   2.15398   -1.000
 5344.00    2.31677   2.19522   -1.000
 5345.00    2.30548   2.20092   21.903
 5346.00    2.28948   2.18579   21.761
 5347.00    2.26683   2.16604   21.861
 5348.00    2.25402   2.14573   22.006
 5349.00    2.24929   2.13197   -1.000
 5350.00    2.26117   2.14612   -1.000
 5351.00    2.30240   2.19115   -1.000
 5352.00    2.34914   2.24173   -1.000
 5353.00    2.37474   2.28024   21.738
 5354.00    2.38995   2.30774   21.374
 5355.00    2.40734   2.33654   21.238
 5356.00    2.42713   2.36479   21.114
 5357.00    2.44488   2.37882   20.880
 5358.00    2.44789   2.37882   20.678
 5359.00    2.44185   2.37058   20.634
 5360.00    2.42330   2.35067   20.666
 5361.00    2.38165   2.31767   20.725
 5362.00    2.34576   2.28197   20.905
 5363.00    2.32318   2.25172   21.221
 5364.00    2.30598   2.22744   21.553
 5365.00    2.29027   2.20739   21.766
 5366.00    2.28006   2.19302   21.898
 5367.00    2.28038   2.18813   22.027
 5368.00    2.26848   2.17658   22.037
 5369.00    2.23047   2.13092   22.003
 5370.00    2.16707   2.05659   22.142
 5371.00    2.13484   1.99966   -1.000
 5372.00    2.18256   2.01377   -1.000
 5373.00    2.27951   2.10424   -1.000
 5374.00    2.36658   2.21508   -1.000
 5375.00    2.40533   2.29351   -1.000
 5376.00    2.40904   2.31969   21.283
 5377.00    2.40597   2.31447   21.000
 5378.00    2.40664   2.30614   20.989
 5379.00    2.40250   2.30302   21.025
 5380.00    2.37477   2.29615   21.051
 5381.00    2.35237   2.27610   21.143
 5382.00    2.35807   2.25010   21.322
 5383.00    2.35455   2.23487   -1.000
 5384.00    2.35018   2.24085   21.682
 5385.00    2.36886   2.26258   21.711
 5386.00    2.39270   2.28354   21.639
 5387.00    2.39089   2.28775   21.454
 5388.00    2.35772   2.26879   21.333
 5389.00    2.31844   2.23321   21.382
 5390.00    2.29234   2.19394   21.551
 5391.00    2.27274   2.16530   21.837
 5392.00    2.26726   2.15073   -1.000
 5393.00    2.27400   2.14628   -1.000
 5394.00    2.26465   2.14416   -1.000
 5395.00    2.24296   2.12873   -1.000
 5396.00    2.20912   2.09195   -1.000
 5397.00    2.18508   2.05567   -1.000
 5398.00    2.21323   2.05926   -1.000
 5399.00    2.27237   2.10695   -1.000
 5400.00    2.30936   2.16617   -1.000
 5401.00    2.31733   2.20614   -1.000
 5402.00    2.30712   2.21396   21.886
 5403.00    2.26944   2.17927   21.876
 5404.00    2.19496   2.10140   22.002
 5405.00    2.12670   2.01095   -1.000
 5406.00    2.12125   1.97028   -1.000
 5407.00    2.16596   2.00291   -1.000
 5408.00    2.20544   2.05670   -1.000
 5409.00    2.21333   2.08376   -1.000
 5410.00    2.21449   2.08577   -1.000
 5411.00    2.25224   2.10911   -1.000
 5412.00    2.32093   2.17078   -1.000
 5413.00    2.36752   2.22777   -1.000
 5414.00    2.36342   2.25245   -1.000
 5415.00    2.34944   2.26060   21.689
 5416.00    2.36729   2.27995   21.615
 5417.00    2.39111   2.31130   21.635
 5418.00    2.38931   2.32521   21.541
 5419.00    2.36894   2.30954   21.388
 5420.00    2.34758   2.28363   21.386
 5421.00    2.34561   2.26779   21.558
 5422.00    2.35164   2.26322   21.726
 5423.00    2.33530   2.25094   21.722
 5424.00    2.31682   2.23101   21.627
 5425.00    2.32286   2.23817   21.771
 5426.00    2.35774   2.28137   22.030
 5427.00    2.38899   2.31755   21.966
 5428.00    2.35570   2.29293   21.633
 5429.00    2.27760   2.21054   21.519
 5430.00    2.24230   2.14459   21.915
 5431.00    2.26510   2.13874   -1.000
 5432.00    2.28123   2.16383   -1.000
 5433.00    2.26207   2.16708   22.668
 5434.00    2.23938   2.13520   22.478
 5435.00    2.23931   2.11103   -1.000
 5436.00    2.26347   2.13098   -1.000
 5437.00    2.31563   2.19557   -1.000
 5438.00    2.38403   2.27969   -1.000
 5439.00    2.44361   2.35086   22.146
 5440.00    2.47326   2.39373   21.616
 5441.00    2.48541   2.40981   21.259
 5442.00    2.48297   2.41146   21.039
 5443.00    2.45501   2.39860   20.950
 5444.00    2.40146   2.35476   20.940
 5445.00    2.31687   2.27146   21.070
 5446.00    2.23381   2.17213   21.500
 5447.00    2.20752   2.11603   22.271
 5448.00    2.25731   2.13706   -1.000
 5449.00    2.33421   2.21491   -1.000
 5450.00    2.39101   2.29491   22.756
 5451.00    2.41227   2.33040   22.059
 5452.00    2.39507   2.32226   21.686
 5453.00    2.35874   2.28239   21.618
 5454.00    2.28774   2.21393   21.734
 5455.00    2.22081   2.14101   22.113
 5456.00    2.23547   2.11493   -1.000
 5457.00    2.30391   2.16535   -1.000
 5458.00    2.37180   2.26257   -1.000
 5459.00    2.41115   2.33060   22.637
 5460.00    2.40108   2.33604   21.933
 5461.00    2.36030   2.29484   21.618
 5462.00    2.31487   2.23804   21.732
 5463.00    2.29634   2.20079   22.093
 5464.00    2.32466   2.20370   -1.000
 5465.00    2.36014   2.23747   -1.000
 5466.00    2.37567   2.27245   -1.000
 5467.00    2.38205   2.29578   22.236
 5468.00    2.39262   2.30894   22.068
 5469.00    2.39647   2.30886   21.888
 5470.00    2.38563   2.29446   21.725
 5471.00    2.37329   2.27402   21.811
 5472.00    2.36702   2.25580   -1.000
 5473.00    2.35355   2.24007   -1.000
 5474.00    2.31937   2.21668   22.277
 5475.00    2.27372   2.17424   22.459
 5476.00    2.23344   2.12029   -1.000
 5477.00    2.22262   2.08956   -1.000
 5478.00    2.26551   2.12179   -1.000
 5479.00    2.32655   2.18903   -1.000
 5480.00    2.33471   2.22340   -1.000
 5481.00    2.29664   2.20701   22.512
 5482.00    2.28888   2.18113   -1.000
 5483.00    2.32855   2.19893   -1.000
 5484.00    2.37610   2.25867   -1.000
 5485.00    2.41365   2.31199   -1.000
 5486.00    2.41285   2.32185   22.087
 5487.00    2.36975   2.28992   21.781
 5488.00    2.33107   2.25412   21.830
 5489.00    2.32731   2.24410   22.119
 5490.00    2.35183   2.26275   22.334
 5491.00    2.37404   2.28887   22.383
 5492.00    2.39113   2.30220   22.290
 5493.00    2.40098   2.30062   22.122
 5494.00    2.40071   2.29534   22.006
 5495.00    2.40503   2.29546   -1.000
 5496.00    2.39735   2.29322   22.035
 5497.00    2.38350   2.28330   22.034
 5498.00    2.39572   2.28495   -1.000
 5499.00    2.42504   2.30524   -1.000
 5500.00    2.43127   2.31505   -1.000
 5501.00    2.40471   2.29362   -1.000
 5502.00    2.37554   2.25595   -1.000
 5503.00    2.37640   2.23592   -1.000
 5504.00    2.39139   2.23997   -1.000
 5505.00    2.37445   2.23738   -1.000
 5506.00    2.34201   2.21902   -1.000
 5507.00    2.34294   2.20969   -1.000
 5508.00    2.37303   2.22954   -1.000
 5509.00    2.39226   2.26600   -1.000
 5510.00    2.38450   2.27824   -1.000
 5511.00    2.35233   2.24974   22.200
 5512.00    2.30703   2.20104   22.253
 5513.00    2.28248   2.16392   -1.000
 5514.00    2.29769   2.16183   -1.000
 5515.00    2.34144   2.18954   -1.000
 5516.00    2.38817   2.22994   -1.000
 5517.00    2.42478   2.27298   -1.000
 5518.00    2.45418   2.31625   -1.000
 5519.00    2.47962   2.35423   -1.000
 5520.00    2.49153   2.37431   -1.000
 5521.00    2.49173   2.37227   -1.000
 5522.00    2.48456   2.36402   -1.000
 5523.00    2.47678   2.36063   -1.000
 5524.00    2.46323   2.35665   21.601
 5525.00    2.42567   2.33735   21.657
 5526.00    2.37810   2.29178   21.743
 5527.00    2.32759   2.22967   21.969
 5528.00    2.29186   2.18040   -1.000
 5529.00    2.31151   2.18171   -1.000
 5530.00    2.37615   2.23325   -1.000
 5531.00    2.42052   2.29519   -1.000
 5532.00    2.44235   2.32744   -1.000
 5533.00    2.44176   2.32397   -1.000
 5534.00    2.42336   2.30612   -1.000
 5535.00    2.41457   2.29121   -1.000
 5536.00    2.40852   2.28604   -1.000
 5537.00    2.42108   2.29271   -1.000
 5538.00    2.44613   2.30810   -1.000
 5539.00    2.46888   2.33015   -1.000
 5540.00    2.48393   2.35878   -1.000
 5541.00    2.48818   2.38049   -1.000
 5542.00    2.48131   2.37828   21.561
 5543.00    2.46153   2.35567   21.491
 5544.00    2.45020   2.33431   -1.000
 5545.00    2.45336   2.32761   -1.000
 5546.00    2.46109   2.33332   -1.000
 5547.00    2.48304   2.34914   -1.000
 5548.00    2.51549   2.37684   -1.000
 5549.00    2.53758   2.40805   -1.000
 5550.00    2.54060   2.42757   -1.000
 5551.00    2.53717   2.42983   -1.000
 5552.00    2.53088   2.41574   -1.000
 5553.00    2.49924   2.38884   -1.000
 5554.00    2.46421   2.36254   21.529
 5555.00    2.47176   2.35277   -1.000
 5556.00    2.49434   2.35843   -1.000
 5557.00    2.50105   2.36699   -1.000
 5558.00    2.49239   2.36921   -1.000
 5559.00    2.48040   2.36949   -1.000
 5560.00    2.48149   2.37207   -1.000
 5561.00    2.47842   2.36755   -1.000
 5562.00    2.46670   2.34912   -1.000
 5563.00    2.45578   2.32694   -1.000
 5564.00    2.43357   2.31239   -1.000
 5565.00    2.41702   2.30688   -1.000
 5566.00    2.42058   2.30307   -1.000
 5567.00    2.42863   2.29786   -1.000
 5568.00    2.43331   2.29559   -1.000
 5569.00    2.42904   2.29916   -1.000
 5570.00    2.43318   2.30637   -1.000
 5571.00    2.43528   2.31050   -1.000
 5572.00    2.41657   2.30740   -1.000
 5573.00    2.40520   2.30211   -1.000
 5574.00    2.42376   2.30809   -1.000
 5575.00    2.41682   2.33273   22.421
 5576.00    2.27051   2.35853   22.239
 5577.00    1.88504   2.36885   -1.000
 5578.00    1.37910   2.37457   -1.000
 5579.00    1.46229   2.38508   -1.000
 5580.00    2.44971   2.39315   21.434
 5581.00    3.28875   2.39304   -1.000
 5582.00    3.19336   2.38280   -1.000
 5583.00    2.73721   2.36896   -1.000
 5584.00    2.52611   2.35443   -1.000
 5585.00    2.45369   2.32087   -1.000
 5586.00    2.37825   2.25723   -1.000
 5587.00    2.30583   2.18269   -1.000
 5588.00    2.27643   2.13250   -1.000
 5589.00    2.29013   2.13102   -1.000
 5590.00    2.32577   2.16877   -1.000
 5591.00    2.37275   2.21929   -1.000
 5592.00    2.39844   2.25337   -1.000
 5593.00    2.39539   2.26501   -1.000
 5594.00    2.39079   2.27315   -1.000
 5595.00    2.41258   2.30033   -1.000
 5596.00    2.45476   2.34156   -1.000
 5597.00    2.45493   2.35899   -1.000
 5598.00    2.41628   2.33577   22.377
 5599.00    2.38813   2.29254   22.404
 5600.00    2.36659   2.25335   -1.000
 5601.00    2.34821   2.22476   -1.000
 5602.00    2.33974   2.20978   -1.000
 5603.00    2.35755   2.22516   -1.000
 5604.00    2.41960   2.28513   -1.000
 5605.00    2.49789   2.36964   -1.000
 5606.00    2.54853   2.43765   -1.000
 5607.00    2.56696   2.47077   22.070
 5608.00    2.56275   2.47637   21.697
 5609.00    2.55927   2.47138   21.560
 5610.00    2.57155   2.47038   21.566
 5611.00    2.57429   2.47926   21.608
 5612.00    2.56933   2.48227   21.619
 5613.00    2.52867   2.45021   21.570
 5614.00    2.43339   2.36834   21.586
 5615.00    2.36488   2.26713   21.873
 5616.00    2.36184   2.21366   -1.000
 5617.00    2.40548   2.23519   -1.000
 5618.00    2.45598   2.29741   -1.000
 5619.00    2.47899   2.34293   -1.000
 5620.00    2.49393   2.36229   -1.000
 5621.00    2.50450   2.38034   -1.000
 5622.00    2.50233   2.39044   -1.000
 5623.00    2.47125   2.36591   -1.000
 5624.00    2.42366   2.31386   -1.000
 5625.00    2.41512   2.27212   -1.000
 5626.00    2.44586   2.27878   -1.000
 5627.00    2.48347   2.32631   -1.000
 5628.00    2.51390   2.37729   -1.000
 5629.00    2.54468   2.41748   -1.000
 5630.00    2.56896   2.44767   -1.000
 5631.00    2.57595   2.46261   -1.000
 5632.00    2.56295   2.45900   -1.000
 5633.00    2.54133   2.44177   21.683
 5634.00    2.52554   2.41763   -1.000
 5635.00    2.51620   2.39079   -1.000
 5636.00    2.49623   2.36422   -1.000
 5637.00    2.47500   2.34364   -1.000
 5638.00    2.46683   2.33767   -1.000
 5639.00    2.46676   2.34376   -1.000
 5640.00    2.47366   2.34689   -1.000
 5641.00    2.46678   2.33931   -1.000
 5642.00    2.45422   2.33106   -1.000
 5643.00    2.46738   2.33746   -1.000
 5644.00    2.49266   2.35596   -1.000
 5645.00    2.50233   2.37341   -1.000
 5646.00    2.50035   2.38688   -1.000
 5647.00    2.50538   2.39621   -1.000
 5648.00    2.51869   2.39561   -1.000
 5649.00    2.51969   2.38562   -1.000
 5650.00    2.52032   2.37961   -1.000
 5651.00    2.53991   2.38909   -1.000
 5652.00    2.55346   2.40779   -1.000
 5653.00    2.54997   2.41308   -1.000
 5654.00    2.52849   2.39675   -1.000
 5655.00    2.50137   2.37364   -1.000
 5656.00    2.46569   2.34766   -1.000
 5657.00    2.41336   2.30662   -1.000
 5658.00    2.36758   2.25344   -1.000
 5659.00    2.36377   2.22072   -1.000
 5660.00    2.40756   2.23930   -1.000
 5661.00    2.43681   2.28295   -1.000
 5662.00    2.44559   2.30366   -1.000
 5663.00    2.45907   2.31384   -1.000
 5664.00    2.48580   2.34439   -1.000
 5665.00    2.52001   2.38060   -1.000
 5666.00    2.50912   2.39375   -1.000
 5667.00    2.48027   2.37960   -1.000
 5668.00    2.47139   2.35935   -1.000
 5669.00    2.48208   2.35495   -1.000
 5670.00    2.49471   2.36685   -1.000
 5671.00    2.51483   2.38903   -1.000
 5672.00    2.54938   2.42115   -1.000
 5673.00    2.57650   2.45480   -1.000
 5674.00    2.56853   2.47418   21.968
 5675.00    2.56696   2.47768   21.750
 5676.00    2.58074   2.47509   -1.000
 5677.00    2.58756   2.47416   -1.000
 5678.00    2.58769   2.47042   -1.000
 5679.00    2.57901   2.45614   -1.000
 5680.00    2.56886   2.43480   -1.000
 5681.00    2.54634   2.41061   -1.000
 5682.00    2.50730   2.38050   -1.000
 5683.00    2.48367   2.35317   -1.000
 5684.00    2.49211   2.34935   -1.000
 5685.00    2.50456   2.36259   -1.000
 5686.00    2.48779   2.36610   -1.000
 5687.00    2.46662   2.35449   -1.000
 5688.00    2.46648   2.34544   -1.000
 5689.00    2.48144   2.35777   -1.000
 5690.00    2.51506   2.39105   -1.000
 5691.00    2.54954   2.42800   -1.000
 5692.00    2.57781   2.45554   -1.000
 5693.00    2.60143   2.46893   -1.000
 5694.00    2.59809   2.46867   -1.000
 5695.00    2.58755   2.46211   -1.000
 5696.00    2.58752   2.45442   -1.000
 5697.00    2.57299   2.44086   -1.000
 5698.00    2.54535   2.41795   -1.000
 5699.00    2.51587   2.39206   -1.000
 5700.00    2.47634   2.36965   -1.000
 5701.00    2.45054   2.34981   -1.000
 5702.00    2.46032   2.34077   -1.000
 5703.00    2.48509   2.35441   -1.000
 5704.00    2.50850   2.37573   -1.000
 5705.00    2.49105   2.37841   -1.000
 5706.00    2.44204   2.35256   22.359
 5707.00    2.39196   2.30931   22.416
 5708.00    2.35641   2.27031   22.659
 5709.00    2.35077   2.24420   -1.000
 5710.00    2.35202   2.23333   -1.000
 5711.00    2.37223   2.24382   -1.000
 5712.00    2.41480   2.27769   -1.000
 5713.00    2.48179   2.33526   -1.000
 5714.00    2.54609   2.39905   -1.000
 5715.00    2.57238   2.44031   -1.000
 5716.00    2.57671   2.45956   -1.000
 5717.00    2.58505   2.47148   -1.000
 5718.00    2.59537   2.48180   -1.000
 5719.00    2.60782   2.49438   -1.000
 5720.00    2.62176   2.51153   -1.000
 5721.00    2.63156   2.53014   -1.000
 5722.00    2.64998   2.54605   -1.000
 5723.00    2.67407   2.55712   -1.000
 5724.00    2.67779   2.55919   -1.000
 5725.00    2.65133   2.54441   -1.000
 5726.00    2.60961   2.51371   21.414
 5727.00    2.58159   2.48483   21.532
 5728.00    2.59188   2.47962   -1.000
 5729.00    2.61095   2.49532   -1.000
 5730.00    2.60492   2.50357   -1.000
 5731.00    2.58863   2.49348   21.838
 5732.00    2.59261   2.48451   -1.000
 5733.00    2.61966   2.49786   -1.000
 5734.00    2.64300   2.52917   -1.000
 5735.00    2.65153   2.54960   -1.000
 5736.00    2.64639   2.54668   21.574
 5737.00    2.64103   2.53225   -1.000
 5738.00    2.64360   2.52099   -1.000
 5739.00    2.63253   2.51903   -1.000
 5740.00    2.61877   2.52015   21.640
 5741.00    2.62698   2.51758   -1.000
 5742.00    2.62987   2.51219   -1.000
 5743.00    2.63385   2.51291   -1.000
 5744.00    2.65610   2.52792   -1.000
 5745.00    2.66366   2.54798   -1.000
 5746.00    2.65460   2.55128   -1.000
 5747.00    2.63521   2.52942   -1.000
 5748.00    2.61796   2.50463   -1.000
 5749.00    2.61671   2.50643   -1.000
 5750.00    2.62466   2.52687   -1.000
 5751.00    2.62573   2.53137   21.786
 5752.00    2.59084   2.49523   21.669
 5753.00    2.54100   2.43787   21.716
 5754.00    2.53079   2.40867   -1.000
 5755.00    2.57764   2.43211   -1.000
 5756.00    2.63536   2.49321   -1.000
 5757.00    2.67751   2.54920   -1.000
 5758.00    2.68782   2.57079   -1.000
 5759.00    2.65869   2.55509   -1.000
 5760.00    2.61031   2.51368   21.360
 5761.00    2.57527   2.46537   -1.000
 5762.00    2.55228   2.43163   -1.000
 5763.00    2.57041   2.43223   -1.000
 5764.00    2.61656   2.47533   -1.000
 5765.00    2.64595   2.53772   -1.000
 5766.00    2.66919   2.58016   21.912
 5767.00    2.67483   2.59501   21.566
 5768.00    2.68518   2.59556   21.400
 5769.00    2.69592   2.58835   -1.000
 5770.00    2.67454   2.57619   21.342
 5771.00    2.64925   2.56361   21.339
 5772.00    2.64887   2.55144   21.402
 5773.00    2.63501   2.53916   21.495
 5774.00    2.61861   2.52953   21.625
 5775.00    2.61955   2.52692   21.725
 5776.00    2.62424   2.53539   21.760
 5777.00    2.62779   2.54687   21.754
 5778.00    2.60505   2.54218   21.675
 5779.00    2.56376   2.50721   21.599
 5780.00    2.49164   2.44541   21.625
 5781.00    2.39579   2.38237   21.806
 5782.00    2.34259   2.34490   22.221
 5783.00    2.33867   2.34051   22.645
 5784.00    2.38807   2.34796   22.776
 5785.00    2.45168   2.35322   -1.000
 5786.00    2.50106   2.37621   -1.000
 5787.00    2.55829   2.42573   -1.000
 5788.00    2.60367   2.47488   -1.000
 5789.00    2.61795   2.50025   -1.000
 5790.00    2.60433   2.50028   -1.000
 5791.00    2.59126   2.49184   -1.000
 5792.00    2.60411   2.49695   -1.000
 5793.00    2.64055   2.52495   -1.000
 5794.00    2.67067   2.56145   -1.000
 5795.00    2.66255   2.58368   21.597
 5796.00    2.63877   2.57871   21.461
 5797.00    2.61061   2.55250   21.381
 5798.00    2.59434   2.53497   21.436
 5799.00    2.60820   2.55015   21.579
 5800.00    2.63816   2.59159   21.614
 5801.00    2.68077   2.62962   21.419
 5802.00    2.70346   2.63932   21.125
 5803.00    2.68821   2.61713   20.935
 5804.00    2.66735   2.57789   21.000
 5805.00    2.66287   2.54734   -1.000
 5806.00    2.65404   2.54037   -1.000
 5807.00    2.65642   2.55164   -1.000
 5808.00    2.66813   2.56813   -1.000
 5809.00    2.69395   2.58300   -1.000
 5810.00    2.70644   2.59650   -1.000
 5811.00    2.70390   2.60753   21.339
 5812.00    2.69712   2.61083   21.334
 5813.00    2.71168   2.60230   -1.000
 5814.00    2.70544   2.58073   -1.000
 5815.00    2.68808   2.55174   -1.000
 5816.00    2.67973   2.53173   -1.000
 5817.00    2.68802   2.54159   -1.000
 5818.00    2.71669   2.57935   -1.000
 5819.00    2.75116   2.61988   -1.000
 5820.00    2.76244   2.64178   -1.000
 5821.00    2.75957   2.64216   -1.000
 5822.00    2.75636   2.63129   -1.000
 5823.00    2.75805   2.62079   -1.000
 5824.00    2.76322   2.61784   -1.000
 5825.00    2.76651   2.62136   -1.000
 5826.00    2.76288   2.62669   -1.000
 5827.00    2.76158   2.63108   -1.000
 5828.00    2.77401   2.63629   -1.000
 5829.00    2.77868   2.64370   -1.000
 5830.00    2.76596   2.64884   -1.000
 5831.00    2.74834   2.64729   -1.000
 5832.00    2.73858   2.64080   20.934
 5833.00    2.74758   2.63075   -1.000
 5834.00    2.75107   2.61715   -1.000
 5835.00    2.74070   2.60702   -1.000
 5836.00    2.75050   2.60775   -1.000
 5837.00    2.75923   2.61193   -1.000
 5838.00    2.75330   2.61242   -1.000
 5839.00    2.76405   2.61806   -1.000
 5840.00    2.78405   2.63524   -1.000
 5841.00    2.79185   2.65549   -1.000
 5842.00    2.79252   2.66738   -1.000
 5843.00    2.78255   2.66585   -1.000
 5844.00    2.75957   2.65259   -1.000
 5845.00    2.74373   2.63021   -1.000
 5846.00    2.72714   2.60343   -1.000
 5847.00    2.72043   2.58067   -1.000
 5848.00    2.72241   2.57124   -1.000
 5849.00    2.70530   2.57647   -1.000
 5850.00    2.70049   2.58304   -1.000
 5851.00    2.69709   2.57191   -1.000
 5852.00    2.67249   2.54246   -1.000
 5853.00    2.65113   2.51362   -1.000
 5854.00    2.65111   2.50242   -1.000
 5855.00    2.64907   2.50159   -1.000
 5856.00    2.63153   2.48455   -1.000
 5857.00    2.60279   2.44747   -1.000
 5858.00    2.59524   2.42228   -1.000
 5859.00    2.62758   2.43596   -1.000
 5860.00    2.66805   2.47967   -1.000
 5861.00    2.69456   2.51891   -1.000
 5862.00    2.69831   2.53843   -1.000
 5863.00    2.68029   2.54601   -1.000
 5864.00    2.67913   2.55079   -1.000
 5865.00    2.68901   2.55021   -1.000
 5866.00    2.68713   2.53845   -1.000
 5867.00    2.68578   2.52782   -1.000
 5868.00    2.70143   2.54019   -1.000
 5869.00    2.72937   2.57123   -1.000
 5870.00    2.75443   2.59740   -1.000
 5871.00    2.74971   2.60624   -1.000
 5872.00    2.73455   2.60056   -1.000
 5873.00    2.73938   2.59213   -1.000
 5874.00    2.73632   2.58877   -1.000
 5875.00    2.73403   2.59017   -1.000
 5876.00    2.72895   2.58874   -1.000
 5877.00    2.72257   2.57650   -1.000
 5878.00    2.71938   2.55364   -1.000
 5879.00    2.70049   2.52703   -1.000
 5880.00    2.68490   2.50636   -1.000
 5881.00    2.69087   2.50014   -1.000
 5882.00    2.69109   2.50631   -1.000
 5883.00    2.67214   2.50866   -1.000
 5884.00    2.66455   2.50192   -1.000
 5885.00    2.65051   2.49841   -1.000
 5886.00    2.61393   2.48498   -1.000
 5887.00    2.52257   2.41480   -1.000
 5888.00    2.32235   2.25682   22.075
 5889.00    2.00969   2.04975   22.554
 5890.00    1.69414   1.90646   -1.000
 5891.00    1.53723   1.90975   -1.000
 5892.00    1.61511   2.03245   -1.000
 5893.00    1.87628   2.14889   -1.000
 5894.00    2.09361   2.16385   25.428
 5895.00    2.07182   2.09067   24.576
 5896.00    1.91051   2.02516   24.437
 5897.00    1.81580   2.06820   -1.000
 5898.00    1.91959   2.19890   -1.000
 5899.00    2.19210   2.32412   24.979
 5900.00    2.44437   2.40647   24.143
 5901.00    2.57757   2.45960   -1.000
 5902.00    2.62281   2.49278   -1.000
 5903.00    2.62915   2.50888   -1.000
 5904.00    2.63542   2.51404   -1.000
 5905.00    2.65026   2.51324   -1.000
 5906.00    2.66083   2.51331   -1.000
 5907.00    2.67103   2.52268   -1.000
 5908.00    2.69494   2.53862   -1.000
 5909.00    2.71506   2.55099   -1.000
 5910.00    2.70896   2.55937   -1.000
 5911.00    2.68004   2.56322   -1.000
 5912.00    2.66556   2.55291   -1.000
 5913.00    2.64087   2.52223   -1.000
 5914.00    2.61506   2.48147   -1.000
 5915.00    2.60445   2.45590   -1.000
 5916.00    2.61179   2.46029   -1.000
 5917.00    2.63103   2.48461   -1.000
 5918.00    2.65758   2.51550   -1.000
 5919.00    2.67234   2.54142   -1.000
 5920.00    2.67449   2.55491   -1.000
 5921.00    2.66579   2.55558   -1.000
 5922.00    2.66351   2.54938   -1.000
 5923.00    2.65956   2.54787   -1.000
 5924.00    2.67151   2.55745   -1.000
 5925.00    2.68282   2.57258   -1.000
 5926.00    2.68050   2.58350   -1.000
 5927.00    2.67907   2.58151   -1.000
 5928.00    2.67326   2.56211   -1.000
 5929.00    2.66241   2.53432   -1.000
 5930.00    2.66573   2.51903   -1.000
 5931.00    2.69001   2.53135   -1.000
 5932.00    2.71981   2.55528   -1.000
 5933.00    2.71818   2.56035   -1.000
 5934.00    2.70065   2.54406   -1.000
 5935.00    2.68241   2.53077   -1.000
 5936.00    2.70076   2.54267   -1.000
 5937.00    2.73009   2.57127   -1.000
 5938.00    2.74485   2.59124   -1.000
 5939.00    2.73769   2.59191   -1.000
 5940.00    2.72341   2.57382   -1.000
 5941.00    2.70117   2.54614   -1.000
 5942.00    2.68780   2.52804   -1.000
 5943.00    2.68381   2.53445   -1.000
 5944.00    2.68847   2.55761   -1.000
 5945.00    2.69480   2.57978   -1.000
 5946.00    2.69811   2.58796   -1.000
 5947.00    2.68416   2.57444   -1.000
 5948.00    2.66276   2.54654   -1.000
 5949.00    2.65228   2.52842   -1.000
 5950.00    2.65610   2.53442   -1.000
 5951.00    2.66369   2.54525   -1.000
 5952.00    2.66044   2.54173   -1.000
 5953.00    2.65690   2.53343   -1.000
 5954.00    2.67265   2.53655   -1.000
 5955.00    2.69611   2.54607   -1.000
 5956.00    2.70723   2.54436   -1.000
 5957.00    2.69486   2.53308   -1.000
 5958.00    2.69295   2.53467   -1.000
 5959.00    2.71968   2.55715   -1.000
 5960.00    2.73300   2.58742   -1.000
 5961.00    2.73508   2.61199   -1.000
 5962.00    2.74683   2.62366   -1.000
 5963.00    2.75043   2.62247   -1.000
 5964.00    2.75240   2.61194   -1.000
 5965.00    2.74721   2.59705   -1.000
 5966.00    2.73510   2.58780   -1.000
 5967.00    2.74062   2.59417   -1.000
 5968.00    2.75104   2.61001   -1.000
 5969.00    2.75778   2.62344   -1.000
 5970.00    2.74939   2.63372   -1.000
 5971.00    2.75837   2.64226   -1.000
 5972.00    2.76890   2.64561   -1.000
 5973.00    2.75580   2.63982   -1.000
 5974.00    2.73035   2.62148   -1.000
 5975.00    2.71538   2.58958   -1.000
 5976.00    2.69359   2.55432   -1.000
 5977.00    2.68146   2.53406   -1.000
 5978.00    2.68343   2.53724   -1.000
 5979.00    2.69356   2.56004   -1.000
 5980.00    2.70611   2.58838   -1.000
 5981.00    2.72530   2.60246   -1.000
 5982.00    2.71797   2.58699   -1.000
 5983.00    2.69633   2.54763   -1.000
 5984.00    2.67314   2.51050   -1.000
 5985.00    2.66253   2.50283   -1.000
 5986.00    2.69708   2.52789   -1.000
 5987.00    2.72497   2.56045   -1.000
 5988.00    2.73681   2.58385   -1.000
 5989.00    2.74881   2.59818   -1.000
 5990.00    2.75363   2.60250   -1.000
 5991.00    2.75167   2.59921   -1.000
 5992.00    2.75557   2.60305   -1.000
 5993.00    2.77178   2.62282   -1.000
 5994.00    2.77981   2.64312   -1.000
 5995.00    2.76379   2.64368   -1.000
 5996.00    2.74733   2.62081   -1.000
 5997.00    2.72834   2.59035   -1.000
 5998.00    2.72387   2.57301   -1.000
 5999.00    2.72272   2.57805   -1.000
 6000.00    2.72988   2.59387   -1.000
 6001.00    2.74773   2.60091   -1.000
 6002.00    2.74358   2.59307   -1.000
 6003.00    2.72030   2.58048   -1.000
 6004.00    2.72158   2.58041   -1.000
 6005.00    2.71644   2.58538   -1.000
 6006.00    2.70872   2.57049   -1.000
 6007.00    2.68325   2.53676   -1.000
 6008.00    2.66991   2.51376   -1.000
 6009.00    2.69597   2.52987   -1.000
 6010.00    2.71791   2.57364   -1.000
 6011.00    2.71951   2.59938   -1.000
 6012.00    2.70462   2.58945   -1.000
 6013.00    2.70006   2.56663   -1.000
 6014.00    2.69530   2.55676   -1.000
 6015.00    2.69974   2.56181   -1.000
 6016.00    2.71184   2.56443   -1.000
 6017.00    2.71448   2.56128   -1.000
 6018.00    2.71210   2.56019   -1.000
 6019.00    2.70536   2.55336   -1.000
 6020.00    2.69112   2.53677   -1.000
 6021.00    2.68926   2.52830   -1.000
 6022.00    2.69615   2.53751   -1.000
 6023.00    2.70435   2.55636   -1.000
 6024.00    2.71924   2.57753   -1.000
 6025.00    2.73706   2.59911   -1.000
 6026.00    2.75431   2.61751   -1.000
 6027.00    2.76692   2.63016   -1.000
 6028.00    2.76768   2.64385   -1.000
 6029.00    2.78083   2.66022   -1.000
 6030.00    2.80734   2.67057   -1.000
 6031.00    2.81132   2.67567   -1.000
 6032.00    2.80888   2.68337   -1.000
 6033.00    2.81307   2.69398   -1.000
 6034.00    2.81284   2.70410   -1.000
 6035.00    2.81483   2.71166   -1.000
 6036.00    2.82874   2.71382   -1.000
 6037.00    2.83005   2.70918   -1.000
 6038.00    2.81083   2.69887   -1.000
 6039.00    2.78925   2.68583   -1.000
 6040.00    2.78278   2.67493   -1.000
 6041.00    2.78888   2.67088   -1.000
 6042.00    2.79907   2.67274   -1.000
 6043.00    2.80945   2.68146   -1.000
 6044.00    2.84502   2.69879   -1.000
 6045.00    2.85514   2.71495   -1.000
 6046.00    2.83716   2.72313   -1.000
 6047.00    2.84159   2.72658   -1.000
 6048.00    2.84735   2.72921   -1.000
 6049.00    2.83613   2.73070   -1.000
 6050.00    2.84060   2.73078   -1.000
 6051.00    2.84415   2.72732   -1.000
 6052.00    2.83559   2.71569   -1.000
 6053.00    2.81672   2.69686   -1.000
 6054.00    2.80794   2.67673   -1.000
 6055.00    2.81736   2.65884   -1.000
 6056.00    2.80303   2.64721   -1.000
 6057.00    2.80448   2.64931   -1.000
 6058.00    2.82344   2.66482   -1.000
 6059.00    2.83353   2.68406   -1.000
 6060.00    2.82636   2.69620   -1.000
 6061.00    2.82223   2.69345   -1.000
 6062.00    2.81220   2.67360   -1.000
 6063.00    2.82370   2.63988   -1.000
 6064.00    2.75618   2.60417   -1.000
 6065.00    2.42307   2.58795   22.398
 6066.00    1.73352   2.60875   -1.000
 6067.00    1.93147   2.65932   -1.000
 6068.00    2.70960   2.70995   17.275
 6069.00    2.88405   2.73824    7.953
 6070.00    2.83666   2.74864   -1.000
 6071.00    2.23521   2.75344   -1.000
 6072.00    0.99016   2.75211   -1.000
 6073.00    2.42480   2.74209   -1.000
 6074.00    2.96238   2.73844   -1.000
 6075.00    2.85791   2.73744   -1.000
 6076.00    2.85757   2.72105   -1.000
 6077.00    2.83621   2.69193   -1.000
 6078.00    2.80978   2.66376   -1.000
 6079.00    2.79187   2.64839   -1.000
 6080.00    2.79122   2.64256   -1.000
 6081.00    2.77701   2.63436   -1.000
 6082.00    2.76394   2.62523   -1.000
 6083.00    2.77316   2.62423   -1.000
 6084.00    2.77542   2.62969   -1.000
 6085.00    2.77902   2.63603   -1.000
 6086.00    2.78668   2.64461   -1.000
 6087.00    2.79214   2.65521   -1.000
 6088.00    2.79754   2.65928   -1.000
 6089.00    2.77630   2.64787   -1.000
 6090.00    2.74715   2.62710   -1.000
 6091.00    2.74171   2.61476   -1.000
 6092.00    2.76090   2.61855   -1.000
 6093.00    2.76759   2.63520   -1.000
 6094.00    2.78188   2.65904   -1.000
 6095.00    2.80783   2.68015   -1.000
 6096.00    2.82300   2.68914   -1.000
 6097.00    2.82747   2.69093   -1.000
 6098.00    2.82409   2.69753   -1.000
 6099.00    2.81939   2.70208   -1.000
 6100.00    2.78953   2.68058   -1.000
 6101.00    2.72486   2.62023   -1.000
 6102.00    2.67335   2.54660   -1.000
 6103.00    2.67755   2.51722   -1.000
 6104.00    2.72259   2.55166   -1.000
 6105.00    2.77036   2.61400   -1.000
 6106.00    2.80782   2.65884   -1.000
 6107.00    2.81930   2.67551   -1.000
 6108.00    2.79624   2.68270   -1.000
 6109.00    2.78640   2.69221   -1.000
 6110.00    2.80132   2.69742   -1.000
 6111.00    2.79307   2.69512   -1.000
 6112.00    2.78961   2.69676   -1.000
 6113.00    2.81013   2.70886   -1.000
 6114.00    2.79939   2.72044   22.191
 6115.00    2.78815   2.71797   22.168
 6116.00    2.79387   2.70684   -1.000
 6117.00    2.79103   2.69957   -1.000
 6118.00    2.77878   2.69002   -1.000
 6119.00    2.74188   2.66231   22.282
 6120.00    2.70512   2.61320   -1.000
 6121.00    2.68349   2.56061   -1.000
 6122.00    2.66747   2.53500   -1.000
 6123.00    2.68523   2.55784   -1.000
 6124.00    2.73711   2.61044   -1.000
 6125.00    2.77017   2.64739   -1.000
 6126.00    2.77098   2.65360   -1.000
 6127.00    2.75904   2.64395   -1.000
 6128.00    2.74645   2.63697   -1.000
 6129.00    2.75089   2.64786   -1.000
 6130.00    2.78603   2.67805   -1.000
 6131.00    2.80333   2.71091   -1.000
 6132.00    2.80555   2.72748   22.373
 6133.00    2.79329   2.71522   22.202
 6134.00    2.74337   2.66154   22.197
 6135.00    2.66652   2.56641   -1.000
 6136.00    2.59861   2.46668   -1.000
 6137.00    2.56078   2.42572   -1.000
 6138.00    2.60706   2.46864   -1.000
 6139.00    2.68697   2.55523   -1.000
 6140.00    2.74339   2.61513   -1.000
 6141.00    2.74393   2.62526   -1.000
 6142.00    2.72344   2.62748   -1.000
 6143.00    2.72406   2.65331   22.755
 6144.00    2.76511   2.69022   22.822
 6145.00    2.79403   2.71265   -1.000
 6146.00    2.79792   2.71178   -1.000
 6147.00    2.78209   2.69411   -1.000
 6148.00    2.76414   2.66985   -1.000
 6149.00    2.75227   2.64857   -1.000
 6150.00    2.74961   2.63856   -1.000
 6151.00    2.75362   2.64442   -1.000
 6152.00    2.74955   2.65863   -1.000
 6153.00    2.75424   2.66463   -1.000
 6154.00    2.73039   2.65281   22.718
 6155.00    2.71137   2.63439   22.583
 6156.00    2.71069   2.62541   -1.000
 6157.00    2.71200   2.62356   -1.000
 6158.00    2.70185   2.61349   -1.000
 6159.00    2.67191   2.57430   -1.000
 6160.00    2.60271   2.49362   -1.000
 6161.00    2.50618   2.39280   -1.000
 6162.00    2.44824   2.32648   -1.000
 6163.00    2.46903   2.33406   -1.000
 6164.00    2.51668   2.39867   -1.000
 6165.00    2.58081   2.47578   -1.000
 6166.00    2.62271   2.52690   -1.000
 6167.00    2.60956   2.53666   -1.000
 6168.00    2.58188   2.50730   -1.000
 6169.00    2.55817   2.46586   -1.000
 6170.00    2.55396   2.45615   -1.000
 6171.00    2.58286   2.49538   -1.000
 6172.00    2.61606   2.55206   24.422
 6173.00    2.64384   2.58736   24.125
 6174.00    2.64067   2.59968   23.660
 6175.00    2.65176   2.60228   23.431
 6176.00    2.66862   2.60257   23.491
 6177.00    2.66165   2.60806   23.486
 6178.00    2.67234   2.62196   23.423
 6179.00    2.68189   2.63634   23.377
 6180.00    2.69131   2.64637   23.298
 6181.00    2.71342   2.65851   23.184
 6182.00    2.72664   2.67260   23.107
 6183.00    2.71719   2.67856   23.026
 6184.00    2.71391   2.67125   22.926
 6185.00    2.70272   2.65092   22.898
 6186.00    2.66199   2.62175   22.964
 6187.00    2.63533   2.59320   23.071
 6188.00    2.62072   2.57118   23.284
 6189.00    2.60419   2.54534   23.543
 6190.00    2.58324   2.50770   23.778
 6191.00    2.56072   2.47999   -1.000
 6192.00    2.56444   2.49291   24.188
 6193.00    2.61071   2.54545   24.491
 6194.00    2.66931   2.60593   24.525
 6195.00    2.70249   2.64666   24.125
 6196.00    2.69037   2.66358   23.537
 6197.00    2.68604   2.65801   23.238
 6198.00    2.67996   2.63035   23.144
 6199.00    2.63902   2.59640   23.160
 6200.00    2.63362   2.58571   23.361
 6201.00    2.64552   2.60851   23.627
 6202.00    2.67734   2.64562   23.759
 6203.00    2.71070   2.67483   23.663
 6204.00    2.69483   2.68823   23.386
 6205.00    2.68733   2.69203   23.138
 6206.00    2.68968   2.69574   23.119
 6207.00    2.70368   2.70106   23.115
 6208.00    2.71429   2.70181   23.078
 6209.00    2.69812   2.69325   23.103
 6210.00    2.69756   2.67494   23.184
 6211.00    2.67997   2.64510   23.190
 6212.00    2.64114   2.59920   23.333
 6213.00    2.60932   2.54463   23.553
 6214.00    2.57186   2.50367   23.740
 6215.00    2.57838   2.49316   -1.000
 6216.00    2.60455   2.51017   -1.000
 6217.00    2.60701   2.53349   -1.000
 6218.00    2.63190   2.54076   -1.000
 6219.00    2.61589   2.52866   -1.000
 6220.00    2.59139   2.51887   24.169
 6221.00    2.60732   2.52986   -1.000
 6222.00    2.61900   2.55361   24.179
 6223.00    2.42474   2.57296   24.063
 6224.00    2.27606   2.58278   -1.000
 6225.00    2.66656   2.58959   -1.000
 6226.00    2.65106   2.59457   24.767
 6227.00    2.60907   2.58709   23.851
 6228.00    2.60734   2.55489   23.944
 6229.00    2.59444   2.49810   -1.000
 6230.00    2.54366   2.44215   -1.000
 6231.00    2.52266   2.42326   -1.000
 6232.00    2.55290   2.45245   -1.000
 6233.00    2.61690   2.51312   -1.000
 6234.00    2.66879   2.57788   -1.000
 6235.00    2.67874   2.62148   24.526
 6236.00    2.66532   2.62867   24.064
 6237.00    2.65129   2.60490   23.739
 6238.00    2.64650   2.56787   -1.000
 6239.00    2.60745   2.53345   23.922
 6240.00    2.58455   2.51202   24.171
 6241.00    2.56759   2.50233   24.418
 6242.00    2.56417   2.49064   -1.000
 6243.00    2.54817   2.47221   -1.000
 6244.00    2.53729   2.45957   -1.000
 6245.00    2.54227   2.46290   -1.000
 6246.00    2.56015   2.48550   -1.000
 6247.00    2.59274   2.52686   -1.000
 6248.00    2.62295   2.57197   24.795
 6249.00    2.64539   2.59717   24.526
 6250.00    2.63575   2.58845   24.217
 6251.00    2.59533   2.54817   24.017
 6252.00    2.55591   2.49730   24.067
 6253.00    2.52237   2.46309   24.360
 6254.00    2.51347   2.45196   24.809
 6255.00    2.52317   2.44818   -1.000
 6256.00    2.51021   2.43502   -1.000
 6257.00    2.48953   2.41645   -1.000
 6258.00    2.49776   2.41375   -1.000
 6259.00    2.52474   2.44094   -1.000
 6260.00    2.56325   2.49174   -1.000
 6261.00    2.62550   2.54755   -1.000
 6262.00    2.64445   2.59243   25.080
 6263.00    2.65136   2.61457   24.714
 6264.00    2.64963   2.61117   24.374
 6265.00    2.63663   2.59791   24.036
 6266.00    2.63640   2.59640   24.006
 6267.00    2.64871   2.60770   24.225
 6268.00    2.65794   2.61285   24.328
 6269.00    2.64111   2.60662   24.175
 6270.00    2.62198   2.60320   24.042
 6271.00    2.61759   2.61202   24.166
 6272.00    2.63513   2.62736   24.261
 6273.00    2.64995   2.63596   24.201
 6274.00    2.64771   2.63018   24.118
 6275.00    2.64535   2.61211   24.087
 6276.00    2.65168   2.58688   24.184
 6277.00    2.63481   2.55597   -1.000
 6278.00    2.58709   2.52271   24.606
 6279.00    2.52272   2.49286   25.066
 6280.00    2.44758   2.47791   25.696
 6281.00    2.40618   2.48848   26.082
 6282.00    2.41899   2.52264   26.167
 6283.00    2.43282   2.56632   25.986
 6284.00    2.45008   2.60437   25.536
 6285.00    2.45679   2.63212   25.104
 6286.00    2.46314   2.65502   -1.000
 6287.00    2.49718   2.67596   24.464
 6288.00    2.54963   2.68786   24.269
 6289.00    2.58772   2.68082   24.052
 6290.00    2.61712   2.65724   23.911
 6291.00    2.60574   2.63088   23.906
 6292.00    2.58893   2.61504   24.066
 6293.00    2.61177   2.61215   24.273
 6294.00    2.61453   2.61166   24.427
 6295.00    2.61151   2.59873   24.456
 6296.00    2.59108   2.57256   24.485
 6297.00    2.56881   2.55105   24.555
 6298.00    2.54447   2.54756   24.758
 6299.00    2.52053   2.55257   24.895
 6300.00    2.46840   2.54713   24.906
 6301.00    2.38980   2.53195   24.851
 6302.00    2.39986   2.52969   24.738
 6303.00    2.67286   2.55132   -1.000
 6304.00    2.91280   2.58553   -1.000
 6305.00    2.89079   2.61936   -1.000
 6306.00    2.74914   2.64960   -1.000
 6307.00    2.69045   2.67661   24.457
 6308.00    2.68696   2.69201   24.183
 6309.00    2.66464   2.68754   23.984
 6310.00    2.64371   2.66878   23.791
 6311.00    2.63452   2.64900   23.796
 6312.00    2.62839   2.63468   23.923
 6313.00    2.62640   2.62074   24.080
 6314.00    2.61121   2.59920   24.165
 6315.00    2.59202   2.57547   24.255
 6316.00    2.58453   2.55989   24.299
 6317.00    2.58019   2.54955   24.528
 6318.00    2.55643   2.54641   24.580
 6319.00    2.55516   2.56453   24.553
 6320.00    2.59727   2.60025   24.539
 6321.00    2.61881   2.63226   24.561
 6322.00    2.62252   2.65540   24.425
 6323.00    2.63261   2.67769   24.116
 6324.00    2.66132   2.69982   23.910
 6325.00    2.68780   2.71427   23.835
 6326.00    2.68711   2.71721   23.747
 6327.00    2.69282   2.71470   23.621
 6328.00    2.68288   2.71428   23.563
 6329.00    2.69792   2.71447   23.540
 6330.00    2.71598   2.71484   23.430
 6331.00    2.69239   2.72266   23.469
 6332.00    2.69163   2.73260   23.483
 6333.00    2.71108   2.72417   23.485
 6334.00    2.67419   2.68644   23.394
 6335.00    2.75980   2.63600   -1.000
 6336.00    2.72747   2.60624   -1.000
 6337.00    2.61871   2.61255   23.576
 6338.00    2.66034   2.64247   24.115
 6339.00    2.66314   2.67867   24.071
 6340.00    2.68947   2.70861   23.842
 6341.00    2.70424   2.71944   23.594
 6342.00    2.68125   2.70602   23.352
 6343.00    2.66656   2.68114   23.254
 6344.00    2.66900   2.66831   23.156
 6345.00    2.67277   2.68008   23.215
 6346.00    2.67532   2.70727   23.421
 6347.00    2.68791   2.73520   23.419
 6348.00    2.71149   2.75846   23.338
 6349.00    2.72510   2.77510   23.201
 6350.00    2.73341   2.78327   23.044
 6351.00    2.72739   2.78208   22.978
 6352.00    2.70775   2.76885   22.984
 6353.00    2.69967   2.74269   22.936
 6354.00    2.66884   2.71208   22.977
 6355.00    2.64745   2.69173   23.084
 6356.00    2.64494   2.68166   23.211
 6357.00    2.62759   2.66594   23.488
 6358.00    2.60242   2.63908   23.656
 6359.00    2.59074   2.61341   23.655
 6360.00    2.57831   2.59706   23.758
 6361.00    2.55943   2.58665   24.030
 6362.00    2.56244   2.58326   24.086
 6363.00    2.57587   2.59353   23.973
 6364.00    2.57330   2.61849   23.907
 6365.00    2.56733   2.65186   23.882
 6366.00    2.63342   2.68712   23.783
 6367.00    2.73165   2.71894   23.619
 6368.00    2.77646   2.74074   23.473
 6369.00    2.72009   2.74911   23.347
 6370.00    2.69164   2.75281   23.194
 6371.00    2.68504   2.76281   23.051
 6372.00    2.66710   2.78002   23.011
 6373.00    2.69179   2.79563   23.022
 6374.00    2.70174   2.80138   22.932
 6375.00    2.67761   2.79833   22.860
 6376.00    2.66335   2.79024   22.931
 6377.00    2.64547   2.77674   22.946
 6378.00    2.63246   2.75998   23.004
 6379.00    2.62104   2.74688   23.097
 6380.00    2.59775   2.74137   23.222
 6381.00    2.60635   2.74374   23.377
 6382.00    2.61965   2.75135   23.449
 6383.00    2.61985   2.75765   23.462
 6384.00    2.62089   2.76042   23.505
 6385.00    2.61941   2.76551   23.487
 6386.00    2.62469   2.77586   23.438
 6387.00    2.61536   2.78573   23.559
 6388.00    2.61092   2.79026   23.597
 6389.00    2.60108   2.78891   -1.000
 6390.00    2.59546   2.77619   23.663
 6391.00    2.56558   2.74356   23.752
 6392.00    2.51165   2.69643   -1.000
 6393.00    2.47674   2.66266   -1.000
 6394.00    2.45515   2.67172   -1.000
 6395.00    2.47695   2.71832   -1.000
 6396.00    2.50788   2.76331   -1.000
 6397.00    2.50553   2.77269   -1.000
 6398.00    2.46882   2.73730   -1.000
 6399.00    2.40880   2.68117   -1.000
 6400.00    2.36263   2.65357   -1.000
 6401.00    2.39411   2.68448   -1.000
 6402.00    2.42495   2.75005   -1.000
 6403.00    2.47364   2.80370   -1.000
 6404.00    2.47159   2.82410   -1.000
 6405.00    2.43922   2.81243   -1.000
 6406.00    2.41418   2.77993   -1.000
 6407.00    2.37864   2.74689   -1.000
 6408.00    2.34939   2.73332   -1.000
 6409.00    2.34794   2.73766   -1.000
 6410.00    2.31979   2.74058   -1.000
 6411.00    2.28746   2.73522   -1.000
 6412.00    2.27122   2.73379   -1.000
 6413.00    2.25423   2.74276   -1.000
 6414.00    2.24357   2.75594   -1.000
 6415.00    2.25690   2.76770   -1.000
 6416.00    2.24654   2.77619   -1.000
 6417.00    2.24206   2.77425   -1.000
 6418.00    2.23194   2.75321   -1.000
 6419.00    2.18462   2.71689   -1.000
 6420.00    2.12629   2.68720   -1.000
 6421.00    2.09156   2.69000   -1.000
 6422.00    2.08989   2.72923   -1.000
 6423.00    2.10431   2.77832   -1.000
 6424.00    2.10839   2.81180   -1.000
 6425.00    2.10333   2.82897   -1.000
 6426.00    2.09785   2.83970   -1.000
 6427.00    2.07484   2.84144   -1.000
 6428.00    2.04898   2.82008   -1.000
