###################################################################
## OUTPUT of StarlightChains_v04.for    [Cid@UFSC - 01/Apr/2007] ##
###################################################################

## Some input info
NGC6218_a_1.cxt                          [arq_obs]
Base.BC03.S                              [arq_base]
NGC6218_a_1.msk                          [arq_masks]
StCv04.C11.config                        [arq_config]
  150                                    [N_base]
    0                                    [N_YAV_components = # of components with extra extinction!]
    0                                    [i_FitPowerLaw (1/0 = Yes/No)]
-9.99                                    [alpha_PowerLaw]
CCM                                      [red_law_option]
 1.458241                                [q_norm = A(l_norm)/A(V)]

## (Re)Sampling Parameters
 3359.00                                 [l_ini (A)]
 6428.00                                 [l_fin (A)]
    1.00                                 [dl    (A)]     (OBS: dl_cushion =    50.00 A)

## Normalization info
 4020.00                                 [l_norm (A) - for base]
 4010.00                                 [llow_norm (A) - window for f_obs]
 4060.00                                 [lupp_norm (A) - window for f_obs]
1.427242E-14                             [fobs_norm (in input units)]

## S/N
 4730.00                                 [llow_SN (A) - window for S/N]
 4780.00                                 [lupp_SN (A) - window for S/N]
  89.798                                 [S/N in S/N window]
  81.145                                 [S/N in norm. window]
  59.740                                 [S/N_err in S/N window]
  53.984                                 [S/N_err in norm. window]
  1.0000                                 [fscale_chi2]

## etc...
  2147483625                             [idum_orig]
  3068                                   [NOl_eff]
  2487                                   [Nl_eff]
   581    NSIGMA                         [Ntot_cliped & clip_method]
  2589300                                [Nglobal_steps]
   7                                     [N_chains]
  42                                     [NEX0s_base = N_base in EX0s-fits]
 0   0   1      282   2.0   8.248E+02    [Clip-Bug, RC-Crash & Burn-In warning-flags, n_censored_weights, wei_nsig_threshold & wei_limit]
    72     72.368     72.360      0.008  [idt_all, wdt_TotTime, wdt_UsrTime & wdt_SysTime (sec)]

## Synthesis Results - Best model ##

 1.52224E+00                             [chi2/Nl_eff]
     1.55903                             [adev (%)]

    99.83805                             [sum-of-x (%)]
 2.61393E-14                             [Flux_tot (units of input spectrum!)]
 5.19204E-10                             [Mini_tot (???)]
 2.59214E-10                             [Mcor_tot (???)]

  -8.70                                  [v0_min  (km/s)]
  61.66                                  [vd_min  (km/s)]
 0.4517                                  [AV_min  (mag)]
 0.0000                                  [YAV_min (mag)]

# j     x_j(%)      Mini_j(%)     Mcor_j(%)     age_j(yr)     Z_j      (L/M)_j    YAV?  Mstars   component_j        a/Fe...       SSP_chi2r SSP_adev(%)   SSP_AV   SSP_x(%)
  1      0.4427     2.7355E-03    5.4792E-03    1.000000E+06  0.00010  8.160E-03    0   1.0000   age020_m22            0.0000     1.1108E+02    10.9727   4.0000    69.2550
  2     10.7438     1.1384E-02    2.2803E-02    3.160000E+06  0.00010  4.759E-02    0   1.0000   age045_m22            0.0000     1.5875E+01     3.3945   1.8070    95.4572
  3      5.2235     1.3634E-02    2.6167E-02    5.010000E+06  0.00010  1.932E-02    0   0.9582   age055_m22            0.0000     9.0858E+01    11.2462   2.3474    75.0558
  4      0.0000     0.0000E+00    0.0000E+00    6.610000E+06  0.00010  9.973E-03    0   0.9297   age061_m22            0.0000     1.0411E+02    11.4843   4.0000    71.7383
  5      0.0000     0.0000E+00    0.0000E+00    8.710000E+06  0.00010  7.690E-03    0   0.9030   age067_m22            0.0000     9.8490E+01    11.2442   3.9941    72.2903
  6      0.0000     0.0000E+00    0.0000E+00    1.000000E+07  0.00010  6.375E-03    0   0.8902   age070_m22            0.0000     9.4375E+01    10.9623   4.0000    72.6178
  7      0.0000     0.0000E+00    0.0000E+00    1.445000E+07  0.00010  4.874E-03    0   0.8589   age078_m22            0.0000     6.7715E+01     9.3435   3.7835    76.4594
  8      0.0000     0.0000E+00    0.0000E+00    2.512000E+07  0.00010  4.103E-03    0   0.8174   age090_m22            0.0000     2.8471E+01     5.6668   3.2615    86.3081
  9      0.0007     9.8957E-06    1.5520E-05    4.000000E+07  0.00010  3.654E-03    0   0.7830   age104_m22            0.0000     3.6756E+01     4.0621   2.8411    95.1748
 10      0.0000     0.0000E+00    0.0000E+00    5.500000E+07  0.00010  3.093E-03    0   0.7597   age110_m22            0.0000     4.3459E+01     4.0217   2.6844    98.7478
 11      0.0000     0.0000E+00    0.0000E+00    1.015200E+08  0.00010  2.431E-03    0   0.7138   age116_m22            0.0000     7.1749E+01     5.0587   2.2519   105.0295
 12      1.7229     6.5868E-02    8.9385E-02    1.609000E+08  0.00010  1.319E-03    0   0.6775   age120_m22            0.0000     5.7833E+01     5.6707   1.7376   109.2435
 13      0.0658     3.0873E-03    3.9651E-03    2.861200E+08  0.00010  1.075E-03    0   0.6412   age125_m22            0.0000     1.9142E+02    11.9183   1.5256   123.6205
 14      0.0000     0.0000E+00    0.0000E+00    5.088000E+08  0.00010  7.183E-04    0   0.6083   age130_m22            0.0000     2.3894E+02    13.9702   1.1975   129.4923
 15      0.0000     0.0000E+00    0.0000E+00    9.047900E+08  0.00010  4.524E-04    0   0.5785   age135_m22            0.0000     2.4179E+02    14.3322   0.9815   131.6271
 16      0.0000     0.0000E+00    0.0000E+00    1.278050E+09  0.00010  3.018E-04    0   0.5588   age138_m22            0.0000     1.0123E+02     9.4405   0.6738   120.7824
 17      0.0000     0.0000E+00    0.0000E+00    1.434000E+09  0.00010  2.691E-04    0   0.5532   age139_m22            0.0000     8.0276E+01     8.4498   0.5617   118.4310
 18      0.0000     0.0000E+00    0.0000E+00    2.500000E+09  0.00010  1.582E-04    0   0.5296   age150_m22            0.0000     6.6702E+01     7.3552   0.4920   117.5114
 19      0.0000     0.0000E+00    0.0000E+00    4.250000E+09  0.00010  1.007E-04    0   0.5110   age158_m22            0.0000     3.2070E+01     5.0935   0.4356   111.8816
 20      0.0043     3.1471E-03    3.1423E-03    6.250000E+09  0.00010  6.869E-05    0   0.4985   age166_m22            0.0000     1.1703E+01     3.1279   0.4663   105.4963
 21      0.0000     0.0000E+00    0.0000E+00    7.500000E+09  0.00010  5.873E-05    0   0.4931   age171_m22            0.0000     9.6199E+00     2.7874   0.4740   104.1788
 22      0.0000     0.0000E+00    0.0000E+00    1.000000E+10  0.00010  4.481E-05    0   0.4854   age181_m22            0.0000     8.8349E+00     2.7339   0.4370   103.7556
 23      0.0203     2.9285E-02    2.8103E-02    1.300000E+10  0.00010  3.489E-05    0   0.4791   age193_m22            0.0000     7.2903E+00     2.5871   0.3852   103.0016
 24      0.0000     0.0000E+00    0.0000E+00    1.500000E+10  0.00010  3.035E-05    0   0.4766   age201_m22            0.0000     6.4259E+00     2.4814   0.3506   102.6383
 25     16.5993     3.3349E+01    3.1628E+01    1.800000E+10  0.00010  2.510E-05    0   0.4735   age213_m22            0.0000     4.6746E+00     2.2222   0.2953   101.5175
 26      0.8597     5.1257E-03    1.0267E-02    1.000000E+06  0.00040  8.458E-03    0   1.0000   age020_m32            0.0000     1.0963E+02    10.8471   4.0000    69.9731
 27      0.0000     0.0000E+00    0.0000E+00    3.160000E+06  0.00040  3.973E-02    0   1.0000   age045_m32            0.0000     3.2705E+01     6.0932   3.1705    85.8640
 28      0.0000     0.0000E+00    0.0000E+00    5.010000E+06  0.00040  1.935E-02    0   0.9532   age055_m32            0.0000     7.2868E+01     9.9943   3.5167    76.4951
 29      0.0000     0.0000E+00    0.0000E+00    6.610000E+06  0.00040  1.204E-02    0   0.9243   age061_m32            0.0000     8.4194E+01    10.4927   3.8447    74.2776
 30      0.0000     0.0000E+00    0.0000E+00    8.710000E+06  0.00040  9.433E-03    0   0.9001   age067_m32            0.0000     7.4524E+01     9.8916   3.8027    75.5655
 31      0.0000     0.0000E+00    0.0000E+00    1.000000E+07  0.00040  8.053E-03    0   0.8877   age070_m32            0.0000     7.0930E+01     9.6260   3.7597    76.1966
 32      0.0001     4.0676E-07    6.9888E-07    1.445000E+07  0.00040  7.027E-03    0   0.8578   age078_m32            0.0000     4.0052E+01     7.1752   3.1668    83.4425
 33      0.0000     0.0000E+00    0.0000E+00    2.512000E+07  0.00040  4.707E-03    0   0.8166   age090_m32            0.0000     2.5365E+01     5.1945   2.7991    89.7404
 34      0.0000     0.0000E+00    0.0000E+00    4.000000E+07  0.00040  3.714E-03    0   0.7827   age104_m32            0.0000     2.9575E+01     3.9787   2.5040    96.2891
 35      0.0000     0.0000E+00    0.0000E+00    5.500000E+07  0.00040  2.982E-03    0   0.7593   age110_m32            0.0000     3.7115E+01     3.9697   2.3953    99.2098
 36      0.0000     0.0000E+00    0.0000E+00    1.015200E+08  0.00040  2.188E-03    0   0.7143   age116_m32            0.0000     1.0485E+02     7.1379   1.9239   111.4264
 37      0.3408     1.0169E-02    1.3965E-02    1.609000E+08  0.00040  1.690E-03    0   0.6856   age120_m32            0.0000     1.6412E+02     9.8364   1.5936   119.1497
 38      0.0000     0.0000E+00    0.0000E+00    2.861200E+08  0.00040  1.152E-03    0   0.6509   age125_m32            0.0000     2.0277E+02    12.4570   1.2492   126.0962
 39      0.0000     0.0000E+00    0.0000E+00    5.088000E+08  0.00040  7.331E-04    0   0.6182   age130_m32            0.0000     2.2153E+02    13.5876   1.0335   129.0286
 40      0.0000     0.0000E+00    0.0000E+00    9.047900E+08  0.00040  3.960E-04    0   0.5890   age135_m32            0.0000     1.0529E+02    10.0499   0.7450   120.7215
 41      0.0000     0.0000E+00    0.0000E+00    1.278050E+09  0.00040  2.854E-04    0   0.5687   age138_m32            0.0000     7.9697E+01     8.2555   0.5223   120.0308
 42      0.0000     0.0000E+00    0.0000E+00    1.434000E+09  0.00040  2.531E-04    0   0.5632   age139_m32            0.0000     7.7386E+01     8.0418   0.4677   119.7011
 43     15.9559     5.4073E+00    5.8335E+00    2.500000E+09  0.00040  1.488E-04    0   0.5386   age150_m32            0.0000     5.0858E+01     6.4682   0.2746   115.0731
 44     16.7062     9.2759E+00    9.6596E+00    4.250000E+09  0.00040  9.082E-05    0   0.5199   age158_m32            0.0000     1.1831E+01     3.2747   0.3128   106.2048
 45      0.5753     4.5599E-01    4.6361E-01    6.250000E+09  0.00040  6.362E-05    0   0.5076   age166_m32            0.0000     2.7312E+00     1.7982   0.3738    98.8586
 46      3.8841     3.7032E+00    3.7288E+00    7.500000E+09  0.00040  5.289E-05    0   0.5027   age171_m32            0.0000     3.0397E+00     1.8404   0.3514    97.0963
 47      2.1040     2.6711E+00    2.6473E+00    1.000000E+10  0.00040  3.972E-05    0   0.4948   age181_m32            0.0000     3.8420E+00     1.9390   0.2939    95.6182
 48      0.0454     6.9680E-02    6.7970E-02    1.300000E+10  0.00040  3.283E-05    0   0.4870   age193_m32            0.0000     3.1038E+00     2.0487   0.1964   100.3499
 49      0.0000     7.1773E-05    6.9782E-05    1.500000E+10  0.00040  2.925E-05    0   0.4854   age201_m32            0.0000     5.2936E+00     2.5775   0.1449   103.2292
 50      0.0009     1.7807E-03    1.7188E-03    1.800000E+10  0.00040  2.469E-05    0   0.4819   age213_m32            0.0000     6.6893E+00     2.8662   0.0898   104.3229
 51      0.5636     2.5513E-03    5.1103E-03    1.000000E+06  0.00400  1.114E-02    0   1.0000   age020_m42            0.0000     1.0368E+02    11.1631   3.9918    70.2420
 52      0.0000     0.0000E+00    0.0000E+00    3.160000E+06  0.00400  4.073E-02    0   0.9999   age045_m42            0.0000     2.1120E+01     4.5658   2.8160    90.2079
 53      0.0000     0.0000E+00    0.0000E+00    5.010000E+06  0.00400  2.534E-02    0   0.9488   age055_m42            0.0000     4.7883E+01     7.8598   3.3422    80.2808
 54      0.0013     2.4992E-06    4.6154E-06    6.610000E+06  0.00400  2.583E-02    0   0.9220   age061_m42            0.0000     2.6084E+01     4.0255   2.6054    92.1098
 55      0.0000     1.2197E-07    2.1945E-07    8.710000E+06  0.00400  1.706E-02    0   0.8983   age067_m42            0.0000     2.9643E+01     5.9177   2.5150    87.4783
 56      0.0000     0.0000E+00    0.0000E+00    1.000000E+07  0.00400  1.271E-02    0   0.8862   age070_m42            0.0000     4.0777E+01     7.6604   2.5506    84.4099
 57      0.0000     0.0000E+00    0.0000E+00    1.445000E+07  0.00400  7.666E-03    0   0.8571   age078_m42            0.0000     5.6254E+01     8.8201   2.9978    79.9365
 58      0.0000     0.0000E+00    0.0000E+00    2.512000E+07  0.00400  5.070E-03    0   0.8174   age090_m42            0.0000     3.3696E+01     6.9642   2.3953    86.8384
 59      0.0000     0.0000E+00    0.0000E+00    4.000000E+07  0.00400  3.505E-03    0   0.7851   age104_m42            0.0000     2.0460E+01     4.8468   2.0043    92.4142
 60      0.0000     0.0000E+00    0.0000E+00    5.500000E+07  0.00400  3.059E-03    0   0.7629   age110_m42            0.0000     2.7948E+01     3.5995   1.8846   103.5387
 61      0.0644     1.4313E-03    2.0661E-03    1.015200E+08  0.00400  2.268E-03    0   0.7207   age116_m42            0.0000     1.3216E+02     9.5183   1.5233   119.4203
 62      1.3113     3.8444E-02    5.3364E-02    1.609000E+08  0.00400  1.720E-03    0   0.6930   age120_m42            0.0000     1.4273E+02    10.6168   1.3296   123.2926
 63      0.0000     0.0000E+00    0.0000E+00    2.861200E+08  0.00400  1.079E-03    0   0.6613   age125_m42            0.0000     1.3268E+02    10.8643   0.9660   124.4122
 64      0.0000     0.0000E+00    0.0000E+00    5.088000E+08  0.00400  6.261E-04    0   0.6313   age130_m42            0.0000     1.6103E+02    11.8946   0.7207   129.8045
 65      0.0000     0.0000E+00    0.0000E+00    9.047900E+08  0.00400  3.535E-04    0   0.6024   age135_m42            0.0000     8.5874E+01     9.0954   0.4513   124.7075
 66      0.0000     0.0000E+00    0.0000E+00    1.278050E+09  0.00400  2.677E-04    0   0.5837   age138_m42            0.0000     3.9696E+01     6.7764  -0.0947   116.1595
 67      0.0000     0.0000E+00    0.0000E+00    1.434000E+09  0.00400  1.910E-04    0   0.5716   age139_m42            0.0000     4.2788E+01     7.6936   0.0000   118.8936
 68      0.5077     2.6076E-01    2.8533E-01    2.500000E+09  0.00400  9.818E-05    0   0.5463   age150_m42            0.0000     1.9984E+01     4.8464  -0.0861   107.5609
 69      0.0000     0.0000E+00    0.0000E+00    4.250000E+09  0.00400  5.491E-05    0   0.5269   age158_m42            0.0000     2.4263E+01     4.2743  -0.1465   102.2773
 70      6.4122     8.3834E+00    8.6495E+00    6.250000E+09  0.00400  3.857E-05    0   0.5151   age166_m42            0.0000     3.1812E+01     4.7294  -0.2542   100.2527
 71      6.2389     9.7012E+00    9.9295E+00    7.500000E+09  0.00400  3.243E-05    0   0.5110   age171_m42            0.0000     3.7911E+01     5.0998  -0.3274    99.5241
 72      4.4144     9.1833E+00    9.2486E+00    1.000000E+10  0.00400  2.424E-05    0   0.5028   age181_m42            0.0000     4.9250E+01     5.5759  -0.3994    98.6429
 73      0.0000     0.0000E+00    0.0000E+00    1.300000E+10  0.00400  1.883E-05    0   0.4927   age193_m42            0.0000     6.1806E+01     5.8874  -0.4307    98.0710
 74      0.0010     3.0608E-03    3.0157E-03    1.500000E+10  0.00400  1.685E-05    0   0.4919   age201_m42            0.0000     5.8445E+01     5.7777  -0.4265    98.0717
 75      0.0000     0.0000E+00    0.0000E+00    1.800000E+10  0.00400  1.452E-05    0   0.4874   age213_m42            0.0000     5.3245E+01     5.5802  -0.4126    98.3579
 76      0.0000     0.0000E+00    0.0000E+00    1.000000E+06  0.00800  1.286E-02    0   1.0000   age020_m52            0.0000     9.0739E+01    10.4470   3.9461    72.4900
 77      0.0000     0.0000E+00    0.0000E+00    3.160000E+06  0.00800  3.147E-02    0   0.9966   age045_m52            0.0000     8.3866E+01    10.2116   3.8529    74.1360
 78      0.0001     2.3342E-07    4.4150E-07    5.010000E+06  0.00800  2.664E-02    0   0.9443   age055_m52            0.0000     5.8876E+01     8.4497   3.4797    78.8660
 79      0.0000     0.0000E+00    0.0000E+00    6.610000E+06  0.00800  2.151E-02    0   0.9177   age061_m52            0.0000     3.4126E+01     6.6666   2.1308    86.5386
 80      0.0000     0.0000E+00    0.0000E+00    8.710000E+06  0.00800  1.628E-02    0   0.8948   age067_m52            0.0000     3.2025E+01     6.3426   2.4789    87.7416
 81      0.0000     0.0000E+00    0.0000E+00    1.000000E+07  0.00800  1.215E-02    0   0.8827   age070_m52            0.0000     4.0546E+01     7.1415   2.8434    85.1610
 82      0.0000     0.0000E+00    0.0000E+00    1.445000E+07  0.00800  8.739E-03    0   0.8552   age078_m52            0.0000     3.4754E+01     6.0961   2.8434    87.7290
 83      0.0000     0.0000E+00    0.0000E+00    2.512000E+07  0.00800  5.676E-03    0   0.8162   age090_m52            0.0000     3.5504E+01     4.6112   2.3451    95.8887
 84      0.0000     0.0000E+00    0.0000E+00    4.000000E+07  0.00800  3.939E-03    0   0.7841   age104_m52            0.0000     3.8641E+01     3.9368   2.0961   101.6978
 85      0.0000     0.0000E+00    0.0000E+00    5.500000E+07  0.00800  3.155E-03    0   0.7627   age110_m52            0.0000     5.1390E+01     4.5740   1.9897   106.4098
 86      0.0000     0.0000E+00    0.0000E+00    1.015200E+08  0.00800  2.206E-03    0   0.7226   age116_m52            0.0000     9.4067E+01     7.8845   1.6548   116.4493
 87      0.5804     1.8337E-02    2.5575E-02    1.609000E+08  0.00800  1.596E-03    0   0.6963   age120_m52            0.0000     1.1198E+02     9.3922   1.3762   120.8950
 88      0.0000     0.0000E+00    0.0000E+00    2.861200E+08  0.00800  1.002E-03    0   0.6665   age125_m52            0.0000     1.7673E+02    12.9791   0.9240   130.5529
 89      0.0000     0.0000E+00    0.0000E+00    5.088000E+08  0.00800  5.759E-04    0   0.6377   age130_m52            0.0000     1.8528E+02    14.1074   0.5234   137.3788
 90      0.0000     0.0000E+00    0.0000E+00    9.047900E+08  0.00800  2.972E-04    0   0.6086   age135_m52            0.0000     8.7493E+01    10.7215   0.1671   128.3795
 91      0.0000     0.0000E+00    0.0000E+00    1.278050E+09  0.00800  2.242E-04    0   0.5907   age138_m52            0.0000     4.8426E+01     7.6446  -0.2731   119.6127
 92      0.0000     0.0000E+00    0.0000E+00    1.434000E+09  0.00800  1.645E-04    0   0.5787   age139_m52            0.0000     3.9689E+01     6.9234  -0.1086   118.2747
 93      0.0000     0.0000E+00    0.0000E+00    2.500000E+09  0.00800  7.723E-05    0   0.5519   age150_m52            0.0000     4.2241E+01     6.0406  -0.3465   110.1396
 94      0.0000     0.0000E+00    0.0000E+00    4.250000E+09  0.00800  4.151E-05    0   0.5320   age158_m52            0.0000     4.0784E+01     5.6948  -0.3698   105.6604
 95      0.5926     9.9282E-01    1.0335E+00    6.250000E+09  0.00800  3.010E-05    0   0.5197   age166_m52            0.0000     5.9126E+01     6.3931  -0.5472   103.6461
 96      0.6490     1.3266E+00    1.3655E+00    7.500000E+09  0.00800  2.467E-05    0   0.5139   age171_m52            0.0000     6.4947E+01     6.6278  -0.5886   103.2324
 97      0.0000     0.0000E+00    0.0000E+00    1.000000E+10  0.00800  1.862E-05    0   0.5054   age181_m52            0.0000     8.3720E+01     7.4029  -0.7240   103.0876
 98      1.1293     3.9739E+00    3.9703E+00    1.300000E+10  0.00800  1.433E-05    0   0.4988   age193_m52            0.0000     1.1298E+02     8.1402  -0.8251   103.9580
 99      0.0000     0.0000E+00    0.0000E+00    1.500000E+10  0.00800  1.244E-05    0   0.4936   age201_m52            0.0000     1.2645E+02     8.3913  -0.8553   104.5068
100      0.4611     2.1731E+00    2.1276E+00    1.800000E+10  0.00800  1.070E-05    0   0.4888   age213_m52            0.0000     1.3375E+02     8.6214  -0.8931   104.4345
101      0.0000     0.0000E+00    0.0000E+00    1.000000E+06  0.02000  1.989E-02    0   1.0000   age020_m62            0.0000     1.0495E+02    11.1354   3.9521    71.0671
102      0.0000     0.0000E+00    0.0000E+00    3.160000E+06  0.02000  3.772E-02    0   0.9858   age045_m62            0.0000     8.9837E+01    10.4959   3.7953    73.5927
103      0.0000     0.0000E+00    0.0000E+00    5.010000E+06  0.02000  3.227E-02    0   0.9342   age055_m62            0.0000     3.4046E+01     6.0775   3.1367    85.0830
104      0.0000     0.0000E+00    0.0000E+00    6.610000E+06  0.02000  2.387E-02    0   0.9090   age061_m62            0.0000     4.9807E+01     8.2347   2.9521    82.4735
105      0.0000     0.0000E+00    0.0000E+00    8.710000E+06  0.02000  1.102E-02    0   0.8861   age067_m62            0.0000     1.3736E+02    14.7438   2.7265    73.6324
106      0.0000     0.0000E+00    0.0000E+00    1.000000E+07  0.02000  1.011E-02    0   0.8751   age070_m62            0.0000     9.7504E+01    12.1960   2.6940    77.5074
107      0.0000     0.0000E+00    0.0000E+00    1.445000E+07  0.02000  7.331E-03    0   0.8472   age078_m62            0.0000     6.9731E+01     9.9678   2.6593    80.4914
108      0.0000     0.0000E+00    0.0000E+00    2.512000E+07  0.02000  4.206E-03    0   0.8099   age090_m62            0.0000     7.3071E+01     9.8025   2.5611    80.5139
109      0.0000     3.9354E-07    6.1477E-07    4.000000E+07  0.02000  3.373E-03    0   0.7799   age104_m62            0.0000     2.2911E+01     4.2608   2.1582    96.1548
110      0.0000     0.0000E+00    0.0000E+00    5.500000E+07  0.02000  2.747E-03    0   0.7595   age110_m62            0.0000     3.3314E+01     4.1520   1.9682   104.2994
111      0.0000     0.0000E+00    0.0000E+00    1.015200E+08  0.02000  1.878E-03    0   0.7221   age116_m62            0.0000     1.0152E+02     8.1274   1.6165   117.7125
112      0.0000     0.0000E+00    0.0000E+00    1.609000E+08  0.02000  1.378E-03    0   0.6978   age120_m62            0.0000     1.5997E+02    11.1268   1.3282   126.0057
113      0.0000     0.0000E+00    0.0000E+00    2.861200E+08  0.02000  8.869E-04    0   0.6700   age125_m62            0.0000     2.6754E+02    15.3318   0.7537   139.4794
114      0.0000     0.0000E+00    0.0000E+00    5.088000E+08  0.02000  4.834E-04    0   0.6430   age130_m62            0.0000     2.1399E+02    15.0862   0.3398   141.3168
115      0.0000     0.0000E+00    0.0000E+00    9.047900E+08  0.02000  2.312E-04    0   0.6152   age135_m62            0.0000     8.2610E+01    10.3809  -0.0166   129.9292
116      0.0000     0.0000E+00    0.0000E+00    1.278050E+09  0.02000  1.387E-04    0   0.5927   age138_m62            0.0000     3.4887E+01     6.9562  -0.2228   117.7646
117      0.0000     0.0000E+00    0.0000E+00    1.434000E+09  0.02000  1.168E-04    0   0.5865   age139_m62            0.0000     3.1650E+01     6.4210  -0.2135   114.6136
118      0.0000     0.0000E+00    0.0000E+00    2.500000E+09  0.02000  5.505E-05    0   0.5610   age150_m62            0.0000     4.7995E+01     6.6627  -0.5123   108.5491
119      0.0000     0.0000E+00    0.0000E+00    4.250000E+09  0.02000  3.070E-05    0   0.5407   age158_m62            0.0000     8.9207E+01     8.3036  -0.8115   108.6570
120      0.0003     6.8447E-04    7.2347E-04    6.250000E+09  0.02000  2.104E-05    0   0.5277   age166_m62            0.0000     1.2088E+02     9.1068  -0.9466   109.2244
121      0.0000     0.0000E+00    0.0000E+00    7.500000E+09  0.02000  1.770E-05    0   0.5223   age171_m62            0.0000     1.3651E+02     9.2644  -1.0000   109.6244
122      0.0000     0.0000E+00    0.0000E+00    1.000000E+10  0.02000  1.297E-05    0   0.5121   age181_m62            0.0000     1.8937E+02    10.5616  -1.0000   109.0457
123      0.0000     0.0000E+00    0.0000E+00    1.300000E+10  0.02000  9.691E-06    0   0.5047   age193_m62            0.0000     2.3634E+02    12.4981  -1.0000   108.7599
124      0.0000     0.0000E+00    0.0000E+00    1.500000E+10  0.02000  8.360E-06    0   0.4999   age201_m62            0.0000     2.8094E+02    14.3404  -1.0000   108.3849
125      0.0000     0.0000E+00    0.0000E+00    1.800000E+10  0.02000  6.911E-06    0   0.4946   age213_m62            0.0000     3.3829E+02    16.3701  -1.0000   107.9935
126      0.0000     0.0000E+00    0.0000E+00    1.000000E+06  0.05000  2.651E-02    0   0.9998   age020_m72            0.0000     9.9774E+01    10.6379   3.9424    72.2174
127      0.0000     0.0000E+00    0.0000E+00    3.160000E+06  0.05000  4.817E-02    0   0.9577   age045_m72            0.0000     6.2529E+01     8.6079   3.5980    78.2277
128      0.0000     0.0000E+00    0.0000E+00    5.010000E+06  0.05000  3.101E-02    0   0.9147   age055_m72            0.0000     5.5394E+01     8.2618   3.2326    81.1146
129      0.0000     0.0000E+00    0.0000E+00    6.610000E+06  0.05000  1.472E-02    0   0.8877   age061_m72            0.0000     1.1170E+02    12.4794   2.8973    76.2206
130      0.0000     0.0000E+00    0.0000E+00    8.710000E+06  0.05000  1.050E-02    0   0.8638   age067_m72            0.0000     8.4321E+01    10.1425   3.2432    78.2586
131      0.0000     0.0000E+00    0.0000E+00    1.000000E+07  0.05000  8.954E-03    0   0.8524   age070_m72            0.0000     6.6679E+01     8.4420   3.4774    79.6983
132      0.0000     0.0000E+00    0.0000E+00    1.445000E+07  0.05000  6.392E-03    0   0.8262   age078_m72            0.0000     5.7628E+01     7.6384   3.3984    81.5387
133      0.0000     0.0000E+00    0.0000E+00    2.512000E+07  0.05000  4.207E-03    0   0.7902   age090_m72            0.0000     3.1929E+01     5.2420   2.9247    89.0933
134      0.0000     0.0000E+00    0.0000E+00    4.000000E+07  0.05000  3.198E-03    0   0.7618   age104_m72            0.0000     5.0882E+01     5.4597   2.1226   107.8671
135      0.0000     0.0000E+00    0.0000E+00    5.500000E+07  0.05000  2.593E-03    0   0.7432   age110_m72            0.0000     7.6294E+01     6.9569   1.9541   112.7548
136      0.0000     0.0000E+00    0.0000E+00    1.015200E+08  0.05000  1.716E-03    0   0.7092   age116_m72            0.0000     1.2923E+02     9.4884   1.6393   120.3706
137      0.0000     0.0000E+00    0.0000E+00    1.609000E+08  0.05000  1.218E-03    0   0.6876   age120_m72            0.0000     1.9801E+02    12.6009   1.2291   129.2695
138      0.0000     0.0000E+00    0.0000E+00    2.861200E+08  0.05000  7.047E-04    0   0.6618   age125_m72            0.0000     2.5988E+02    15.6933   0.5384   140.1175
139      0.0000     0.0000E+00    0.0000E+00    5.088000E+08  0.05000  3.590E-04    0   0.6356   age130_m72            0.0000     1.8217E+02    14.7770   0.0000   140.4800
140      0.0000     0.0000E+00    0.0000E+00    9.047900E+08  0.05000  1.484E-04    0   0.6088   age135_m72            0.0000     5.0762E+01     8.4955  -0.3688   118.9057
141      0.0000     0.0000E+00    0.0000E+00    1.278050E+09  0.05000  9.435E-05    0   0.5924   age138_m72            0.0000     6.3075E+01     8.6190  -0.6953   112.5780
142      0.0073     4.7028E-03    5.5078E-03    1.434000E+09  0.05000  7.827E-05    0   0.5847   age139_m72            0.0000     6.4921E+01     8.2442  -0.6529   110.8051
143      0.0000     0.0000E+00    0.0000E+00    2.500000E+09  0.05000  3.759E-05    0   0.5583   age150_m72            0.0000     1.1150E+02     9.1191  -0.9407   108.5997
144      0.9158     2.5070E+00    2.6985E+00    4.250000E+09  0.05000  1.842E-05    0   0.5374   age158_m72            0.0000     1.8312E+02    11.5265  -1.0000   105.9362
145      0.0000     0.0000E+00    0.0000E+00    6.250000E+09  0.05000  1.207E-05    0   0.5242   age166_m72            0.0000     3.1310E+02    17.1068  -1.0000   103.1507
146      0.0000     0.0000E+00    0.0000E+00    7.500000E+09  0.05000  9.993E-06    0   0.5183   age171_m72            0.0000     3.4136E+02    18.1218  -1.0000   102.5483
147      0.4530     3.1329E+00    3.1885E+00    1.000000E+10  0.05000  7.291E-06    0   0.5081   age181_m72            0.0000     4.5480E+02    21.2231  -1.0000   100.9724
148      0.0000     0.0000E+00    0.0000E+00    1.300000E+10  0.05000  5.316E-06    0   0.5018   age193_m72            0.0000     6.6965E+02    25.4215  -1.0000    97.9441
149      0.0000     0.0000E+00    0.0000E+00    1.500000E+10  0.05000  4.497E-06    0   0.4972   age201_m72            0.0000     7.8033E+02    27.0362  -1.0000    96.8983
150      0.2386     3.2179E+00    3.1738E+00    1.800000E+10  0.05000  3.739E-06    0   0.4924   age213_m72            0.0000     9.4308E+02    29.0505  -1.0000    94.8463


## Synthesis Results - Average & Chains ##

# j      x_j: min, <> & last-chain-values for 1 ...  7 chains
  1      0.4427      0.5192      0.5342      0.5523      0.5702      0.4911      0.5839      0.4917      0.6295
  2     10.7438      6.3155      7.2641      7.0929      7.2451      6.7209      7.7325      7.0095      7.1756
  3      5.2235      4.8265      5.0033      5.0588      5.0982      5.1407      4.9525      4.7412      5.2804
  4      0.0000      0.0108      0.0000      0.0000      0.0000      0.0000      0.0000      0.0038      0.0000
  5      0.0000      0.0093      0.0000      0.0000      0.0000      0.0346      0.0000      0.0000      0.0000
  6      0.0000      0.0209      0.0000      0.0000      0.0000      0.0000      0.0000      0.0000      0.0000
  7      0.0000      0.0094      0.0000      0.0000      0.0000      0.0000      0.0000      0.0000      0.0000
  8      0.0000      0.0302      0.0000      0.0000      0.0442      0.0000      0.0000      0.0000      0.0000
  9      0.0007      0.3379      0.1769      0.1454      0.0000      0.4727      0.4755      0.4652      0.3360
 10      0.0000      0.0993      0.0000      0.0539      0.2404      0.0000      0.0000      0.2153      0.2731
 11      0.0000      0.2201      0.0000      0.4248      0.1359      0.2932      0.0000      0.0000      0.0548
 12      1.7229      0.1534      0.1818      0.0000      0.0000      0.0000      0.0000      0.0000      0.2722
 13      0.0658      0.0428      0.2179      0.0000      0.1198      0.0000      0.0000      0.0000      0.0000
 14      0.0000      0.0458      0.0000      0.0000      0.0403      0.0000      0.0000      0.0000      0.0000
 15      0.0000      0.0302      0.0000      0.0000      0.0000      0.0000      0.0000      0.0000      0.0000
 16      0.0000      0.0331      0.0000      0.0000      0.0649      0.0000      0.0000      0.0000      0.0000
 17      0.0000      0.0446      0.0000      0.0000      0.4225      0.0000      0.0000      0.0000      0.0000
 18      0.0000      0.0437      0.0000      0.0000      0.0000      0.0000      0.0000      0.0000      0.0275
 19      0.0000      0.0875      0.0000      0.0219      0.1330      0.0000      0.0000      0.0000      0.0000
 20      0.0043      0.1815      0.2018      0.0820      0.0000      0.1564      0.0000      0.0000      0.0000
 21      0.0000      0.1843      0.0000      0.4259      0.2542      0.1330      0.3099      0.0000      0.0000
 22      0.0000      0.3131      0.1150      0.0000      0.1658      0.0000      0.0000      0.0000      0.0000
 23      0.0203      0.4723      0.4183      1.0984      0.2745      0.4960      0.6886      0.2656      0.1680
 24      0.0000      0.4471      0.0844      0.3972      0.0440      0.1969      0.0000      0.0000      0.0142
 25     16.5993     17.6407     18.2505     17.1396     17.6626     17.3602     17.5579     17.2777     19.1142
 26      0.8597      0.9735      0.8596      1.0317      1.1208      0.8525      1.0101      1.0278      1.0232
 27      0.0000      0.1193      0.0000      0.0000      0.1290      0.1471      0.0385      0.0000      0.0947
 28      0.0000      0.0112      0.0000      0.0000      0.0000      0.0000      0.0000      0.0000      0.0000
 29      0.0000      0.0116      0.0000      0.0000      0.0000      0.0000      0.0000      0.0000      0.0139
 30      0.0000      0.0207      0.0000      0.0000      0.0000      0.0000      0.0000      0.0000      0.0000
 31      0.0000      0.0287      0.0000      0.0000      0.0000      0.1568      0.0000      0.0000      0.0000
 32      0.0001      0.0516      0.1661      0.0000      0.0000      0.0000      0.0000      0.0000      0.0000
 33      0.0000      0.0612      0.0657      0.0000      0.0111      0.1105      0.0000      0.0841      0.0000
 34      0.0000      0.0519      0.0544      0.1694      0.0000      0.1993      0.0834      0.0000      0.0000
 35      0.0000      0.2731      0.0000      0.0000      0.2713      0.2765      0.2539      0.3024      0.0000
 36      0.0000      0.0695      0.0000      0.3047      0.0606      0.0000      0.1421      0.0888      0.0000
 37      0.3408      0.1100      0.3637      0.0977      0.0000      0.0000      0.1028      0.1809      0.0000
 38      0.0000      0.0438      0.0849      0.0028      0.0000      0.0497      0.2071      0.0000      0.0000
 39      0.0000      0.0307      0.0000      0.3741      0.0000      0.0000      0.0000      0.0000      0.3894
 40      0.0000      0.0320      0.0000      0.0085      0.5705      0.0000      0.0000      0.0085      0.0000
 41      0.0000      0.0620      0.0000      0.0000      0.0000      0.0000      0.1322      0.0000      0.1593
 42      0.0000      0.0587      0.0000      0.0263      0.0352      0.2624      0.0000      0.0174      0.0000
 43     15.9559     16.9038     16.0896     17.1981     16.1888     16.9723     17.6269     17.4161     17.7427
 44     16.7062     19.3160     19.0945     19.2476     19.5405     19.4258     18.6054     20.8156     19.8382
 45      0.5753      1.2981      1.3117      1.5250      1.2019      1.5714      1.2277      0.7220      0.5361
 46      3.8841      1.1447      1.1658      0.6489      1.4419      0.7594      1.5907      1.5426      0.0000
 47      2.1040      1.0009      1.5873      0.8782      1.6214      0.8650      0.8892      1.1293      1.1080
 48      0.0454      0.5658      0.7797      0.5722      0.5148      0.5586      0.5740      0.0000      0.0000
 49      0.0000      0.3944      0.3509      0.9672      0.0000      0.7306      0.6888      0.0000      0.0000
 50      0.0009      0.3423      0.2168      0.0000      0.3503      0.3468      0.2213      0.5023      0.5534
 51      0.5636      0.6286      0.5999      0.7172      0.6031      0.6792      0.6670      0.6830      0.6194
 52      0.0000      0.0799      0.0000      0.2703      0.0637      0.0754      0.0399      0.2112      0.0000
 53      0.0000      0.0193      0.0000      0.0542      0.0000      0.0000      0.0000      0.0000      0.0000
 54      0.0013      0.1365      0.4850      0.2952      0.0000      0.4047      0.0000      0.0000      0.4494
 55      0.0000      0.1936      0.1679      0.4420      0.2606      0.0000      0.1114      0.6811      0.0000
 56      0.0000      0.1253      0.0810      0.0729      0.0000      0.1191      0.1162      0.0000      0.1569
 57      0.0000      0.0164      0.0000      0.0000      0.0000      0.0000      0.0000      0.0000      0.0000
 58      0.0000      0.0817      0.0000      0.0000      0.0000      0.0000      0.0000      0.1493      0.0759
 59      0.0000      0.0471      0.0000      0.0000      0.0000      0.0000      0.0000      0.0000      0.0000
 60      0.0000      0.0448      0.0000      0.0000      0.0000      0.0000      0.0000      0.0088      0.0000
 61      0.0644      0.0803      0.1858      0.0000      0.0000      0.0215      0.1636      0.0375      0.2738
 62      1.3113      0.0626      0.1848      0.0085      0.0000      0.3134      0.0168      0.0000      0.0000
 63      0.0000      0.0317      0.0000      0.0000      0.0000      0.2621      0.0000      0.0000      0.0000
 64      0.0000      0.0408      0.0000      0.1633      0.0000      0.0000      0.3587      0.0000      0.0000
 65      0.0000      0.0594      0.0000      0.0000      0.0000      0.0000      0.0026      0.0000      0.0000
 66      0.0000      0.0491      0.0000      0.0000      0.0000      0.0000      0.1633      0.0000      0.0000
 67      0.0000      0.0787      0.0000      0.0000      0.0000      0.0000      0.0248      0.0000      0.0000
 68      0.5077      0.1961      0.6222      0.6326      0.1608      0.4874      0.0000      0.7452      0.0000
 69      0.0000      0.2350      0.0000      0.2517      0.3071      0.0000      0.1201      0.0000      0.0000
 70      6.4122      6.4824      6.4221      6.5560      6.4651      6.7983      6.5697      6.5346      7.4790
 71      6.2389      6.2335      5.5195      6.7568      6.4137      6.2593      6.3459      6.4062      6.4132
 72      4.4144      4.3540      4.6021      4.0237      4.6135      4.5197      4.3390      4.1087      4.4563
 73      0.0000      0.1406      0.0000      0.0000      0.0000      0.0000      0.0000      0.1038      0.0337
 74      0.0010      0.2134      0.6097      0.0000      0.0595      0.2194      0.7250      0.8644      0.0555
 75      0.0000      0.1304      0.1422      0.0000      0.0000      0.0816      0.0996      0.0000      0.0000
 76      0.0000      0.0103      0.0000      0.0000      0.0000      0.0000      0.0000      0.0000      0.0000
 77      0.0000      0.0092      0.0000      0.0000      0.0000      0.0000      0.0000      0.0000      0.0096
 78      0.0001      0.0163      0.2771      0.0000      0.0000      0.0000      0.0000      0.0000      0.0000
 79      0.0000      0.0569      0.0000      0.0000      0.0000      0.2465      0.2376      0.0000      0.0603
 80      0.0000      0.0379      0.0000      0.0000      0.0000      0.1031      0.0000      0.0000      0.0000
 81      0.0000      0.0460      0.0000      0.0000      0.0171      0.0000      0.0000      0.2332      0.0000
 82      0.0000      0.0351      0.0000      0.0000      0.0000      0.0000      0.0000      0.0000      0.0000
 83      0.0000      0.0868      0.0648      0.0077      0.2487      0.0000      0.0064      0.0000      0.1047
 84      0.0000      0.0559      0.0000      0.0000      0.0000      0.0458      0.0000      0.0297      0.0000
 85      0.0000      0.0621      0.0000      0.0000      0.0000      0.0432      0.0000      0.0405      0.2045
 86      0.0000      0.0635      0.1537      0.0000      0.8143      0.2988      0.0000      0.0000      0.0000
 87      0.5804      0.0338      0.4707      0.0000      0.2753      0.0000      0.1641      0.1624      0.0000
 88      0.0000      0.0226      0.0000      0.2084      0.0000      0.0000      0.0000      0.0000      0.0000
 89      0.0000      0.0159      0.0000      0.0000      0.0038      0.0000      0.2419      0.0000      0.0000
 90      0.0000      0.0185      0.0000      0.0000      0.0352      0.0000      0.0000      0.0000      0.0000
 91      0.0000      0.0228      0.0440      0.0000      0.0000      0.0000      0.0000      0.0000      0.0000
 92      0.0000      0.0324      0.0000      0.0000      0.0000      0.0312      0.0000      0.0000      0.2994
 93      0.0000      0.0651      0.0000      0.0000      0.1184      0.0116      0.0000      0.1116      0.2769
 94      0.0000      0.1240      0.0420      0.0000      0.1078      0.0000      0.0000      0.4653      0.0000
 95      0.5926      0.1720      0.5079      0.0000      0.3398      0.0000      0.1535      0.1298      0.3825
 96      0.6490      0.2254      0.4194      0.0000      0.2744      0.0667      0.0000      0.0000      0.4925
 97      0.0000      0.0984      0.1583      0.0912      0.0000      0.0000      0.0000      0.2074      0.2024
 98      1.1293      0.2514      0.3241      0.2084      0.0000      0.4656      0.1054      0.0000      0.5278
 99      0.0000      0.1474      0.0857      0.0941      0.0000      0.1423      0.3032      0.0000      0.0000
100      0.4611      0.1352      0.2633      0.7703      0.2550      0.1237      0.3549      0.0000      0.0454
101      0.0000      0.0054      0.0000      0.0000      0.0000      0.0000      0.0000      0.0000      0.0203
102      0.0000      0.0287      0.0000      0.0136      0.0000      0.0000      0.0000      0.0000      0.0000
103      0.0000      0.0440      0.0000      0.0655      0.0000      0.0000      0.0000      0.0000      0.0000
104      0.0000      0.0392      0.0616      0.0000      0.0000      0.0000      0.0000      0.0000      0.0488
105      0.0000      0.0075      0.0000      0.0000      0.0000      0.0000      0.0000      0.0000      0.0000
106      0.0000      0.0153      0.0000      0.0000      0.0000      0.0000      0.0075      0.0000      0.0000
107      0.0000      0.0091      0.0000      0.0000      0.0000      0.0000      0.0000      0.0000      0.0000
108      0.0000      0.0378      0.0000      0.0000      0.0000      0.0000      0.1466      0.0000      0.0000
109      0.0000      0.0713      0.4255      0.1729      0.0000      0.0000      0.1551      0.3894      0.0000
110      0.0000      0.0238      0.0000      0.0000      0.1202      0.0000      0.0000      0.0000      0.0000
111      0.0000      0.0352      0.0192      0.0131      0.0000      0.0000      0.0000      0.3441      0.1089
112      0.0000      0.0296      0.0000      0.0000      0.0000      0.4294      0.0000      0.0000      0.0000
113      0.0000      0.0244      0.0983      0.0000      0.0000      0.0000      0.0000      0.0000      0.0146
114      0.0000      0.0207      0.0000      0.0000      0.0000      0.0000      0.0000      0.0000      0.0000
115      0.0000      0.0149      0.0000      0.0000      0.0000      0.0000      0.0000      0.0000      0.0000
116      0.0000      0.0301      0.0184      0.0000      0.0000      0.0000      0.0000      0.0000      0.0000
117      0.0000      0.0342      0.0000      0.0000      0.0091      0.0000      0.0000      0.0000      0.0000
118      0.0000      0.0621      0.0000      0.0000      0.0000      0.0000      0.0000      0.0000      0.0000
119      0.0000      0.0589      0.0000      0.0397      0.0790      0.0000      0.0000      0.1915      0.0000
120      0.0003      0.0477      0.1792      0.0000      0.2944      0.0000      0.0000      0.0000      0.0000
121      0.0000      0.0306      0.0000      0.1925      0.0000      0.1697      0.0000      0.0000      0.0000
122      0.0000      0.0342      0.0000      0.0000      0.0000      0.0000      0.0000      0.0000      0.0000
123      0.0000      0.0177      0.0000      0.0261      0.0000      0.0000      0.0000      0.0000      0.0000
124      0.0000      0.0614      0.0238      0.0034      0.0000      0.0000      0.0000      0.0000      0.1984
125      0.0000      0.0332      0.0000      0.0000      0.0000      0.0000      0.0000      0.0000      0.0000
126      0.0000      0.0072      0.0000      0.0000      0.0000      0.0000      0.0469      0.0306      0.0000
127      0.0000      0.0143      0.0329      0.0000      0.1398      0.0000      0.0339      0.0000      0.0000
128      0.0000      0.0283      0.0328      0.0000      0.0000      0.1065      0.0000      0.0000      0.0000
129      0.0000      0.0124      0.0000      0.0000      0.0000      0.0000      0.0007      0.0000      0.0703
130      0.0000      0.0103      0.0000      0.0000      0.0000      0.0000      0.0000      0.0000      0.0000
131      0.0000      0.0129      0.0000      0.0582      0.0000      0.0000      0.0000      0.0000      0.0000
132      0.0000      0.0098      0.0000      0.0000      0.0000      0.0000      0.0000      0.0000      0.0000
133      0.0000      0.0198      0.0000      0.0000      0.0000      0.0000      0.0000      0.0000      0.0234
134      0.0000      0.0304      0.0000      0.0168      0.0000      0.0000      0.0011      0.0000      0.0000
135      0.0000      0.0505      0.0000      0.0458      0.0000      0.0000      0.0000      0.0000      0.0000
136      0.0000      0.0833      0.0000      0.0000      0.0000      0.0000      0.2600      0.3906      0.0000
137      0.0000      0.0336      0.0000      0.0000      0.0000      0.0000      0.0094      0.0000      0.2092
138      0.0000      0.0169      0.0485      0.1695      0.0000      0.0168      0.0000      0.0000      0.0382
139      0.0000      0.0154      0.0130      0.0000      0.0000      0.0000      0.0000      0.0000      0.0878
140      0.0000      0.0276      0.0000      0.0000      0.0000      0.0000      0.0000      0.0000      0.0000
141      0.0000      0.1069      0.1130      0.0000      0.2250      0.0000      0.0000      0.0000      0.0000
142      0.0073      0.0918      0.1960      0.0000      0.0000      0.4927      0.0059      0.1286      0.0000
143      0.0000      0.2176      0.0000      0.3391      0.2247      0.4007      0.5276      0.2425      0.3814
144      0.9158      0.3837      0.5928      0.4428      0.4234      0.2353      0.1651      0.2942      0.3532
145      0.0000      0.1369      0.0000      0.1197      0.0000      0.1491      0.3134      0.4186      0.0000
146      0.0000      0.1928      0.1373      0.1420      0.2391      0.4012      0.0000      0.3776      0.2603
147      0.4530      0.2858      0.4464      0.2769      0.3894      0.3214      0.2240      0.1958      0.0811
148      0.0000      0.1832      0.0954      0.1848      0.3376      0.2990      0.3537      0.2348      0.0000
149      0.0000      0.2199      0.0543      0.2015      0.2155      0.1767      0.2994      0.1970      0.3929
150      0.2386      0.1981      0.1586      0.1955      0.1354      0.1315      0.2552      0.2530      0.2480

# j      m_j: min, <> & last-chain-values for 1 ...  7 chains
  1  5.4792E-03  6.1134E-03  6.3593E-03  6.5551E-03  6.8027E-03  5.8282E-03  6.7725E-03  5.8901E-03  7.4402E-03
  2  2.2803E-02  1.2750E-02  1.4829E-02  1.4436E-02  1.4820E-02  1.3676E-02  1.5379E-02  1.4397E-02  1.4542E-02
  3  2.6167E-02  2.2999E-02  2.4107E-02  2.4301E-02  2.4614E-02  2.4690E-02  2.3248E-02  2.2985E-02  2.5258E-02
  4  0.0000E+00  9.6410E-05  0.0000E+00  0.0000E+00  0.0000E+00  0.0000E+00  0.0000E+00  3.5053E-05  0.0000E+00
  5  0.0000E+00  1.0477E-04  0.0000E+00  0.0000E+00  0.0000E+00  3.9355E-04  0.0000E+00  0.0000E+00  0.0000E+00
  6  0.0000E+00  2.8039E-04  0.0000E+00  0.0000E+00  0.0000E+00  0.0000E+00  0.0000E+00  0.0000E+00  0.0000E+00
  7  0.0000E+00  1.5882E-04  0.0000E+00  0.0000E+00  0.0000E+00  0.0000E+00  0.0000E+00  0.0000E+00  0.0000E+00
  8  0.0000E+00  5.7898E-04  0.0000E+00  0.0000E+00  8.5666E-04  0.0000E+00  0.0000E+00  0.0000E+00  0.0000E+00
  9  1.5520E-05  6.9568E-03  3.6823E-03  3.0187E-03  0.0000E+00  9.8097E-03  9.6433E-03  9.7450E-03  6.9444E-03
 10  0.0000E+00  2.3429E-03  0.0000E+00  1.2826E-03  5.7478E-03  0.0000E+00  0.0000E+00  5.1698E-03  6.4695E-03
 11  0.0000E+00  6.2095E-03  0.0000E+00  1.2081E-02  3.8832E-03  8.3361E-03  0.0000E+00  0.0000E+00  1.5522E-03
 12  8.9385E-02  7.5724E-03  9.0724E-03  0.0000E+00  0.0000E+00  0.0000E+00  0.0000E+00  0.0000E+00  1.3483E-02
 13  3.9651E-03  2.4538E-03  1.2624E-02  0.0000E+00  6.9562E-03  0.0000E+00  0.0000E+00  0.0000E+00  0.0000E+00
 14  0.0000E+00  3.7226E-03  0.0000E+00  0.0000E+00  3.3237E-03  0.0000E+00  0.0000E+00  0.0000E+00  0.0000E+00
 15  0.0000E+00  3.7078E-03  0.0000E+00  0.0000E+00  0.0000E+00  0.0000E+00  0.0000E+00  0.0000E+00  0.0000E+00
 16  0.0000E+00  5.8953E-03  0.0000E+00  0.0000E+00  1.1693E-02  0.0000E+00  0.0000E+00  0.0000E+00  0.0000E+00
 17  0.0000E+00  8.8171E-03  0.0000E+00  0.0000E+00  8.4544E-02  0.0000E+00  0.0000E+00  0.0000E+00  0.0000E+00
 18  0.0000E+00  1.4058E-02  0.0000E+00  0.0000E+00  0.0000E+00  0.0000E+00  0.0000E+00  0.0000E+00  8.8670E-03
 19  0.0000E+00  4.2683E-02  0.0000E+00  1.0775E-02  6.5677E-02  0.0000E+00  0.0000E+00  0.0000E+00  0.0000E+00
 20  3.1423E-03  1.2658E-01  1.4229E-01  5.7616E-02  0.0000E+00  1.0989E-01  0.0000E+00  0.0000E+00  0.0000E+00
 21  0.0000E+00  1.4869E-01  0.0000E+00  3.4638E-01  2.0780E-01  1.0811E-01  2.4627E-01  0.0000E+00  0.0000E+00
 22  0.0000E+00  3.2587E-01  1.2105E-01  0.0000E+00  1.7481E-01  0.0000E+00  0.0000E+00  0.0000E+00  0.0000E+00
 23  2.8103E-02  6.2314E-01  5.5802E-01  1.4608E+00  3.6690E-01  6.5962E-01  8.9496E-01  3.5645E-01  2.2246E-01
 24  0.0000E+00  6.7452E-01  1.2883E-01  6.0411E-01  6.7194E-02  2.9947E-01  0.0000E+00  0.0000E+00  2.1431E-02
 25  3.1628E+01  3.1973E+01  3.3447E+01  3.1317E+01  3.2436E+01  3.1714E+01  3.1350E+01  3.1860E+01  3.4777E+01
 26  1.0267E-02  1.1058E-02  9.8734E-03  1.1814E-02  1.2900E-02  9.7602E-03  1.1303E-02  1.1879E-02  1.1667E-02
 27  0.0000E+00  2.8857E-04  0.0000E+00  0.0000E+00  3.1603E-04  3.5859E-04  9.1702E-05  0.0000E+00  2.2998E-04
 28  0.0000E+00  5.2778E-05  0.0000E+00  0.0000E+00  0.0000E+00  0.0000E+00  0.0000E+00  0.0000E+00  0.0000E+00
 29  0.0000E+00  8.5758E-05  0.0000E+00  0.0000E+00  0.0000E+00  0.0000E+00  0.0000E+00  0.0000E+00  1.0255E-04
 30  0.0000E+00  1.9008E-04  0.0000E+00  0.0000E+00  0.0000E+00  0.0000E+00  0.0000E+00  0.0000E+00  0.0000E+00
 31  0.0000E+00  3.0418E-04  0.0000E+00  0.0000E+00  0.0000E+00  1.6743E-03  0.0000E+00  0.0000E+00  0.0000E+00
 32  6.9888E-07  6.0513E-04  1.9697E-03  0.0000E+00  0.0000E+00  0.0000E+00  0.0000E+00  0.0000E+00  0.0000E+00
 33  0.0000E+00  1.0196E-03  1.1081E-03  0.0000E+00  1.8774E-04  1.8572E-03  0.0000E+00  1.4264E-03  0.0000E+00
 34  0.0000E+00  1.0512E-03  1.1136E-03  3.4575E-03  0.0000E+00  4.0670E-03  1.6629E-03  0.0000E+00  0.0000E+00
 35  0.0000E+00  6.6815E-03  0.0000E+00  0.0000E+00  6.7245E-03  6.8177E-03  6.1195E-03  7.5272E-03  0.0000E+00
 36  0.0000E+00  2.1809E-03  0.0000E+00  9.6339E-03  1.9255E-03  0.0000E+00  4.3920E-03  2.8325E-03  0.0000E+00
 37  1.3965E-02  4.2879E-03  1.4335E-02  3.8370E-03  0.0000E+00  0.0000E+00  3.9468E-03  7.1746E-03  0.0000E+00
 38  0.0000E+00  2.3768E-03  4.6576E-03  1.5114E-04  0.0000E+00  2.7198E-03  1.1073E-02  0.0000E+00  0.0000E+00
 39  0.0000E+00  2.4898E-03  0.0000E+00  3.0556E-02  0.0000E+00  0.0000E+00  0.0000E+00  0.0000E+00  3.1667E-02
 40  0.0000E+00  4.5751E-03  0.0000E+00  1.2226E-03  8.2611E-02  0.0000E+00  0.0000E+00  1.2381E-03  0.0000E+00
 41  0.0000E+00  1.1866E-02  0.0000E+00  0.0000E+00  0.0000E+00  0.0000E+00  2.4942E-02  0.0000E+00  3.0610E-02
 42  0.0000E+00  1.2543E-02  0.0000E+00  5.6724E-03  7.6246E-03  5.6550E-02  0.0000E+00  3.7902E-03  0.0000E+00
 43  5.8335E+00  5.8785E+00  5.6577E+00  6.0294E+00  5.7043E+00  5.9492E+00  6.0389E+00  6.1621E+00  6.1940E+00
 44  9.6596E+00  1.0624E+01  1.0619E+01  1.0672E+01  1.0889E+01  1.0769E+01  1.0081E+01  1.1648E+01  1.0953E+01
 45  4.6361E-01  9.9508E-01  1.0167E+00  1.1785E+00  9.3351E-01  1.2141E+00  9.2714E-01  5.6308E-01  4.1256E-01
 46  3.7288E+00  1.0453E+00  1.0765E+00  5.9741E-01  1.3341E+00  6.9897E-01  1.4310E+00  1.4332E+00  0.0000E+00
 47  2.6473E+00  1.1980E+00  1.9210E+00  1.0596E+00  1.9662E+00  1.0435E+00  1.0484E+00  1.3751E+00  1.3313E+00
 48  6.7970E-02  8.0640E-01  1.1237E+00  8.2215E-01  7.4335E-01  8.0250E-01  8.0584E-01  0.0000E+00  0.0000E+00
 49  6.9782E-05  6.2879E-01  5.6573E-01  1.5546E+00  0.0000E+00  1.1740E+00  1.0818E+00  0.0000E+00  0.0000E+00
 50  1.7188E-03  6.4195E-01  4.1102E-01  0.0000E+00  6.6556E-01  6.5545E-01  4.0885E-01  9.5827E-01  1.0417E+00
 51  5.1103E-03  5.4212E-03  5.2312E-03  6.2360E-03  5.2699E-03  5.9043E-03  5.6666E-03  5.9930E-03  5.3629E-03
 52  0.0000E+00  1.8838E-04  0.0000E+00  6.4266E-04  1.5228E-04  1.7914E-04  9.2814E-05  5.0676E-04  0.0000E+00
 53  0.0000E+00  6.9585E-05  0.0000E+00  1.9643E-04  0.0000E+00  0.0000E+00  0.0000E+00  0.0000E+00  0.0000E+00
 54  4.6154E-06  4.6825E-04  1.6817E-03  1.0206E-03  0.0000E+00  1.3989E-03  0.0000E+00  0.0000E+00  1.5472E-03
 55  2.1945E-07  9.7948E-04  8.5864E-04  2.2544E-03  1.3359E-03  0.0000E+00  5.5523E-04  3.5057E-03  0.0000E+00
 56  0.0000E+00  8.3931E-04  5.4874E-04  4.9211E-04  0.0000E+00  8.0443E-04  7.6669E-04  0.0000E+00  1.0549E-03
 57  0.0000E+00  1.7657E-04  0.0000E+00  0.0000E+00  0.0000E+00  0.0000E+00  0.0000E+00  0.0000E+00  0.0000E+00
 58  0.0000E+00  1.2650E-03  0.0000E+00  0.0000E+00  0.0000E+00  0.0000E+00  0.0000E+00  2.3533E-03  1.1809E-03
 59  0.0000E+00  1.0132E-03  0.0000E+00  0.0000E+00  0.0000E+00  0.0000E+00  0.0000E+00  0.0000E+00  0.0000E+00
 60  0.0000E+00  1.0743E-03  0.0000E+00  0.0000E+00  0.0000E+00  0.0000E+00  0.0000E+00  2.1472E-04  0.0000E+00
 61  2.0661E-03  2.4509E-03  5.7344E-03  0.0000E+00  0.0000E+00  6.6115E-04  4.9196E-03  1.1646E-03  8.3915E-03
 62  5.3364E-02  2.4234E-03  7.2331E-03  3.3140E-04  0.0000E+00  1.2228E-02  6.4026E-04  0.0000E+00  0.0000E+00
 63  0.0000E+00  1.8645E-03  0.0000E+00  0.0000E+00  0.0000E+00  1.5558E-02  0.0000E+00  0.0000E+00  0.0000E+00
 64  0.0000E+00  3.9514E-03  0.0000E+00  1.5947E-02  0.0000E+00  0.0000E+00  3.4229E-02  0.0000E+00  0.0000E+00
 65  0.0000E+00  9.7241E-03  0.0000E+00  0.0000E+00  0.0000E+00  0.0000E+00  4.1515E-04  0.0000E+00  0.0000E+00
 66  0.0000E+00  1.0284E-02  0.0000E+00  0.0000E+00  0.0000E+00  0.0000E+00  3.3709E-02  0.0000E+00  0.0000E+00
 67  0.0000E+00  2.2620E-02  0.0000E+00  0.0000E+00  0.0000E+00  0.0000E+00  7.0142E-03  0.0000E+00  0.0000E+00
 68  2.8533E-01  1.0482E-01  3.3635E-01  3.4095E-01  8.7099E-02  2.6261E-01  0.0000E+00  4.0533E-01  0.0000E+00
 69  0.0000E+00  2.1668E-01  0.0000E+00  2.3393E-01  2.8685E-01  0.0000E+00  1.0910E-01  0.0000E+00  0.0000E+00
 70  8.6495E+00  8.3175E+00  8.3321E+00  8.4803E+00  8.4052E+00  8.7921E+00  8.3044E+00  8.5305E+00  9.6334E+00
 71  9.9295E+00  9.4368E+00  8.4491E+00  1.0312E+01  9.8381E+00  9.5510E+00  9.4641E+00  9.8670E+00  9.7463E+00
 72  9.2486E+00  8.6771E+00  9.2738E+00  8.0838E+00  9.3157E+00  9.0787E+00  8.5187E+00  8.3308E+00  8.9152E+00
 73  0.0000E+00  3.5345E-01  0.0000E+00  0.0000E+00  0.0000E+00  0.0000E+00  0.0000E+00  2.6551E-01  8.5152E-02
 74  3.0157E-03  5.9866E-01  1.7290E+00  0.0000E+00  1.6904E-01  6.2025E-01  2.0034E+00  2.4667E+00  1.5631E-01
 75  0.0000E+00  4.2052E-01  4.6369E-01  0.0000E+00  0.0000E+00  2.6541E-01  3.1654E-01  0.0000E+00  0.0000E+00
 76  0.0000E+00  7.6673E-05  0.0000E+00  0.0000E+00  0.0000E+00  0.0000E+00  0.0000E+00  0.0000E+00  0.0000E+00
 77  0.0000E+00  2.8023E-05  0.0000E+00  0.0000E+00  0.0000E+00  0.0000E+00  0.0000E+00  0.0000E+00  2.9354E-05
 78  4.4150E-07  5.5675E-05  9.5412E-04  0.0000E+00  0.0000E+00  0.0000E+00  0.0000E+00  0.0000E+00  0.0000E+00
 79  0.0000E+00  2.3306E-04  0.0000E+00  0.0000E+00  0.0000E+00  1.0185E-03  9.5948E-04  0.0000E+00  2.4827E-04
 80  0.0000E+00  2.0019E-04  0.0000E+00  0.0000E+00  0.0000E+00  5.4884E-04  0.0000E+00  0.0000E+00  0.0000E+00
 81  0.0000E+00  3.2135E-04  0.0000E+00  0.0000E+00  1.2128E-04  0.0000E+00  0.0000E+00  1.6563E-03  0.0000E+00
 82  0.0000E+00  3.2996E-04  0.0000E+00  0.0000E+00  0.0000E+00  0.0000E+00  0.0000E+00  0.0000E+00  0.0000E+00
 83  0.0000E+00  1.1998E-03  9.0527E-04  1.0718E-04  3.4820E-03  0.0000E+00  8.7212E-05  0.0000E+00  1.4519E-03
 84  0.0000E+00  1.0692E-03  0.0000E+00  0.0000E+00  0.0000E+00  8.8363E-04  0.0000E+00  5.7740E-04  0.0000E+00
 85  0.0000E+00  1.4431E-03  0.0000E+00  0.0000E+00  0.0000E+00  1.0109E-03  0.0000E+00  9.5809E-04  4.7690E-03
 86  0.0000E+00  1.9974E-03  4.8916E-03  0.0000E+00  2.5966E-02  9.4776E-03  0.0000E+00  0.0000E+00  0.0000E+00
 87  2.5575E-02  1.4181E-03  1.9950E-02  0.0000E+00  1.1693E-02  0.0000E+00  6.7780E-03  6.9259E-03  0.0000E+00
 88  0.0000E+00  1.4459E-03  0.0000E+00  1.3425E-02  0.0000E+00  0.0000E+00  0.0000E+00  0.0000E+00  0.0000E+00
 89  0.0000E+00  1.6968E-03  0.0000E+00  0.0000E+00  4.1365E-04  0.0000E+00  2.5353E-02  0.0000E+00  0.0000E+00
 90  0.0000E+00  3.6459E-03  0.0000E+00  0.0000E+00  7.0265E-03  0.0000E+00  0.0000E+00  0.0000E+00  0.0000E+00
 91  0.0000E+00  5.7779E-03  1.1272E-02  0.0000E+00  0.0000E+00  0.0000E+00  0.0000E+00  0.0000E+00  0.0000E+00
 92  0.0000E+00  1.0939E-02  0.0000E+00  0.0000E+00  0.0000E+00  1.0615E-02  0.0000E+00  0.0000E+00  1.0158E-01
 93  0.0000E+00  4.4682E-02  0.0000E+00  0.0000E+00  8.2341E-02  7.9963E-03  0.0000E+00  7.7947E-02  1.9084E-01
 94  0.0000E+00  1.5272E-01  5.2238E-02  0.0000E+00  1.3445E-01  0.0000E+00  0.0000E+00  5.8295E-01  0.0000E+00
 95  1.0335E+00  2.8534E-01  8.5198E-01  0.0000E+00  5.7110E-01  0.0000E+00  2.5092E-01  2.1899E-01  6.3693E-01
 96  1.3655E+00  4.5110E-01  8.4868E-01  0.0000E+00  5.5637E-01  1.3445E-01  0.0000E+00  0.0000E+00  9.8953E-01
 97  0.0000E+00  2.5656E-01  4.1738E-01  2.3977E-01  0.0000E+00  0.0000E+00  0.0000E+00  5.5019E-01  5.2984E-01
 98  3.9703E+00  8.4085E-01  1.0961E+00  7.0254E-01  0.0000E+00  1.5695E+00  3.4719E-01  0.0000E+00  1.7717E+00
 99  0.0000E+00  5.6210E-01  3.3031E-01  3.6150E-01  0.0000E+00  5.4660E-01  1.1385E+00  0.0000E+00  0.0000E+00
100  2.1276E+00  5.9327E-01  1.1683E+00  3.4081E+00  1.1338E+00  5.4739E-01  1.5346E+00  0.0000E+00  1.9983E-01
101  0.0000E+00  2.5889E-05  0.0000E+00  0.0000E+00  0.0000E+00  0.0000E+00  0.0000E+00  0.0000E+00  9.8287E-05
102  0.0000E+00  7.2046E-05  0.0000E+00  3.4351E-05  0.0000E+00  0.0000E+00  0.0000E+00  0.0000E+00  0.0000E+00
103  0.0000E+00  1.2246E-04  0.0000E+00  1.8375E-04  0.0000E+00  0.0000E+00  0.0000E+00  0.0000E+00  0.0000E+00
104  0.0000E+00  1.4329E-04  2.2771E-04  0.0000E+00  0.0000E+00  0.0000E+00  0.0000E+00  0.0000E+00  1.7913E-04
105  0.0000E+00  5.7747E-05  0.0000E+00  0.0000E+00  0.0000E+00  0.0000E+00  0.0000E+00  0.0000E+00  0.0000E+00
106  0.0000E+00  1.2706E-04  0.0000E+00  0.0000E+00  0.0000E+00  0.0000E+00  6.1782E-05  0.0000E+00  0.0000E+00
107  0.0000E+00  1.0135E-04  0.0000E+00  0.0000E+00  0.0000E+00  0.0000E+00  0.0000E+00  0.0000E+00  0.0000E+00
108  0.0000E+00  6.9849E-04  0.0000E+00  0.0000E+00  0.0000E+00  0.0000E+00  2.6713E-03  0.0000E+00  0.0000E+00
109  6.1477E-07  1.5831E-03  9.5580E-03  3.8725E-03  0.0000E+00  0.0000E+00  3.3932E-03  8.8001E-03  0.0000E+00
110  0.0000E+00  6.3182E-04  0.0000E+00  0.0000E+00  3.2345E-03  0.0000E+00  0.0000E+00  0.0000E+00  0.0000E+00
111  0.0000E+00  1.2991E-03  7.1537E-04  4.8707E-04  0.0000E+00  0.0000E+00  0.0000E+00  1.2932E-02  4.0367E-03
112  0.0000E+00  1.4389E-03  0.0000E+00  0.0000E+00  0.0000E+00  2.1057E-02  0.0000E+00  0.0000E+00  0.0000E+00
113  0.0000E+00  1.7721E-03  7.2146E-03  0.0000E+00  0.0000E+00  0.0000E+00  0.0000E+00  0.0000E+00  1.0672E-03
114  0.0000E+00  2.6454E-03  0.0000E+00  0.0000E+00  0.0000E+00  0.0000E+00  0.0000E+00  0.0000E+00  0.0000E+00
115  0.0000E+00  3.8051E-03  0.0000E+00  0.0000E+00  0.0000E+00  0.0000E+00  0.0000E+00  0.0000E+00  0.0000E+00
116  0.0000E+00  1.2340E-02  7.6212E-03  0.0000E+00  0.0000E+00  0.0000E+00  0.0000E+00  0.0000E+00  0.0000E+00
117  0.0000E+00  1.6508E-02  0.0000E+00  0.0000E+00  4.4339E-03  0.0000E+00  0.0000E+00  0.0000E+00  0.0000E+00
118  0.0000E+00  6.0778E-02  0.0000E+00  0.0000E+00  0.0000E+00  0.0000E+00  0.0000E+00  0.0000E+00  0.0000E+00
119  0.0000E+00  9.9610E-02  0.0000E+00  6.7694E-02  1.3545E-01  0.0000E+00  0.0000E+00  3.2967E-01  0.0000E+00
120  7.2347E-04  1.1483E-01  4.3673E-01  0.0000E+00  7.1888E-01  0.0000E+00  0.0000E+00  0.0000E+00  0.0000E+00
121  0.0000E+00  8.6762E-02  0.0000E+00  5.5032E-01  0.0000E+00  4.8501E-01  0.0000E+00  0.0000E+00  0.0000E+00
122  0.0000E+00  1.2966E-01  0.0000E+00  0.0000E+00  0.0000E+00  0.0000E+00  0.0000E+00  0.0000E+00  0.0000E+00
123  0.0000E+00  8.8745E-02  0.0000E+00  1.3162E-01  0.0000E+00  0.0000E+00  0.0000E+00  0.0000E+00  0.0000E+00
124  0.0000E+00  3.5266E-01  1.3843E-01  1.9851E-02  0.0000E+00  0.0000E+00  0.0000E+00  0.0000E+00  1.1442E+00
125  0.0000E+00  2.2817E-01  0.0000E+00  0.0000E+00  0.0000E+00  0.0000E+00  0.0000E+00  0.0000E+00  0.0000E+00
126  0.0000E+00  2.6094E-05  0.0000E+00  0.0000E+00  0.0000E+00  0.0000E+00  1.6746E-04  1.1297E-04  0.0000E+00
127  0.0000E+00  2.7235E-05  6.3505E-05  0.0000E+00  2.7050E-04  0.0000E+00  6.3767E-05  0.0000E+00  0.0000E+00
128  0.0000E+00  8.0100E-05  9.3902E-05  0.0000E+00  0.0000E+00  3.0419E-04  0.0000E+00  0.0000E+00  0.0000E+00
129  0.0000E+00  7.2063E-05  0.0000E+00  0.0000E+00  0.0000E+00  0.0000E+00  4.1125E-06  0.0000E+00  4.0863E-04
130  0.0000E+00  8.1586E-05  0.0000E+00  0.0000E+00  0.0000E+00  0.0000E+00  0.0000E+00  0.0000E+00  0.0000E+00
131  0.0000E+00  1.1772E-04  0.0000E+00  5.3648E-04  0.0000E+00  0.0000E+00  0.0000E+00  0.0000E+00  0.0000E+00
132  0.0000E+00  1.2189E-04  0.0000E+00  0.0000E+00  0.0000E+00  0.0000E+00  0.0000E+00  0.0000E+00  0.0000E+00
133  0.0000E+00  3.5655E-04  0.0000E+00  0.0000E+00  0.0000E+00  0.0000E+00  0.0000E+00  0.0000E+00  4.2356E-04
134  0.0000E+00  6.9470E-04  0.0000E+00  3.8800E-04  0.0000E+00  0.0000E+00  2.4798E-05  0.0000E+00  0.0000E+00
135  0.0000E+00  1.3910E-03  0.0000E+00  1.2703E-03  0.0000E+00  0.0000E+00  0.0000E+00  0.0000E+00  0.0000E+00
136  0.0000E+00  3.3060E-03  0.0000E+00  0.0000E+00  0.0000E+00  0.0000E+00  1.0171E-02  1.5780E-02  0.0000E+00
137  0.0000E+00  1.8210E-03  0.0000E+00  0.0000E+00  0.0000E+00  0.0000E+00  5.0134E-04  0.0000E+00  1.1393E-02
138  0.0000E+00  1.5216E-03  4.4290E-03  1.5415E-02  0.0000E+00  1.5253E-03  0.0000E+00  0.0000E+00  3.4580E-03
139  0.0000E+00  2.6232E-03  2.2323E-03  0.0000E+00  0.0000E+00  0.0000E+00  0.0000E+00  0.0000E+00  1.4999E-02
140  0.0000E+00  1.0885E-02  0.0000E+00  0.0000E+00  0.0000E+00  0.0000E+00  0.0000E+00  0.0000E+00  0.0000E+00
141  0.0000E+00  6.4508E-02  6.8906E-02  0.0000E+00  1.3752E-01  0.0000E+00  0.0000E+00  0.0000E+00  0.0000E+00
142  5.5078E-03  6.5909E-02  1.4224E-01  0.0000E+00  0.0000E+00  3.5645E-01  4.1568E-03  9.3921E-02  0.0000E+00
143  0.0000E+00  3.1047E-01  0.0000E+00  4.8785E-01  3.2490E-01  5.7640E-01  7.4174E-01  3.5213E-01  5.4641E-01
144  2.6985E+00  1.0756E+00  1.6800E+00  1.2513E+00  1.2026E+00  6.6475E-01  4.5584E-01  8.3892E-01  9.9396E-01
145  0.0000E+00  5.7135E-01  0.0000E+00  5.0360E-01  0.0000E+00  6.2729E-01  1.2883E+00  1.7771E+00  0.0000E+00
146  0.0000E+00  9.6065E-01  6.9161E-01  7.1359E-01  1.2073E+00  2.0151E+00  0.0000E+00  1.9145E+00  1.3020E+00
147  3.1885E+00  1.9135E+00  3.0219E+00  1.8694E+00  2.6416E+00  2.1691E+00  1.4776E+00  1.3338E+00  5.4491E-01
148  0.0000E+00  1.6610E+00  8.7508E-01  1.6895E+00  3.1018E+00  2.7335E+00  3.1599E+00  2.1667E+00  0.0000E+00
149  0.0000E+00  2.3359E+00  5.8360E-01  2.1577E+00  2.3198E+00  1.8919E+00  3.1329E+00  2.1290E+00  4.1892E+00
150  3.1738E+00  2.5062E+00  2.0287E+00  2.4933E+00  1.7362E+00  1.6767E+00  3.1814E+00  3.2571E+00  3.1505E+00

# AV, chi2 & Mass for <> & i_chain = 1 ...  7 solutions
AV       0.4517      0.4248      0.4313      0.4320      0.4271      0.4251      0.4251      0.4260      0.4257
chi2 1.5222E+00  1.5583E+00  1.5474E+00  1.5481E+00  1.5512E+00  1.5519E+00  1.5482E+00  1.5507E+00  1.5521E+00
Mass 2.5921E-10  2.6282E-10  2.6221E-10  2.6322E-10  2.6020E-10  2.6087E-10  2.6690E-10  2.5876E-10  2.6213E-10
  -8.70                                  [v0_min (km/s) before EX0s...]
  61.66                                  [vd_min (km/s) before EX0s...]


## Synthetic spectrum (Best Model) ##l_obs f_obs f_syn wei
 3070    [Nl_obs]
 3359.00    0.00000   0.48162   -2.000
 3360.00    0.10799   0.46614   -1.000
 3361.00    0.32086   0.47320   -1.000
 3362.00    0.32403   0.49737   -1.000
 3363.00    0.32655   0.52621   -1.000
 3364.00    0.34596   0.54421   -1.000
 3365.00    0.38333   0.54460   -1.000
 3366.00    0.38068   0.53486   -1.000
 3367.00    0.35427   0.52273   -1.000
 3368.00    0.36601   0.51142   -1.000
 3369.00    0.36056   0.50059   -1.000
 3370.00    0.35571   0.48780   -1.000
 3371.00    0.36856   0.47882   -1.000
 3372.00    0.37096   0.48134   -1.000
 3373.00    0.38309   0.49740   -1.000
 3374.00    0.39355   0.52117   -1.000
 3375.00    0.41034   0.54460   -1.000
 3376.00    0.42969   0.55723   -1.000
 3377.00    0.43808   0.55425   -1.000
 3378.00    0.42669   0.54101   -1.000
 3379.00    0.43123   0.52892   -1.000
 3380.00    0.43217   0.52574   -1.000
 3381.00    0.42023   0.53114   -1.000
 3382.00    0.42045   0.54023   -1.000
 3383.00    0.42652   0.54837   -1.000
 3384.00    0.44431   0.55454   -1.000
 3385.00    0.45393   0.55888   -1.000
 3386.00    0.45888   0.55714   -1.000
 3387.00    0.47321   0.55083   -1.000
 3388.00    0.48498   0.54782   -1.000
 3389.00    0.47169   0.55128   -1.000
 3390.00    0.47979   0.55633   -1.000
 3391.00    0.46619   0.55668   -1.000
 3392.00    0.46231   0.55008   -1.000
 3393.00    0.47294   0.54584   -1.000
 3394.00    0.48560   0.55202   -1.000
 3395.00    0.46995   0.56587   -1.000
 3396.00    0.48645   0.58140   -1.000
 3397.00    0.51017   0.59405   -1.000
 3398.00    0.51604   0.60103   -1.000
 3399.00    0.51858   0.59998   -1.000
 3400.00    0.51928   0.59243   -1.000
 3401.00    0.50674   0.58013   -1.000
 3402.00    0.51001   0.56523   -1.000
 3403.00    0.51813   0.55512   -1.000
 3404.00    0.50722   0.55173   -1.000
 3405.00    0.50178   0.55251   -1.000
 3406.00    0.50456   0.55083   -1.000
 3407.00    0.50663   0.54568   -1.000
 3408.00    0.50048   0.54195   -1.000
 3409.00    0.48122   0.54475   -1.000
 3410.00    0.48803   0.55111   -1.000
 3411.00    0.49534   0.55151   -1.000
 3412.00    0.49475   0.54558   -1.000
 3413.00    0.50106   0.53883   -1.000
 3414.00    0.50534   0.53882   -1.000
 3415.00    0.49482   0.54734   -1.000
 3416.00    0.48185   0.55900   -1.000
 3417.00    0.49311   0.57013   -1.000
 3418.00    0.52533   0.58035   -1.000
 3419.00    0.54456   0.58930   -1.000
 3420.00    0.54094   0.59469   -1.000
 3421.00    0.53900   0.59243   -1.000
 3422.00    0.55471   0.58201   -1.000
 3423.00    0.54262   0.57055   -1.000
 3424.00    0.52824   0.56576   -1.000
 3425.00    0.52274   0.56822   -1.000
 3426.00    0.53935   0.57427   -1.000
 3427.00    0.56620   0.58412  145.180
 3428.00    0.56503   0.59844   -1.000
 3429.00    0.56039   0.61124   -1.000
 3430.00    0.56259   0.61255   -1.000
 3431.00    0.55976   0.59951   -1.000
 3432.00    0.55854   0.58338   -1.000
 3433.00    0.55663   0.57689   -1.000
 3434.00    0.56931   0.58408  144.968
 3435.00    0.57314   0.59565   -1.000
 3436.00    0.57099   0.59855   -1.000
 3437.00    0.55733   0.58973   -1.000
 3438.00    0.54052   0.57332   -1.000
 3439.00    0.51619   0.55346   -1.000
 3440.00    0.49335   0.53316   -1.000
 3441.00    0.48838   0.51760   -1.000
 3442.00    0.50318   0.51227  180.023
 3443.00    0.50868   0.51679  179.917
 3444.00    0.52146   0.52733  177.003
 3445.00    0.52652   0.54152  169.014
 3446.00    0.53266   0.55999   -1.000
 3447.00    0.55524   0.58044   -1.000
 3448.00    0.56379   0.59740   -1.000
 3449.00    0.55479   0.60365   -1.000
 3450.00    0.56013   0.59436   -1.000
 3451.00    0.59423   0.57649   -1.000
 3452.00    0.59484   0.56235   -1.000
 3453.00    0.57793   0.55911   -1.000
 3454.00    0.58789   0.56506   -1.000
 3455.00    0.59872   0.57295   -1.000
 3456.00    0.59911   0.57588   -1.000
 3457.00    0.59880   0.57148   -1.000
 3458.00    0.59557   0.56254   -1.000
 3459.00    0.58065   0.55244   -1.000
 3460.00    0.57554   0.54361   -1.000
 3461.00    0.56165   0.54266  146.334
 3462.00    0.55888   0.55314  203.805
 3463.00    0.59403   0.56603   -1.000
 3464.00    0.60032   0.57076   -1.000
 3465.00    0.60573   0.56849   -1.000
 3466.00    0.60142   0.56853   -1.000
 3467.00    0.58581   0.57628   -1.000
 3468.00    0.58925   0.58930  824.769
 3469.00    0.58995   0.60082   -1.000
 3470.00    0.60717   0.60439   -1.000
 3471.00    0.61633   0.59837   -1.000
 3472.00    0.61014   0.58522   -1.000
 3473.00    0.60169   0.56697   -1.000
 3474.00    0.58254   0.54883   -1.000
 3475.00    0.56944   0.53806   -1.000
 3476.00    0.55044   0.53943  147.589
 3477.00    0.56075   0.55166  150.331
 3478.00    0.57956   0.56707  205.831
 3479.00    0.58965   0.58073   -1.000
 3480.00    0.60561   0.59030   -1.000
 3481.00    0.61539   0.59248   -1.000
 3482.00    0.61861   0.58781   -1.000
 3483.00    0.63148   0.58188   -1.000
 3484.00    0.63273   0.58173   -1.000
 3485.00    0.62555   0.59054   -1.000
 3486.00    0.63185   0.60153   -1.000
 3487.00    0.64306   0.60438   -1.000
 3488.00    0.63656   0.59586   -1.000
 3489.00    0.62178   0.58015   -1.000
 3490.00    0.60098   0.56782   -1.000
 3491.00    0.58606   0.56692   -1.000
 3492.00    0.59328   0.57345   -1.000
 3493.00    0.58645   0.57754   -1.000
 3494.00    0.57705   0.57472  824.769
 3495.00    0.57971   0.56613   -1.000
 3496.00    0.58474   0.55924   -1.000
 3497.00    0.57774   0.56200   -1.000
 3498.00    0.57823   0.57236   -1.000
 3499.00    0.59501   0.58264   -1.000
 3500.00    0.60829   0.58624   -1.000
 3501.00    0.61456   0.58661   -1.000
 3502.00    0.62855   0.58965   -1.000
 3503.00    0.63089   0.59287   -1.000
 3504.00    0.62114   0.59144   -1.000
 3505.00    0.61470   0.58494   -1.000
 3506.00    0.60579   0.57825   -1.000
 3507.00    0.62105   0.57486   -1.000
 3508.00    0.62373   0.57417   -1.000
 3509.00    0.61197   0.57372   -1.000
 3510.00    0.62029   0.57110   -1.000
 3511.00    0.61300   0.56647   -1.000
 3512.00    0.60466   0.55995   -1.000
 3513.00    0.60157   0.55405   -1.000
 3514.00    0.59046   0.55515   -1.000
 3515.00    0.59083   0.56750   -1.000
 3516.00    0.59935   0.58802   -1.000
 3517.00    0.61294   0.60461   -1.000
 3518.00    0.63364   0.60721   -1.000
 3519.00    0.63551   0.59592   -1.000
 3520.00    0.60727   0.57994   -1.000
 3521.00    0.57237   0.56717   -1.000
 3522.00    0.57704   0.55796   -1.000
 3523.00    0.58253   0.54847   -1.000
 3524.00    0.56535   0.53826   -1.000
 3525.00    0.54583   0.53325  146.184
 3526.00    0.54259   0.53978  149.550
 3527.00    0.55700   0.55599  204.652
 3528.00    0.58675   0.57573   -1.000
 3529.00    0.60407   0.59197   -1.000
 3530.00    0.62143   0.60088   -1.000
 3531.00    0.63073   0.60293   -1.000
 3532.00    0.61551   0.59919   -1.000
 3533.00    0.61182   0.59272   -1.000
 3534.00    0.63369   0.58890   -1.000
 3535.00    0.63373   0.59120   -1.000
 3536.00    0.61782   0.59994   -1.000
 3537.00    0.61764   0.61108   -1.000
 3538.00    0.62623   0.62068   -1.000
 3539.00    0.64478   0.62613   -1.000
 3540.00    0.64140   0.62584   -1.000
 3541.00    0.61680   0.62280   -1.000
 3542.00    0.61021   0.62248   -1.000
 3543.00    0.60995   0.62666   -1.000
 3544.00    0.61306   0.63119   -1.000
 3545.00    0.63074   0.63137  824.769
 3546.00    0.64439   0.62772   -1.000
 3547.00    0.62616   0.62378  824.769
 3548.00    0.63460   0.62248   -1.000
 3549.00    0.63038   0.62428   -1.000
 3550.00    0.62056   0.62754   -1.000
 3551.00    0.60116   0.62831   -1.000
 3552.00    0.61489   0.62265   -1.000
 3553.00    0.60757   0.61321   -1.000
 3554.00    0.59359   0.60703   -1.000
 3555.00    0.59495   0.60800   -1.000
 3556.00    0.59996   0.61415   -1.000
 3557.00    0.59878   0.62054   -1.000
 3558.00    0.61150   0.62305   -1.000
 3559.00    0.61219   0.62274   -1.000
 3560.00    0.60694   0.62379   -1.000
 3561.00    0.61835   0.62706   -1.000
 3562.00    0.62616   0.62702  824.769
 3563.00    0.61700   0.61651  824.769
 3564.00    0.60504   0.59546   -1.000
 3565.00    0.58789   0.57454   -1.000
 3566.00    0.55534   0.56348  147.837
 3567.00    0.54198   0.56161   -1.000
 3568.00    0.53910   0.56120   -1.000
 3569.00    0.53511   0.55528   -1.000
 3570.00    0.53637   0.54601  155.465
 3571.00    0.54309   0.54122  155.928
 3572.00    0.55555   0.54349  150.327
 3573.00    0.55767   0.54903  198.222
 3574.00    0.56837   0.55492   -1.000
 3575.00    0.56313   0.56145  824.769
 3576.00    0.55629   0.56825   -1.000
 3577.00    0.57316   0.57276  824.769
 3578.00    0.57173   0.57096  824.769
 3579.00    0.55313   0.56086   -1.000
 3580.00    0.53169   0.54672  154.379
 3581.00    0.51126   0.53497   -1.000
 3582.00    0.51227   0.53072   -1.000
 3583.00    0.53240   0.53207  173.240
 3584.00    0.53489   0.52888  175.028
 3585.00    0.52155   0.51730  179.891
 3586.00    0.49919   0.50516  184.849
 3587.00    0.49099   0.50304  183.741
 3588.00    0.50454   0.51494  174.189
 3589.00    0.52140   0.53624  165.163
 3590.00    0.54777   0.55831  155.031
 3591.00    0.57686   0.57387  196.483
 3592.00    0.58979   0.58063   -1.000
 3593.00    0.58907   0.58296   -1.000
 3594.00    0.58919   0.58776  824.769
 3595.00    0.59717   0.59781  824.769
 3596.00    0.60739   0.60895  824.769
 3597.00    0.61539   0.61720  824.769
 3598.00    0.62516   0.62243  824.769
 3599.00    0.62593   0.62472  824.769
 3600.00    0.62841   0.62086   -1.000
 3601.00    0.62073   0.60881   -1.000
 3602.00    0.60174   0.59370   -1.000
 3603.00    0.58110   0.58251  824.769
 3604.00    0.57602   0.57960   -1.000
 3605.00    0.56428   0.58144   -1.000
 3606.00    0.57540   0.58104   -1.000
 3607.00    0.57273   0.57617   -1.000
 3608.00    0.56926   0.56951  824.769
 3609.00    0.55810   0.56606   -1.000
 3610.00    0.55639   0.56819   -1.000
 3611.00    0.56302   0.57416   -1.000
 3612.00    0.56718   0.58137   -1.000
 3613.00    0.58084   0.58890   -1.000
 3614.00    0.58191   0.59881   -1.000
 3615.00    0.59295   0.60885   -1.000
 3616.00    0.59318   0.60853   -1.000
 3617.00    0.57979   0.59395   -1.000
 3618.00    0.56567   0.57517   -1.000
 3619.00    0.56444   0.56705  399.963
 3620.00    0.57037   0.57542  193.548
 3621.00    0.58269   0.59265   -1.000
 3622.00    0.60362   0.60834   -1.000
 3623.00    0.61972   0.61851  824.769
 3624.00    0.61938   0.62810   -1.000
 3625.00    0.61872   0.64277   -1.000
 3626.00    0.64204   0.66015   -1.000
 3627.00    0.64926   0.67103   -1.000
 3628.00    0.63496   0.66442   -1.000
 3629.00    0.61132   0.63892   -1.000
 3630.00    0.59240   0.60639   -1.000
 3631.00    0.57823   0.58427   -1.000
 3632.00    0.56355   0.58142   -1.000
 3633.00    0.56971   0.59264   -1.000
 3634.00    0.58449   0.60511   -1.000
 3635.00    0.60449   0.61107   -1.000
 3636.00    0.62356   0.61454   -1.000
 3637.00    0.62677   0.62301   -1.000
 3638.00    0.62694   0.63565   -1.000
 3639.00    0.64002   0.64592   -1.000
 3640.00    0.64223   0.64829   -1.000
 3641.00    0.62758   0.64132   -1.000
 3642.00    0.62229   0.62804   -1.000
 3643.00    0.62026   0.61425   -1.000
 3644.00    0.60666   0.60424  824.769
 3645.00    0.59705   0.59809  824.769
 3646.00    0.59883   0.59376   -1.000
 3647.00    0.59121   0.59164  824.769
 3648.00    0.59374   0.59252  824.769
 3649.00    0.58570   0.59611   -1.000
 3650.00    0.59979   0.60299   -1.000
 3651.00    0.62076   0.61396   -1.000
 3652.00    0.63099   0.62762   -1.000
 3653.00    0.64460   0.64045   -1.000
 3654.00    0.64596   0.65094   -1.000
 3655.00    0.63228   0.65975   -1.000
 3656.00    0.64084   0.66707   -1.000
 3657.00    0.64955   0.67171   -1.000
 3658.00    0.64023   0.67314   -1.000
 3659.00    0.64202   0.67208   -1.000
 3660.00    0.64337   0.66822   -1.000
 3661.00    0.64328   0.66139   -1.000
 3662.00    0.64144   0.65378   -1.000
 3663.00    0.64026   0.64879   -1.000
 3664.00    0.62982   0.64846   -1.000
 3665.00    0.63543   0.65081   -1.000
 3666.00    0.65781   0.65186   -1.000
 3667.00    0.65390   0.64869   -1.000
 3668.00    0.63171   0.64189   -1.000
 3669.00    0.62057   0.63688   -1.000
 3670.00    0.60605   0.63826   -1.000
 3671.00    0.61764   0.64591   -1.000
 3672.00    0.64346   0.65498   -1.000
 3673.00    0.65063   0.65963   -1.000
 3674.00    0.63309   0.65772   -1.000
 3675.00    0.62299   0.64976   -1.000
 3676.00    0.62827   0.63726   -1.000
 3677.00    0.62465   0.62365  824.769
 3678.00    0.61402   0.61372  824.769
 3679.00    0.61859   0.61114   -1.000
 3680.00    0.62206   0.61456   -1.000
 3681.00    0.62160   0.62045  824.769
 3682.00    0.62505   0.62567  824.769
 3683.00    0.63413   0.62702   -1.000
 3684.00    0.61770   0.62251  824.769
 3685.00    0.59855   0.61278   -1.000
 3686.00    0.58875   0.60419   -1.000
 3687.00    0.58171   0.60514   -1.000
 3688.00    0.58930   0.61881   -1.000
 3689.00    0.61571   0.63842   -1.000
 3690.00    0.63377   0.65379   -1.000
 3691.00    0.64528   0.66012   -1.000
 3692.00    0.65346   0.66008   -1.000
 3693.00    0.65060   0.65898   -1.000
 3694.00    0.65241   0.65854   -1.000
 3695.00    0.65363   0.65716  824.769
 3696.00    0.63542   0.65426   -1.000
 3697.00    0.62833   0.65567   -1.000
 3698.00    0.65235   0.66788   -1.000
 3699.00    0.66154   0.68723   -1.000
 3700.00    0.67299   0.70067   -1.000
 3701.00    0.67702   0.69316   -1.000
 3702.00    0.65112   0.66243   -1.000
 3703.00    0.61265   0.62195   -1.000
 3704.00    0.59010   0.58969  824.769
 3705.00    0.58772   0.57732   -1.000
 3706.00    0.59400   0.58404   -1.000
 3707.00    0.60902   0.59929   -1.000
 3708.00    0.62467   0.61122   -1.000
 3709.00    0.61955   0.61345   -1.000
 3710.00    0.60792   0.60889  824.769
 3711.00    0.61233   0.60751   -1.000
 3712.00    0.62098   0.61837   -1.000
 3713.00    0.64534   0.64303   -1.000
 3714.00    0.66946   0.67380  824.769
 3715.00    0.68042   0.69832   -1.000
 3716.00    0.69251   0.70820   -1.000
 3717.00    0.68961   0.70046   -1.000
 3718.00    0.65323   0.67154   -1.000
 3719.00    0.60197   0.62204   -1.000
 3720.00    0.55673   0.56853   -1.000
 3721.00    0.53065   0.53606   -1.000
 3722.00    0.54355   0.53786  192.781
 3723.00    0.58488   0.57158   -1.000
 3724.00    0.63430   0.62104   -1.000
 3725.00    0.66178   0.66145  824.769
 3726.00    0.67396   0.68157   -1.000
 3727.00    0.67242   0.68917   -1.000
 3728.00    0.67940   0.69378   -1.000
 3729.00    0.68219   0.69582   -1.000
 3730.00    0.67741   0.68652   -1.000
 3731.00    0.65274   0.65470  824.769
 3732.00    0.60447   0.60189  824.769
 3733.00    0.54398   0.54533  413.729
 3734.00    0.50283   0.50396  148.386
 3735.00    0.48692   0.49327  163.198
 3736.00    0.51197   0.51711  165.263
 3737.00    0.55092   0.56468  154.794
 3738.00    0.60813   0.62110  187.951
 3739.00    0.66273   0.67319   -1.000
 3740.00    0.69790   0.70716   -1.000
 3741.00    0.71245   0.71724  824.769
 3742.00    0.69536   0.70728   -1.000
 3743.00    0.68453   0.68659  824.769
 3744.00    0.67061   0.66265   -1.000
 3745.00    0.63564   0.63790  824.769
 3746.00    0.60028   0.60955   -1.000
 3747.00    0.57921   0.57508  430.727
 3748.00    0.53533   0.53838  148.555
 3749.00    0.50023   0.51272  156.133
 3750.00    0.51568   0.51462  205.033
 3751.00    0.55037   0.54905  824.769
 3752.00    0.60816   0.60404   -1.000
 3753.00    0.66774   0.66147   -1.000
 3754.00    0.70945   0.70542   -1.000
 3755.00    0.73308   0.72742   -1.000
 3756.00    0.73307   0.72523   -1.000
 3757.00    0.69991   0.70492   -1.000
 3758.00    0.67832   0.68210   -1.000
 3759.00    0.67176   0.67118  824.769
 3760.00    0.68470   0.67492   -1.000
 3761.00    0.70457   0.68699   -1.000
 3762.00    0.71156   0.69868   -1.000
 3763.00    0.70828   0.70415   -1.000
 3764.00    0.70548   0.70121   -1.000
 3765.00    0.69845   0.68995   -1.000
 3766.00    0.68059   0.67154   -1.000
 3767.00    0.66411   0.64573   -1.000
 3768.00    0.64039   0.61386   -1.000
 3769.00    0.61481   0.58302   -1.000
 3770.00    0.58630   0.56510   -1.000
 3771.00    0.59502   0.57287   -1.000
 3772.00    0.62786   0.60563   -1.000
 3773.00    0.67075   0.64719   -1.000
 3774.00    0.70129   0.68078  100.150
 3775.00    0.69976   0.70309   99.900
 3776.00    0.72070   0.72044   99.767
 3777.00    0.73656   0.74067   99.502
 3778.00    0.77028   0.76457   98.931
 3779.00    0.79836   0.78783   97.003
 3780.00    0.80553   0.80659   93.968
 3781.00    0.81272   0.81742   92.202
 3782.00    0.82085   0.82025   91.622
 3783.00    0.82738   0.81683   91.224
 3784.00    0.82467   0.80733   91.817
 3785.00    0.81256   0.79100   94.682
 3786.00    0.79562   0.77017  100.325
 3787.00    0.77269   0.75005  107.312
 3788.00    0.75488   0.73708  111.759
 3789.00    0.75290   0.73261  113.214
 3790.00    0.74655   0.73182  112.586
 3791.00    0.73585   0.72760  110.761
 3792.00    0.72356   0.71434  110.371
 3793.00    0.69659   0.68996  112.754
 3794.00    0.66982   0.65523  116.982
 3795.00    0.63277   0.61418  120.877
 3796.00    0.58933   0.57166  125.211
 3797.00    0.54660   0.53594  131.953
 3798.00    0.53781   0.52400  137.326
 3799.00    0.56334   0.54833  135.190
 3800.00    0.60628   0.60232  127.017
 3801.00    0.66601   0.66441  115.944
 3802.00    0.71686   0.71558  107.770
 3803.00    0.74064   0.74782  103.721
 3804.00    0.76309   0.76371  101.901
 3805.00    0.76725   0.76710  101.897
 3806.00    0.77409   0.76638  104.092
 3807.00    0.77577   0.77217  107.632
 3808.00    0.78810   0.78773  108.411
 3809.00    0.81685   0.80749  105.116
 3810.00    0.83052   0.82034  101.742
 3811.00    0.82228   0.81671  101.448
 3812.00    0.80617   0.79628  104.367
 3813.00    0.78411   0.76914  110.317
 3814.00    0.76218   0.74821  117.150
 3815.00    0.75287   0.74291  123.757
 3816.00    0.76014   0.75165  127.353
 3817.00    0.78036   0.76244  124.299
 3818.00    0.78056   0.76180  121.221
 3819.00    0.76634   0.74700  124.992
 3820.00    0.73487   0.73078  133.406
 3821.00    0.71947   0.72630  137.712
 3822.00    0.74109   0.73114  133.536
 3823.00    0.74589   0.72909  129.291
 3824.00    0.71865   0.71202  133.112
 3825.00    0.69051   0.68959   46.258
 3826.00    0.67663   0.67274   15.191
 3827.00    0.67253   0.66297   15.398
 3828.00    0.66703   0.65571   15.227
 3829.00    0.66067   0.64630   14.978
 3830.00    0.63669   0.63041   14.839
 3831.00    0.61273   0.60382   15.153
 3832.00    0.58039   0.56565   15.983
 3833.00    0.54028   0.52165   17.087
 3834.00    0.50851   0.48697   17.375
 3835.00    0.49013   0.47357   16.923
 3836.00    0.50906   0.48221   16.310
 3837.00    0.53109   0.50671   16.133
 3838.00    0.54938   0.53866   16.503
 3839.00    0.56848   0.57275   16.729
 3840.00    0.61020   0.61009   16.245
 3841.00    0.66303   0.65129   19.827
 3842.00    0.71030   0.69298  137.214
 3843.00    0.73017   0.73019  125.170
 3844.00    0.75683   0.75719  118.708
 3845.00    0.77128   0.77478  117.143
 3846.00    0.77935   0.78772  117.162
 3847.00    0.80007   0.79707  117.164
 3848.00    0.81906   0.79996  118.038
 3849.00    0.80860   0.79743  121.409
 3850.00    0.79489   0.79706  125.535
 3851.00    0.79785   0.80537  126.202
 3852.00    0.80964   0.81915  123.061
 3853.00    0.82227   0.82833  120.785
 3854.00    0.81728   0.82629  122.255
 3855.00    0.80323   0.81545  125.568
 3856.00    0.78171   0.80154   -1.000
 3857.00    0.77292   0.78789  131.246
 3858.00    0.76624   0.77645   44.572
 3859.00    0.75643   0.77231   14.520
 3860.00    0.75212   0.78032   15.136
 3861.00    0.77808   0.79849   18.879
 3862.00    0.80741   0.81745  129.525
 3863.00    0.83946   0.82781  118.156
 3864.00    0.84099   0.82876  114.424
 3865.00    0.83489   0.82626  115.677
 3866.00    0.82076   0.82595  117.887
 3867.00    0.81762   0.82909  119.779
 3868.00    0.81430   0.83118  122.724
 3869.00    0.81288   0.82497  128.048
 3870.00    0.80265   0.80826  135.172
 3871.00    0.76321   0.78627   45.933
 3872.00    0.74118   0.76842   18.414
 3873.00    0.75711   0.76414  137.057
 3874.00    0.77534   0.77347  124.200
 3875.00    0.78833   0.78346  114.609
 3876.00    0.78548   0.77983  112.276
 3877.00    0.75982   0.76289  117.330
 3878.00    0.73050   0.74591  126.937
 3879.00    0.72513   0.73911  133.618
 3880.00    0.73136   0.74028  134.201
 3881.00    0.72389   0.73878  134.964
 3882.00    0.70658   0.72949   -1.000
 3883.00    0.69398   0.71395  130.893
 3884.00    0.68340   0.69022  120.113
 3885.00    0.65753   0.65373  115.228
 3886.00    0.62061   0.60561  118.509
 3887.00    0.58388   0.55796  123.852
 3888.00    0.55230   0.52864  124.858
 3889.00    0.54457   0.52994  123.436
 3890.00    0.58823   0.56313  117.621
 3891.00    0.64679   0.61474   -1.000
 3892.00    0.68268   0.66234   99.836
 3893.00    0.71146   0.69261   97.356
 3894.00    0.71966   0.70949   98.131
 3895.00    0.73225   0.72353   99.414
 3896.00    0.75301   0.74020   98.603
 3897.00    0.76350   0.75642   95.809
 3898.00    0.77364   0.76714   94.217
 3899.00    0.78274   0.77294   95.952
 3900.00    0.79073   0.78004   96.662
 3901.00    0.80291   0.78996   95.336
 3902.00    0.81630   0.79725   94.893
 3903.00    0.81911   0.79774   96.585
 3904.00    0.80674   0.79320  100.409
 3905.00    0.79934   0.79100  102.944
 3906.00    0.80127   0.79805  105.143
 3907.00    0.82817   0.81744  102.867
 3908.00    0.86235   0.84403   96.490
 3909.00    0.87315   0.86676   90.968
 3910.00    0.89012   0.87937   89.203
 3911.00    0.89232   0.88303   88.414
 3912.00    0.87829   0.87968   87.644
 3913.00    0.87514   0.87096   87.496
 3914.00    0.86134   0.86153   88.751
 3915.00    0.84479   0.85623   90.676
 3916.00    0.85346   0.85425   92.591
 3917.00    0.85198   0.85054   93.757
 3918.00    0.83261   0.84225   95.359
 3919.00    0.81975   0.83144   98.519
 3920.00    0.80366   0.82256  103.013
 3921.00    0.80421   0.81859  107.316
 3922.00    0.81301   0.81971  108.709
 3923.00    0.82579   0.82261  107.413
 3924.00    0.83270   0.82150  106.059
 3925.00    0.80987   0.81046  107.970
 3926.00    0.77517   0.78617  114.596
 3927.00    0.73999   0.75015  126.436
 3928.00    0.69100   0.70558   50.640
 3929.00    0.63600   0.65454   16.551
 3930.00    0.57310   0.59380   19.400
 3931.00    0.51241   0.52127   22.747
 3932.00    0.44440   0.44790   26.864
 3933.00    0.40737   0.39906   30.974
 3934.00    0.39404   0.39962   32.823
 3935.00    0.43629   0.44944   30.647
 3936.00    0.51215   0.52498   26.235
 3937.00    0.58973   0.60363   21.642
 3938.00    0.65253   0.67279   17.878
 3939.00    0.70492   0.72567   19.559
 3940.00    0.73148   0.76197   -1.000
 3941.00    0.75089   0.78278   -1.000
 3942.00    0.77161   0.79173   -1.000
 3943.00    0.78273   0.79609  122.699
 3944.00    0.80042   0.80268  121.201
 3945.00    0.81515   0.81375  113.756
 3946.00    0.83292   0.82590  104.154
 3947.00    0.83208   0.83313   99.300
 3948.00    0.83067   0.83443   98.383
 3949.00    0.84198   0.83364   96.993
 3950.00    0.84680   0.83290   93.459
 3951.00    0.85925   0.83187   91.196
 3952.00    0.85537   0.83241   91.889
 3953.00    0.85612   0.83631   92.581
 3954.00    0.86189   0.83902   90.726
 3955.00    0.85027   0.83478   89.168
 3956.00    0.82538   0.82446   90.715
 3957.00    0.82179   0.81486   93.690
 3958.00    0.83569   0.80888   94.447
 3959.00    0.82224   0.79840   93.569
 3960.00    0.79011   0.77488   97.470
 3961.00    0.74138   0.74010  108.564
 3962.00    0.69669   0.70173  122.225
 3963.00    0.66317   0.66362  133.685
 3964.00    0.61467   0.61845   49.519
 3965.00    0.55719   0.55584   15.559
 3966.00    0.47455   0.47467   18.450
 3967.00    0.38364   0.38992   22.750
 3968.00    0.32128   0.32966   27.274
 3969.00    0.30480   0.31499   28.962
 3970.00    0.34180   0.34925   26.064
 3971.00    0.41774   0.41786   21.440
 3972.00    0.50708   0.49871   17.694
 3973.00    0.58000   0.57455   19.115
 3974.00    0.64785   0.63978  129.491
 3975.00    0.70549   0.69349  114.917
 3976.00    0.74998   0.73742  104.118
 3977.00    0.78490   0.77322   96.453
 3978.00    0.81433   0.80319   90.946
 3979.00    0.84256   0.82631   86.156
 3980.00    0.85465   0.83899   82.313
 3981.00    0.86883   0.84292   81.741
 3982.00    0.86805   0.84480   82.569
 3983.00    0.87485   0.85154   83.709
 3984.00    0.88732   0.86453   82.800
 3985.00    0.90361   0.87855   81.066
 3986.00    0.91568   0.88943   79.534
 3987.00    0.92119   0.89863   78.200
 3988.00    0.94293   0.90750   76.857
 3989.00    0.95152   0.91424   76.360
 3990.00    0.93809   0.92024   76.497
 3991.00    0.95341   0.92815   75.703
 3992.00    0.96260   0.93722   73.893
 3993.00    0.97197   0.94308   72.678
 3994.00    0.96387   0.94063   73.811
 3995.00    0.94962   0.92938   75.605
 3996.00    0.93949   0.91531   77.282
 3997.00    0.93450   0.90801   78.577
 3998.00    0.93909   0.91218   78.675
 3999.00    0.94670   0.92462   76.422
 4000.00    0.96628   0.93869   73.061
 4001.00    0.98319   0.94857   70.896
 4002.00    0.99373   0.95032   69.819
 4003.00    0.98627   0.94255   69.334
 4004.00    0.95962   0.92758   71.466
 4005.00    0.93956   0.91451   76.209
 4006.00    0.93838   0.91485   79.132
 4007.00    0.95453   0.92961   77.503
 4008.00    0.97369   0.94904   73.229
 4009.00    0.98791   0.96281   70.787
 4010.00    0.99154   0.96873   69.936
 4011.00    0.97514   0.96962   69.296
 4012.00    1.00612   0.96869   69.236
 4013.00    1.02635   0.96896   -1.000
 4014.00    1.00503   0.97173   69.908
 4015.00    1.01381   0.97589   69.258
 4016.00    1.00515   0.97976   68.597
 4017.00    0.99736   0.98357   69.288
 4018.00    0.99657   0.98852   69.899
 4019.00    1.00392   0.99342   69.368
 4020.00    1.01410   0.99525   68.535
 4021.00    1.01388   0.99204   68.912
 4022.00    1.00810   0.98513   69.821
 4023.00    0.99432   0.97702   70.225
 4024.00    0.97732   0.97123   70.706
 4025.00    0.97972   0.97286   70.759
 4026.00    1.00096   0.98299   68.772
 4027.00    1.01551   0.99369   66.521
 4028.00    1.01942   0.99369   65.613
 4029.00    1.00515   0.98012   66.697
 4030.00    0.96920   0.95954   69.896
 4031.00    0.94955   0.94213   74.385
 4032.00    0.95132   0.93475   77.000
 4033.00    0.95802   0.93818   77.460
 4034.00    0.96314   0.95090   76.090
 4035.00    0.98415   0.97089   73.274
 4036.00    1.01053   0.99483   69.613
 4037.00    1.02685   1.01586   66.389
 4038.00    1.02968   1.02530   64.517
 4039.00    1.01818   1.02230   64.661
 4040.00    1.01082   1.01428   66.122
 4041.00    1.00730   1.00671   67.531
 4042.00    1.00431   0.99670   68.158
 4043.00    0.99400   0.97647   69.079
 4044.00    0.95929   0.94719   73.190
 4045.00    0.91597   0.92479   80.204
 4046.00    0.90946   0.92477   84.326
 4047.00    0.95759   0.94745   79.554
 4048.00    0.99332   0.97766   72.330
 4049.00    1.00719   1.00009   68.495
 4050.00    1.01666   1.00991   66.834
 4051.00    1.01746   1.00987   66.345
 4052.00    1.01063   1.00302   67.117
 4053.00    1.00000   0.99333   68.988
 4054.00    0.98998   0.98574   70.628
 4055.00    0.98637   0.98177   71.596
 4056.00    0.98426   0.97998   72.134
 4057.00    0.98295   0.98087   72.676
 4058.00    0.98679   0.98714   73.109
 4059.00    0.99689   0.99676   71.818
 4060.00    1.00359   0.99951   69.404
 4061.00    1.00501   0.98740   68.582
 4062.00    0.97638   0.96397   70.592
 4063.00    0.94092   0.94085   75.861
 4064.00    0.93527   0.92811   79.784
 4065.00    0.94892   0.92873   77.794
 4066.00    0.96065   0.93889   74.282
 4067.00    0.97114   0.95102   72.479
 4068.00    0.98576   0.95940   70.429
 4069.00    0.99974   0.95963   68.424
 4070.00    0.99321   0.94947   68.300
 4071.00    0.97203   0.93534   71.200
 4072.00    0.96900   0.92915   73.714
 4073.00    0.97718   0.93356   -1.000
 4074.00    0.97727   0.93776   70.346
 4075.00    0.96795   0.92971   70.775
 4076.00    0.92795   0.91064   74.840
 4077.00    0.90956   0.89459   80.531
 4078.00    0.91729   0.89517   81.790
 4079.00    0.93613   0.91466   78.325
 4080.00    0.96923   0.94088   72.854
 4081.00    0.98414   0.95778   68.408
 4082.00    0.98666   0.95901   67.045
 4083.00    0.97233   0.94960   68.501
 4084.00    0.95934   0.93971   70.638
 4085.00    0.95636   0.93747   71.247
 4086.00    0.97039   0.94476   69.847
 4087.00    0.98679   0.95708   67.373
 4088.00    0.98936   0.96699   64.857
 4089.00    0.99341   0.96896   63.255
 4090.00    0.98434   0.96310   63.811
 4091.00    0.95784   0.95376   65.143
 4092.00    0.94670   0.94263   66.263
 4093.00    0.94497   0.92846   66.859
 4094.00    0.92577   0.91059   67.131
 4095.00    0.90455   0.88812   68.766
 4096.00    0.87944   0.86194   71.835
 4097.00    0.85310   0.83167   73.842
 4098.00    0.82563   0.79365   74.455
 4099.00    0.78854   0.74362   -1.000
 4100.00    0.71675   0.68675   81.127
 4101.00    0.64838   0.64498   88.424
 4102.00    0.64266   0.64101   92.922
 4103.00    0.69520   0.67988   89.524
 4104.00    0.76123   0.74261   81.930
 4105.00    0.80890   0.80214   75.961
 4106.00    0.84926   0.84307   72.278
 4107.00    0.87778   0.86693   70.480
 4108.00    0.88993   0.87993   70.383
 4109.00    0.89832   0.88830   71.226
 4110.00    0.90938   0.89710   72.581
 4111.00    0.92498   0.90877   73.253
 4112.00    0.93696   0.92356   72.132
 4113.00    0.94545   0.93981   70.553
 4114.00    0.96293   0.95551   69.377
 4115.00    0.97543   0.96669   68.391
 4116.00    0.98282   0.96949   67.930
 4117.00    0.97879   0.96413   68.513
 4118.00    0.96204   0.95524   70.179
 4119.00    0.95610   0.94904   72.292
 4120.00    0.96775   0.94929   72.746
 4121.00    0.96865   0.95390   71.813
 4122.00    0.96636   0.95930   71.233
 4123.00    0.98098   0.96556   71.166
 4124.00    0.99096   0.97319   70.276
 4125.00    1.00116   0.97896   69.206
 4126.00    0.99631   0.97886   69.227
 4127.00    0.97891   0.97362   70.308
 4128.00    0.98079   0.96809   71.671
 4129.00    0.96822   0.96438   72.190
 4130.00    0.96987   0.95893   72.652
 4131.00    0.96551   0.94974   73.850
 4132.00    0.95575   0.94197   76.237
 4133.00    0.93742   0.94374   78.226
 4134.00    0.94315   0.95703   77.817
 4135.00    0.96692   0.97625   74.893
 4136.00    0.99342   0.99518   71.322
 4137.00    1.01235   1.01056   69.264
 4138.00    1.01983   1.02176   68.186
 4139.00    1.02638   1.02654   67.273
 4140.00    1.02464   1.02000   67.341
 4141.00    0.99595   1.00106   69.180
 4142.00    0.96031   0.97637   73.316
 4143.00    0.93965   0.95819   79.200
 4144.00    0.94505   0.95713   81.927
 4145.00    0.96540   0.97184   78.332
 4146.00    0.98970   0.98976   73.899
 4147.00    1.00403   0.99928   71.571
 4148.00    0.99235   0.99985   71.278
 4149.00    0.97983   0.99827   72.826
 4150.00    0.98571   0.99880   74.685
 4151.00    0.99842   0.99936   75.298
 4152.00    0.98472   0.99592   74.725
 4153.00    0.98061   0.98868   74.511
 4154.00    0.97142   0.98228   75.346
 4155.00    0.99457   0.98138   76.008
 4156.00    1.20501   0.98678   -1.000
 4157.00    1.25755   0.99628   -1.000
 4158.00    0.76898   1.00705   -1.000
 4159.00    0.76591   1.01565   -1.000
 4160.00    1.05229   1.02036   72.118
 4161.00    1.04351   1.02243   71.293
 4162.00    1.00446   1.02466   69.307
 4163.00    1.00932   1.02825   68.804
 4164.00    1.01435   1.03114   69.387
 4165.00    1.01336   1.03000   70.542
 4166.00    1.01183   1.02417   71.690
 4167.00    0.99886   1.01776   73.237
 4168.00    0.99512   1.01395   74.029
 4169.00    0.99790   1.00947   73.275
 4170.00    0.99420   0.99713   72.347
 4171.00    0.98193   0.97532   73.808
 4172.00    0.95812   0.95376   78.382
 4173.00    0.94530   0.94514   82.337
 4174.00    0.94243   0.95312   81.818
 4175.00    0.95545   0.96892   78.764
 4176.00    0.96805   0.97969   76.425
 4177.00    0.96683   0.98310   76.543
 4178.00    0.97353   0.98548   76.870
 4179.00    0.97708   0.99121   76.347
 4180.00    0.98139   0.99719   75.201
 4181.00    0.98490   0.99821   74.636
 4182.00    0.98204   0.99711   74.563
 4183.00    0.97328   0.99940   73.600
 4184.00    0.97261   1.00319   72.126
 4185.00    0.98452   1.00241   71.107
 4186.00    0.97287   0.99536   71.671
 4187.00    0.95570   0.98755   74.126
 4188.00    0.96015   0.98578   75.729
 4189.00    0.97474   0.98968   74.768
 4190.00    0.98513   0.99460   73.257
 4191.00    0.99189   0.99900   72.758
 4192.00    0.99326   1.00419   71.654
 4193.00    0.99770   1.00891   70.184
 4194.00    0.99714   1.00759   69.803
 4195.00    0.98663   0.99627   72.248
 4196.00    0.96854   0.97856   75.890
 4197.00    0.94564   0.96124   78.136
 4198.00    0.94062   0.94875   79.254
 4199.00    0.94491   0.94322   79.193
 4200.00    0.95232   0.94419   78.211
 4201.00    0.95248   0.94813   77.125
 4202.00    0.96076   0.95334   76.904
 4203.00    0.96281   0.96167   76.264
 4204.00    0.96632   0.97283   75.150
 4205.00    0.97207   0.98408   74.468
 4206.00    0.97655   0.99446   72.903
 4207.00    0.99011   1.00297   71.134
 4208.00    0.99526   1.00742   69.950
 4209.00    0.99314   1.00818   69.755
 4210.00    0.98706   1.00876   69.992
 4211.00    0.98876   1.01165   69.764
 4212.00    0.99286   1.01391   69.416
 4213.00    0.98951   1.00837   70.184
 4214.00    0.97426   0.99399   72.733
 4215.00    0.95350   0.97914   75.892
 4216.00    0.94513   0.97393   77.084
 4217.00    0.96713   0.98280   73.866
 4218.00    0.99034   0.99944   69.327
 4219.00    1.00285   1.01387   66.513
 4220.00    1.00816   1.02108   64.902
 4221.00    1.01156   1.01890   64.469
 4222.00    1.00324   1.00453   65.458
 4223.00    0.97656   0.97619   68.573
 4224.00    0.93200   0.93779   73.811
 4225.00    0.89523   0.90113   81.658
 4226.00    0.85184   0.88155   -1.000
 4227.00    0.84480   0.89168   -1.000
 4228.00    0.90206   0.92906   89.063
 4229.00    0.96016   0.97280   77.373
 4230.00    0.98794   1.00026   70.247
 4231.00    0.99951   1.00526   67.252
 4232.00    0.99516   0.99620   67.188
 4233.00    0.97537   0.98342   68.834
 4234.00    0.96135   0.97411   70.464
 4235.00    0.95249   0.97095   71.277
 4236.00    0.94686   0.97195   72.938
 4237.00    0.94125   0.97620   73.919
 4238.00    0.95172   0.98435   73.082
 4239.00    0.97422   0.99477   71.437
 4240.00    0.98020   1.00543   70.389
 4241.00    0.98248   1.01439   69.083
 4242.00    0.97982   1.02058   68.280
 4243.00    0.97830   1.02387   67.855
 4244.00    0.99445   1.02319   66.599
 4245.00    0.99769   1.01568   65.539
 4246.00    0.97514   1.00013   66.709
 4247.00    0.95521   0.98217   69.825
 4248.00    0.93623   0.96955   72.311
 4249.00    0.93235   0.96542   73.917
 4250.00    0.93662   0.96910   74.411
 4251.00    0.94710   0.97800   73.932
 4252.00    0.96979   0.98634   71.718
 4253.00    0.97086   0.98876   70.109
 4254.00    0.95720   0.98750   70.869
 4255.00    0.95771   0.98974   72.394
 4256.00    0.98023   0.99640   70.995
 4257.00    0.99231   0.99884   68.503
 4258.00    0.97660   0.99002   68.564
 4259.00    0.95236   0.97551   71.547
 4260.00    0.93560   0.96823   75.236
 4261.00    0.94538   0.97621   76.280
 4262.00    0.97154   0.99648   72.880
 4263.00    0.98445   1.01800   68.434
 4264.00    0.99585   1.03101   65.517
 4265.00    1.00851   1.03321   64.282
 4266.00    1.00346   1.02818   64.383
 4267.00    0.98600   1.01827   65.673
 4268.00    0.97421   1.00311   67.885
 4269.00    0.96250   0.98220   70.028
 4270.00    0.93294   0.95798   73.068
 4271.00    0.90198   0.93729   -1.000
 4272.00    0.90082   0.92757   82.106
 4273.00    0.90196   0.93125   82.331
 4274.00    0.90652   0.94490   -1.000
 4275.00    0.92846   0.96490   -1.000
 4276.00    0.96097   0.98853   74.180
 4277.00    0.98038   1.00875   69.521
 4278.00    0.98271   1.01665   66.871
 4279.00    0.96389   1.01101   -1.000
 4280.00    0.94223   0.99944   -1.000
 4281.00    0.93893   0.99102   -1.000
 4282.00    0.95532   0.98854   72.453
 4283.00    0.95880   0.98824   71.433
 4284.00    0.95251   0.98624   71.058
 4285.00    0.94162   0.98024   72.242
 4286.00    0.92513   0.96890   -1.000
 4287.00    0.91934   0.95238   76.117
 4288.00    0.90685   0.93229   77.455
 4289.00    0.87515   0.91431   -1.000
 4290.00    0.87187   0.90864   -1.000
 4291.00    0.89636   0.91889   83.393
 4292.00    0.91067   0.93567   78.813
 4293.00    0.92433   0.94542   74.314
 4294.00    0.92228   0.94422   73.391
 4295.00    0.92402   0.93753   74.250
 4296.00    0.91529   0.92695   75.579
 4297.00    0.88792   0.90898   77.661
 4298.00    0.85548   0.88341   82.141
 4299.00    0.82094   0.85649   -1.000
 4300.00    0.80133   0.83746   -1.000
 4301.00    0.80854   0.83126   95.302
 4302.00    0.81390   0.83610   92.513
 4303.00    0.81418   0.84728   -1.000
 4304.00    0.82457   0.85865   -1.000
 4305.00    0.83021   0.86199   88.993
 4306.00    0.82695   0.85392   89.868
 4307.00    0.81177   0.84050   -1.000
 4308.00    0.78762   0.83246   -1.000
 4309.00    0.77627   0.83711   -1.000
 4310.00    0.79900   0.85234   -1.000
 4311.00    0.82282   0.87027   -1.000
 4312.00    0.84513   0.88594   -1.000
 4313.00    0.90114   0.90281   81.477
 4314.00    0.98705   0.92769   -1.000
 4315.00    0.92949   0.96244   73.022
 4316.00    0.97463   0.99969   66.685
 4317.00    1.01907   1.02649   62.133
 4318.00    1.02524   1.03624   60.403
 4319.00    1.00814   1.03195   60.646
 4320.00    1.00003   1.01952   61.711
 4321.00    0.98613   1.00148   63.242
 4322.00    0.96127   0.97712   65.579
 4323.00    0.92859   0.94737   69.114
 4324.00    0.88304   0.91943   74.498
 4325.00    0.86304   0.90660   -1.000
 4326.00    0.87227   0.91801   -1.000
 4327.00    0.92079   0.94656   76.118
 4328.00    0.95295   0.97396   68.318
 4329.00    0.96825   0.98736   64.093
 4330.00    0.97120   0.98810   63.261
 4331.00    0.96590   0.98509   63.508
 4332.00    0.95994   0.98233   62.998
 4333.00    0.94784   0.97653   61.923
 4334.00    0.94408   0.96206   61.394
 4335.00    0.92528   0.93363   61.469
 4336.00    0.88812   0.88715   63.021
 4337.00    0.82441   0.82352   67.566
 4338.00    0.76453   0.75496   74.244
 4339.00    0.70090   0.70126   81.019
 4340.00    0.65273   0.68042   86.969
 4341.00    0.66935   0.70223   87.427
 4342.00    0.74533   0.75798   80.208
 4343.00    0.80924   0.82241   72.667
 4344.00    0.85388   0.87533   68.677
 4345.00    0.89274   0.91367   66.658
 4346.00    0.90909   0.94269   64.962
 4347.00    0.92933   0.96525   63.961
 4348.00    0.94331   0.97804   63.250
 4349.00    0.95238   0.97585   62.370
 4350.00    0.93975   0.95998   63.095
 4351.00    0.91011   0.94239   66.986
 4352.00    0.89112   0.93740   -1.000
 4353.00    0.91722   0.95080   71.642
 4354.00    0.94585   0.97562   68.458
 4355.00    0.96579   0.99867   65.492
 4356.00    0.98018   1.01228   63.629
 4357.00    0.98885   1.01674   62.541
 4358.00    0.98207   1.01627   62.842
 4359.00    0.97788   1.01678   64.208
 4360.00    0.98311   1.02262   64.649
 4361.00    1.00253   1.03288   63.176
 4362.00    1.01248   1.04327   61.390
 4363.00    1.01885   1.05085   60.847
 4364.00    1.02442   1.05420   60.554
 4365.00    1.02366   1.05137   59.937
 4366.00    1.01164   1.04165   60.202
 4367.00    0.99743   1.02881   62.238
 4368.00    0.98795   1.01861   64.308
 4369.00    0.98652   1.01308   64.722
 4370.00    0.98842   1.01005   64.045
 4371.00    0.99082   1.00553   63.717
 4372.00    0.99249   0.99569   63.782
 4373.00    0.97662   0.98030   64.746
 4374.00    0.95968   0.96583   67.519
 4375.00    0.95616   0.96343   69.810
 4376.00    0.96327   0.97767   69.250
 4377.00    0.98723   1.00029   66.133
 4378.00    1.01345   1.01778   63.096
 4379.00    1.01969   1.02187   62.317
 4380.00    1.00678   1.01058   62.879
 4381.00    0.99323   0.98387   64.310
 4382.00    0.96333   0.94652   68.028
 4383.00    0.91303   0.91327   75.912
 4384.00    0.88673   0.90175   83.413
 4385.00    0.91264   0.91679   82.454
 4386.00    0.95952   0.94553   74.398
 4387.00    0.98074   0.96990   68.052
 4388.00    0.98657   0.98252   66.401
 4389.00    0.98834   0.98665   66.660
 4390.00    0.98701   0.98836   67.353
 4391.00    0.99520   0.99158   67.310
 4392.00    1.00244   0.99446   65.884
 4393.00    0.99568   0.99203   64.664
 4394.00    0.98518   0.98588   65.363
 4395.00    0.98001   0.98555   66.637
 4396.00    0.99207   0.99515   65.862
 4397.00    1.01833   1.00576   62.841
 4398.00    1.02218   1.00716   61.466
 4399.00    1.00255   0.99986   62.690
 4400.00    0.98455   0.99283   65.045
 4401.00    0.99166   0.99183   66.556
 4402.00    1.00576   0.99246   65.551
 4403.00    1.00188   0.98782   64.826
 4404.00    0.97899   0.97904   67.546
 4405.00    0.96369   0.97421   71.138
 4406.00    0.98306   0.97764   71.063
 4407.00    0.99472   0.98563   68.697
 4408.00    0.99436   0.99489   67.841
 4409.00    0.99693   1.00816   66.963
 4410.00    1.02182   1.02591   64.229
 4411.00    1.04172   1.04036   61.543
 4412.00    1.06268   1.04263   59.681
 4413.00    1.05000   1.03018   59.375
 4414.00    1.01178   1.00785   61.378
 4415.00    0.99472   0.98710   64.878
 4416.00    0.99078   0.98049   66.745
 4417.00    0.99796   0.99179   65.919
 4418.00    1.01560   1.01425   63.435
 4419.00    1.04061   1.03615   60.894
 4420.00    1.05400   1.04759   59.513
 4421.00    1.03533   1.04684   60.154
 4422.00    1.02282   1.04097   61.761
 4423.00    1.02982   1.03707   62.637
 4424.00    1.02805   1.03523   62.201
 4425.00    1.01396   1.03266   61.976
 4426.00    1.00661   1.03009   62.253
 4427.00    1.00469   1.03061   62.447
 4428.00    1.01470   1.03450   61.994
 4429.00    1.01725   1.03913   61.874
 4430.00    1.01328   1.04234   62.501
 4431.00    1.02447   1.04322   62.550
 4432.00    1.02046   1.04000   61.787
 4433.00    1.01807   1.03045   61.657
 4434.00    0.99582   1.01764   64.009
 4435.00    0.98093   1.01193   66.893
 4436.00    0.99004   1.02212   66.997
 4437.00    1.02749   1.04469   63.913
 4438.00    1.05711   1.06561   60.063
 4439.00    1.06009   1.07223   57.929
 4440.00    1.04952   1.06095   58.168
 4441.00    1.02829   1.03826   60.272
 4442.00    1.00887   1.01701   63.197
 4443.00    0.99716   1.00987   65.516
 4444.00    0.99898   1.02078   65.213
 4445.00    1.01972   1.04173   62.565
 4446.00    1.03492   1.05970   60.082
 4447.00    1.04157   1.06801   59.183
 4448.00    1.04204   1.06919   59.289
 4449.00    1.04400   1.06772   59.476
 4450.00    1.03107   1.06562   60.166
 4451.00    1.02467   1.06282   60.614
 4452.00    1.03579   1.05664   60.201
 4453.00    1.03281   1.04352   60.903
 4454.00    1.00861   1.02610   63.354
 4455.00    0.99334   1.01417   66.116
 4456.00    0.99748   1.01401   67.045
 4457.00    1.01242   1.02155   65.753
 4458.00    1.02040   1.02824   64.742
 4459.00    1.01343   1.03037   64.897
 4460.00    1.01395   1.03014   65.294
 4461.00    1.00468   1.03157   65.990
 4462.00    1.01645   1.03710   66.321
 4463.00    1.03466   1.04541   64.715
 4464.00    1.04265   1.05243   62.220
 4465.00    1.04283   1.05431   60.998
 4466.00    1.03437   1.04941   61.007
 4467.00    1.03612   1.03954   61.137
 4468.00    1.02813   1.03040   61.941
 4469.00    1.01630   1.02878   63.068
 4470.00    1.02207   1.03801   63.230
 4471.00    1.03791   1.05536   62.123
 4472.00    1.05723   1.07392   60.074
 4473.00    1.07911   1.08768   58.044
 4474.00    1.08131   1.09451   56.633
 4475.00    1.07669   1.09639   56.291
 4476.00    1.07637   1.09674   56.354
 4477.00    1.08526   1.09590   55.841
 4478.00    1.08112   1.08953   55.631
 4479.00    1.06222   1.07388   56.379
 4480.00    1.04658   1.05344   58.637
 4481.00    1.02355   1.03976   61.215
 4482.00    1.02408   1.04182   62.571
 4483.00    1.04235   1.05873   61.470
 4484.00    1.06777   1.08110   58.791
 4485.00    1.08696   1.09798   56.713
 4486.00    1.08466   1.10269   55.717
 4487.00    1.08541   1.09504   56.023
 4488.00    1.06631   1.08126   57.486
 4489.00    1.04892   1.07069   59.653
 4490.00    1.04818   1.06964   60.714
 4491.00    1.05636   1.07668   59.809
 4492.00    1.07500   1.08352   58.228
 4493.00    1.07218   1.08312   57.563
 4494.00    1.05713   1.07726   58.649
 4495.00    1.04858   1.07319   60.448
 4496.00    1.05025   1.07489   61.471
 4497.00    1.06913   1.08041   60.499
 4498.00    1.08231   1.08496   58.371
 4499.00    1.08580   1.08452   56.881
 4500.00    1.07749   1.08021   56.519
 4501.00    1.06376   1.07939   57.222
 4502.00    1.07621   1.08787   57.284
 4503.00    1.08573   1.10308   55.632
 4504.00    1.09760   1.11676   53.801
 4505.00    1.10528   1.12247   53.066
 4506.00    1.10740   1.11990   53.592
 4507.00    1.10248   1.11363   54.672
 4508.00    1.08714   1.10950   55.110
 4509.00    1.09439   1.11000   55.069
 4510.00    1.10048   1.11253   54.622
 4511.00    1.09783   1.11262   54.345
 4512.00    1.09104   1.10871   54.933
 4513.00    1.08123   1.10248   56.051
 4514.00    1.08502   1.09629   56.968
 4515.00    1.08756   1.09207   57.205
 4516.00    1.07593   1.09005   56.913
 4517.00    1.07020   1.08813   56.974
 4518.00    1.07553   1.08509   57.676
 4519.00    1.07954   1.08306   57.831
 4520.00    1.07782   1.08353   56.750
 4521.00    1.08228   1.08362   55.771
 4522.00    1.07307   1.08002   56.153
 4523.00    1.05964   1.07398   57.538
 4524.00    1.05843   1.06874   58.613
 4525.00    1.06528   1.06370   59.128
 4526.00    1.05294   1.05547   60.248
 4527.00    1.03326   1.04345   62.136
 4528.00    1.02814   1.03238   63.766
 4529.00    1.01933   1.02826   64.325
 4530.00    1.02332   1.03178   63.707
 4531.00    1.03694   1.03666   62.543
 4532.00    1.04626   1.03470   61.495
 4533.00    1.02745   1.02500   61.470
 4534.00    1.01626   1.01678   63.366
 4535.00    1.01403   1.02089   65.200
 4536.00    1.03051   1.03978   63.825
 4537.00    1.06222   1.06579   60.013
 4538.00    1.09044   1.08731   56.689
 4539.00    1.08980   1.09666   55.501
 4540.00    1.08253   1.09515   56.247
 4541.00    1.07751   1.09031   57.497
 4542.00    1.08190   1.08801   57.309
 4543.00    1.08104   1.08776   56.895
 4544.00    1.04522   1.08585   58.712
 4545.00    0.36795   1.08172   -1.000
 4546.00   -0.00499   1.07673    0.000
 4547.00    0.06742   1.06867   -1.000
 4548.00    0.70643   1.05553   -1.000
 4549.00    0.48722   1.04313   -1.000
 4550.00    0.59293   1.04135   -1.000
 4551.00    1.10387   1.05051   -1.000
 4552.00    1.05584   1.05862   59.163
 4553.00    1.04995   1.05679   59.598
 4554.00    1.04030   1.04971   60.522
 4555.00    1.04001   1.04843   60.895
 4556.00    1.04996   1.05891   59.748
 4557.00    1.06970   1.07698   57.466
 4558.00    1.08504   1.09370   55.283
 4559.00    1.09210   1.10479   54.521
 4560.00    1.09366   1.11057   54.858
 4561.00    1.10157   1.11022   54.808
 4562.00    1.09650   1.10231   54.967
 4563.00    1.07346   1.09008   56.334
 4564.00    1.06469   1.08139   57.699
 4565.00    1.06902   1.08214   58.484
 4566.00    1.08023   1.09131   57.658
 4567.00    1.08771   1.10242   56.141
 4568.00    1.09574   1.10839   54.751
 4569.00    1.09830   1.10530   54.374
 4570.00    1.08088   1.09402   55.120
 4571.00    1.06296   1.08108   56.573
 4572.00    1.05930   1.07636   57.864
 4573.00    1.07691   1.08393   57.192
 4574.00    1.08833   1.09613   55.488
 4575.00    1.09567   1.10311   54.834
 4576.00    1.09990   1.10328   54.933
 4577.00    1.09189   1.09950   55.204
 4578.00    1.08621   1.09241   55.593
 4579.00    1.07188   1.08172   56.656
 4580.00    1.05986   1.07002   58.348
 4581.00    1.04969   1.06112   59.379
 4582.00    1.04755   1.05635   59.069
 4583.00    1.05467   1.05542   58.240
 4584.00    1.05312   1.05839   57.895
 4585.00    1.06822   1.06433   58.120
 4586.00    1.07117   1.07151   58.375
 4587.00    1.07724   1.07887   57.426
 4588.00    1.08724   1.08507   55.909
 4589.00    1.08286   1.08832   54.850
 4590.00    1.08786   1.08814   54.916
 4591.00    1.08042   1.08538   55.792
 4592.00    1.07512   1.08203   56.841
 4593.00    1.07045   1.08113   57.740
 4594.00    1.08176   1.08393   57.687
 4595.00    1.08706   1.08896   57.170
 4596.00    1.08371   1.09414   56.753
 4597.00    1.09191   1.09735   56.622
 4598.00    1.09753   1.09699   56.503
 4599.00    1.09476   1.09316   56.437
 4600.00    1.08354   1.08748   56.971
 4601.00    1.07359   1.08251   57.449
 4602.00    1.07031   1.08056   57.513
 4603.00    1.07589   1.08201   56.857
 4604.00    1.09066   1.08546   56.289
 4605.00    1.09520   1.08939   56.405
 4606.00    1.09345   1.09372   56.247
 4607.00    1.09903   1.09924   55.556
 4608.00    1.09985   1.10584   54.420
 4609.00    1.10620   1.11174   53.301
 4610.00    1.11108   1.11392   52.785
 4611.00    1.09984   1.11146   53.116
 4612.00    1.09438   1.10720   53.863
 4613.00    1.09919   1.10439   54.428
 4614.00    1.09984   1.10359   54.707
 4615.00    1.09658   1.10305   54.381
 4616.00    1.09159   1.10127   53.910
 4617.00    1.09848   1.09855   53.765
 4618.00    1.10107   1.09621   54.162
 4619.00    1.09680   1.09623   54.522
 4620.00    1.09639   1.10024   54.400
 4621.00    1.10317   1.10717   53.820
 4622.00    1.11314   1.11300   53.024
 4623.00    1.12203   1.11446   53.069
 4624.00    1.11312   1.11212   53.208
 4625.00    1.09656   1.10854   53.346
 4626.00    1.09853   1.10538   53.827
 4627.00    1.10410   1.10280   53.922
 4628.00    1.10551   1.10055   53.921
 4629.00    1.09967   1.09964   54.271
 4630.00    1.10035   1.10190   54.336
 4631.00    1.10507   1.10646   54.008
 4632.00    1.10765   1.10924   53.443
 4633.00    1.09825   1.10774   53.783
 4634.00    1.09979   1.10405   54.584
 4635.00    1.10708   1.10137   55.114
 4636.00    1.10207   1.09996   55.073
 4637.00    1.10210   1.09861   55.577
 4638.00    1.09878   1.09783   56.285
 4639.00    1.10427   1.09954   56.457
 4640.00    1.10439   1.10476   56.279
 4641.00    1.11440   1.11196   55.234
 4642.00    1.11681   1.11776   53.910
 4643.00    1.11596   1.11896   53.292
 4644.00    1.10833   1.11422   53.632
 4645.00    1.09547   1.10447   54.724
 4646.00    1.08827   1.09285   56.299
 4647.00    1.08114   1.08503   57.738
 4648.00    1.08639   1.08563   57.792
 4649.00    1.09906   1.09332   56.668
 4650.00    1.09986   1.10251   55.374
 4651.00    1.09442   1.10828   54.705
 4652.00    1.09619   1.10883   54.644
 4653.00    1.08937   1.10492   54.596
 4654.00    1.08376   1.09886   55.346
 4655.00    1.08091   1.09394   56.615
 4656.00    1.08486   1.09363   57.125
 4657.00    1.08598   1.10048   56.450
 4658.00    1.10373   1.11419   54.545
 4659.00    1.12968   1.12913   52.509
 4660.00    1.13772   1.13754   51.477
 4661.00    1.13384   1.13641   51.546
 4662.00    1.13149   1.12891   52.282
 4663.00    1.11736   1.11953   53.585
 4664.00    1.11574   1.10973   54.545
 4665.00    1.10943   1.09770   54.683
 4666.00    1.09629   1.08232   55.753
 4667.00    1.07355   1.06760   58.244
 4668.00    1.05281   1.06114   60.461
 4669.00    1.06515   1.06631   60.214
 4670.00    1.09185   1.07916   58.201
 4671.00    1.10165   1.09283   55.799
 4672.00    1.11193   1.10234   54.439
 4673.00    1.10873   1.10730   54.212
 4674.00    1.10361   1.11083   54.265
 4675.00    1.11194   1.11503   54.146
 4676.00    1.12070   1.11791   53.393
 4677.00    1.11750   1.11554   52.671
 4678.00    1.10800   1.10743   53.073
 4679.00    1.09697   1.09716   54.274
 4680.00    1.09172   1.08860   55.325
 4681.00    1.08896   1.08423   56.198
 4682.00    1.09364   1.08517   56.615
 4683.00    1.10997   1.09023   55.776
 4684.00    1.11671   1.09622   54.380
 4685.00    1.11694   1.10030   53.782
 4686.00    1.11651   1.10192   54.004
 4687.00    1.11484   1.10219   54.037
 4688.00    1.11361   1.10220   54.339
 4689.00    1.11448   1.10201   54.323
 4690.00    1.11357   1.10109   54.361
 4691.00    1.10740   1.10011   54.755
 4692.00    1.11082   1.10099   54.788
 4693.00    1.11824   1.10407   54.079
 4694.00    1.12913   1.10754   53.231
 4695.00    1.12893   1.10990   52.061
 4696.00    1.12229   1.10956   51.500
 4697.00    1.12018   1.10452   51.905
 4698.00    1.11724   1.09565   53.488
 4699.00    1.10408   1.08673   55.032
 4700.00    1.10341   1.07973   55.525
 4701.00    1.09861   1.07356   55.083
 4702.00    1.08789   1.06772   55.595
 4703.00    1.07087   1.06508   56.562
 4704.00    1.08009   1.06830   56.703
 4705.00    1.09410   1.07424   55.566
 4706.00    1.10092   1.07634   54.885
 4707.00    1.08756   1.07250   55.773
 4708.00    1.07850   1.06750   56.870
 4709.00    1.07755   1.06764   57.317
 4710.00    1.09153   1.07439   56.857
 4711.00    1.11955   1.08381   55.109
 4712.00    1.12118   1.09012   53.681
 4713.00    1.11888   1.09030   53.285
 4714.00    1.11486   1.08721   53.894
 4715.00    1.10855   1.08696   54.871
 4716.00    1.11491   1.09244   54.725
 4717.00    1.12939   1.10074   53.577
 4718.00    1.12926   1.10750   52.603
 4719.00    1.12480   1.11123   52.330
 4720.00    1.13110   1.11248   52.151
 4721.00    1.12227   1.11206   52.019
 4722.00    1.11401   1.11147   52.497
 4723.00    1.12135   1.11255   52.813
 4724.00    1.13251   1.11490   52.443
 4725.00    1.12640   1.11536   51.906
 4726.00    1.11417   1.11093   52.112
 4727.00    1.10406   1.10165   53.505
 4728.00    1.09561   1.09132   55.532
 4729.00    1.09657   1.08417   56.616
 4730.00    1.09071   1.08109   56.294
 4731.00    1.09377   1.08164   55.708
 4732.00    1.10247   1.08579   55.262
 4733.00    1.10625   1.09147   54.594
 4734.00    1.10279   1.09503   54.144
 4735.00    1.10477   1.09500   53.846
 4736.00    1.10608   1.09297   53.608
 4737.00    1.09840   1.09179   54.204
 4738.00    1.10496   1.09301   54.185
 4739.00    1.11860   1.09564   53.488
 4740.00    1.11748   1.09766   53.577
 4741.00    1.10613   1.09894   53.889
 4742.00    1.10363   1.10110   53.908
 4743.00    1.11173   1.10456   53.435
 4744.00    1.11780   1.10807   52.890
 4745.00    1.11711   1.11093   53.035
 4746.00    1.12073   1.11393   53.046
 4747.00    1.12791   1.11814   52.612
 4748.00    1.12381   1.12280   52.100
 4749.00    1.12362   1.12630   52.029
 4750.00    1.12039   1.12815   52.117
 4751.00    1.11562   1.12806   52.171
 4752.00    1.11353   1.12522   52.588
 4753.00    1.10652   1.12008   53.188
 4754.00    1.09813   1.11493   53.619
 4755.00    1.09293   1.11207   53.951
 4756.00    1.09667   1.11223   53.848
 4757.00    1.10013   1.11446   54.091
 4758.00    1.10633   1.11708   54.482
 4759.00    1.10150   1.11838   54.486
 4760.00    1.11190   1.11629   54.026
 4761.00    1.10062   1.10906   54.012
 4762.00    1.09280   1.09765   54.948
 4763.00    1.07671   1.08670   56.315
 4764.00    1.07385   1.08095   56.955
 4765.00    1.08041   1.08156   56.990
 4766.00    1.09085   1.08690   56.843
 4767.00    1.10083   1.09540   56.400
 4768.00    1.10410   1.10572   55.564
 4769.00    1.11069   1.11512   54.303
 4770.00    1.11154   1.11996   53.633
 4771.00    1.11173   1.11937   53.795
 4772.00    1.10291   1.11683   54.274
 4773.00    1.10078   1.11715   54.684
 4774.00    1.11574   1.12152   53.951
 4775.00    1.12600   1.12660   52.814
 4776.00    1.12449   1.12901   52.525
 4777.00    1.12692   1.12812   52.596
 4778.00    1.11366   1.12433   52.769
 4779.00    1.10593   1.11890   53.140
 4780.00    1.10541   1.11468   53.738
 4781.00    1.10593   1.11344   54.026
 4782.00    1.10001   1.11320   54.159
 4783.00    1.10163   1.11157   54.443
 4784.00    1.10119   1.10879   54.865
 4785.00    1.10340   1.10571   54.827
 4786.00    1.10471   1.10256   55.048
 4787.00    1.08785   1.10032   55.605
 4788.00    1.08254   1.10026   55.888
 4789.00    1.09569   1.10261   55.798
 4790.00    1.09895   1.10731   55.506
 4791.00    1.10736   1.11434   55.146
 4792.00    1.11614   1.12277   54.536
 4793.00    1.11846   1.13134   53.602
 4794.00    1.12346   1.13863   52.404
 4795.00    1.12259   1.14235   51.563
 4796.00    1.12265   1.14077   51.455
 4797.00    1.12546   1.13462   52.044
 4798.00    1.11280   1.12691   53.124
 4799.00    1.09626   1.12181   54.093
 4800.00    1.10669   1.12241   54.650
 4801.00    1.10832   1.12806   54.070
 4802.00    1.11633   1.13413   52.959
 4803.00    1.11787   1.13483   52.265
 4804.00    1.11266   1.12911   52.425
 4805.00    1.11519   1.12191   53.162
 4806.00    1.11314   1.11815   53.829
 4807.00    1.11013   1.11858   54.278
 4808.00    1.11264   1.12147   54.229
 4809.00    1.11012   1.12479   54.081
 4810.00    1.11442   1.12723   53.817
 4811.00    1.10842   1.12880   53.320
 4812.00    1.11898   1.13070   52.951
 4813.00    1.12597   1.13383   52.698
 4814.00    1.12381   1.13770   52.654
 4815.00    1.12250   1.14126   52.517
 4816.00    1.12314   1.14421   52.317
 4817.00    1.12243   1.14631   51.979
 4818.00    1.12339   1.14686   51.663
 4819.00    1.13036   1.14577   51.470
 4820.00    1.13384   1.14313   51.463
 4821.00    1.13060   1.13764   51.490
 4822.00    1.11459   1.12787   52.018
 4823.00    1.09832   1.11600   53.430
 4824.00    1.10005   1.10818   54.366
 4825.00    1.10341   1.10874   54.155
 4826.00    1.10839   1.11496   53.156
 4827.00    1.11693   1.12033   52.397
 4828.00    1.11682   1.12125   52.693
 4829.00    1.11867   1.11899   53.325
 4830.00    1.11123   1.11606   53.621
 4831.00    1.10198   1.11306   53.615
 4832.00    1.11215   1.11051   54.122
 4833.00    1.11850   1.10994   54.140
 4834.00    1.11855   1.11161   53.227
 4835.00    1.11703   1.11379   52.556
 4836.00    1.10886   1.11478   52.403
 4837.00    1.11046   1.11412   52.512
 4838.00    1.10521   1.11169   52.795
 4839.00    1.09071   1.10753   53.556
 4840.00    1.09381   1.10324   54.485
 4841.00    1.09826   1.10070   54.458
 4842.00    1.09849   1.09972   54.328
 4843.00    1.09810   1.09933   54.040
 4844.00    1.09784   1.09982   53.623
 4845.00    1.10395   1.10170   53.064
 4846.00    1.10400   1.10267   52.240
 4847.00    1.09642   1.09934   52.064
 4848.00    1.07835   1.09278   53.183
 4849.00    1.06803   1.08793   53.922
 4850.00    1.08012   1.08647   53.839
 4851.00    1.07770   1.08527   53.073
 4852.00    1.07233   1.08040   53.003
 4853.00    1.06237   1.06916   53.335
 4854.00    1.04543   1.05093   53.849
 4855.00    1.02741   1.02964   55.522
 4856.00    1.00896   1.01061   57.015
 4857.00    0.99764   0.99161   56.779
 4858.00    0.97367   0.96011   56.273
 4859.00    0.90820   0.90355   58.069
 4860.00    0.81791   0.83050   63.352
 4861.00    0.74387   0.77469   70.770
 4862.00    0.75950   0.77041   73.579
 4863.00    0.84685   0.81893   68.630
 4864.00    0.92711   0.88861   62.527
 4865.00    0.97273   0.94847   58.988
 4866.00    0.99437   0.98991   57.001
 4867.00    1.01696   1.01757   55.861
 4868.00    1.03298   1.03520   55.394
 4869.00    1.03872   1.04187   55.199
 4870.00    1.03616   1.03710   55.759
 4871.00    1.01795   1.02691   57.385
 4872.00    1.01859   1.02293   58.700
 4873.00    1.03048   1.03198   58.059
 4874.00    1.04837   1.04905   56.373
 4875.00    1.06619   1.06384   55.448
 4876.00    1.06302   1.07164   55.048
 4877.00    1.05274   1.07583   54.757
 4878.00    1.06632   1.08212   54.554
 4879.00    1.07910   1.09203   53.737
 4880.00    1.08482   1.10140   53.217
 4881.00    1.07664   1.10457   53.755
 4882.00    1.07028   1.10105   54.644
 4883.00    1.07314   1.09552   54.923
 4884.00    1.07690   1.09174   54.732
 4885.00    1.07105   1.08988   55.072
 4886.00    1.07186   1.08901   55.931
 4887.00    1.07586   1.08820   56.181
 4888.00    1.07823   1.08532   55.862
 4889.00    1.07346   1.07790   55.831
 4890.00    1.04705   1.06741   56.716
 4891.00    1.04128   1.06217   57.937
 4892.00    1.06718   1.07123   57.404
 4893.00    1.09347   1.09386   55.005
 4894.00    1.11430   1.11947   52.460
 4895.00    1.12324   1.13858   50.970
 4896.00    1.12539   1.14871   50.061
 4897.00    1.12570   1.15127   49.861
 4898.00    1.12158   1.14771   50.018
 4899.00    1.11015   1.14012   51.153
 4900.00    1.10390   1.13239   52.349
 4901.00    1.10602   1.12750   52.870
 4902.00    1.10203   1.12444   52.589
 4903.00    1.10052   1.12174   52.698
 4904.00    1.10340   1.12222   53.333
 4905.00    1.11080   1.12887   52.682
 4906.00    1.11679   1.13753   51.551
 4907.00    1.12519   1.14057   51.209
 4908.00    1.12474   1.13523   51.744
 4909.00    1.09322   1.12450   53.040
 4910.00    1.08268   1.11369   54.563
 4911.00    1.08963   1.10845   55.174
 4912.00    1.10235   1.11127   54.383
 4913.00    1.10833   1.11943   53.393
 4914.00    1.11521   1.12834   52.672
 4915.00    1.12736   1.13411   51.994
 4916.00    1.12827   1.13224   51.565
 4917.00    1.11010   1.11837   51.887
 4918.00    1.08475   1.09321   53.803
 4919.00    1.05577   1.06484   56.799
 4920.00    1.04545   1.04513   59.435
 4921.00    1.04997   1.04160   59.957
 4922.00    1.06907   1.05084   57.903
 4923.00    1.07927   1.06285   55.828
 4924.00    1.08084   1.07319   55.067
 4925.00    1.07752   1.08542   55.021
 4926.00    1.08905   1.10163   54.273
 4927.00    1.11569   1.11839   52.835
 4928.00    1.12278   1.13181   51.921
 4929.00    1.12883   1.14054   51.452
 4930.00    1.12843   1.14376   51.106
 4931.00    1.12391   1.13943   50.822
 4932.00    1.11915   1.12629   51.380
 4933.00    1.10556   1.10851   52.832
 4934.00    1.09026   1.09586   54.731
 4935.00    1.09232   1.09426   54.770
 4936.00    1.10523   1.09779   53.769
 4937.00    1.09968   1.09597   53.813
 4938.00    1.07794   1.08794   55.464
 4939.00    1.07376   1.08340   56.938
 4940.00    1.08829   1.09057   56.332
 4941.00    1.11085   1.10806   54.360
 4942.00    1.12873   1.12701   52.638
 4943.00    1.13151   1.13957   51.704
 4944.00    1.13250   1.14365   51.261
 4945.00    1.12034   1.14198   51.324
 4946.00    1.12232   1.13940   51.697
 4947.00    1.12903   1.14009   51.785
 4948.00    1.12937   1.14460   51.293
 4949.00    1.13641   1.14978   50.689
 4950.00    1.13078   1.15226   50.551
 4951.00    1.13607   1.15149   50.347
 4952.00    1.13539   1.14880   50.630
 4953.00    1.12546   1.14488   50.987
 4954.00    1.13111   1.13756   51.589
 4955.00    1.11612   1.12172   52.252
 4956.00    1.08980   1.09555   53.710
 4957.00    1.05465   1.06963   56.531
 4958.00    1.04926   1.06145   58.712
 4959.00    1.08606   1.07684   57.361
 4960.00    1.13129   1.10395   54.027
 4961.00    1.13518   1.12680   52.240
 4962.00    1.14506   1.13836   51.896
 4963.00    1.13103   1.14000   52.164
 4964.00    1.12840   1.13500   52.592
 4965.00    1.11827   1.12621   53.234
 4966.00    1.11237   1.11755   54.377
 4967.00    1.10784   1.11241   55.053
 4968.00    1.10680   1.11131   55.040
 4969.00    1.11196   1.11341   54.868
 4970.00    1.10749   1.11825   54.449
 4971.00    1.11299   1.12474   53.860
 4972.00    1.12836   1.13126   53.281
 4973.00    1.13272   1.13659   52.644
 4974.00    1.13149   1.13957   52.157
 4975.00    1.13130   1.13951   51.965
 4976.00    1.12812   1.13633   52.351
 4977.00    1.13109   1.13048   52.913
 4978.00    1.11408   1.12363   53.641
 4979.00    1.10751   1.11624   54.519
 4980.00    1.09702   1.10549   55.186
 4981.00    1.07386   1.08918   55.991
 4982.00    1.06403   1.07037   57.877
 4983.00    1.05707   1.05713   59.724
 4984.00    1.05462   1.05626   59.644
 4985.00    1.07129   1.06762   58.475
 4986.00    1.09309   1.08544   56.811
 4987.00    1.10078   1.10303   55.006
 4988.00    1.10671   1.11409   53.678
 4989.00    1.11027   1.11516   53.780
 4990.00    1.09905   1.10890   54.596
 4991.00    1.09706   1.10237   55.142
 4992.00    1.10177   1.10074   55.141
 4993.00    1.09545   1.10383   54.635
 4994.00    1.10530   1.10909   54.416
 4995.00    1.11103   1.11494   54.393
 4996.00    1.11071   1.11950   54.104
 4997.00    1.11103   1.11919   53.844
 4998.00    1.11419   1.11079   54.197
 4999.00    1.09941   1.09523   54.943
 5000.00    1.08320   1.08081   56.063
 5001.00    1.08673   1.07570   56.743
 5002.00    1.08912   1.07921   56.754
 5003.00    1.09361   1.08373   56.199
 5004.00    1.09792   1.08221   55.850
 5005.00    1.08137   1.07327   56.699
 5006.00    1.06403   1.06369   58.156
 5007.00    1.06288   1.06338   58.422
 5008.00    1.07977   1.07406   56.931
 5009.00    1.09571   1.08713   55.196
 5010.00    1.10281   1.09231   54.658
 5011.00    1.09913   1.08575   55.428
 5012.00    1.06701   1.07138   57.134
 5013.00    1.05446   1.05742   59.290
 5014.00    1.05250   1.05078   60.626
 5015.00    1.06758   1.05224   60.268
 5016.00    1.07580   1.05646   58.900
 5017.00    1.07571   1.05770   57.680
 5018.00    1.07046   1.05715   57.470
 5019.00    1.07053   1.06122   57.483
 5020.00    1.07801   1.07099   56.808
 5021.00    1.08850   1.08066   56.357
 5022.00    1.08792   1.08651   56.629
 5023.00    1.08760   1.09121   56.746
 5024.00    1.09598   1.09783   56.403
 5025.00    1.10326   1.10428   55.798
 5026.00    1.09967   1.10643   55.437
 5027.00    1.09028   1.10471   55.723
 5028.00    1.09379   1.10323   55.983
 5029.00    1.10655   1.10466   55.440
 5030.00    1.11031   1.10895   54.378
 5031.00    1.11243   1.11546   53.610
 5032.00    1.11655   1.12242   52.736
 5033.00    1.11817   1.12561   52.142
 5034.00    1.11527   1.12089   52.264
 5035.00    1.09549   1.10938   54.004
 5036.00    1.07451   1.09760   56.162
 5037.00    1.07613   1.09002   57.045
 5038.00    1.07868   1.08300   57.225
 5039.00    1.07275   1.06985   57.964
 5040.00    1.04330   1.05169   60.306
 5041.00    1.03119   1.04010   62.756
 5042.00    1.04289   1.04590   62.678
 5043.00    1.07385   1.06802   59.538
 5044.00    1.09452   1.09546   55.830
 5045.00    1.14588   1.11776   53.601
 5046.00    0.98874   1.12984   -1.000
 5047.00    0.27065   1.13035   -1.000
 5048.00    0.16669   1.12021   -1.000
 5049.00    0.14769   1.10405   -1.000
 5050.00    1.06447   1.08872  103.136
 5051.00    1.10576   1.08047   55.247
 5052.00    1.08067   1.08344   56.304
 5053.00    1.10685   1.09718   55.000
 5054.00    1.12884   1.11444   53.605
 5055.00    1.12729   1.12735   52.645
 5056.00    1.12958   1.13408   52.161
 5057.00    1.13171   1.13714   52.006
 5058.00    1.13621   1.13894   52.111
 5059.00    1.12515   1.14044   52.207
 5060.00    1.12001   1.14176   52.181
 5061.00    1.13148   1.14203   51.813
 5062.00    1.13145   1.13871   51.859
 5063.00    1.11844   1.12916   52.588
 5064.00    1.10149   1.11526   54.160
 5065.00    1.08679   1.10349   56.107
 5066.00    1.09644   1.09875   56.699
 5067.00    1.10584   1.09968   55.959
 5068.00    1.11133   1.10210   55.105
 5069.00    1.11843   1.10437   54.956
 5070.00    1.12318   1.10654   54.690
 5071.00    1.11818   1.10721   54.325
 5072.00    1.11357   1.10533   54.799
 5073.00    1.11144   1.10293   55.232
 5074.00    1.11411   1.10261   54.506
 5075.00    1.11654   1.10414   54.090
 5076.00    1.11146   1.10438   54.032
 5077.00    1.11367   1.09928   53.990
 5078.00    1.10459   1.08707   54.540
 5079.00    1.07741   1.07229   56.508
 5080.00    1.05963   1.06355   59.243
 5081.00    1.07062   1.06438   59.840
 5082.00    1.08596   1.07095   58.501
 5083.00    1.08994   1.07912   57.251
 5084.00    1.10235   1.08871   56.500
 5085.00    1.11205   1.09960   55.418
 5086.00    1.11678   1.10909   54.472
 5087.00    1.12386   1.11493   54.105
 5088.00    1.12748   1.11794   54.043
 5089.00    1.12571   1.12046   53.762
 5090.00    1.13040   1.12350   53.368
 5091.00    1.12947   1.12704   53.077
 5092.00    1.12551   1.13112   52.803
 5093.00    1.14484   1.13484   52.179
 5094.00    1.16858   1.13559   51.715
 5095.00    1.13823   1.13038   52.227
 5096.00    1.12678   1.11891   53.346
 5097.00    1.11560   1.10438   54.501
 5098.00    1.09990   1.09187   55.830
 5099.00    1.09621   1.08676   56.994
 5100.00    1.09928   1.09142   57.136
 5101.00    1.11041   1.10241   55.669
 5102.00    1.12707   1.11267   54.044
 5103.00    1.12746   1.11741   53.613
 5104.00    1.12210   1.11616   53.960
 5105.00    1.12159   1.11004   54.689
 5106.00    1.11071   1.09998   55.380
 5107.00    1.09307   1.08915   56.057
 5108.00    1.08829   1.08216   56.763
 5109.00    1.08717   1.08137   56.644
 5110.00    1.09964   1.08636   56.270
 5111.00    1.11730   1.09606   55.865
 5112.00    1.12533   1.10792   55.044
 5113.00    1.12807   1.11851   54.375
 5114.00    1.13384   1.12607   53.712
 5115.00    1.13444   1.13139   53.234
 5116.00    1.13496   1.13572   52.956
 5117.00    1.14083   1.13888   52.385
 5118.00    1.14587   1.13957   51.952
 5119.00    1.14565   1.13669   52.129
 5120.00    1.13464   1.13014   52.834
 5121.00    1.12322   1.12054   53.634
 5122.00    1.11699   1.10888   54.523
 5123.00    1.10077   1.09694   55.951
 5124.00    1.08464   1.08796   57.653
 5125.00    1.09008   1.08415   58.002
 5126.00    1.09436   1.08402   57.451
 5127.00    1.09856   1.08433   57.180
 5128.00    1.10432   1.08408   56.836
 5129.00    1.10771   1.08495   56.935
 5130.00    1.10740   1.08879   56.878
 5131.00    1.10822   1.09526   56.108
 5132.00    1.11092   1.10228   55.141
 5133.00    1.11485   1.10815   54.712
 5134.00    1.11660   1.11218   54.187
 5135.00    1.12616   1.11344   53.711
 5136.00    1.11934   1.11023   53.585
 5137.00    1.10765   1.10195   54.596
 5138.00    1.09888   1.09119   55.942
 5139.00    1.07951   1.08299   56.817
 5140.00    1.08381   1.08062   56.864
 5141.00    1.09404   1.08237   56.330
 5142.00    1.07978   1.08486   56.786
 5143.00    1.08781   1.08785   57.734
 5144.00    1.09932   1.09240   57.349
 5145.00    1.10282   1.09659   56.357
 5146.00    1.10133   1.09760   56.191
 5147.00    1.10403   1.09632   56.746
 5148.00    1.10323   1.09570   56.871
 5149.00    1.11047   1.09528   56.139
 5150.00    1.10864   1.09208   55.839
 5151.00    1.09670   1.08589   56.570
 5152.00    1.09225   1.08042   57.619
 5153.00    1.09737   1.07901   57.973
 5154.00    1.10216   1.08285   57.654
 5155.00    1.11410   1.09217   56.521
 5156.00    1.12346   1.10519   55.070
 5157.00    1.13463   1.11784   53.670
 5158.00    1.14032   1.12661   52.678
 5159.00    1.13871   1.13066   52.311
 5160.00    1.14672   1.13063   52.317
 5161.00    1.14632   1.12721   52.499
 5162.00    1.13502   1.12088   52.806
 5163.00    1.12973   1.11087   53.413
 5164.00    1.11945   1.09257   54.252
 5165.00    1.08507   1.05942   56.373
 5166.00    1.02588   1.01259   61.142
 5167.00    0.97276   0.96831   67.607
 5168.00    0.96717   0.94751   72.070
 5169.00    0.99943   0.95434   -1.000
 5170.00    1.02278   0.96873   -1.000
 5171.00    1.00983   0.96934   65.462
 5172.00    0.97510   0.95941   69.884
 5173.00    0.96563   0.96214   74.678
 5174.00    1.01344   0.99167   71.329
 5175.00    1.09019   1.03649   -1.000
 5176.00    1.12891   1.07527   -1.000
 5177.00    1.14076   1.09785   56.145
 5178.00    1.13942   1.10663   55.552
 5179.00    1.13316   1.10518   55.456
 5180.00    1.12683   1.09137   56.030
 5181.00    1.09612   1.06064   58.047
 5182.00    1.03416   1.01637   62.339
 5183.00    0.98120   0.97620   69.722
 5184.00    0.96262   0.96348   75.103
 5185.00    1.01426   0.98584   71.311
 5186.00    1.07762   1.02624   -1.000
 5187.00    1.10581   1.06035   -1.000
 5188.00    1.10815   1.07795   56.050
 5189.00    1.11084   1.08327   55.600
 5190.00    1.10996   1.08112   55.377
 5191.00    1.09048   1.07288   56.004
 5192.00    1.07214   1.06293   57.834
 5193.00    1.06787   1.05824   59.426
 5194.00    1.08467   1.06109   58.901
 5195.00    1.09473   1.06812   57.866
 5196.00    1.10003   1.07632   57.016
 5197.00    1.11529   1.08546   56.184
 5198.00    1.12155   1.09572   55.040
 5199.00    1.12188   1.10524   54.111
 5200.00    1.12162   1.11102   53.685
 5201.00    1.12339   1.11023   53.646
 5202.00    1.13234   1.10139   54.097
 5203.00    1.11804   1.08490   55.101
 5204.00    1.08988   1.06428   56.373
 5205.00    1.07217   1.04581   58.170
 5206.00    1.06525   1.03473   59.959
 5207.00    1.07873   1.03120   -1.000
 5208.00    1.08007   1.03237   -1.000
 5209.00    1.07305   1.03857   60.815
 5210.00    1.08745   1.05292   59.882
 5211.00    1.11501   1.07461   57.889
 5212.00    1.13784   1.09698   55.542
 5213.00    1.14030   1.11152   53.370
 5214.00    1.14462   1.11338   52.298
 5215.00    1.12322   1.10532   52.939
 5216.00    1.10821   1.09666   54.219
 5217.00    1.11212   1.09634   54.857
 5218.00    1.12634   1.10609   54.363
 5219.00    1.13979   1.12044   53.160
 5220.00    1.14670   1.13286   52.367
 5221.00    1.16037   1.13965   51.978
 5222.00    1.15477   1.13901   51.776
 5223.00    1.14624   1.12914   52.479
 5224.00    1.12944   1.10833   54.119
 5225.00    1.09906   1.07864   56.379
 5226.00    1.06637   1.05074   59.038
 5227.00    1.05786   1.03966   60.636
 5228.00    1.08077   1.05159   59.249
 5229.00    1.10788   1.07688   55.873
 5230.00    1.13571   1.09844   53.619
 5231.00    1.13767   1.10583   52.706
 5232.00    1.12435   1.10016   52.653
 5233.00    1.10874   1.09067   53.763
 5234.00    1.11152   1.08802   54.717
 5235.00    1.12306   1.09656   54.559
 5236.00    1.14233   1.11222   53.268
 5237.00    1.15128   1.12729   51.993
 5238.00    1.14310   1.13668   51.431
 5239.00    1.15423   1.14024   51.403
 5240.00    1.16426   1.14048   51.574
 5241.00    1.15530   1.13959   51.473
 5242.00    1.15969   1.13884   51.160
 5243.00    1.16409   1.13918   51.253
 5244.00    1.15544   1.13999   51.140
 5245.00    1.14533   1.13795   51.060
 5246.00    1.13839   1.13048   52.127
 5247.00    1.13035   1.11974   53.786
 5248.00    1.12689   1.11056   55.023
 5249.00    1.12761   1.10514   55.125
 5250.00    1.11626   1.10297   55.227
 5251.00    1.11130   1.10377   55.592
 5252.00    1.12413   1.10694   55.307
 5253.00    1.13454   1.11017   54.521
 5254.00    1.12920   1.11215   53.989
 5255.00    1.12766   1.11530   54.016
 5256.00    1.13611   1.12295   53.614
 5257.00    1.15585   1.13404   52.329
 5258.00    1.16723   1.14293   50.908
 5259.00    1.16462   1.14373   50.490
 5260.00    1.14936   1.13364   50.993
 5261.00    1.12489   1.11377   52.426
 5262.00    1.09790   1.08876   54.681
 5263.00    1.07653   1.06433   57.299
 5264.00    1.07409   1.04556   59.258
 5265.00    1.06412   1.03599   60.455
 5266.00    1.06163   1.03533   60.586
 5267.00    1.07401   1.03673   59.491
 5268.00    1.08438   1.03120   -1.000
 5269.00    1.04955   1.01912   59.781
 5270.00    1.03586   1.01367   62.236
 5271.00    1.06590   1.02634   61.098
 5272.00    1.10043   1.05172   -1.000
 5273.00    1.11747   1.07437   -1.000
 5274.00    1.11446   1.08638   54.419
 5275.00    1.11636   1.09224   54.464
 5276.00    1.12171   1.10058   54.331
 5277.00    1.13530   1.11454   53.257
 5278.00    1.15865   1.12907   51.408
 5279.00    1.16383   1.13586   50.476
 5280.00    1.15231   1.13125   50.820
 5281.00    1.13852   1.11874   52.076
 5282.00    1.12364   1.10517   53.437
 5283.00    1.11015   1.09743   54.402
 5284.00    1.11982   1.10061   54.649
 5285.00    1.13370   1.11492   53.502
 5286.00    1.15389   1.13387   51.847
 5287.00    1.17489   1.14894   50.212
 5288.00    1.16915   1.15675   49.869
 5289.00    1.16327   1.15959   50.152
 5290.00    1.16696   1.16013   50.136
 5291.00    1.17318   1.15916   49.833
 5292.00    1.17855   1.15717   49.733
 5293.00    1.16905   1.15445   50.038
 5294.00    1.16354   1.14953   50.517
 5295.00    1.15557   1.13971   51.195
 5296.00    1.13628   1.12447   52.609
 5297.00    1.11692   1.10846   54.654
 5298.00    1.10594   1.09932   56.103
 5299.00    1.11751   1.10053   55.701
 5300.00    1.13458   1.10836   54.255
 5301.00    1.13713   1.11688   53.257
 5302.00    1.14030   1.12457   52.936
 5303.00    1.14817   1.13332   52.274
 5304.00    1.16039   1.14269   50.841
 5305.00    1.16405   1.14902   49.919
 5306.00    1.15684   1.15022   49.812
 5307.00    1.14698   1.14857   50.316
 5308.00    1.15397   1.14845   50.752
 5309.00    1.16607   1.15176   50.399
 5310.00    1.16757   1.15642   49.864
 5311.00    1.17509   1.15906   49.551
 5312.00    1.17649   1.15813   49.610
 5313.00    1.16837   1.15378   49.897
 5314.00    1.16008   1.14639   50.110
 5315.00    1.14956   1.13691   50.479
 5316.00    1.14405   1.12857   50.983
 5317.00    1.13647   1.12607   51.434
 5318.00    1.15333   1.13076   51.439
 5319.00    1.16325   1.13850   51.046
 5320.00    1.16094   1.14322   50.834
 5321.00    1.15797   1.14142   51.031
 5322.00    1.14870   1.13304   51.396
 5323.00    1.14201   1.12095   52.008
 5324.00    1.12901   1.10930   52.930
 5325.00    1.12600   1.09860   53.409
 5326.00    1.12261   1.08373   53.374
 5327.00    1.08796   1.06243   54.885
 5328.00    1.05757   1.04458   58.493
 5329.00    1.06803   1.04521   60.317
 5330.00    1.10196   1.06670   57.881
 5331.00    1.13243   1.09513   54.382
 5332.00    1.14249   1.11589   52.671
 5333.00    1.14276   1.12619   52.143
 5334.00    1.15200   1.13076   51.644
 5335.00    1.15696   1.13277   51.041
 5336.00    1.15000   1.13239   50.830
 5337.00    1.14336   1.12928   51.171
 5338.00    1.14488   1.12292   51.502
 5339.00    1.13531   1.11331   52.073
 5340.00    1.11719   1.10393   53.412
 5341.00    1.11646   1.10131   54.340
 5342.00    1.13806   1.10826   53.859
 5343.00    1.15076   1.11948   52.374
 5344.00    1.15949   1.12694   51.448
 5345.00    1.15240   1.12747   51.467
 5346.00    1.15025   1.12340   51.812
 5347.00    1.14238   1.11857   52.145
 5348.00    1.13951   1.11539   52.399
 5349.00    1.13546   1.11557   52.879
 5350.00    1.13999   1.12053   52.997
 5351.00    1.15686   1.12930   52.153
 5352.00    1.16201   1.13841   50.930
 5353.00    1.15959   1.14526   50.309
 5354.00    1.16058   1.15059   50.159
 5355.00    1.17120   1.15599   49.758
 5356.00    1.17096   1.16108   49.115
 5357.00    1.17133   1.16426   48.752
 5358.00    1.17508   1.16478   48.806
 5359.00    1.17813   1.16271   48.881
 5360.00    1.17162   1.15799   49.062
 5361.00    1.16418   1.15071   49.649
 5362.00    1.16167   1.14195   50.490
 5363.00    1.14900   1.13340   51.228
 5364.00    1.13255   1.12663   51.579
 5365.00    1.13631   1.12283   51.877
 5366.00    1.13184   1.12184   52.190
 5367.00    1.13389   1.12104   52.017
 5368.00    1.13789   1.11619   52.019
 5369.00    1.12416   1.10464   52.563
 5370.00    1.11014   1.08919   53.894
 5371.00    1.10142   1.07887   55.544
 5372.00    1.10954   1.08265   55.681
 5373.00    1.13263   1.10070   53.591
 5374.00    1.15103   1.12371   51.104
 5375.00    1.16605   1.14146   49.881
 5376.00    1.17699   1.15035   49.529
 5377.00    1.17873   1.15278   49.688
 5378.00    1.17230   1.15195   49.704
 5379.00    1.16512   1.14899   49.804
 5380.00    1.16172   1.14408   50.098
 5381.00    1.15422   1.13815   50.600
 5382.00    1.14310   1.13309   51.099
 5383.00    1.14342   1.13105   51.343
 5384.00    1.15066   1.13338   51.302
 5385.00    1.16641   1.13950   51.054
 5386.00    1.17767   1.14629   50.497
 5387.00    1.16521   1.14993   50.409
 5388.00    1.16387   1.14845   50.644
 5389.00    1.16145   1.14256   51.143
 5390.00    1.15393   1.13471   51.935
 5391.00    1.14705   1.12723   52.512
 5392.00    1.14290   1.12124   52.738
 5393.00    1.14321   1.11696   52.758
 5394.00    1.14535   1.11294   52.924
 5395.00    1.13076   1.10613   53.323
 5396.00    1.12455   1.09624   54.037
 5397.00    1.11448   1.08906   55.145
 5398.00    1.12099   1.09142   55.156
 5399.00    1.14308   1.10301   -1.000
 5400.00    1.15197   1.11642   51.941
 5401.00    1.14836   1.12420   51.658
 5402.00    1.15216   1.12258   51.763
 5403.00    1.13894   1.11095   52.183
 5404.00    1.12037   1.09307   53.804
 5405.00    1.10133   1.07785   55.561
 5406.00    1.09907   1.07369   56.376
 5407.00    1.11815   1.08040   55.734
 5408.00    1.12945   1.08951   54.537
 5409.00    1.12480   1.09407   54.084
 5410.00    1.11971   1.09622   54.581
 5411.00    1.12657   1.10210   54.301
 5412.00    1.14285   1.11214   52.831
 5413.00    1.16128   1.12102   -1.000
 5414.00    1.15992   1.12545   51.085
 5415.00    1.14758   1.12785   51.129
 5416.00    1.14819   1.13177   51.152
 5417.00    1.15346   1.13687   50.757
 5418.00    1.15472   1.14047   50.437
 5419.00    1.15292   1.14143   50.658
 5420.00    1.15303   1.14053   51.170
 5421.00    1.15461   1.13829   51.471
 5422.00    1.15166   1.13428   51.250
 5423.00    1.14451   1.12884   51.046
 5424.00    1.13763   1.12492   51.786
 5425.00    1.13712   1.12629   52.252
 5426.00    1.14370   1.13194   51.672
 5427.00    1.15233   1.13425   50.787
 5428.00    1.14134   1.12702   50.974
 5429.00    1.11224   1.11406   52.416
 5430.00    1.11056   1.10539   54.108
 5431.00    1.13359   1.10507   54.167
 5432.00    1.14119   1.10726   53.169
 5433.00    1.13172   1.10512   53.168
 5434.00    1.11358   1.10009   53.948
 5435.00    1.11877   1.09981   54.567
 5436.00    1.12506   1.10893   54.348
 5437.00    1.15015   1.12466   53.245
 5438.00    1.15964   1.14044   51.766
 5439.00    1.16215   1.15165   50.691
 5440.00    1.17296   1.15795   49.990
 5441.00    1.17157   1.16096   49.581
 5442.00    1.17221   1.16080   49.504
 5443.00    1.16240   1.15517   49.503
 5444.00    1.15155   1.14159   50.039
 5445.00    1.13756   1.12127   51.396
 5446.00    1.10834   1.10172   53.543
 5447.00    1.10293   1.09285   55.304
 5448.00    1.12407   1.09896   54.854
 5449.00    1.14762   1.11478   53.054
 5450.00    1.16223   1.13055   51.577
 5451.00    1.16724   1.13926   51.105
 5452.00    1.16846   1.13849   51.123
 5453.00    1.15863   1.12853   51.570
 5454.00    1.13133   1.11263   52.792
 5455.00    1.11164   1.09875   54.322
 5456.00    1.11308   1.09647   55.494
 5457.00    1.12672   1.10841   54.651
 5458.00    1.15307   1.12666   52.728
 5459.00    1.16873   1.14023   51.299
 5460.00    1.16349   1.14379   51.031
 5461.00    1.15873   1.13874   51.651
 5462.00    1.15081   1.12998   52.635
 5463.00    1.14434   1.12335   53.341
 5464.00    1.14637   1.12271   53.625
 5465.00    1.14850   1.12749   52.937
 5466.00    1.15415   1.13404   52.321
 5467.00    1.16195   1.13950   52.082
 5468.00    1.16625   1.14319   51.493
 5469.00    1.16587   1.14505   51.286
 5470.00    1.16505   1.14457   51.784
 5471.00    1.16387   1.14167   52.327
 5472.00    1.15730   1.13702   52.505
 5473.00    1.14573   1.13078   52.777
 5474.00    1.13932   1.12185   53.323
 5475.00    1.13565   1.10997   54.087
 5476.00    1.12201   1.09893   55.256
 5477.00    1.11890   1.09552   56.113
 5478.00    1.12615   1.10258   55.574
 5479.00    1.14236   1.11452   53.846
 5480.00    1.14459   1.12289   52.836
 5481.00    1.14184   1.12527   53.267
 5482.00    1.14382   1.12594   53.935
 5483.00    1.14995   1.12959   53.817
 5484.00    1.15382   1.13629   52.858
 5485.00    1.15454   1.14204   51.771
 5486.00    1.15862   1.14327   51.332
 5487.00    1.14730   1.14022   51.850
 5488.00    1.14016   1.13625   52.603
 5489.00    1.14923   1.13450   52.900
 5490.00    1.15126   1.13572   52.905
 5491.00    1.15183   1.13858   52.523
 5492.00    1.15160   1.14119   52.140
 5493.00    1.15076   1.14230   51.952
 5494.00    1.15176   1.14140   52.073
 5495.00    1.14493   1.13803   52.091
 5496.00    1.14235   1.13248   52.082
 5497.00    1.14324   1.12725   52.473
 5498.00    1.13538   1.12537   52.842
 5499.00    1.13980   1.12612   52.545
 5500.00    1.14977   1.12543   51.942
 5501.00    1.13931   1.12175   52.377
 5502.00    1.13430   1.11862   53.233
 5503.00    1.14759   1.11905   53.310
 5504.00    1.15018   1.12042   52.860
 5505.00    1.13597   1.11833   52.756
 5506.00    1.12474   1.11340   53.489
 5507.00    1.12518   1.11109   54.016
 5508.00    1.13900   1.11490   53.503
 5509.00    1.15314   1.12175   52.632
 5510.00    1.15142   1.12546   52.417
 5511.00    1.14397   1.12321   52.774
 5512.00    1.13236   1.11732   53.826
 5513.00    1.12549   1.11247   54.714
 5514.00    1.13018   1.11212   55.193
 5515.00    1.14163   1.11675   54.520
 5516.00    1.15419   1.12462   53.557
 5517.00    1.16454   1.13339   52.748
 5518.00    1.16180   1.14106   51.753
 5519.00    1.16781   1.14611   50.896
 5520.00    1.18227   1.14810   50.780
 5521.00    1.17349   1.14812   50.861
 5522.00    1.15866   1.14767   50.963
 5523.00    1.15580   1.14667   51.142
 5524.00    1.15400   1.14285   51.228
 5525.00    1.14900   1.13368   51.540
 5526.00    1.13425   1.11944   52.248
 5527.00    1.11825   1.10504   53.465
 5528.00    1.11038   1.09781   54.853
 5529.00    1.12407   1.10208   55.150
 5530.00    1.13980   1.11489   53.937
 5531.00    1.14506   1.12784   52.499
 5532.00    1.15116   1.13407   51.828
 5533.00    1.15542   1.13295   51.944
 5534.00    1.14631   1.12888   52.439
 5535.00    1.13709   1.12702   52.693
 5536.00    1.14496   1.12944   52.508
 5537.00    1.15449   1.13437   52.071
 5538.00    1.15381   1.13910   51.947
 5539.00    1.15539   1.14271   51.719
 5540.00    1.15955   1.14537   51.210
 5541.00    1.16035   1.14644   50.804
 5542.00    1.15565   1.14498   50.833
 5543.00    1.15195   1.14180   51.366
 5544.00    1.15287   1.13931   51.887
 5545.00    1.15534   1.13913   52.017
 5546.00    1.14842   1.14105   51.868
 5547.00    1.15027   1.14442   51.751
 5548.00    1.16471   1.14888   51.422
 5549.00    1.16898   1.15312   50.909
 5550.00    1.16656   1.15525   50.483
 5551.00    1.16235   1.15461   50.370
 5552.00    1.15534   1.15207   50.644
 5553.00    1.15440   1.14894   51.089
 5554.00    1.15894   1.14647   51.680
 5555.00    1.15100   1.14557   51.925
 5556.00    1.15475   1.14613   51.845
 5557.00    1.15524   1.14722   51.679
 5558.00    1.15203   1.14819   51.592
 5559.00    1.15390   1.14888   51.527
 5560.00    1.16647   1.14861   51.472
 5561.00    1.16011   1.14638   51.584
 5562.00    1.14924   1.14255   51.852
 5563.00    1.14689   1.13883   52.385
 5564.00    1.15085   1.13635   52.750
 5565.00    1.14737   1.13463   52.898
 5566.00    1.14114   1.13282   53.005
 5567.00    1.15260   1.13067   53.059
 5568.00    1.14365   1.12850   52.946
 5569.00    1.14118   1.12676   52.834
 5570.00    1.13713   1.12528   52.991
 5571.00    1.14279   1.12318   52.950
 5572.00    1.14007   1.12083   52.956
 5573.00    1.13359   1.12033   53.114
 5574.00    1.13393   1.12289   52.883
 5575.00    1.10291   1.12733   52.312
 5576.00    1.08374   1.13180   51.873
 5577.00    1.21679   1.13577   -1.000
 5578.00    2.08267   1.13938   -1.000
 5579.00    2.19661   1.14198   -1.000
 5580.00    2.65870   1.14260   -1.000
 5581.00    2.48254   1.14153   -1.000
 5582.00    1.47015   1.14017   -1.000
 5583.00    1.12352   1.13868   52.282
 5584.00    1.16809   1.13473   52.172
 5585.00    1.14836   1.12537   52.477
 5586.00    1.12871   1.11086   53.658
 5587.00    1.11169   1.09606   55.024
 5588.00    1.10418   1.08708   56.259
 5589.00    1.10983   1.08704   56.683
 5590.00    1.12264   1.09463   56.006
 5591.00    1.13070   1.10503   54.986
 5592.00    1.13607   1.11289   54.216
 5593.00    1.13641   1.11633   54.055
 5594.00    1.13132   1.11802   54.278
 5595.00    1.13320   1.12109   53.950
 5596.00    1.14192   1.12434   53.164
 5597.00    1.14369   1.12405   52.724
 5598.00    1.13445   1.11960   53.229
 5599.00    1.12868   1.11381   54.171
 5600.00    1.13194   1.10847   54.746
 5601.00    1.12683   1.10421   54.707
 5602.00    1.11802   1.10361   55.019
 5603.00    1.11720   1.10980   55.286
 5604.00    1.13130   1.12238   54.373
 5605.00    1.15347   1.13698   52.872
 5606.00    1.17017   1.14869   51.663
 5607.00    1.17175   1.15543   51.049
 5608.00    1.16826   1.15824   50.943
 5609.00    1.16766   1.15931   51.022
 5610.00    1.16513   1.16001   51.127
 5611.00    1.16953   1.15969   51.075
 5612.00    1.16042   1.15550   50.913
 5613.00    1.15284   1.14460   51.157
 5614.00    1.13173   1.12832   52.223
 5615.00    1.11529   1.11391   54.056
 5616.00    1.11899   1.10953   55.312
 5617.00    1.13324   1.11626   54.855
 5618.00    1.14491   1.12756   53.525
 5619.00    1.16181   1.13675   52.787
 5620.00    1.16221   1.14197   52.667
 5621.00    1.15983   1.14401   52.429
 5622.00    1.15557   1.14286   52.166
 5623.00    1.14847   1.13832   52.392
 5624.00    1.13921   1.13261   53.440
 5625.00    1.14306   1.12984   54.435
 5626.00    1.15302   1.13225   54.197
 5627.00    1.16393   1.13827   53.271
 5628.00    1.16383   1.14470   52.501
 5629.00    1.16579   1.14960   51.893
 5630.00    1.16835   1.15255   51.511
 5631.00    1.16726   1.15357   51.368
 5632.00    1.16588   1.15280   51.161
 5633.00    1.16710   1.15083   51.215
 5634.00    1.16266   1.14823   51.622
 5635.00    1.16211   1.14511   51.993
 5636.00    1.16394   1.14168   52.320
 5637.00    1.15509   1.13872   52.707
 5638.00    1.15466   1.13686   53.064
 5639.00    1.15629   1.13587   53.068
 5640.00    1.15310   1.13494   53.010
 5641.00    1.14984   1.13416   53.192
 5642.00    1.14669   1.13453   53.221
 5643.00    1.15645   1.13635   53.006
 5644.00    1.16153   1.13876   52.758
 5645.00    1.15981   1.14097   52.676
 5646.00    1.16465   1.14261   52.305
 5647.00    1.16801   1.14352   52.159
 5648.00    1.16535   1.14361   52.023
 5649.00    1.16531   1.14314   51.947
 5650.00    1.15704   1.14298   52.076
 5651.00    1.16648   1.14372   52.072
 5652.00    1.17542   1.14467   51.654
 5653.00    1.17140   1.14446   51.517
 5654.00    1.15810   1.14201   51.718
 5655.00    1.14220   1.13622   52.137
 5656.00    1.14194   1.12632   52.640
 5657.00    1.13025   1.11427   53.657
 5658.00    1.11495   1.10558   55.322
 5659.00    1.11268   1.10469   56.224
 5660.00    1.12719   1.11020   55.408
 5661.00    1.13585   1.11689   54.185
 5662.00    1.14454   1.12206   53.977
 5663.00    1.14304   1.12712   54.071
 5664.00    1.15432   1.13297   53.465
 5665.00    1.15272   1.13718   52.700
 5666.00    1.14748   1.13727   52.491
 5667.00    1.15278   1.13432   52.775
 5668.00    1.14933   1.13182   53.093
 5669.00    1.14348   1.13214   53.158
 5670.00    1.14527   1.13513   53.020
 5671.00    1.15330   1.13935   52.675
 5672.00    1.15725   1.14346   52.215
 5673.00    1.16205   1.14662   51.689
 5674.00    1.16317   1.14851   51.191
 5675.00    1.16739   1.14942   51.206
 5676.00    1.16897   1.14999   51.379
 5677.00    1.16572   1.15033   51.216
 5678.00    1.16733   1.14977   51.134
 5679.00    1.16244   1.14755   51.398
 5680.00    1.16308   1.14325   51.608
 5681.00    1.15558   1.13698   51.914
 5682.00    1.14764   1.13000   52.524
 5683.00    1.14855   1.12485   53.151
 5684.00    1.14429   1.12362   53.268
 5685.00    1.14702   1.12562   52.955
 5686.00    1.14988   1.12777   52.718
 5687.00    1.14294   1.12791   52.970
 5688.00    1.14467   1.12698   53.602
 5689.00    1.15165   1.12759   53.778
 5690.00    1.14944   1.13117   53.171
 5691.00    1.15609   1.13682   52.182
 5692.00    1.16401   1.14232   51.690
 5693.00    1.16105   1.14608   51.362
 5694.00    1.16442   1.14784   51.270
 5695.00    1.16251   1.14808   51.335
 5696.00    1.15976   1.14727   51.374
 5697.00    1.15690   1.14532   51.522
 5698.00    1.15152   1.14183   52.034
 5699.00    1.14739   1.13705   52.641
 5700.00    1.14324   1.13221   53.105
 5701.00    1.14018   1.12897   53.677
 5702.00    1.14015   1.12852   53.922
 5703.00    1.14560   1.13044   53.517
 5704.00    1.14602   1.13242   52.953
 5705.00    1.14422   1.13192   52.826
 5706.00    1.13937   1.12779   53.184
 5707.00    1.12912   1.12053   53.942
 5708.00    1.12847   1.11183   54.954
 5709.00    1.11563   1.10447   55.812
 5710.00    1.10924   1.10142   56.134
 5711.00    1.11398   1.10430   55.999
 5712.00    1.12484   1.11233   55.421
 5713.00    1.14681   1.12273   54.273
 5714.00    1.15796   1.13216   52.924
 5715.00    1.15112   1.13873   52.116
 5716.00    1.15013   1.14270   51.931
 5717.00    1.15490   1.14528   51.820
 5718.00    1.16319   1.14742   51.657
 5719.00    1.15600   1.14971   51.402
 5720.00    1.16477   1.15223   51.068
 5721.00    1.16505   1.15455   50.830
 5722.00    1.16348   1.15627   50.709
 5723.00    1.16506   1.15722   50.631
 5724.00    1.17155   1.15693   50.570
 5725.00    1.16772   1.15467   50.692
 5726.00    1.16702   1.15078   51.122
 5727.00    1.16215   1.14713   51.665
 5728.00    1.15496   1.14547   52.076
 5729.00    1.15565   1.14585   51.795
 5730.00    1.15703   1.14695   51.482
 5731.00    1.15147   1.14773   51.624
 5732.00    1.15162   1.14866   51.890
 5733.00    1.15913   1.15081   51.695
 5734.00    1.15794   1.15378   51.187
 5735.00    1.15758   1.15585   50.863
 5736.00    1.16763   1.15613   50.909
 5737.00    1.16765   1.15530   50.970
 5738.00    1.16028   1.15444   51.126
 5739.00    1.16689   1.15409   51.163
 5740.00    1.16831   1.15406   51.276
 5741.00    1.16096   1.15380   51.352
 5742.00    1.15830   1.15337   51.468
 5743.00    1.15765   1.15349   51.346
 5744.00    1.15928   1.15442   51.297
 5745.00    1.16227   1.15518   50.917
 5746.00    1.16123   1.15466   50.643
 5747.00    1.15478   1.15318   50.919
 5748.00    1.15378   1.15238   51.431
 5749.00    1.16216   1.15293   51.627
 5750.00    1.16732   1.15313   51.323
 5751.00    1.15855   1.15062   51.164
 5752.00    1.15424   1.14530   51.567
 5753.00    1.14985   1.14008   52.199
 5754.00    1.14117   1.13874   52.722
 5755.00    1.15076   1.14263   52.713
 5756.00    1.15843   1.14967   52.039
 5757.00    1.16043   1.15632   51.070
 5758.00    1.16616   1.15976   50.465
 5759.00    1.16377   1.15887   50.617
 5760.00    1.16482   1.15429   51.187
 5761.00    1.16153   1.14809   51.860
 5762.00    1.15449   1.14338   52.571
 5763.00    1.14551   1.14316   52.836
 5764.00    1.15143   1.14782   52.270
 5765.00    1.14958   1.15446   51.333
 5766.00    1.16140   1.15953   50.704
 5767.00    1.16940   1.16172   50.543
 5768.00    1.16790   1.16185   50.492
 5769.00    1.16096   1.16103   50.406
 5770.00    1.15966   1.15975   50.508
 5771.00    1.16510   1.15801   50.676
 5772.00    1.16298   1.15575   50.958
 5773.00    1.15331   1.15313   51.275
 5774.00    1.15376   1.15072   51.404
 5775.00    1.15805   1.14935   51.468
 5776.00    1.15922   1.14915   51.361
 5777.00    1.15139   1.14869   51.103
 5778.00    1.15069   1.14608   51.053
 5779.00    1.13638   1.14090   51.212
 5780.00    1.11939   1.13442   51.953
 5781.00    1.11142   1.12875   53.129
 5782.00    1.11433   1.12567   53.830
 5783.00    1.12461   1.12547   53.745
 5784.00    1.13122   1.12699   53.534
 5785.00    1.13623   1.12922   53.342
 5786.00    1.14426   1.13225   53.147
 5787.00    1.15631   1.13624   52.559
 5788.00    1.15661   1.14016   51.860
 5789.00    1.15455   1.14255   51.457
 5790.00    1.15495   1.14314   51.507
 5791.00    1.15095   1.14342   51.739
 5792.00    1.15497   1.14536   51.668
 5793.00    1.15910   1.14938   51.245
 5794.00    1.15919   1.15399   50.893
 5795.00    1.16145   1.15701   50.585
 5796.00    1.15614   1.15722   50.544
 5797.00    1.15857   1.15561   50.842
 5798.00    1.15829   1.15475   51.169
 5799.00    1.16887   1.15625   50.938
 5800.00    1.17433   1.15938   50.293
 5801.00    1.17056   1.16222   49.601
 5802.00    1.17186   1.16317   49.472
 5803.00    1.17172   1.16181   49.877
 5804.00    1.17151   1.15924   50.269
 5805.00    1.16363   1.15736   50.680
 5806.00    1.16781   1.15729   50.910
 5807.00    1.17232   1.15862   50.801
 5808.00    1.16557   1.16023   50.610
 5809.00    1.17906   1.16146   50.458
 5810.00    1.17574   1.16236   50.452
 5811.00    1.17460   1.16296   50.405
 5812.00    1.17739   1.16282   50.217
 5813.00    1.18322   1.16138   50.068
 5814.00    1.17990   1.15863   50.161
 5815.00    1.17514   1.15566   50.574
 5816.00    1.18226   1.15434   50.813
 5817.00    1.18173   1.15582   50.566
 5818.00    1.17620   1.15922   50.217
 5819.00    1.18023   1.16246   49.941
 5820.00    1.18281   1.16430   49.694
 5821.00    1.18831   1.16488   49.526
 5822.00    1.18474   1.16483   49.600
 5823.00    1.18301   1.16453   49.775
 5824.00    1.18388   1.16421   49.693
 5825.00    1.18585   1.16425   49.619
 5826.00    1.18378   1.16488   49.526
 5827.00    1.18232   1.16594   49.478
 5828.00    1.18537   1.16705   49.490
 5829.00    1.17615   1.16775   49.588
 5830.00    1.17125   1.16782   49.494
 5831.00    1.17821   1.16733   49.505
 5832.00    1.18537   1.16633   49.438
 5833.00    1.18667   1.16487   49.533
 5834.00    1.18527   1.16344   49.861
 5835.00    1.18340   1.16286   49.950
 5836.00    1.18594   1.16347   49.790
 5837.00    1.18515   1.16480   49.689
 5838.00    1.18111   1.16620   49.844
 5839.00    1.18309   1.16737   49.960
 5840.00    1.18121   1.16818   49.808
 5841.00    1.18093   1.16840   49.444
 5842.00    1.18390   1.16775   49.182
 5843.00    1.17895   1.16619   49.186
 5844.00    1.17817   1.16397   49.347
 5845.00    1.18168   1.16140   49.539
 5846.00    1.17440   1.15890   49.868
 5847.00    1.17078   1.15701   50.119
 5848.00    1.17395   1.15589   50.367
 5849.00    1.17662   1.15483   50.319
 5850.00    1.18009   1.15261   50.396
 5851.00    1.18306   1.14841   50.679
 5852.00    1.17615   1.14287   50.997
 5853.00    1.16604   1.13792   51.497
 5854.00    1.16213   1.13457   51.752
 5855.00    1.15004   1.13131   51.845
 5856.00    1.15337   1.12626   51.900
 5857.00    1.15263   1.12077   52.422
 5858.00    1.14114   1.11890   52.911
 5859.00    1.14942   1.12260   52.573
 5860.00    1.17032   1.12956   -1.000
 5861.00    1.17030   1.13613   51.480
 5862.00    1.17725   1.14060   -1.000
 5863.00    1.17914   1.14317   -1.000
 5864.00    1.17644   1.14399   51.012
 5865.00    1.16948   1.14288   51.146
 5866.00    1.16582   1.14081   51.325
 5867.00    1.16891   1.13999   51.576
 5868.00    1.17896   1.14187   -1.000
 5869.00    1.17991   1.14576   51.055
 5870.00    1.18759   1.14953   -1.000
 5871.00    1.18202   1.15133   50.395
 5872.00    1.17869   1.15076   50.380
 5873.00    1.17707   1.14868   50.513
 5874.00    1.18081   1.14623   50.524
 5875.00    1.17598   1.14413   50.450
 5876.00    1.17244   1.14256   50.591
 5877.00    1.17922   1.14095   -1.000
 5878.00    1.17952   1.13858   -1.000
 5879.00    1.17532   1.13559   -1.000
 5880.00    1.17333   1.13264   -1.000
 5881.00    1.17148   1.12993   -1.000
 5882.00    1.16604   1.12686   -1.000
 5883.00    1.16657   1.12304   -1.000
 5884.00    1.16519   1.11857   -1.000
 5885.00    1.15582   1.11252   -1.000
 5886.00    1.15107   1.10068   -1.000
 5887.00    1.13562   1.07714   -1.000
 5888.00    1.08560   1.04210   -1.000
 5889.00    1.02039   1.00783   57.911
 5890.00    1.01954   0.99119   61.601
 5891.00    1.08758   0.99755   -1.000
 5892.00    1.19599   1.01498   -1.000
 5893.00    1.16089   1.02594   -1.000
 5894.00    1.07406   1.02265   -1.000
 5895.00    1.06251   1.01229   -1.000
 5896.00    1.03032   1.00913   59.891
 5897.00    1.07438   1.02085   -1.000
 5898.00    1.15967   1.04286   -1.000
 5899.00    1.19907   1.06594   -1.000
 5900.00    1.17963   1.08504   -1.000
 5901.00    1.16293   1.09970   -1.000
 5902.00    1.15247   1.11045   -1.000
 5903.00    1.15313   1.11755   51.907
 5904.00    1.15597   1.12170   51.847
 5905.00    1.15391   1.12406   51.836
 5906.00    1.15792   1.12568   51.916
 5907.00    1.16577   1.12712   -1.000
 5908.00    1.16810   1.12858   -1.000
 5909.00    1.16377   1.12991   51.673
 5910.00    1.15863   1.13052   51.844
 5911.00    1.15361   1.12960   51.924
 5912.00    1.16263   1.12654   -1.000
 5913.00    1.15247   1.12164   52.170
 5914.00    1.14635   1.11660   52.914
 5915.00    1.14417   1.11356   53.324
 5916.00    1.15097   1.11346   -1.000
 5917.00    1.15563   1.11597   -1.000
 5918.00    1.16158   1.11990   -1.000
 5919.00    1.15982   1.12365   -1.000
 5920.00    1.15110   1.12600   52.384
 5921.00    1.14907   1.12691   52.189
 5922.00    1.15132   1.12717   52.202
 5923.00    1.14555   1.12780   52.252
 5924.00    1.15407   1.12941   52.048
 5925.00    1.15583   1.13168   51.882
 5926.00    1.15774   1.13350   51.786
 5927.00    1.16009   1.13352   51.747
 5928.00    1.16545   1.13118   51.841
 5929.00    1.15626   1.12785   52.212
 5930.00    1.14413   1.12605   52.623
 5931.00    1.14211   1.12682   52.587
 5932.00    1.15000   1.12870   52.078
 5933.00    1.15506   1.12970   51.828
 5934.00    1.14498   1.12953   52.196
 5935.00    1.15140   1.12959   52.563
 5936.00    1.15974   1.13088   52.652
 5937.00    1.15953   1.13257   52.328
 5938.00    1.15720   1.13284   51.883
 5939.00    1.15456   1.13087   51.682
 5940.00    1.15517   1.12763   51.861
 5941.00    1.15264   1.12483   52.392
 5942.00    1.14529   1.12361   52.689
 5943.00    1.14313   1.12435   52.661
 5944.00    1.14900   1.12645   52.357
 5945.00    1.15630   1.12831   52.049
 5946.00    1.15018   1.12844   51.842
 5947.00    1.14513   1.12677   51.979
 5948.00    1.13897   1.12502   52.440
 5949.00    1.13533   1.12487   52.996
 5950.00    1.14510   1.12609   53.126
 5951.00    1.14564   1.12716   52.865
 5952.00    1.14273   1.12731   52.664
 5953.00    1.14826   1.12691   52.792
 5954.00    1.15592   1.12625   52.754
 5955.00    1.16385   1.12509   -1.000
 5956.00    1.15524   1.12375   52.664
 5957.00    1.14641   1.12357   52.878
 5958.00    1.14709   1.12550   52.958
 5959.00    1.14518   1.12918   52.759
 5960.00    1.14990   1.13326   52.160
 5961.00    1.15226   1.13645   51.654
 5962.00    1.15493   1.13798   51.443
 5963.00    1.14953   1.13762   51.383
 5964.00    1.14486   1.13574   51.498
 5965.00    1.14674   1.13331   51.781
 5966.00    1.14783   1.13166   51.958
 5967.00    1.14963   1.13154   52.147
 5968.00    1.15039   1.13275   52.035
 5969.00    1.14839   1.13465   51.643
 5970.00    1.14974   1.13662   51.509
 5971.00    1.15131   1.13804   51.493
 5972.00    1.14902   1.13838   51.383
 5973.00    1.15383   1.13737   51.324
 5974.00    1.15477   1.13484   51.594
 5975.00    1.14723   1.13104   52.003
 5976.00    1.14738   1.12721   52.401
 5977.00    1.14219   1.12520   52.776
 5978.00    1.14087   1.12607   53.017
 5979.00    1.14761   1.12911   52.794
 5980.00    1.14690   1.13217   52.346
 5981.00    1.14747   1.13300   52.138
 5982.00    1.14144   1.13075   52.254
 5983.00    1.14814   1.12669   52.674
 5984.00    1.14765   1.12340   53.138
 5985.00    1.13781   1.12283   53.408
 5986.00    1.14394   1.12487   53.231
 5987.00    1.14335   1.12793   52.682
 5988.00    1.14503   1.13053   52.357
 5989.00    1.14764   1.13203   52.179
 5990.00    1.15074   1.13265   51.927
 5991.00    1.14364   1.13346   51.995
 5992.00    1.14041   1.13564   52.117
 5993.00    1.13888   1.13895   51.873
 5994.00    1.14438   1.14155   51.442
 5995.00    1.14968   1.14173   51.287
 5996.00    1.14297   1.13973   51.627
 5997.00    1.14113   1.13729   51.990
 5998.00    1.13910   1.13594   52.223
 5999.00    1.14675   1.13576   52.336
 6000.00    1.15372   1.13556   52.249
 6001.00    1.14537   1.13440   52.293
 6002.00    1.13749   1.13252   52.597
 6003.00    1.13373   1.13091   52.777
 6004.00    1.13575   1.12992   52.766
 6005.00    1.13369   1.12854   52.625
 6006.00    1.13273   1.12571   52.652
 6007.00    1.12893   1.12232   53.021
 6008.00    1.12982   1.12094   53.553
 6009.00    1.13252   1.12308   53.571
 6010.00    1.13272   1.12724   52.977
 6011.00    1.13111   1.13039   52.421
 6012.00    1.13051   1.13117   52.422
 6013.00    1.13284   1.13058   52.815
 6014.00    1.13851   1.12999   53.100
 6015.00    1.13984   1.12961   52.858
 6016.00    1.13445   1.12896   52.836
 6017.00    1.12978   1.12777   53.061
 6018.00    1.13057   1.12603   53.172
 6019.00    1.13053   1.12394   53.043
 6020.00    1.12860   1.12211   53.191
 6021.00    1.12532   1.12125   53.526
 6022.00    1.12554   1.12162   53.347
 6023.00    1.13378   1.12312   52.986
 6024.00    1.13090   1.12581   52.861
 6025.00    1.12638   1.12956   52.793
 6026.00    1.13242   1.13351   52.486
 6027.00    1.13029   1.13680   52.322
 6028.00    1.12701   1.13931   51.998
 6029.00    1.13676   1.14119   51.766
 6030.00    1.14276   1.14248   51.689
 6031.00    1.14067   1.14334   51.699
 6032.00    1.13986   1.14409   51.816
 6033.00    1.14677   1.14502   51.733
 6034.00    1.14561   1.14617   51.506
 6035.00    1.14518   1.14701   51.371
 6036.00    1.14824   1.14675   51.344
 6037.00    1.14324   1.14518   51.251
 6038.00    1.13427   1.14277   51.300
 6039.00    1.13254   1.14019   51.584
 6040.00    1.13198   1.13774   51.700
 6041.00    1.12772   1.13510   51.860
 6042.00    1.13575   1.13252   51.763
 6043.00    1.14140   1.13232   51.689
 6044.00    1.13720   1.13612   51.433
 6045.00    1.13325   1.14179   51.027
 6046.00    1.13583   1.14610   51.034
 6047.00    1.13210   1.14815   51.051
 6048.00    1.13474   1.14869   50.971
 6049.00    1.13582   1.14837   51.013
 6050.00    1.13472   1.14768   51.188
 6051.00    1.13713   1.14690   51.307
 6052.00    1.13066   1.14585   51.356
 6053.00    1.13483   1.14412   51.451
 6054.00    1.12949   1.14171   51.657
 6055.00    1.12409   1.13919   51.818
 6056.00    1.12793   1.13748   52.100
 6057.00    1.13251   1.13714   52.266
 6058.00    1.13476   1.13808   52.190
 6059.00    1.13948   1.13964   51.921
 6060.00    1.13492   1.14074   51.652
 6061.00    1.13232   1.13998   51.695
 6062.00    1.14167   1.13633   51.812
 6063.00    1.10966   1.13013   52.520
 6064.00    1.10508   1.12374   53.541
 6065.00    1.01819   1.12067   -1.000
 6066.00    0.98631   1.12304   -1.000
 6067.00    1.05559   1.12956   18.284
 6068.00    1.09172   1.13681   38.453
 6069.00    1.10204   1.14226   53.240
 6070.00    1.12197   1.14547   51.797
 6071.00    0.50037   1.14710   -1.000
 6072.00    0.74452   1.14789   -1.000
 6073.00    1.11481   1.14820   50.765
 6074.00    1.13799   1.14781   51.188
 6075.00    1.13449   1.14628   51.248
 6076.00    1.13000   1.14353   51.412
 6077.00    1.11829   1.14025   51.675
 6078.00    1.11553   1.13743   51.970
 6079.00    1.11294   1.13550   52.368
 6080.00    1.11679   1.13404   52.695
 6081.00    1.12142   1.13248   52.743
 6082.00    1.12359   1.13095   52.787
 6083.00    1.11852   1.13011   52.933
 6084.00    1.11575   1.13031   52.941
 6085.00    1.11550   1.13142   52.902
 6086.00    1.11906   1.13311   52.847
 6087.00    1.12427   1.13480   52.700
 6088.00    1.11705   1.13560   52.491
 6089.00    1.11411   1.13493   52.570
 6090.00    1.11453   1.13322   52.879
 6091.00    1.11089   1.13182   53.112
 6092.00    1.11179   1.13198   53.102
 6093.00    1.11250   1.13379   52.781
 6094.00    1.11280   1.13645   52.509
 6095.00    1.11737   1.13911   52.215
 6096.00    1.12114   1.14137   51.983
 6097.00    1.11998   1.14289   51.984
 6098.00    1.12063   1.14279   52.109
 6099.00    1.11920   1.13952   52.151
 6100.00    1.10590   1.13184   52.156
 6101.00    1.09431   1.12082   52.731
 6102.00    1.08914   1.11093   53.985
 6103.00    1.08513   1.10744   54.898
 6104.00    1.09191   1.11173   54.598
 6105.00    1.10560   1.12023   53.589
 6106.00    1.11230   1.12838   52.758
 6107.00    1.10874   1.13426   52.529
 6108.00    1.10554   1.13814   52.706
 6109.00    1.10926   1.14049   52.846
 6110.00    1.11290   1.14130   52.835
 6111.00    1.11579   1.14099   52.726
 6112.00    1.11204   1.14063   52.502
 6113.00    1.11062   1.14097   52.472
 6114.00    1.11164   1.14175   52.217
 6115.00    1.11008   1.14220   52.075
 6116.00    1.11247   1.14185   52.252
 6117.00    1.11361   1.14005   52.591
 6118.00    1.11059   1.13538   52.689
 6119.00    1.10050   1.12681   52.926
 6120.00    1.09359   1.11531   53.655
 6121.00    1.08071   1.10450   54.366
 6122.00    1.07727   1.09944   54.898
 6123.00    1.08456   1.10258   54.982
 6124.00    1.09471   1.11108   54.163
 6125.00    1.09759   1.11984   53.439
 6126.00    1.09770   1.12565   53.367
 6127.00    1.09740   1.12824   53.659
 6128.00    1.09823   1.12961   53.628
 6129.00    1.10222   1.13220   53.509
 6130.00    1.10400   1.13649   53.099
 6131.00    1.10787   1.14062   52.599
 6132.00    1.10806   1.14202   52.455
 6133.00    1.10432   1.13826   52.543
 6134.00    1.08604   1.12763   53.008
 6135.00    1.07394   1.11151   54.153
 6136.00    1.05593   1.09611   55.739
 6137.00    1.04860   1.08886   57.169
 6138.00    1.05929   1.09144   57.449
 6139.00    1.07744   1.09845   56.134
 6140.00    1.08263   1.10405   54.540
 6141.00    1.07856   1.10801   53.851
 6142.00    1.08224   1.11344   53.895
 6143.00    1.08522   1.12105   53.992
 6144.00    1.09056   1.12810   53.502
 6145.00    1.09331   1.13179   52.860
 6146.00    1.09993   1.13172   52.729
 6147.00    1.09714   1.12919   52.951
 6148.00    1.08786   1.12582   53.284
 6149.00    1.08857   1.12300   53.667
 6150.00    1.08302   1.12180   53.988
 6151.00    1.07906   1.12260   54.019
 6152.00    1.08642   1.12442   53.835
 6153.00    1.08929   1.12536   53.471
 6154.00    1.08885   1.12437   53.376
 6155.00    1.09761   1.12219   53.787
 6156.00    1.09125   1.11993   54.087
 6157.00    1.08694   1.11745   54.144
 6158.00    1.08305   1.11277   54.350
 6159.00    1.07274   1.10305   54.899
 6160.00    1.06230   1.08757   55.911
 6161.00    1.04786   1.07059   57.559
 6162.00    1.03208   1.05949   59.248
 6163.00    1.03477   1.05870   59.925
 6164.00    1.04990   1.06616   59.156
 6165.00    1.05927   1.07607   57.567
 6166.00    1.06264   1.08336   56.613
 6167.00    1.06760   1.08576   56.324
 6168.00    1.05694   1.08399   56.442
 6169.00    1.05030   1.08163   57.131
 6170.00    1.04964   1.08273   57.733
 6171.00    1.06301   1.08822   57.397
 6172.00    1.07172   1.09566   56.330
 6173.00    1.07021   1.10239   55.508
 6174.00    1.07615   1.10738   55.490
 6175.00    1.07362   1.11060   55.546
 6176.00    1.06350   1.11245   55.424
 6177.00    1.06776   1.11359   55.313
 6178.00    1.07619   1.11450   55.168
 6179.00    1.07892   1.11543   54.905
 6180.00    1.07588   1.11675   54.698
 6181.00    1.07045   1.11856   54.523
 6182.00    1.07578   1.12022   54.275
 6183.00    1.08310   1.12084   54.127
 6184.00    1.08024   1.12004   54.215
 6185.00    1.07869   1.11782   54.403
 6186.00    1.07616   1.11438   54.817
 6187.00    1.07288   1.10986   55.408
 6188.00    1.07117   1.10391   55.985
 6189.00    1.06368   1.09621   56.521
 6190.00    1.05433   1.08841   56.940
 6191.00    1.04741   1.08441   57.659
 6192.00    1.04984   1.08701   58.067
 6193.00    1.06166   1.09484   57.504
 6194.00    1.06798   1.10380   56.125
 6195.00    1.06895   1.11070   55.160
 6196.00    1.06970   1.11441   54.778
 6197.00    1.06459   1.11480   54.680
 6198.00    1.06519   1.11256   55.001
 6199.00    1.06406   1.10977   55.625
 6200.00    1.05927   1.10904   56.098
 6201.00    1.06047   1.11131   56.088
 6202.00    1.06749   1.11538   55.557
 6203.00    1.06443   1.11939   54.864
 6204.00    1.06435   1.12227   54.661
 6205.00    1.06502   1.12393   54.660
 6206.00    1.06608   1.12485   54.577
 6207.00    1.06692   1.12530   54.565
 6208.00    1.06932   1.12502   54.760
 6209.00    1.07439   1.12340   54.777
 6210.00    1.07618   1.11990   54.994
 6211.00    1.07170   1.11433   55.481
 6212.00    1.06478   1.10729   55.924
 6213.00    1.05586   1.10050   56.461
 6214.00    1.04943   1.09589   57.300
 6215.00    1.04678   1.09398   57.908
 6216.00    1.04814   1.09355   58.095
 6217.00    1.04927   1.09289   57.408
 6218.00    1.05240   1.09152   57.077
 6219.00    1.04826   1.09058   57.457
 6220.00    1.04699   1.09153   57.312
 6221.00    1.05930   1.09443   56.895
 6222.00    1.03725   1.09775   57.176
 6223.00    0.97560   1.10010   -1.000
 6224.00    1.04502   1.10136   59.742
 6225.00    1.06950   1.10180   56.924
 6226.00    1.06322   1.10092   56.542
 6227.00    1.05960   1.09742   56.600
 6228.00    1.05117   1.09047   56.889
 6229.00    1.04798   1.08146   57.628
 6230.00    1.03858   1.07414   58.578
 6231.00    1.03274   1.07226   59.350
 6232.00    1.03266   1.07672   59.193
 6233.00    1.04257   1.08505   58.385
 6234.00    1.05370   1.09327   57.296
 6235.00    1.06311   1.09822   56.347
 6236.00    1.06224   1.09894   56.024
 6237.00    1.06403   1.09650   56.345
 6238.00    1.06673   1.09298   56.907
 6239.00    1.05762   1.09007   57.486
 6240.00    1.05603   1.08820   58.097
 6241.00    1.04863   1.08647   58.378
 6242.00    1.04604   1.08363   58.377
 6243.00    1.03858   1.07940   58.756
 6244.00    1.03986   1.07503   59.156
 6245.00    1.03914   1.07274   59.161
 6246.00    1.03068   1.07450   58.812
 6247.00    1.03314   1.08032   58.246
 6248.00    1.04029   1.08758   57.517
 6249.00    1.04542   1.09231   56.901
 6250.00    1.04800   1.09173   56.788
 6251.00    1.03294   1.08610   57.260
 6252.00    1.02019   1.07862   58.274
 6253.00    1.01519   1.07299   59.041
 6254.00    1.01323   1.07069   59.473
 6255.00    1.01574   1.07071   59.661
 6256.00    1.01369   1.07137   59.655
 6257.00    1.01459   1.07223   60.131
 6258.00    1.01968   1.07420   60.679
 6259.00    1.03095   1.07806   60.510
 6260.00    1.03901   1.08351   59.657
 6261.00    1.04438   1.08944   58.752
 6262.00    1.03854   1.09451   57.947
 6263.00    1.03815   1.09763   57.062
 6264.00    1.03631   1.09881   56.706
 6265.00    1.03786   1.09937   57.081
 6266.00    1.03728   1.10040   57.481
 6267.00    1.04150   1.10149   57.297
 6268.00    1.03939   1.10145   56.887
 6269.00    1.03612   1.10017   57.013
 6270.00    1.02919   1.09874   57.303
 6271.00    1.02799   1.09781   57.272
 6272.00    1.03306   1.09650   57.082
 6273.00    1.03394   1.09302   56.939
 6274.00    1.03208   1.08630   57.056
 6275.00    1.03104   1.07716   57.444
 6276.00    1.01180   1.06783   57.907
 6277.00    0.99167   1.06050   58.780
 6278.00    0.96700   1.05640   -1.000
 6279.00    0.94487   1.05578   -1.000
 6280.00    0.93860   1.05873   -1.000
 6281.00    0.94241   1.06501   -1.000
 6282.00    0.95273   1.07355   -1.000
 6283.00    0.95652   1.08253   -1.000
 6284.00    0.96430   1.09020   -1.000
 6285.00    0.97137   1.09566   -1.000
 6286.00    0.98539   1.09898   -1.000
 6287.00    0.99979   1.10036   -1.000
 6288.00    1.01254   1.09977   -1.000
 6289.00    1.01660   1.09749   -1.000
 6290.00    1.01294   1.09460   -1.000
 6291.00    1.01409   1.09229   -1.000
 6292.00    1.01290   1.09089   -1.000
 6293.00    1.00713   1.08985   -1.000
 6294.00    1.00457   1.08818   -1.000
 6295.00    1.00656   1.08527   -1.000
 6296.00    1.00535   1.08157   -1.000
 6297.00    0.98879   1.07840   -1.000
 6298.00    0.97247   1.07660   -1.000
 6299.00    0.96029   1.07562   -1.000
 6300.00    0.93426   1.07470   -1.000
 6301.00    0.90789   1.07455   -1.000
 6302.00    0.92431   1.07687   -1.000
 6303.00    0.97369   1.08201   -1.000
 6304.00    1.00585   1.08824   -1.000
 6305.00    1.01732   1.09357   -1.000
 6306.00    1.01929   1.09735   -1.000
 6307.00    1.02360   1.09993   56.881
 6308.00    1.03065   1.10155   56.370
 6309.00    1.03122   1.10226   56.220
 6310.00    1.02549   1.10205   56.429
 6311.00    1.01744   1.10089   -1.000
 6312.00    1.01141   1.09881   -1.000
 6313.00    1.00993   1.09595   -1.000
 6314.00    1.00937   1.09271   -1.000
 6315.00    1.00156   1.08964   -1.000
 6316.00    0.99578   1.08711   -1.000
 6317.00    0.99933   1.08565   -1.000
 6318.00    1.00132   1.08633   -1.000
 6319.00    1.00165   1.08963   -1.000
 6320.00    1.00571   1.09442   -1.000
 6321.00    1.01129   1.09903   -1.000
 6322.00    1.01569   1.10302   -1.000
 6323.00    1.01895   1.10673   -1.000
 6324.00    1.02103   1.10991   -1.000
 6325.00    1.02151   1.11180   -1.000
 6326.00    1.02549   1.11226   -1.000
 6327.00    1.03167   1.11189   -1.000
 6328.00    1.02630   1.11147   -1.000
 6329.00    1.01982   1.11151   -1.000
 6330.00    1.02419   1.11216   -1.000
 6331.00    1.02895   1.11277   -1.000
 6332.00    1.03304   1.11178   55.369
 6333.00    1.03136   1.10782   55.257
 6334.00    1.03512   1.10144   55.374
 6335.00    1.03040   1.09547   55.519
 6336.00    1.00652   1.09303   -1.000
 6337.00    1.00556   1.09500   -1.000
 6338.00    1.01819   1.09972   -1.000
 6339.00    1.02535   1.10491   -1.000
 6340.00    1.02810   1.10896   -1.000
 6341.00    1.03270   1.11099   55.061
 6342.00    1.02998   1.11075   -1.000
 6343.00    1.02599   1.10896   -1.000
 6344.00    1.02951   1.10703   55.225
 6345.00    1.02623   1.10636   -1.000
 6346.00    1.02606   1.10766   -1.000
 6347.00    1.02907   1.11085   -1.000
 6348.00    1.03003   1.11510   -1.000
 6349.00    1.03681   1.11904   54.359
 6350.00    1.03663   1.12134   -1.000
 6351.00    1.02957   1.12136   -1.000
 6352.00    1.02681   1.11922   -1.000
 6353.00    1.02623   1.11576   -1.000
 6354.00    1.02450   1.11222   -1.000
 6355.00    1.02513   1.10945   -1.000
 6356.00    1.02628   1.10724   -1.000
 6357.00    1.02765   1.10489   -1.000
 6358.00    1.02407   1.10229   -1.000
 6359.00    1.01708   1.09994   -1.000
 6360.00    1.01392   1.09809   -1.000
 6361.00    1.01513   1.09668   -1.000
 6362.00    1.00809   1.09611   -1.000
 6363.00    0.99720   1.09703   -1.000
 6364.00    0.99296   1.09942   -1.000
 6365.00    0.99177   1.10255   -1.000
 6366.00    0.99996   1.10561   -1.000
 6367.00    1.01388   1.10791   -1.000
 6368.00    1.01983   1.10894   -1.000
 6369.00    1.02307   1.10880   -1.000
 6370.00    1.01652   1.10846   -1.000
 6371.00    1.01495   1.10907   -1.000
 6372.00    1.01897   1.11095   -1.000
 6373.00    1.02401   1.11328   -1.000
 6374.00    1.02146   1.11479   -1.000
 6375.00    1.01274   1.11482   -1.000
 6376.00    1.01231   1.11356   -1.000
 6377.00    1.00990   1.11157   -1.000
 6378.00    1.00422   1.10928   -1.000
 6379.00    1.00456   1.10698   -1.000
 6380.00    1.00309   1.10498   -1.000
 6381.00    1.00072   1.10368   -1.000
 6382.00    0.99715   1.10332   -1.000
 6383.00    0.99932   1.10382   -1.000
 6384.00    0.99599   1.10497   -1.000
 6385.00    0.98957   1.10655   -1.000
 6386.00    0.99150   1.10814   -1.000
 6387.00    0.99217   1.10915   -1.000
 6388.00    0.98462   1.10912   -1.000
 6389.00    0.98048   1.10768   -1.000
 6390.00    0.97421   1.10436   -1.000
 6391.00    0.96889   1.09917   -1.000
 6392.00    0.95823   1.09382   -1.000
 6393.00    0.94409   1.09124   -1.000
 6394.00    0.93930   1.09309   -1.000
 6395.00    0.94307   1.09781   -1.000
 6396.00    0.94279   1.10157   -1.000
 6397.00    0.94220   1.10119   -1.000
 6398.00    0.93943   1.09676   -1.000
 6399.00    0.93065   1.09180   -1.000
 6400.00    0.91793   1.09057   -1.000
 6401.00    0.91214   1.09462   -1.000
 6402.00    0.92333   1.10182   -1.000
 6403.00    0.93014   1.10846   -1.000
 6404.00    0.92607   1.11167   -1.000
 6405.00    0.91497   1.11059   -1.000
 6406.00    0.91005   1.10628   -1.000
 6407.00    0.90034   1.10122   -1.000
 6408.00    0.88790   1.09808   -1.000
 6409.00    0.88778   1.09781   -1.000
 6410.00    0.88238   1.09904   -1.000
 6411.00    0.86797   1.10023   -1.000
 6412.00    0.86226   1.10135   -1.000
 6413.00    0.86911   1.10284   -1.000
 6414.00    0.86660   1.10448   -1.000
 6415.00    0.86217   1.10589   -1.000
 6416.00    0.85250   1.10667   -1.000
 6417.00    0.84707   1.10597   -1.000
 6418.00    0.84143   1.10300   -1.000
 6419.00    0.83638   1.09849   -1.000
 6420.00    0.81834   1.09503   -1.000
 6421.00    0.80785   1.09531   -1.000
 6422.00    0.80103   1.09984   -1.000
 6423.00    0.80987   1.10652   -1.000
 6424.00    0.80626   1.11269   -1.000
 6425.00    0.79913   1.11693   -1.000
 6426.00    0.79170   1.11868   -1.000
 6427.00    0.77887   1.11717   -1.000
 6428.00    0.77017   1.11207   -1.000
