###################################################################
## OUTPUT of StarlightChains_v04.for    [Cid@UFSC - 01/Apr/2007] ##
###################################################################

## Some input info
NGC6171_a_1.cxt                          [arq_obs]
Base.BC03.S                              [arq_base]
NGC6171_a_1.msk                          [arq_masks]
StCv04.C11.config                        [arq_config]
  150                                    [N_base]
    0                                    [N_YAV_components = # of components with extra extinction!]
    0                                    [i_FitPowerLaw (1/0 = Yes/No)]
-9.99                                    [alpha_PowerLaw]
CCM                                      [red_law_option]
 1.458241                                [q_norm = A(l_norm)/A(V)]

## (Re)Sampling Parameters
 3359.00                                 [l_ini (A)]
 6428.00                                 [l_fin (A)]
    1.00                                 [dl    (A)]     (OBS: dl_cushion =    50.00 A)

## Normalization info
 4020.00                                 [l_norm (A) - for base]
 4010.00                                 [llow_norm (A) - window for f_obs]
 4060.00                                 [lupp_norm (A) - window for f_obs]
4.369149E-15                             [fobs_norm (in input units)]

## S/N
 4730.00                                 [llow_SN (A) - window for S/N]
 4780.00                                 [lupp_SN (A) - window for S/N]
  52.314                                 [S/N in S/N window]
  35.378                                 [S/N in norm. window]
 244.302                                 [S/N_err in S/N window]
 165.214                                 [S/N_err in norm. window]
  1.0000                                 [fscale_chi2]

## etc...
  2147483627                             [idum_orig]
  3069                                   [NOl_eff]
   737                                   [Nl_eff]
  2332    NSIGMA                         [Ntot_cliped & clip_method]
  2198210                                [Nglobal_steps]
   7                                     [N_chains]
  26                                     [NEX0s_base = N_base in EX0s-fits]
 0   0   1      258   2.0   3.468E+02    [Clip-Bug, RC-Crash & Burn-In warning-flags, n_censored_weights, wei_nsig_threshold & wei_limit]
    86     86.590     86.582      0.008  [idt_all, wdt_TotTime, wdt_UsrTime & wdt_SysTime (sec)]

## Synthesis Results - Best model ##

 2.73791E+00                             [chi2/Nl_eff]
     1.22738                             [adev (%)]

    99.94869                             [sum-of-x (%)]
 2.49473E-14                             [Flux_tot (units of input spectrum!)]
 8.01583E-10                             [Mini_tot (???)]
 4.02984E-10                             [Mcor_tot (???)]

  -5.72                                  [v0_min  (km/s)]
  40.15                                  [vd_min  (km/s)]
 1.2975                                  [AV_min  (mag)]
 0.0000                                  [YAV_min (mag)]

# j     x_j(%)      Mini_j(%)     Mcor_j(%)     age_j(yr)     Z_j      (L/M)_j    YAV?  Mstars   component_j        a/Fe...       SSP_chi2r SSP_adev(%)   SSP_AV   SSP_x(%)
  1      0.0000     0.0000E+00    0.0000E+00    1.000000E+06  0.00010  8.160E-03    0   1.0000   age020_m22            0.0000     2.0065E+03    24.9931   4.0000    95.1217
  2      5.0029     3.2735E-03    6.5113E-03    3.160000E+06  0.00010  4.759E-02    0   1.0000   age045_m22            0.0000     1.9240E+02     5.8921   2.8594   100.2000
  3     15.2747     2.4619E-02    4.6922E-02    5.010000E+06  0.00010  1.932E-02    0   0.9582   age055_m22            0.0000     4.2991E+02    11.8844   3.1018    89.1750
  4      0.0000     0.0000E+00    0.0000E+00    6.610000E+06  0.00010  9.973E-03    0   0.9297   age061_m22            0.0000     1.9017E+03    24.0079   4.0000    97.9323
  5      0.0000     0.0000E+00    0.0000E+00    8.710000E+06  0.00010  7.690E-03    0   0.9030   age067_m22            0.0000     1.8442E+03    23.5894   4.0000    98.2618
  6      0.0000     0.0000E+00    0.0000E+00    1.000000E+07  0.00010  6.375E-03    0   0.8902   age070_m22            0.0000     1.8623E+03    23.5087   4.0000    98.5415
  7      0.0000     0.0000E+00    0.0000E+00    1.445000E+07  0.00010  4.874E-03    0   0.8589   age078_m22            0.0000     1.1962E+03    19.2536   4.0000    99.0823
  8      0.0000     0.0000E+00    0.0000E+00    2.512000E+07  0.00010  4.103E-03    0   0.8174   age090_m22            0.0000     3.8590E+02    10.4720   4.0000    98.4081
  9      0.0000     0.0000E+00    0.0000E+00    4.000000E+07  0.00010  3.654E-03    0   0.7830   age104_m22            0.0000     3.6833E+02     8.7214   3.9503    97.6792
 10      0.0000     0.0000E+00    0.0000E+00    5.500000E+07  0.00010  3.093E-03    0   0.7597   age110_m22            0.0000     4.0867E+02     9.1209   3.8604    98.8193
 11      0.0000     0.0000E+00    0.0000E+00    1.015200E+08  0.00010  2.431E-03    0   0.7138   age116_m22            0.0000     5.2063E+02    10.2730   3.5300   101.1984
 12      0.0000     0.0000E+00    0.0000E+00    1.609000E+08  0.00010  1.319E-03    0   0.6775   age120_m22            0.0000     5.1219E+02     9.8871   3.0605   103.1765
 13      0.0000     0.0000E+00    0.0000E+00    2.861200E+08  0.00010  1.075E-03    0   0.6412   age125_m22            0.0000     1.0188E+03    13.9142   3.1657   105.0934
 14      0.0000     0.0000E+00    0.0000E+00    5.088000E+08  0.00010  7.183E-04    0   0.6083   age130_m22            0.0000     1.1822E+03    14.9878   2.9430   106.3612
 15      0.0000     0.0000E+00    0.0000E+00    9.047900E+08  0.00010  4.524E-04    0   0.5785   age135_m22            0.0000     1.1915E+03    15.1273   2.7420   107.5170
 16      0.0000     0.0000E+00    0.0000E+00    1.278050E+09  0.00010  3.018E-04    0   0.5588   age138_m22            0.0000     6.8020E+02    11.4657   2.1870   106.7492
 17      0.0000     0.0000E+00    0.0000E+00    1.434000E+09  0.00010  2.691E-04    0   0.5532   age139_m22            0.0000     5.8469E+02    10.6759   2.0267   106.3859
 18      0.0000     0.0000E+00    0.0000E+00    2.500000E+09  0.00010  1.582E-04    0   0.5296   age150_m22            0.0000     5.2797E+02    10.3078   1.9075   107.4185
 19      0.0000     0.0000E+00    0.0000E+00    4.250000E+09  0.00010  1.007E-04    0   0.5110   age158_m22            0.0000     3.5259E+02     8.5024   1.7421   106.2198
 20      0.0000     0.0000E+00    0.0000E+00    6.250000E+09  0.00010  6.869E-05    0   0.4985   age166_m22            0.0000     2.1131E+02     6.6389   1.6681   103.9910
 21      0.0000     0.0000E+00    0.0000E+00    7.500000E+09  0.00010  5.873E-05    0   0.4931   age171_m22            0.0000     1.9409E+02     6.4283   1.6534   103.5664
 22      0.0000     0.0000E+00    0.0000E+00    1.000000E+10  0.00010  4.481E-05    0   0.4854   age181_m22            0.0000     1.8802E+02     6.3223   1.6147   103.1871
 23      0.0000     0.0000E+00    0.0000E+00    1.300000E+10  0.00010  3.489E-05    0   0.4791   age193_m22            0.0000     1.7344E+02     6.0539   1.5566   102.6518
 24      0.0000     0.0000E+00    0.0000E+00    1.500000E+10  0.00010  3.035E-05    0   0.4766   age201_m22            0.0000     1.6419E+02     5.8903   1.5168   102.4969
 25      0.0000     0.0000E+00    0.0000E+00    1.800000E+10  0.00010  2.510E-05    0   0.4735   age213_m22            0.0000     1.4265E+02     5.4886   1.4465   101.9679
 26      1.5566     5.7307E-03    1.1399E-02    1.000000E+06  0.00040  8.458E-03    0   1.0000   age020_m32            0.0000     2.0537E+03    24.9727   4.0000    96.0440
 27      0.0000     0.0000E+00    0.0000E+00    3.160000E+06  0.00040  3.973E-02    0   1.0000   age045_m32            0.0000     3.1090E+02     9.5001   4.0000    96.4729
 28      0.0000     0.0000E+00    0.0000E+00    5.010000E+06  0.00040  1.935E-02    0   0.9532   age055_m32            0.0000     6.5172E+02    15.3254   4.0000    95.1963
 29      0.0455     1.1777E-04    2.1652E-04    6.610000E+06  0.00040  1.204E-02    0   0.9243   age061_m32            0.0000     1.3736E+03    20.8891   4.0000    98.1766
 30      0.0000     0.0000E+00    0.0000E+00    8.710000E+06  0.00040  9.433E-03    0   0.9001   age067_m32            0.0000     1.2564E+03    19.9480   4.0000    98.6760
 31      0.0000     0.0000E+00    0.0000E+00    1.000000E+07  0.00040  8.053E-03    0   0.8877   age070_m32            0.0000     1.1454E+03    19.1513   4.0000    98.6159
 32      0.0000     0.0000E+00    0.0000E+00    1.445000E+07  0.00040  7.027E-03    0   0.8578   age078_m32            0.0000     3.2343E+02     9.9445   4.0000    94.3402
 33      0.0000     0.0000E+00    0.0000E+00    2.512000E+07  0.00040  4.707E-03    0   0.8166   age090_m32            0.0000     2.8514E+02     8.1825   3.7789    96.4654
 34      0.0000     0.0000E+00    0.0000E+00    4.000000E+07  0.00040  3.714E-03    0   0.7827   age104_m32            0.0000     3.3560E+02     8.2627   3.5994    99.0690
 35      0.0000     0.0000E+00    0.0000E+00    5.500000E+07  0.00040  2.982E-03    0   0.7593   age110_m32            0.0000     3.7938E+02     8.7219   3.5469    99.9148
 36      0.0000     0.0000E+00    0.0000E+00    1.015200E+08  0.00040  2.188E-03    0   0.7143   age116_m32            0.0000     6.5651E+02    11.3754   3.3185   102.8913
 37      0.0000     0.0000E+00    0.0000E+00    1.609000E+08  0.00040  1.690E-03    0   0.6856   age120_m32            0.0000     8.6621E+02    12.9507   3.1361   104.8200
 38      0.0000     0.0000E+00    0.0000E+00    2.861200E+08  0.00040  1.152E-03    0   0.6509   age125_m32            0.0000     1.0540E+03    14.1679   2.9238   105.9940
 39      0.0000     0.0000E+00    0.0000E+00    5.088000E+08  0.00040  7.331E-04    0   0.6182   age130_m32            0.0000     1.1229E+03    14.6134   2.7621   106.5206
 40      0.0000     0.0000E+00    0.0000E+00    9.047900E+08  0.00040  3.960E-04    0   0.5890   age135_m32            0.0000     7.0547E+02    11.7454   2.2779   105.9709
 41      0.0000     0.0000E+00    0.0000E+00    1.278050E+09  0.00040  2.854E-04    0   0.5687   age138_m32            0.0000     5.9448E+02    10.9135   1.9792   108.1481
 42      0.0000     0.0000E+00    0.0000E+00    1.434000E+09  0.00040  2.531E-04    0   0.5632   age139_m32            0.0000     5.7857E+02    10.7865   1.9180   108.1506
 43      0.0000     0.0000E+00    0.0000E+00    2.500000E+09  0.00040  1.488E-04    0   0.5386   age150_m32            0.0000     4.3551E+02     9.4437   1.6562   106.5873
 44      0.0000     0.0000E+00    0.0000E+00    4.250000E+09  0.00040  9.082E-05    0   0.5199   age158_m32            0.0000     2.0413E+02     6.4776   1.5343   104.0937
 45     15.0649     7.3734E+00    7.4448E+00    6.250000E+09  0.00040  6.362E-05    0   0.5076   age166_m32            0.0000     8.9887E+01     4.3041   1.4730   101.4498
 46     16.5126     9.7217E+00    9.7210E+00    7.500000E+09  0.00040  5.289E-05    0   0.5027   age171_m32            0.0000     7.1931E+01     3.8678   1.4333   100.2775
 47     10.2747     8.0549E+00    7.9278E+00    1.000000E+10  0.00040  3.972E-05    0   0.4948   age181_m32            0.0000     5.9812E+01     3.5691   1.3689    98.9311
 48      0.0000     0.0000E+00    0.0000E+00    1.300000E+10  0.00040  3.283E-05    0   0.4870   age193_m32            0.0000     1.0310E+02     4.6175   1.3378   101.2986
 49      0.0004     4.2951E-04    4.1470E-04    1.500000E+10  0.00040  2.925E-05    0   0.4854   age201_m32            0.0000     1.4004E+02     5.3891   1.3274   102.6626
 50      0.0004     5.5092E-04    5.2808E-04    1.800000E+10  0.00040  2.469E-05    0   0.4819   age213_m32            0.0000     1.5519E+02     5.6662   1.2918   103.0650
 51      0.0000     0.0000E+00    0.0000E+00    1.000000E+06  0.00400  1.114E-02    0   1.0000   age020_m42            0.0000     1.7768E+03    23.5263   4.0000    95.6972
 52      0.0000     0.0000E+00    0.0000E+00    3.160000E+06  0.00400  4.073E-02    0   0.9999   age045_m42            0.0000     2.3039E+02     7.1806   3.8255    96.3794
 53      0.0000     0.0000E+00    0.0000E+00    5.010000E+06  0.00400  2.534E-02    0   0.9488   age055_m42            0.0000     3.9451E+02    11.9349   4.0000    95.0682
 54      0.0000     0.0000E+00    0.0000E+00    6.610000E+06  0.00400  2.583E-02    0   0.9220   age061_m42            0.0000     2.5812E+02     7.4022   3.6488    97.0224
 55      0.0000     0.0000E+00    0.0000E+00    8.710000E+06  0.00400  1.706E-02    0   0.8983   age067_m42            0.0000     2.4305E+02     8.1224   3.4560    95.9559
 56      0.0000     0.0000E+00    0.0000E+00    1.000000E+07  0.00400  1.271E-02    0   0.8862   age070_m42            0.0000     2.9541E+02     9.5665   3.4331    94.9539
 57      0.0000     0.0000E+00    0.0000E+00    1.445000E+07  0.00400  7.666E-03    0   0.8571   age078_m42            0.0000     3.3290E+02    10.7500   3.8182    91.9593
 58      0.0000     0.0000E+00    0.0000E+00    2.512000E+07  0.00400  5.070E-03    0   0.8174   age090_m42            0.0000     2.5310E+02     8.8284   3.3075    96.5169
 59      0.0000     0.0000E+00    0.0000E+00    4.000000E+07  0.00400  3.505E-03    0   0.7851   age104_m42            0.0000     1.8381E+02     7.0180   3.0037    99.0869
 60      0.0000     0.0000E+00    0.0000E+00    5.500000E+07  0.00400  3.059E-03    0   0.7629   age110_m42            0.0000     3.1272E+02     7.3323   3.0977   102.2179
 61      0.0000     0.0000E+00    0.0000E+00    1.015200E+08  0.00400  2.268E-03    0   0.7207   age116_m42            0.0000     7.6105E+02    11.9791   3.0517   105.6427
 62      0.0000     0.0000E+00    0.0000E+00    1.609000E+08  0.00400  1.720E-03    0   0.6930   age120_m42            0.0000     8.2951E+02    12.5217   2.9188   106.8852
 63      0.0000     0.0000E+00    0.0000E+00    2.861200E+08  0.00400  1.079E-03    0   0.6613   age125_m42            0.0000     8.2483E+02    12.5123   2.5647   107.1870
 64      0.0000     0.0000E+00    0.0000E+00    5.088000E+08  0.00400  6.261E-04    0   0.6313   age130_m42            0.0000     9.1956E+02    13.3494   2.3770   109.8646
 65      0.0000     0.0000E+00    0.0000E+00    9.047900E+08  0.00400  3.535E-04    0   0.6024   age135_m42            0.0000     6.0792E+02    10.9949   1.9645   110.6550
 66      0.0000     0.0000E+00    0.0000E+00    1.278050E+09  0.00400  2.677E-04    0   0.5837   age138_m42            0.0000     2.9215E+02     8.7137   1.2712   108.5242
 67      0.0000     0.0000E+00    0.0000E+00    1.434000E+09  0.00400  1.910E-04    0   0.5716   age139_m42            0.0000     3.5083E+02     8.9452   1.4406   109.3263
 68      2.3062     7.3142E-01    7.9480E-01    2.500000E+09  0.00400  9.818E-05    0   0.5463   age150_m42            0.0000     1.5702E+02     6.5067   1.1537   105.0641
 69      2.5105     1.4237E+00    1.4921E+00    4.250000E+09  0.00400  5.491E-05    0   0.5269   age158_m42            0.0000     1.1017E+02     5.6934   1.0250   102.5413
 70      0.4563     3.6839E-01    3.7746E-01    6.250000E+09  0.00400  3.857E-05    0   0.5151   age166_m42            0.0000     1.3312E+02     6.1089   0.9022   101.1035
 71      0.9829     9.4378E-01    9.5930E-01    7.500000E+09  0.00400  3.243E-05    0   0.5110   age171_m42            0.0000     1.6000E+02     6.5712   0.8285   100.4254
 72      0.7138     9.1695E-01    9.1707E-01    1.000000E+10  0.00400  2.424E-05    0   0.5028   age181_m42            0.0000     1.9988E+02     7.1984   0.7537    99.6699
 73      0.9654     1.5965E+00    1.5647E+00    1.300000E+10  0.00400  1.883E-05    0   0.4927   age193_m42            0.0000     2.3132E+02     7.6204   0.7156    99.3403
 74      0.1617     2.9876E-01    2.9232E-01    1.500000E+10  0.00400  1.685E-05    0   0.4919   age201_m42            0.0000     2.2248E+02     7.4688   0.7216    99.3715
 75      0.0000     0.0000E+00    0.0000E+00    1.800000E+10  0.00400  1.452E-05    0   0.4874   age213_m42            0.0000     2.0631E+02     7.2061   0.7373    99.7005
 76      0.0000     0.0000E+00    0.0000E+00    1.000000E+06  0.00800  1.286E-02    0   1.0000   age020_m52            0.0000     1.6378E+03    22.3894   4.0000    97.3417
 77      0.0000     0.0000E+00    0.0000E+00    3.160000E+06  0.00800  3.147E-02    0   0.9966   age045_m52            0.0000     1.3831E+03    20.9223   4.0000    97.9602
 78      0.0000     0.0000E+00    0.0000E+00    5.010000E+06  0.00800  2.664E-02    0   0.9443   age055_m52            0.0000     5.7435E+02    14.3188   4.0000    96.2958
 79      0.0000     0.0000E+00    0.0000E+00    6.610000E+06  0.00800  2.151E-02    0   0.9177   age061_m52            0.0000     1.8915E+02     8.1205   3.0156    96.8327
 80      0.0000     0.0000E+00    0.0000E+00    8.710000E+06  0.00800  1.628E-02    0   0.8948   age067_m52            0.0000     2.5411E+02     8.6832   3.4080    96.7019
 81      0.0000     0.0000E+00    0.0000E+00    1.000000E+07  0.00800  1.215E-02    0   0.8827   age070_m52            0.0000     2.9568E+02     9.6375   3.7487    94.8566
 82      0.0000     0.0000E+00    0.0000E+00    1.445000E+07  0.00800  8.739E-03    0   0.8552   age078_m52            0.0000     2.9594E+02     9.0437   3.7967    95.8403
 83      0.0000     0.0000E+00    0.0000E+00    2.512000E+07  0.00800  5.676E-03    0   0.8162   age090_m52            0.0000     3.3646E+02     8.1283   3.4295    99.8272
 84      0.0000     0.0000E+00    0.0000E+00    4.000000E+07  0.00800  3.939E-03    0   0.7841   age104_m52            0.0000     3.7948E+02     8.1730   3.2824   101.6813
 85      0.0000     0.0000E+00    0.0000E+00    5.500000E+07  0.00800  3.155E-03    0   0.7627   age110_m52            0.0000     4.5528E+02     8.9324   3.2586   102.9458
 86      0.0000     0.0000E+00    0.0000E+00    1.015200E+08  0.00800  2.206E-03    0   0.7226   age116_m52            0.0000     6.3799E+02    10.8408   3.0901   106.0307
 87      0.0000     0.0000E+00    0.0000E+00    1.609000E+08  0.00800  1.596E-03    0   0.6963   age120_m52            0.0000     7.2512E+02    11.6401   2.8863   107.2744
 88      0.0000     0.0000E+00    0.0000E+00    2.861200E+08  0.00800  1.002E-03    0   0.6665   age125_m52            0.0000     9.6625E+02    13.6581   2.6150   109.1582
 89      0.0000     0.0000E+00    0.0000E+00    5.088000E+08  0.00800  5.759E-04    0   0.6377   age130_m52            0.0000     1.0055E+03    14.2491   2.2734   112.8934
 90      0.0000     0.0000E+00    0.0000E+00    9.047900E+08  0.00800  2.972E-04    0   0.6086   age135_m52            0.0000     6.3921E+02    11.7035   1.7170   112.2063
 91      0.0000     0.0000E+00    0.0000E+00    1.278050E+09  0.00800  2.242E-04    0   0.5907   age138_m52            0.0000     3.1326E+02     8.8663   1.0911   111.6862
 92      0.0000     0.0000E+00    0.0000E+00    1.434000E+09  0.00800  1.645E-04    0   0.5787   age139_m52            0.0000     2.7362E+02     8.1903   1.2365   111.2157
 93      0.0000     0.0000E+00    0.0000E+00    2.500000E+09  0.00800  7.723E-05    0   0.5519   age150_m52            0.0000     1.9493E+02     7.2967   0.8934   107.6666
 94      1.4788     1.1093E+00    1.1739E+00    4.250000E+09  0.00800  4.151E-05    0   0.5320   age158_m52            0.0000     1.7878E+02     7.0897   0.8240   105.0466
 95      2.0574     2.1284E+00    2.2002E+00    6.250000E+09  0.00800  3.010E-05    0   0.5197   age166_m52            0.0000     2.3815E+02     7.9056   0.6368   103.4968
 96      0.9897     1.2492E+00    1.2769E+00    7.500000E+09  0.00800  2.467E-05    0   0.5139   age171_m52            0.0000     2.5946E+02     8.1935   0.5967   103.0419
 97      2.9724     4.9707E+00    4.9971E+00    1.000000E+10  0.00800  1.862E-05    0   0.5054   age181_m52            0.0000     3.3727E+02     9.1392   0.4712   102.5250
 98      0.0000     0.0000E+00    0.0000E+00    1.300000E+10  0.00800  1.433E-05    0   0.4988   age193_m52            0.0000     4.2521E+02    10.0484   0.3794   103.1194
 99      5.6758     1.4207E+01    1.3949E+01    1.500000E+10  0.00800  1.244E-05    0   0.4936   age201_m52            0.0000     4.6228E+02    10.4002   0.3520   103.5771
100      2.8740     8.3638E+00    8.1320E+00    1.800000E+10  0.00800  1.070E-05    0   0.4888   age213_m52            0.0000     4.9229E+02    10.6970   0.3203   103.3713
101      0.0000     0.0000E+00    0.0000E+00    1.000000E+06  0.02000  1.989E-02    0   1.0000   age020_m62            0.0000     1.6494E+03    22.5539   4.0000    96.1879
102      0.0000     0.0000E+00    0.0000E+00    3.160000E+06  0.02000  3.772E-02    0   0.9858   age045_m62            0.0000     1.2263E+03    20.1632   4.0000    96.7773
103      0.0000     0.0000E+00    0.0000E+00    5.010000E+06  0.02000  3.227E-02    0   0.9342   age055_m62            0.0000     2.9803E+02     9.3917   4.0000    95.0617
104      0.0000     0.0000E+00    0.0000E+00    6.610000E+06  0.02000  2.387E-02    0   0.9090   age061_m62            0.0000     3.4509E+02    10.5408   3.8123    93.6877
105      0.0000     0.0000E+00    0.0000E+00    8.710000E+06  0.02000  1.102E-02    0   0.8861   age067_m62            0.0000     8.3406E+02    16.5750   3.4450    90.2770
106      0.0000     0.0000E+00    0.0000E+00    1.000000E+07  0.02000  1.011E-02    0   0.8751   age070_m62            0.0000     5.4540E+02    13.6199   3.4701    92.2574
107      0.0000     0.0000E+00    0.0000E+00    1.445000E+07  0.02000  7.331E-03    0   0.8472   age078_m62            0.0000     3.7229E+02    11.3883   3.4848    93.3761
108      0.0000     0.0000E+00    0.0000E+00    2.512000E+07  0.02000  4.206E-03    0   0.8099   age090_m62            0.0000     3.7213E+02    11.5943   3.3925    93.0188
109      0.0000     0.0000E+00    0.0000E+00    4.000000E+07  0.02000  3.373E-03    0   0.7799   age104_m62            0.0000     2.5761E+02     7.3596   3.2308   100.2850
110      0.0000     0.0000E+00    0.0000E+00    5.500000E+07  0.02000  2.747E-03    0   0.7595   age110_m62            0.0000     3.6834E+02     7.9962   3.1829   102.9622
111      0.0000     0.0000E+00    0.0000E+00    1.015200E+08  0.02000  1.878E-03    0   0.7221   age116_m62            0.0000     6.8225E+02    11.2242   3.0729   106.6302
112      0.0000     0.0000E+00    0.0000E+00    1.609000E+08  0.02000  1.378E-03    0   0.6978   age120_m62            0.0000     9.0047E+02    12.9347   2.9320   108.5998
113      0.0000     0.0000E+00    0.0000E+00    2.861200E+08  0.02000  8.869E-04    0   0.6700   age125_m62            0.0000     1.2359E+03    15.1781   2.5862   112.0764
114      0.0000     0.0000E+00    0.0000E+00    5.088000E+08  0.02000  4.834E-04    0   0.6430   age130_m62            0.0000     1.0891E+03    14.7014   2.1450   114.3296
115      0.0000     0.0000E+00    0.0000E+00    9.047900E+08  0.02000  2.312E-04    0   0.6152   age135_m62            0.0000     5.6595E+02    11.0497   1.5202   114.5159
116      0.0000     0.0000E+00    0.0000E+00    1.278050E+09  0.02000  1.387E-04    0   0.5927   age138_m62            0.0000     2.8739E+02     8.2388   1.1300   110.7425
117      0.0000     0.0000E+00    0.0000E+00    1.434000E+09  0.02000  1.168E-04    0   0.5865   age139_m62            0.0000     2.4878E+02     7.7303   1.0990   109.2457
118      0.0000     0.0000E+00    0.0000E+00    2.500000E+09  0.02000  5.505E-05    0   0.5610   age150_m62            0.0000     2.4126E+02     7.9032   0.7326   106.3558
119      0.0000     0.0000E+00    0.0000E+00    4.250000E+09  0.02000  3.070E-05    0   0.5407   age158_m62            0.0000     3.9809E+02     9.8403   0.4471   106.0894
120      0.0000     0.0000E+00    0.0000E+00    6.250000E+09  0.02000  2.104E-05    0   0.5277   age166_m62            0.0000     5.0570E+02    10.8661   0.3182   106.4995
121      0.0000     0.0000E+00    0.0000E+00    7.500000E+09  0.02000  1.770E-05    0   0.5223   age171_m62            0.0000     5.7094E+02    11.4558   0.2335   106.8204
122      4.4531     1.0691E+01    1.0890E+01    1.000000E+10  0.02000  1.297E-05    0   0.5121   age181_m62            0.0000     7.1609E+02    12.6583   0.0820   107.1818
123      6.1797     1.9856E+01    1.9934E+01    1.300000E+10  0.02000  9.691E-06    0   0.5047   age193_m62            0.0000     8.2249E+02    13.4738   0.0039   107.4301
124      0.6662     2.4813E+00    2.4673E+00    1.500000E+10  0.02000  8.360E-06    0   0.4999   age201_m62            0.0000     9.1858E+02    14.1867  -0.0619   107.5460
125      0.7721     3.4786E+00    3.4223E+00    1.800000E+10  0.02000  6.911E-06    0   0.4946   age213_m62            0.0000     1.0445E+03    15.0789  -0.1314   107.6643
126      0.0000     0.0000E+00    0.0000E+00    1.000000E+06  0.05000  2.651E-02    0   0.9998   age020_m72            0.0000     1.6206E+03    22.1798   4.0000    97.2249
127      0.0000     0.0000E+00    0.0000E+00    3.160000E+06  0.05000  4.817E-02    0   0.9577   age045_m72            0.0000     8.0900E+02    16.3845   4.0000    97.8531
128      0.0000     0.0000E+00    0.0000E+00    5.010000E+06  0.05000  3.101E-02    0   0.9147   age055_m72            0.0000     3.6654E+02    11.2790   4.0000    94.3526
129      0.0000     0.0000E+00    0.0000E+00    6.610000E+06  0.05000  1.472E-02    0   0.8877   age061_m72            0.0000     5.7345E+02    13.7230   3.6901    91.2788
130      0.0000     0.0000E+00    0.0000E+00    8.710000E+06  0.05000  1.050E-02    0   0.8638   age067_m72            0.0000     4.2875E+02    12.2098   4.0000    92.5706
131      0.0000     0.0000E+00    0.0000E+00    1.000000E+07  0.05000  8.954E-03    0   0.8524   age070_m72            0.0000     5.8813E+02    14.0693   4.0000    97.3838
132      0.0000     0.0000E+00    0.0000E+00    1.445000E+07  0.05000  6.392E-03    0   0.8262   age078_m72            0.0000     4.7453E+02    12.6134   4.0000    97.3679
133      0.0000     0.0000E+00    0.0000E+00    2.512000E+07  0.05000  4.207E-03    0   0.7902   age090_m72            0.0000     2.4831E+02     7.8745   3.9091    96.0490
134      0.0000     0.0000E+00    0.0000E+00    4.000000E+07  0.05000  3.198E-03    0   0.7618   age104_m72            0.0000     4.8331E+02     9.2448   3.4501   102.5626
135      0.0000     0.0000E+00    0.0000E+00    5.500000E+07  0.05000  2.593E-03    0   0.7432   age110_m72            0.0000     5.9693E+02    10.4281   3.3696   104.1599
136      0.0000     0.0000E+00    0.0000E+00    1.015200E+08  0.05000  1.716E-03    0   0.7092   age116_m72            0.0000     8.1103E+02    12.2101   3.1917   106.1719
137      0.0000     0.0000E+00    0.0000E+00    1.609000E+08  0.05000  1.218E-03    0   0.6876   age120_m72            0.0000     1.0337E+03    13.7614   2.9238   108.5510
138      0.0000     0.0000E+00    0.0000E+00    2.861200E+08  0.05000  7.047E-04    0   0.6618   age125_m72            0.0000     1.2048E+03    15.2372   2.4013   112.0074
139      0.0000     0.0000E+00    0.0000E+00    5.088000E+08  0.05000  3.590E-04    0   0.6356   age130_m72            0.0000     9.5131E+02    13.9908   1.8143   114.9136
140      0.0000     0.0000E+00    0.0000E+00    9.047900E+08  0.05000  1.484E-04    0   0.6088   age135_m72            0.0000     3.9909E+02     9.9561   1.0510   109.4706
141      0.0000     0.0000E+00    0.0000E+00    1.278050E+09  0.05000  9.435E-05    0   0.5924   age138_m72            0.0000     4.0366E+02    10.1811   0.6504   106.6155
142      0.0000     0.0000E+00    0.0000E+00    1.434000E+09  0.05000  7.827E-05    0   0.5847   age139_m72            0.0000     3.8093E+02     9.9063   0.6645   106.0489
143      0.0000     0.0000E+00    0.0000E+00    2.500000E+09  0.05000  3.759E-05    0   0.5583   age150_m72            0.0000     5.1184E+02    11.0519   0.3446   105.3754
144      0.0000     0.0000E+00    0.0000E+00    4.250000E+09  0.05000  1.842E-05    0   0.5374   age158_m72            0.0000     7.5553E+02    12.8855   0.0643   104.3467
145      0.0000     0.0000E+00    0.0000E+00    6.250000E+09  0.05000  1.207E-05    0   0.5242   age166_m72            0.0000     1.0055E+03    14.5977  -0.1654   103.8020
146      0.0000     0.0000E+00    0.0000E+00    7.500000E+09  0.05000  9.993E-06    0   0.5183   age171_m72            0.0000     1.0497E+03    14.8619  -0.2061   103.6936
147      0.0000     0.0000E+00    0.0000E+00    1.000000E+10  0.05000  7.291E-06    0   0.5081   age181_m72            0.0000     1.2425E+03    16.1297  -0.3236   103.3809
148      0.0000     0.0000E+00    0.0000E+00    1.300000E+10  0.05000  5.316E-06    0   0.5018   age193_m72            0.0000     1.5579E+03    18.0443  -0.4973   102.9259
149      0.0000     0.0000E+00    0.0000E+00    1.500000E+10  0.05000  4.497E-06    0   0.4972   age201_m72            0.0000     1.7172E+03    18.9853  -0.5671   103.0427
150      0.0000     0.0000E+00    0.0000E+00    1.800000E+10  0.05000  3.739E-06    0   0.4924   age213_m72            0.0000     1.9237E+03    20.1363  -0.6707   103.0601


## Synthesis Results - Average & Chains ##

# j      x_j: min, <> & last-chain-values for 1 ...  7 chains
  1      0.0000      0.0218      0.0000      0.0083      0.0000      0.1997      0.0000      0.0000      0.0023
  2      5.0029      4.2658      4.4946      4.2169      4.2595      4.1344      4.2893      4.5524      4.4047
  3     15.2747     14.2715     14.9836     14.1948     13.8576     14.1323     14.3797     14.6102     14.4972
  4      0.0000      0.0619      0.0000      0.1399      0.0284      0.0000      0.0000      0.1616      0.3093
  5      0.0000      0.2104      0.0000      0.1422      0.3880      0.2085      0.0120      0.3087      0.0000
  6      0.0000      0.0316      0.0000      0.0000      0.0000      0.0786      0.0000      0.0000      0.0022
  7      0.0000      0.0376      0.0698      0.1135      0.1159      0.1512      0.0827      0.0000      0.0000
  8      0.0000      0.0083      0.0223      0.0025      0.1243      0.0000      0.0000      0.0000      0.0000
  9      0.0000      0.0074      0.0000      0.0000      0.0000      0.0000      0.0000      0.0000      0.0000
 10      0.0000      0.0073      0.0000      0.0000      0.0000      0.0000      0.0000      0.0000      0.0000
 11      0.0000      0.0067      0.0000      0.0000      0.0000      0.0000      0.0000      0.0000      0.0354
 12      0.0000      0.0110      0.0000      0.0000      0.0000      0.0000      0.0000      0.0000      0.0000
 13      0.0000      0.0051      0.0000      0.0000      0.0280      0.0019      0.0000      0.0000      0.0000
 14      0.0000      0.0037      0.0000      0.0110      0.0000      0.0000      0.0000      0.0025      0.0000
 15      0.0000      0.0043      0.0000      0.0635      0.0000      0.0000      0.0000      0.0376      0.0000
 16      0.0000      0.0089      0.0000      0.0000      0.0000      0.0000      0.0000      0.0000      0.0000
 17      0.0000      0.0136      0.0000      0.0000      0.0000      0.0554      0.0000      0.0000      0.0000
 18      0.0000      0.0175      0.0000      0.0000      0.0000      0.1082      0.0000      0.0000      0.0000
 19      0.0000      0.0351      0.0000      0.0000      0.0000      0.0000      0.0000      0.1247      0.0000
 20      0.0000      0.0603      0.1109      0.0384      0.0000      0.0000      0.0000      0.0000      0.0000
 21      0.0000      0.0495      0.0000      0.0000      0.0000      0.0000      0.0062      0.0000      0.0000
 22      0.0000      0.1019      0.0000      0.0000      0.0000      0.3093      0.0000      0.3633      0.0000
 23      0.0000      0.1393      0.0000      0.0000      0.0000      0.0000      0.0000      0.0000      0.0000
 24      0.0000      0.0999      0.0500      0.0000      0.0000      0.0000      0.0000      0.0000      0.0282
 25      0.0000      0.2034      0.1361      0.1501      0.0000      0.5915      0.1871      0.1685      0.0392
 26      1.5566      1.2077      1.3107      1.2554      1.2272      1.1669      1.2754      1.2987      1.2004
 27      0.0000      0.0320      0.0000      0.0000      0.0765      0.0000      0.1189      0.0000      0.0445
 28      0.0000      0.0515      0.0000      0.0000      0.0735      0.0094      0.0259      0.0000      0.0687
 29      0.0455      0.2960      0.2210      0.2394      0.4423      0.2712      0.4275      0.3084      0.2245
 30      0.0000      0.0073      0.0000      0.0000      0.0005      0.0000      0.0000      0.0000      0.0000
 31      0.0000      0.0290      0.0000      0.0000      0.0515      0.0000      0.0032      0.0000      0.0367
 32      0.0000      0.0111      0.0000      0.0000      0.0000      0.0000      0.0000      0.0000      0.0230
 33      0.0000      0.0086      0.0000      0.0128      0.0000      0.0000      0.0000      0.0000      0.0000
 34      0.0000      0.0096      0.0000      0.0000      0.0000      0.0000      0.0000      0.0000      0.0363
 35      0.0000      0.0103      0.0017      0.0000      0.0000      0.0000      0.0000      0.0000      0.0000
 36      0.0000      0.0047      0.0000      0.0000      0.0000      0.0000      0.0000      0.0000      0.0000
 37      0.0000      0.0082      0.0000      0.0000      0.0000      0.0000      0.0000      0.0000      0.0000
 38      0.0000      0.0048      0.0564      0.0000      0.0000      0.0000      0.0242      0.0000      0.0000
 39      0.0000      0.0081      0.0509      0.0000      0.0000      0.0000      0.0000      0.0000      0.0000
 40      0.0000      0.0064      0.0000      0.0069      0.0000      0.0211      0.0000      0.0000      0.0000
 41      0.0000      0.0199      0.0292      0.0000      0.0000      0.0000      0.0000      0.0000      0.0000
 42      0.0000      0.0184      0.0000      0.0000      0.0551      0.0000      0.0000      0.0523      0.0000
 43      0.0000      0.0315      0.0000      0.0000      0.1008      0.0000      0.0000      0.0000      0.0000
 44      0.0000      0.2150      0.0000      0.4971      0.2615      0.0000      0.2878      0.2374      0.1278
 45     15.0649     11.2990     12.3678     11.6296     11.9126     11.4532     11.7156     11.1056     11.6084
 46     16.5126     17.4440     17.5137     17.4839     18.0537     17.8625     17.0135     17.6401     17.6139
 47     10.2747     13.8264     12.8720     13.7812     13.8041     13.6467     14.2379     13.9248     13.6765
 48      0.0000      0.1524      0.0663      0.3554      0.0307      0.3543      0.1491      0.1565      0.0936
 49      0.0004      0.1729      0.2797      0.0000      0.0000      0.2220      0.0000      0.3565      0.0611
 50      0.0004      0.1336      0.2132      0.0000      0.0836      0.0000      0.0000      0.0000      0.1344
 51      0.0000      0.0579      0.0000      0.0000      0.0000      0.1138      0.0813      0.0000      0.0000
 52      0.0000      0.0326      0.0000      0.0000      0.0000      0.0988      0.0000      0.0000      0.1271
 53      0.0000      0.0295      0.0000      0.0000      0.1852      0.0021      0.0825      0.0066      0.0473
 54      0.0000      0.0122      0.0000      0.0434      0.0055      0.0000      0.0000      0.1244      0.0332
 55      0.0000      0.0174      0.0000      0.1113      0.0000      0.0000      0.0000      0.0000      0.0000
 56      0.0000      0.0372      0.1098      0.0000      0.1122      0.0000      0.0000      0.0451      0.1698
 57      0.0000      0.0230      0.0456      0.0000      0.0812      0.0213      0.0000      0.0000      0.0000
 58      0.0000      0.0245      0.0550      0.0000      0.0000      0.0000      0.0000      0.0000      0.0804
 59      0.0000      0.0140      0.0035      0.0338      0.0000      0.0000      0.0000      0.0000      0.0000
 60      0.0000      0.0162      0.0000      0.1189      0.0276      0.0000      0.1088      0.0000      0.0000
 61      0.0000      0.0048      0.0000      0.0000      0.0000      0.0029      0.0000      0.0000      0.0000
 62      0.0000      0.0079      0.0000      0.0000      0.0000      0.0000      0.0000      0.0000      0.0000
 63      0.0000      0.0056      0.0000      0.0000      0.0000      0.0000      0.0000      0.0000      0.0000
 64      0.0000      0.0085      0.0000      0.0000      0.0000      0.0000      0.1769      0.0000      0.0000
 65      0.0000      0.0160      0.1009      0.0000      0.0000      0.0000      0.0000      0.0000      0.0911
 66      0.0000      0.0629      0.0931      0.4568      0.3027      0.0000      0.0000      0.0000      0.1572
 67      0.0000      0.0477      0.0000      0.0000      0.0000      0.0000      0.0370      0.0244      0.0000
 68      2.3062      1.4233      1.7352      1.6543      1.6227      0.9838      1.6147      1.8939      2.2502
 69      2.5105      2.0079      1.9845      2.0286      1.2631      2.1788      2.2311      2.0186      1.9624
 70      0.4563      0.4101      0.6327      0.4698      0.8334      0.2980      0.6931      0.0000      0.0522
 71      0.9829      0.7216      0.5568      0.7815      0.2259      0.8729      0.8103      0.9435      0.5465
 72      0.7138      0.3333      0.4804      0.3893      0.0968      1.0883      0.2906      0.5726      0.4442
 73      0.9654      0.3935      0.2485      0.2212      0.3445      0.4115      0.0000      0.3771      0.4017
 74      0.1617      0.3566      0.2887      0.1365      0.6231      0.2996      0.5308      0.1703      0.3376
 75      0.0000      0.1367      0.0462      0.2861      0.0208      0.0000      0.0000      0.0713      0.3557
 76      0.0000      0.0412      0.0000      0.1478      0.0111      0.0000      0.0000      0.0000      0.0000
 77      0.0000      0.0180      0.0000      0.0427      0.0000      0.0000      0.0000      0.0000      0.0000
 78      0.0000      0.0122      0.0000      0.0000      0.0133      0.0000      0.0000      0.0000      0.0000
 79      0.0000      0.0313      0.0000      0.0000      0.0148      0.0000      0.0000      0.0000      0.0000
 80      0.0000      0.0165      0.0000      0.0000      0.0000      0.0000      0.0000      0.0000      0.0000
 81      0.0000      0.0088      0.0000      0.0513      0.0000      0.0000      0.0000      0.0000      0.0000
 82      0.0000      0.0114      0.0000      0.0000      0.0000      0.0000      0.0000      0.0000      0.0060
 83      0.0000      0.0136      0.0000      0.0000      0.0000      0.0000      0.0000      0.0000      0.0000
 84      0.0000      0.0131      0.0000      0.0000      0.0059      0.0495      0.0000      0.0000      0.0000
 85      0.0000      0.0059      0.0000      0.0025      0.0000      0.0000      0.0035      0.0000      0.0000
 86      0.0000      0.0060      0.0000      0.0000      0.0000      0.0000      0.0000      0.0000      0.0000
 87      0.0000      0.0087      0.0345      0.0000      0.0000      0.0000      0.0000      0.0000      0.0000
 88      0.0000      0.0062      0.0000      0.0000      0.0000      0.0000      0.0000      0.0000      0.0000
 89      0.0000      0.0122      0.0000      0.0018      0.0000      0.0000      0.0000      0.0000      0.0000
 90      0.0000      0.0264      0.0000      0.0000      0.0000      0.0000      0.0000      0.0000      0.0000
 91      0.0000      0.0631      0.0000      0.0436      0.3676      0.0000      0.0000      0.0680      0.2490
 92      0.0000      0.0715      0.0000      0.0000      0.0000      0.0000      0.0752      0.0000      0.0000
 93      0.0000      0.1039      0.0000      0.0000      0.1573      0.3177      0.0307      0.3696      0.0000
 94      1.4788      1.2334      1.3825      1.3603      1.2475      1.4485      1.5130      1.2292      1.1251
 95      2.0574      1.3867      1.3429      1.3717      1.2779      1.4532      1.2445      1.3849      1.4892
 96      0.9897      0.2497      0.2530      0.3869      0.4509      0.0000      0.5683      0.0000      0.2902
 97      2.9724      2.2184      2.0197      2.2070      2.2418      2.2255      2.1117      2.4371      2.4856
 98      0.0000      0.1183      0.1579      0.0000      0.5261      0.1035      0.0830      0.0000      0.0000
 99      5.6758      5.5657      5.9136      6.0330      5.6557      5.5199      5.8751      5.5634      5.4676
100      2.8740      2.7608      2.9840      2.7153      2.7840      2.9356      2.6272      2.6709      2.6827
101      0.0000      0.0065      0.0000      0.0003      0.0000      0.0000      0.0000      0.0000      0.0000
102      0.0000      0.0205      0.0000      0.0683      0.0000      0.0000      0.0000      0.0000      0.0000
103      0.0000      0.0128      0.1076      0.0460      0.0614      0.0000      0.0093      0.0000      0.0661
104      0.0000      0.0164      0.0017      0.1456      0.0000      0.1667      0.0000      0.0000      0.0091
105      0.0000      0.0135      0.0301      0.0000      0.0318      0.0000      0.0385      0.0000      0.0000
106      0.0000      0.0355      0.0000      0.0000      0.0000      0.0000      0.1111      0.0519      0.1997
107      0.0000      0.0154      0.1564      0.1077      0.0000      0.0000      0.0000      0.0000      0.0000
108      0.0000      0.0197      0.0000      0.0000      0.0000      0.0000      0.1148      0.0000      0.0000
109      0.0000      0.0107      0.0000      0.0000      0.0000      0.0000      0.0000      0.0000      0.0000
110      0.0000      0.0084      0.0000      0.0000      0.0000      0.0494      0.0000      0.0000      0.0000
111      0.0000      0.0062      0.0496      0.0000      0.0000      0.0000      0.0000      0.0000      0.0000
112      0.0000      0.0051      0.0000      0.0000      0.0000      0.0000      0.0000      0.0000      0.0000
113      0.0000      0.0045      0.0000      0.0000      0.0000      0.0000      0.0000      0.0000      0.0000
114      0.0000      0.0066      0.0000      0.0000      0.0000      0.0000      0.0000      0.0000      0.0000
115      0.0000      0.0429      0.0000      0.0000      0.0000      0.0000      0.2650      0.0000      0.0374
116      0.0000      0.0364      0.0000      0.0000      0.0000      0.0951      0.0000      0.0000      0.0000
117      0.0000      0.0396      0.0000      0.0000      0.0000      0.1002      0.0000      0.0000      0.0000
118      0.0000      0.0620      0.0000      0.0000      0.2091      0.0000      0.0000      0.0107      0.1437
119      0.0000      0.0880      0.0862      0.0000      0.0354      0.0000      0.0000      0.2367      0.0642
120      0.0000      0.0378      0.0000      0.0000      0.0000      0.0000      0.0668      0.0000      0.2075
121      0.0000      0.0880      0.0000      0.0242      0.0000      0.0579      0.0000      0.0647      0.1487
122      4.4531      4.4082      4.6849      4.4847      4.3780      4.2339      4.5876      4.4179      4.2063
123      6.1797      6.8548      7.0111      6.9002      6.8232      6.9792      6.7612      6.8691      6.5496
124      0.6662      1.5106      1.0740      1.5824      1.4950      1.4921      1.5754      1.5300      1.5958
125      0.7721      1.2822      1.2744      1.1337      1.2442      1.1810      1.1435      1.2368      1.2782
126      0.0000      0.0120      0.0000      0.0000      0.0000      0.0000      0.0020      0.0000      0.0023
127      0.0000      0.0161      0.0000      0.0000      0.0000      0.0000      0.0000      0.0000      0.0000
128      0.0000      0.0189      0.0000      0.0000      0.0000      0.1682      0.0902      0.0000      0.0000
129      0.0000      0.0170      0.0000      0.0332      0.0000      0.0000      0.0000      0.0000      0.0000
130      0.0000      0.0211      0.0369      0.0000      0.0000      0.0000      0.0000      0.0000      0.0000
131      0.0000      0.0106      0.0000      0.0308      0.0000      0.0000      0.0000      0.0000      0.0000
132      0.0000      0.0082      0.0000      0.0000      0.0071      0.0000      0.0687      0.0000      0.0000
133      0.0000      0.0076      0.0000      0.0000      0.0000      0.0000      0.0000      0.0000      0.0000
134      0.0000      0.0035      0.0000      0.0000      0.0000      0.0000      0.0000      0.0000      0.0000
135      0.0000      0.0042      0.0000      0.0000      0.0000      0.0000      0.0000      0.0000      0.0000
136      0.0000      0.0065      0.0000      0.0000      0.0000      0.0000      0.0012      0.0000      0.0000
137      0.0000      0.0067      0.0063      0.0000      0.0000      0.0000      0.0000      0.0000      0.0000
138      0.0000      0.0053      0.0000      0.0000      0.0000      0.0000      0.0000      0.0000      0.0000
139      0.0000      0.0162      0.0000      0.0000      0.0796      0.0902      0.1150      0.0418      0.0000
140      0.0000      0.0354      0.0000      0.0000      0.0000      0.0000      0.0000      0.0000      0.1063
141      0.0000      0.2184      0.1444      0.0578      0.2458      0.0000      0.0000      0.0055      0.3098
142      0.0000      0.0418      0.0000      0.0000      0.0000      0.0000      0.0099      0.0000      0.0000
143      0.0000      0.0323      0.0000      0.0000      0.0174      0.0000      0.1014      0.1438      0.0212
144      0.0000      0.0284      0.0752      0.0000      0.0000      0.0000      0.0000      0.0000      0.0000
145      0.0000      0.0220      0.0000      0.0000      0.0000      0.0000      0.0000      0.0000      0.0000
146      0.0000      0.0106      0.0088      0.0019      0.0000      0.0000      0.0000      0.0000      0.0000
147      0.0000      0.0085      0.0000      0.0000      0.0000      0.0000      0.0000      0.0000      0.0000
148      0.0000      0.0057      0.0000      0.0000      0.0000      0.0000      0.0000      0.0000      0.0000
149      0.0000      0.0051      0.0000      0.0000      0.0000      0.0000      0.0270      0.0000      0.0000
150      0.0000      0.0061      0.0000      0.0000      0.0000      0.0000      0.0000      0.0408      0.0000

# j      m_j: min, <> & last-chain-values for 1 ...  7 chains
  1  0.0000E+00  1.5605E-04  0.0000E+00  5.9739E-05  0.0000E+00  1.4292E-03  0.0000E+00  0.0000E+00  1.6887E-05
  2  6.5113E-03  5.2462E-03  5.5508E-03  5.1978E-03  5.2593E-03  5.0726E-03  5.3071E-03  5.6282E-03  5.4963E-03
  3  4.6922E-02  4.1426E-02  4.3675E-02  4.1297E-02  4.0385E-02  4.0926E-02  4.1994E-02  4.2633E-02  4.2697E-02
  4  0.0000E+00  3.3783E-04  0.0000E+00  7.6488E-04  1.5578E-04  0.0000E+00  0.0000E+00  8.8652E-04  1.7121E-03
  5  0.0000E+00  1.4459E-03  0.0000E+00  9.7982E-04  2.6769E-03  1.4292E-03  8.3122E-05  2.1326E-03  0.0000E+00
  6  0.0000E+00  2.5838E-04  0.0000E+00  0.0000E+00  0.0000E+00  6.4122E-04  0.0000E+00  0.0000E+00  1.8162E-05
  7  0.0000E+00  3.8729E-04  7.2334E-04  1.1737E-03  1.2000E-03  1.5560E-03  8.5851E-04  0.0000E+00  0.0000E+00
  8  0.0000E+00  9.6985E-05  2.6160E-04  2.9135E-05  1.4550E-03  0.0000E+00  0.0000E+00  0.0000E+00  0.0000E+00
  9  0.0000E+00  9.2602E-05  0.0000E+00  0.0000E+00  0.0000E+00  0.0000E+00  0.0000E+00  0.0000E+00  0.0000E+00
 10  0.0000E+00  1.0543E-04  0.0000E+00  0.0000E+00  0.0000E+00  0.0000E+00  0.0000E+00  0.0000E+00  0.0000E+00
 11  0.0000E+00  1.1431E-04  0.0000E+00  0.0000E+00  0.0000E+00  0.0000E+00  0.0000E+00  0.0000E+00  6.1664E-04
 12  0.0000E+00  3.3085E-04  0.0000E+00  0.0000E+00  0.0000E+00  0.0000E+00  0.0000E+00  0.0000E+00  0.0000E+00
 13  0.0000E+00  1.7773E-04  0.0000E+00  0.0000E+00  9.8273E-04  6.5110E-05  0.0000E+00  0.0000E+00  0.0000E+00
 14  0.0000E+00  1.8375E-04  0.0000E+00  5.4809E-04  0.0000E+00  0.0000E+00  0.0000E+00  1.2458E-04  0.0000E+00
 15  0.0000E+00  3.2479E-04  0.0000E+00  4.7639E-03  0.0000E+00  0.0000E+00  0.0000E+00  2.8274E-03  0.0000E+00
 16  0.0000E+00  9.6030E-04  0.0000E+00  0.0000E+00  0.0000E+00  0.0000E+00  0.0000E+00  0.0000E+00  0.0000E+00
 17  0.0000E+00  1.6396E-03  0.0000E+00  0.0000E+00  0.0000E+00  6.6552E-03  0.0000E+00  0.0000E+00  0.0000E+00
 18  0.0000E+00  3.4286E-03  0.0000E+00  0.0000E+00  0.0000E+00  2.1155E-02  0.0000E+00  0.0000E+00  0.0000E+00
 19  0.0000E+00  1.0423E-02  0.0000E+00  0.0000E+00  0.0000E+00  0.0000E+00  0.0000E+00  3.7223E-02  0.0000E+00
 20  0.0000E+00  2.5630E-02  4.7321E-02  1.6340E-02  0.0000E+00  0.0000E+00  0.0000E+00  0.0000E+00  0.0000E+00
 21  0.0000E+00  2.4320E-02  0.0000E+00  0.0000E+00  0.0000E+00  0.0000E+00  3.0673E-03  0.0000E+00  0.0000E+00
 22  0.0000E+00  6.4609E-02  0.0000E+00  0.0000E+00  0.0000E+00  1.9562E-01  0.0000E+00  2.3155E-01  0.0000E+00
 23  0.0000E+00  1.1194E-01  0.0000E+00  0.0000E+00  0.0000E+00  0.0000E+00  0.0000E+00  0.0000E+00  0.0000E+00
 24  0.0000E+00  9.1794E-02  4.6106E-02  0.0000E+00  0.0000E+00  0.0000E+00  0.0000E+00  0.0000E+00  2.6341E-02
 25  0.0000E+00  2.2456E-01  1.5088E-01  1.6605E-01  0.0000E+00  6.5156E-01  2.0784E-01  1.8705E-01  4.3940E-02
 26  1.1399E-02  8.3572E-03  9.1075E-03  8.7068E-03  8.5254E-03  8.0557E-03  8.8787E-03  9.0339E-03  8.4279E-03
 27  0.0000E+00  4.7190E-05  0.0000E+00  0.0000E+00  1.1311E-04  0.0000E+00  1.7615E-04  0.0000E+00  6.6491E-05
 28  0.0000E+00  1.4860E-04  0.0000E+00  0.0000E+00  2.1289E-04  2.6968E-05  7.5231E-05  0.0000E+00  2.0096E-04
 29  2.1652E-04  1.3298E-03  9.9697E-04  1.0781E-03  1.9951E-03  1.2159E-03  1.9326E-03  1.3928E-03  1.0235E-03
 30  0.0000E+00  4.0666E-05  0.0000E+00  0.0000E+00  2.8180E-06  0.0000E+00  0.0000E+00  0.0000E+00  0.0000E+00
 31  0.0000E+00  1.8741E-04  0.0000E+00  0.0000E+00  3.3378E-04  0.0000E+00  2.0740E-05  0.0000E+00  2.4021E-04
 32  0.0000E+00  7.9461E-05  0.0000E+00  0.0000E+00  0.0000E+00  0.0000E+00  0.0000E+00  0.0000E+00  1.6643E-04
 33  0.0000E+00  8.6916E-05  0.0000E+00  1.3024E-04  0.0000E+00  0.0000E+00  0.0000E+00  0.0000E+00  0.0000E+00
 34  0.0000E+00  1.1878E-04  0.0000E+00  0.0000E+00  0.0000E+00  0.0000E+00  0.0000E+00  0.0000E+00  4.5387E-04
 35  0.0000E+00  1.5418E-04  2.5274E-05  0.0000E+00  0.0000E+00  0.0000E+00  0.0000E+00  0.0000E+00  0.0000E+00
 36  0.0000E+00  9.0009E-05  0.0000E+00  0.0000E+00  0.0000E+00  0.0000E+00  0.0000E+00  0.0000E+00  0.0000E+00
 37  0.0000E+00  1.9584E-04  0.0000E+00  0.0000E+00  0.0000E+00  0.0000E+00  0.0000E+00  0.0000E+00  0.0000E+00
 38  0.0000E+00  1.6002E-04  1.8715E-03  0.0000E+00  0.0000E+00  0.0000E+00  8.0465E-04  0.0000E+00  0.0000E+00
 39  0.0000E+00  4.0035E-04  2.5215E-03  0.0000E+00  0.0000E+00  0.0000E+00  0.0000E+00  0.0000E+00  0.0000E+00
 40  0.0000E+00  5.5673E-04  0.0000E+00  6.0482E-04  0.0000E+00  1.8344E-03  0.0000E+00  0.0000E+00  0.0000E+00
 41  0.0000E+00  2.3168E-03  3.4213E-03  0.0000E+00  0.0000E+00  0.0000E+00  0.0000E+00  0.0000E+00  0.0000E+00
 42  0.0000E+00  2.3973E-03  0.0000E+00  0.0000E+00  7.2100E-03  0.0000E+00  0.0000E+00  6.8517E-03  0.0000E+00
 43  0.0000E+00  6.6764E-03  0.0000E+00  0.0000E+00  2.1438E-02  0.0000E+00  0.0000E+00  0.0000E+00  0.0000E+00
 44  0.0000E+00  7.2023E-02  0.0000E+00  1.6693E-01  8.7960E-02  0.0000E+00  9.7002E-02  7.9963E-02  4.3458E-02
 45  7.4448E+00  5.2762E+00  5.7995E+00  5.4429E+00  5.5850E+00  5.3357E+00  5.5040E+00  5.2133E+00  5.5001E+00
 46  9.7210E+00  9.7037E+00  9.7833E+00  9.7479E+00  1.0083E+01  9.9132E+00  9.5217E+00  9.8646E+00  9.9417E+00
 47  7.9278E+00  1.0081E+01  9.4241E+00  1.0070E+01  1.0104E+01  9.9263E+00  1.0444E+01  1.0206E+01  1.0117E+01
 48  0.0000E+00  1.3235E-01  5.7805E-02  3.0925E-01  2.6747E-02  3.0689E-01  1.3022E-01  1.3659E-01  8.2496E-02
 49  4.1470E-04  1.6789E-01  2.7279E-01  0.0000E+00  0.0000E+00  2.1512E-01  0.0000E+00  3.4812E-01  6.0234E-02
 50  5.2808E-04  1.5264E-01  2.4452E-01  0.0000E+00  9.5874E-02  0.0000E+00  0.0000E+00  0.0000E+00  1.5576E-01
 51  0.0000E+00  3.0443E-04  0.0000E+00  0.0000E+00  0.0000E+00  5.9663E-04  4.2959E-04  0.0000E+00  0.0000E+00
 52  0.0000E+00  4.6880E-05  0.0000E+00  0.0000E+00  0.0000E+00  1.4158E-04  0.0000E+00  0.0000E+00  1.8525E-04
 53  0.0000E+00  6.4697E-05  0.0000E+00  0.0000E+00  4.0739E-04  4.6455E-06  1.8191E-04  1.4620E-05  1.0506E-04
 54  0.0000E+00  2.5385E-05  0.0000E+00  9.0772E-05  1.1508E-05  0.0000E+00  0.0000E+00  2.6135E-04  7.0305E-05
 55  0.0000E+00  5.3504E-05  0.0000E+00  3.4381E-04  0.0000E+00  0.0000E+00  0.0000E+00  0.0000E+00  0.0000E+00
 56  0.0000E+00  1.5176E-04  4.5004E-04  0.0000E+00  4.5967E-04  0.0000E+00  0.0000E+00  1.8486E-04  7.0302E-04
 57  0.0000E+00  1.5072E-04  2.9985E-04  0.0000E+00  5.3319E-04  1.3885E-04  0.0000E+00  0.0000E+00  0.0000E+00
 58  0.0000E+00  2.3078E-04  5.2073E-04  0.0000E+00  0.0000E+00  0.0000E+00  0.0000E+00  0.0000E+00  7.6988E-04
 59  0.0000E+00  1.8313E-04  4.6525E-05  4.4371E-04  0.0000E+00  0.0000E+00  0.0000E+00  0.0000E+00  0.0000E+00
 60  0.0000E+00  2.3621E-04  0.0000E+00  1.7388E-03  4.0415E-04  0.0000E+00  1.5982E-03  0.0000E+00  0.0000E+00
 61  0.0000E+00  8.9557E-05  0.0000E+00  0.0000E+00  0.0000E+00  5.3624E-05  0.0000E+00  0.0000E+00  0.0000E+00
 62  0.0000E+00  1.8555E-04  0.0000E+00  0.0000E+00  0.0000E+00  0.0000E+00  0.0000E+00  0.0000E+00  0.0000E+00
 63  0.0000E+00  2.0253E-04  0.0000E+00  0.0000E+00  0.0000E+00  0.0000E+00  0.0000E+00  0.0000E+00  0.0000E+00
 64  0.0000E+00  5.0222E-04  0.0000E+00  0.0000E+00  0.0000E+00  0.0000E+00  1.0501E-02  0.0000E+00  0.0000E+00
 65  0.0000E+00  1.5951E-03  1.0110E-02  0.0000E+00  0.0000E+00  0.0000E+00  0.0000E+00  0.0000E+00  9.2225E-03
 66  0.0000E+00  8.0301E-03  1.1937E-02  5.8428E-02  3.8783E-02  0.0000E+00  0.0000E+00  0.0000E+00  2.0360E-02
 67  0.0000E+00  8.3471E-03  0.0000E+00  0.0000E+00  0.0000E+00  0.0000E+00  6.5126E-03  4.2913E-03  0.0000E+00
 68  7.9480E-01  4.6353E-01  5.6746E-01  5.3997E-01  5.3054E-01  3.1964E-01  5.2903E-01  6.2001E-01  7.4352E-01
 69  1.4921E+00  1.1277E+00  1.1192E+00  1.1418E+00  7.1222E-01  1.2207E+00  1.2606E+00  1.1396E+00  1.1183E+00
 70  3.7746E-01  3.2051E-01  4.9658E-01  3.6801E-01  6.5402E-01  2.3241E-01  5.4505E-01  0.0000E+00  4.1375E-02
 71  9.5930E-01  6.6545E-01  5.1565E-01  7.2235E-01  2.0919E-01  8.0314E-01  7.5183E-01  8.7471E-01  5.1136E-01
 72  9.1707E-01  4.0468E-01  5.8566E-01  4.7362E-01  1.1804E-01  1.3181E+00  3.5495E-01  6.9883E-01  5.4710E-01
 73  1.5647E+00  6.0264E-01  3.8208E-01  3.3946E-01  5.2971E-01  6.2868E-01  0.0000E+00  5.8050E-01  6.2413E-01
 74  2.9232E-01  6.0921E-01  4.9536E-01  2.3379E-01  1.0689E+00  5.1062E-01  9.1237E-01  2.9258E-01  5.8529E-01
 75  0.0000E+00  2.6862E-01  9.1105E-02  5.6336E-01  4.1123E-02  0.0000E+00  0.0000E+00  1.4085E-01  7.0901E-01
 76  0.0000E+00  1.8749E-04  0.0000E+00  6.7410E-04  5.0882E-05  0.0000E+00  0.0000E+00  0.0000E+00  0.0000E+00
 77  0.0000E+00  3.3312E-05  0.0000E+00  7.9248E-05  0.0000E+00  0.0000E+00  0.0000E+00  0.0000E+00  0.0000E+00
 78  0.0000E+00  2.5359E-05  0.0000E+00  0.0000E+00  2.7638E-05  0.0000E+00  0.0000E+00  0.0000E+00  0.0000E+00
 79  0.0000E+00  7.8051E-05  0.0000E+00  0.0000E+00  3.7159E-05  0.0000E+00  0.0000E+00  0.0000E+00  0.0000E+00
 80  0.0000E+00  5.2999E-05  0.0000E+00  0.0000E+00  0.0000E+00  0.0000E+00  0.0000E+00  0.0000E+00  0.0000E+00
 81  0.0000E+00  3.7484E-05  0.0000E+00  2.1848E-04  0.0000E+00  0.0000E+00  0.0000E+00  0.0000E+00  0.0000E+00
 82  0.0000E+00  6.5510E-05  0.0000E+00  0.0000E+00  0.0000E+00  0.0000E+00  0.0000E+00  0.0000E+00  3.4914E-05
 83  0.0000E+00  1.1462E-04  0.0000E+00  0.0000E+00  0.0000E+00  0.0000E+00  0.0000E+00  0.0000E+00  0.0000E+00
 84  0.0000E+00  1.5295E-04  0.0000E+00  0.0000E+00  6.8554E-05  5.7496E-04  0.0000E+00  0.0000E+00  0.0000E+00
 85  0.0000E+00  8.3850E-05  0.0000E+00  3.5197E-05  0.0000E+00  0.0000E+00  5.0520E-05  0.0000E+00  0.0000E+00
 86  0.0000E+00  1.1455E-04  0.0000E+00  0.0000E+00  0.0000E+00  0.0000E+00  0.0000E+00  0.0000E+00  0.0000E+00
 87  0.0000E+00  2.2169E-04  8.8476E-04  0.0000E+00  0.0000E+00  0.0000E+00  0.0000E+00  0.0000E+00  0.0000E+00
 88  0.0000E+00  2.4236E-04  0.0000E+00  0.0000E+00  0.0000E+00  0.0000E+00  0.0000E+00  0.0000E+00  0.0000E+00
 89  0.0000E+00  7.8909E-04  0.0000E+00  1.1944E-04  0.0000E+00  0.0000E+00  0.0000E+00  0.0000E+00  0.0000E+00
 90  0.0000E+00  3.1597E-03  0.0000E+00  0.0000E+00  0.0000E+00  0.0000E+00  0.0000E+00  0.0000E+00  0.0000E+00
 91  0.0000E+00  9.7301E-03  0.0000E+00  6.7373E-03  5.6916E-02  0.0000E+00  0.0000E+00  1.0541E-02  3.8956E-02
 92  0.0000E+00  1.4718E-02  0.0000E+00  0.0000E+00  0.0000E+00  0.0000E+00  1.5578E-02  0.0000E+00  0.0000E+00
 93  0.0000E+00  4.3438E-02  0.0000E+00  0.0000E+00  6.6056E-02  1.3255E-01  1.2932E-02  1.5540E-01  0.0000E+00
 94  1.1739E+00  9.2515E-01  1.0413E+00  1.0227E+00  9.3945E-01  1.0840E+00  1.1418E+00  9.2687E-01  8.5631E-01
 95  2.2002E+00  1.4013E+00  1.3627E+00  1.3893E+00  1.2965E+00  1.4650E+00  1.2653E+00  1.4069E+00  1.5269E+00
 96  1.2769E+00  3.0445E-01  3.0978E-01  4.7282E-01  5.5193E-01  0.0000E+00  6.9711E-01  0.0000E+00  3.5895E-01
 97  4.9971E+00  3.5242E+00  3.2220E+00  3.5139E+00  3.5755E+00  3.5272E+00  3.3750E+00  3.8920E+00  4.0064E+00
 98  0.0000E+00  2.4092E-01  3.2306E-01  0.0000E+00  1.0760E+00  2.1026E-01  1.7017E-01  0.0000E+00  0.0000E+00
 99  1.3949E+01  1.2925E+01  1.3790E+01  1.4042E+01  1.3186E+01  1.2789E+01  1.3726E+01  1.2988E+01  1.2883E+01
100  8.1320E+00  7.3815E+00  8.0117E+00  7.2761E+00  7.4732E+00  7.8305E+00  7.0668E+00  7.1788E+00  7.2776E+00
101  0.0000E+00  1.9098E-05  0.0000E+00  8.3678E-07  0.0000E+00  0.0000E+00  0.0000E+00  0.0000E+00  0.0000E+00
102  0.0000E+00  3.1416E-05  0.0000E+00  1.0471E-04  0.0000E+00  0.0000E+00  0.0000E+00  0.0000E+00  0.0000E+00
103  0.0000E+00  2.1626E-05  1.8303E-04  7.8163E-05  1.0448E-04  0.0000E+00  1.5867E-05  0.0000E+00  1.1356E-04
104  0.0000E+00  3.6463E-05  3.8992E-06  3.2526E-04  0.0000E+00  3.7070E-04  0.0000E+00  0.0000E+00  2.0639E-05
105  0.0000E+00  6.3440E-05  1.4217E-04  0.0000E+00  1.5039E-04  0.0000E+00  1.8231E-04  0.0000E+00  0.0000E+00
106  0.0000E+00  1.7993E-04  0.0000E+00  0.0000E+00  0.0000E+00  0.0000E+00  5.6631E-04  2.6429E-04  1.0263E-03
107  0.0000E+00  1.0400E-04  1.0625E-03  7.3041E-04  0.0000E+00  0.0000E+00  0.0000E+00  0.0000E+00  0.0000E+00
108  0.0000E+00  2.2185E-04  0.0000E+00  0.0000E+00  0.0000E+00  0.0000E+00  1.3011E-03  0.0000E+00  0.0000E+00
109  0.0000E+00  1.4468E-04  0.0000E+00  0.0000E+00  0.0000E+00  0.0000E+00  0.0000E+00  0.0000E+00  0.0000E+00
110  0.0000E+00  1.3555E-04  0.0000E+00  0.0000E+00  0.0000E+00  7.9775E-04  0.0000E+00  0.0000E+00  0.0000E+00
111  0.0000E+00  1.3848E-04  1.1202E-03  0.0000E+00  0.0000E+00  0.0000E+00  0.0000E+00  0.0000E+00  0.0000E+00
112  0.0000E+00  1.5240E-04  0.0000E+00  0.0000E+00  0.0000E+00  0.0000E+00  0.0000E+00  0.0000E+00  0.0000E+00
113  0.0000E+00  2.0055E-04  0.0000E+00  0.0000E+00  0.0000E+00  0.0000E+00  0.0000E+00  0.0000E+00  0.0000E+00
114  0.0000E+00  5.1238E-04  0.0000E+00  0.0000E+00  0.0000E+00  0.0000E+00  0.0000E+00  0.0000E+00  0.0000E+00
115  0.0000E+00  6.6769E-03  0.0000E+00  0.0000E+00  0.0000E+00  0.0000E+00  4.1527E-02  0.0000E+00  5.9057E-03
116  0.0000E+00  9.0979E-03  0.0000E+00  0.0000E+00  0.0000E+00  2.3724E-02  0.0000E+00  0.0000E+00  0.0000E+00
117  0.0000E+00  1.1645E-02  0.0000E+00  0.0000E+00  0.0000E+00  2.9382E-02  0.0000E+00  0.0000E+00  0.0000E+00
118  0.0000E+00  3.6983E-02  0.0000E+00  0.0000E+00  1.2522E-01  0.0000E+00  0.0000E+00  6.4249E-03  8.6961E-02
119  0.0000E+00  9.0755E-02  8.9269E-02  0.0000E+00  3.6605E-02  0.0000E+00  0.0000E+00  2.4526E-01  6.7152E-02
120  0.0000E+00  5.5441E-02  0.0000E+00  0.0000E+00  0.0000E+00  0.0000E+00  9.8656E-02  0.0000E+00  3.0909E-01
121  0.0000E+00  1.5200E-01  0.0000E+00  4.1931E-02  0.0000E+00  9.9732E-02  0.0000E+00  1.1232E-01  2.6050E-01
122  1.0890E+01  1.0187E+01  1.0871E+01  1.0387E+01  1.0157E+01  9.7609E+00  1.0666E+01  1.0263E+01  9.8624E+00
123  1.9934E+01  2.0894E+01  2.1460E+01  2.1080E+01  2.0880E+01  2.1223E+01  2.0733E+01  2.1048E+01  2.0256E+01
124  2.4673E+00  5.2868E+00  3.7745E+00  5.5506E+00  5.2530E+00  5.2096E+00  5.5469E+00  5.3828E+00  5.6667E+00
125  3.4223E+00  5.3708E+00  5.3603E+00  4.7594E+00  5.2323E+00  4.9353E+00  4.8188E+00  5.2077E+00  5.4322E+00
126  0.0000E+00  2.6436E-05  0.0000E+00  0.0000E+00  0.0000E+00  0.0000E+00  4.3429E-06  0.0000E+00  5.0534E-06
127  0.0000E+00  1.8732E-05  0.0000E+00  0.0000E+00  0.0000E+00  0.0000E+00  0.0000E+00  0.0000E+00  0.0000E+00
128  0.0000E+00  3.2657E-05  0.0000E+00  0.0000E+00  0.0000E+00  2.8971E-04  1.5662E-04  0.0000E+00  0.0000E+00
129  0.0000E+00  6.0144E-05  0.0000E+00  1.1743E-04  0.0000E+00  0.0000E+00  0.0000E+00  0.0000E+00  0.0000E+00
130  0.0000E+00  1.0183E-04  1.7854E-04  0.0000E+00  0.0000E+00  0.0000E+00  0.0000E+00  0.0000E+00  0.0000E+00
131  0.0000E+00  5.8912E-05  0.0000E+00  1.7212E-04  0.0000E+00  0.0000E+00  0.0000E+00  0.0000E+00  0.0000E+00
132  0.0000E+00  6.1991E-05  0.0000E+00  0.0000E+00  5.4255E-05  0.0000E+00  5.2276E-04  0.0000E+00  0.0000E+00
133  0.0000E+00  8.3678E-05  0.0000E+00  0.0000E+00  0.0000E+00  0.0000E+00  0.0000E+00  0.0000E+00  0.0000E+00
134  0.0000E+00  4.8975E-05  0.0000E+00  0.0000E+00  0.0000E+00  0.0000E+00  0.0000E+00  0.0000E+00  0.0000E+00
135  0.0000E+00  7.0224E-05  0.0000E+00  0.0000E+00  0.0000E+00  0.0000E+00  0.0000E+00  0.0000E+00  0.0000E+00
136  0.0000E+00  1.5630E-04  0.0000E+00  0.0000E+00  0.0000E+00  0.0000E+00  2.8876E-05  0.0000E+00  0.0000E+00
137  0.0000E+00  2.2130E-04  2.0909E-04  0.0000E+00  0.0000E+00  0.0000E+00  0.0000E+00  0.0000E+00  0.0000E+00
138  0.0000E+00  2.9376E-04  0.0000E+00  0.0000E+00  0.0000E+00  0.0000E+00  0.0000E+00  0.0000E+00  0.0000E+00
139  0.0000E+00  1.6751E-03  0.0000E+00  0.0000E+00  8.2821E-03  9.3217E-03  1.1985E-02  4.3510E-03  0.0000E+00
140  0.0000E+00  8.5069E-03  0.0000E+00  0.0000E+00  0.0000E+00  0.0000E+00  0.0000E+00  0.0000E+00  2.5898E-02
141  0.0000E+00  8.0266E-02  5.3279E-02  2.1276E-02  9.0701E-02  0.0000E+00  0.0000E+00  2.0455E-03  1.1551E-01
142  0.0000E+00  1.8278E-02  0.0000E+00  0.0000E+00  0.0000E+00  0.0000E+00  4.3661E-03  0.0000E+00  0.0000E+00
143  0.0000E+00  2.8089E-02  0.0000E+00  0.0000E+00  1.5172E-02  0.0000E+00  8.8718E-02  1.2564E-01  1.8708E-02
144  0.0000E+00  4.8460E-02  1.2900E-01  0.0000E+00  0.0000E+00  0.0000E+00  0.0000E+00  0.0000E+00  0.0000E+00
145  0.0000E+00  5.5956E-02  0.0000E+00  0.0000E+00  0.0000E+00  0.0000E+00  0.0000E+00  0.0000E+00  0.0000E+00
146  0.0000E+00  3.2030E-02  2.6766E-02  5.6473E-03  0.0000E+00  0.0000E+00  0.0000E+00  0.0000E+00  0.0000E+00
147  0.0000E+00  3.4545E-02  0.0000E+00  0.0000E+00  0.0000E+00  0.0000E+00  0.0000E+00  0.0000E+00  0.0000E+00
148  0.0000E+00  3.1741E-02  0.0000E+00  0.0000E+00  0.0000E+00  0.0000E+00  0.0000E+00  0.0000E+00  0.0000E+00
149  0.0000E+00  3.2765E-02  0.0000E+00  0.0000E+00  0.0000E+00  0.0000E+00  1.7573E-01  0.0000E+00  0.0000E+00
150  0.0000E+00  4.6909E-02  0.0000E+00  0.0000E+00  0.0000E+00  0.0000E+00  0.0000E+00  3.1616E-01  0.0000E+00

# AV, chi2 & Mass for <> & i_chain = 1 ...  7 solutions
AV       1.2975      1.2846      1.2859      1.2856      1.2856      1.2848      1.2842      1.2873      1.2896
chi2 2.7379E+00  2.8333E+00  2.8062E+00  2.8153E+00  2.8227E+00  2.8136E+00  2.8245E+00  2.8069E+00  2.8068E+00
Mass 4.0298E-10  4.1912E-10  4.1812E-10  4.1874E-10  4.1804E-10  4.2023E-10  4.1635E-10  4.1846E-10  4.1584E-10
  -5.72                                  [v0_min (km/s) before EX0s...]
  40.15                                  [vd_min (km/s) before EX0s...]


## Synthetic spectrum (Best Model) ##l_obs f_obs f_syn wei
 3070    [Nl_obs]
 3359.00    0.00000   0.46210   -2.000
 3360.00    0.18497   0.44205   -1.000
 3361.00    0.33427   0.44928   -1.000
 3362.00    0.31776   0.47601   -1.000
 3363.00    0.33493   0.50954   -1.000
 3364.00    0.40209   0.53101   -1.000
 3365.00    0.41233   0.53073   -1.000
 3366.00    0.41269   0.51858   -1.000
 3367.00    0.43417   0.50488   -1.000
 3368.00    0.42013   0.49150   -1.000
 3369.00    0.36935   0.48028   -1.000
 3370.00    0.36401   0.46546   -1.000
 3371.00    0.43275   0.45508   87.879
 3372.00    0.43515   0.45832   85.704
 3373.00    0.36761   0.47770   -1.000
 3374.00    0.37076   0.50547   -1.000
 3375.00    0.40921   0.53293   -1.000
 3376.00    0.37945   0.54675   -1.000
 3377.00    0.39481   0.54179   -1.000
 3378.00    0.45811   0.52425   -1.000
 3379.00    0.44425   0.50926   -1.000
 3380.00    0.41148   0.50632   -1.000
 3381.00    0.40718   0.51389   -1.000
 3382.00    0.39000   0.52423   -1.000
 3383.00    0.41554   0.53266   -1.000
 3384.00    0.43775   0.53964   -1.000
 3385.00    0.43474   0.54721   -1.000
 3386.00    0.46403   0.54641   -1.000
 3387.00    0.46944   0.53866   -1.000
 3388.00    0.44270   0.53326   -1.000
 3389.00    0.44087   0.53660   -1.000
 3390.00    0.45124   0.54234   -1.000
 3391.00    0.49065   0.54198   -1.000
 3392.00    0.49223   0.53265   57.946
 3393.00    0.45609   0.52690   -1.000
 3394.00    0.46329   0.53444   -1.000
 3395.00    0.47237   0.55022   -1.000
 3396.00    0.44955   0.56647   -1.000
 3397.00    0.46858   0.57956   -1.000
 3398.00    0.54036   0.58926   48.721
 3399.00    0.54490   0.59173   47.023
 3400.00    0.52107   0.58651   -1.000
 3401.00    0.53927   0.57520   45.909
 3402.00    0.49317   0.55755   -1.000
 3403.00    0.46466   0.54540   -1.000
 3404.00    0.50607   0.53966   49.116
 3405.00    0.49539   0.54035   50.002
 3406.00    0.48525   0.53894   50.859
 3407.00    0.50074   0.53322   51.343
 3408.00    0.47380   0.52861   51.912
 3409.00    0.46547   0.53224   -1.000
 3410.00    0.48827   0.54212   52.361
 3411.00    0.49175   0.54161   51.290
 3412.00    0.51099   0.53123   50.390
 3413.00    0.51808   0.51832   51.473
 3414.00    0.44003   0.51460   -1.000
 3415.00    0.42938   0.52624   -1.000
 3416.00    0.50014   0.54329   52.495
 3417.00    0.49985   0.55955   -1.000
 3418.00    0.49822   0.57253   -1.000
 3419.00    0.54352   0.58292   45.924
 3420.00    0.55426   0.58789   44.830
 3421.00    0.57990   0.58298   44.591
 3422.00    0.59646   0.56657   44.615
 3423.00    0.55592   0.55163   45.484
 3424.00    0.56276   0.54731   46.657
 3425.00    0.59981   0.55166   46.318
 3426.00    0.57598   0.55888   45.033
 3427.00    0.55294   0.57016   44.391
 3428.00    0.55035   0.58787   -1.000
 3429.00    0.51738   0.60435   -1.000
 3430.00    0.51880   0.60652   -1.000
 3431.00    0.54573   0.59016   -1.000
 3432.00    0.54439   0.56966   -1.000
 3433.00    0.52653   0.56130   73.286
 3434.00    0.55947   0.57110   44.304
 3435.00    0.58779   0.58507   89.061
 3436.00    0.61087   0.58640   -1.000
 3437.00    0.59920   0.57356   72.792
 3438.00    0.57260   0.55329   45.310
 3439.00    0.53011   0.52929   47.782
 3440.00    0.49838   0.50639   51.180
 3441.00    0.51722   0.48934   54.143
 3442.00    0.52554   0.48510   55.125
 3443.00    0.53405   0.49221   55.020
 3444.00    0.50627   0.50455   53.656
 3445.00    0.48376   0.51823   51.044
 3446.00    0.53430   0.53716   48.226
 3447.00    0.55339   0.55915   46.128
 3448.00    0.54593   0.57961   -1.000
 3449.00    0.58253   0.59142   -1.000
 3450.00    0.59147   0.58448  346.770
 3451.00    0.58033   0.56499   -1.000
 3452.00    0.59196   0.54972   -1.000
 3453.00    0.56772   0.54769   -1.000
 3454.00    0.54028   0.55672   -1.000
 3455.00    0.58805   0.56632   -1.000
 3456.00    0.64647   0.56670   -1.000
 3457.00    0.59217   0.55826   -1.000
 3458.00    0.54539   0.54557  346.770
 3459.00    0.58136   0.53387   -1.000
 3460.00    0.60453   0.52386   -1.000
 3461.00    0.55892   0.52343   44.722
 3462.00    0.55022   0.53766   89.221
 3463.00    0.57464   0.55535   -1.000
 3464.00    0.58151   0.55994   -1.000
 3465.00    0.58904   0.55543   -1.000
 3466.00    0.57985   0.55530   -1.000
 3467.00    0.58273   0.56513   -1.000
 3468.00    0.61586   0.58103   -1.000
 3469.00    0.63256   0.59419   -1.000
 3470.00    0.60952   0.59726   -1.000
 3471.00    0.60017   0.58793   -1.000
 3472.00    0.57665   0.57254  346.770
 3473.00    0.57475   0.55099   -1.000
 3474.00    0.57967   0.52975   -1.000
 3475.00    0.54714   0.51663   74.019
 3476.00    0.53018   0.51781   45.588
 3477.00    0.54689   0.53272   45.767
 3478.00    0.57140   0.55124   89.920
 3479.00    0.60780   0.56693   -1.000
 3480.00    0.64255   0.57825   -1.000
 3481.00    0.63257   0.58048   -1.000
 3482.00    0.61928   0.57385   -1.000
 3483.00    0.64916   0.56573   -1.000
 3484.00    0.66342   0.56477   -1.000
 3485.00    0.63469   0.57613   -1.000
 3486.00    0.62639   0.59002   -1.000
 3487.00    0.62951   0.59417   -1.000
 3488.00    0.63691   0.58398   -1.000
 3489.00    0.63903   0.56391   -1.000
 3490.00    0.58194   0.54712   -1.000
 3491.00    0.55207   0.54589  346.770
 3492.00    0.56741   0.55603   -1.000
 3493.00    0.58182   0.56374   -1.000
 3494.00    0.60088   0.56421   -1.000
 3495.00    0.59676   0.55602   -1.000
 3496.00    0.56294   0.54708   -1.000
 3497.00    0.54389   0.54969  346.770
 3498.00    0.52161   0.56255   -1.000
 3499.00    0.54630   0.57806   -1.000
 3500.00    0.61170   0.58421   -1.000
 3501.00    0.63634   0.58570   -1.000
 3502.00    0.64946   0.59224   -1.000
 3503.00    0.65472   0.59744   -1.000
 3504.00    0.63568   0.59458   -1.000
 3505.00    0.62531   0.58401   -1.000
 3506.00    0.60660   0.57439   -1.000
 3507.00    0.57037   0.57120  346.770
 3508.00    0.58908   0.57037   -1.000
 3509.00    0.61399   0.56861   -1.000
 3510.00    0.58224   0.56430   -1.000
 3511.00    0.53210   0.55785   -1.000
 3512.00    0.53510   0.54841   -1.000
 3513.00    0.57535   0.53904   -1.000
 3514.00    0.59994   0.53927   -1.000
 3515.00    0.60109   0.55498   -1.000
 3516.00    0.60376   0.58340   -1.000
 3517.00    0.60620   0.60598  346.770
 3518.00    0.61407   0.61062  346.770
 3519.00    0.63043   0.59561   -1.000
 3520.00    0.60298   0.57503   -1.000
 3521.00    0.58105   0.55761   -1.000
 3522.00    0.59019   0.54511   -1.000
 3523.00    0.56933   0.53286   -1.000
 3524.00    0.54567   0.51936   74.180
 3525.00    0.54838   0.51154   45.142
 3526.00    0.55805   0.52079   45.702
 3527.00    0.57462   0.54189   89.523
 3528.00    0.56439   0.56773  346.770
 3529.00    0.58839   0.58750  346.770
 3530.00    0.62385   0.59628   -1.000
 3531.00    0.63417   0.59638   -1.000
 3532.00    0.63532   0.59113   -1.000
 3533.00    0.61037   0.58288   -1.000
 3534.00    0.58429   0.57966  346.770
 3535.00    0.60869   0.58392   -1.000
 3536.00    0.63059   0.59573   -1.000
 3537.00    0.61869   0.61005  346.770
 3538.00    0.61762   0.62151  346.770
 3539.00    0.63095   0.62686  346.770
 3540.00    0.64364   0.62441   -1.000
 3541.00    0.63631   0.61847   -1.000
 3542.00    0.62772   0.61751   -1.000
 3543.00    0.62283   0.62460  346.770
 3544.00    0.61155   0.63167   -1.000
 3545.00    0.60831   0.63183   -1.000
 3546.00    0.63595   0.62589   -1.000
 3547.00    0.66190   0.62019   -1.000
 3548.00    0.65031   0.61930   -1.000
 3549.00    0.61571   0.62233  346.770
 3550.00    0.60244   0.62554   -1.000
 3551.00    0.59199   0.62460   -1.000
 3552.00    0.58538   0.61561   -1.000
 3553.00    0.59273   0.60247   -1.000
 3554.00    0.58326   0.59517   -1.000
 3555.00    0.58741   0.59757   -1.000
 3556.00    0.62572   0.60447   -1.000
 3557.00    0.61514   0.61147  346.770
 3558.00    0.57758   0.61405   -1.000
 3559.00    0.58077   0.61406   -1.000
 3560.00    0.58194   0.61708   -1.000
 3561.00    0.57086   0.62287   -1.000
 3562.00    0.58978   0.62383   -1.000
 3563.00    0.60634   0.61020  346.770
 3564.00    0.58035   0.58407  346.770
 3565.00    0.55976   0.55799   75.229
 3566.00    0.53690   0.54613   45.709
 3567.00    0.52208   0.54592   46.256
 3568.00    0.51847   0.54581   45.863
 3569.00    0.49369   0.53873   46.601
 3570.00    0.48607   0.52796   47.805
 3571.00    0.52726   0.52421   47.350
 3572.00    0.52905   0.53125   45.495
 3573.00    0.52476   0.54059   86.948
 3574.00    0.56318   0.54880   -1.000
 3575.00    0.55408   0.55653  346.770
 3576.00    0.55143   0.56190   -1.000
 3577.00    0.57093   0.56191  346.770
 3578.00    0.55918   0.55557  346.770
 3579.00    0.52925   0.54001   78.102
 3580.00    0.51554   0.52243   48.168
 3581.00    0.50926   0.50955   51.377
 3582.00    0.49715   0.50607   52.827
 3583.00    0.48933   0.50930   53.087
 3584.00    0.49238   0.50709   53.918
 3585.00    0.48754   0.49545   55.517
 3586.00    0.46912   0.48336   56.781
 3587.00    0.45440   0.48284   55.511
 3588.00    0.47223   0.49811   52.598
 3589.00    0.51022   0.52566   49.940
 3590.00    0.54185   0.55422   46.348
 3591.00    0.54126   0.57359   85.961
 3592.00    0.55921   0.57929   -1.000
 3593.00    0.60559   0.58021   -1.000
 3594.00    0.60778   0.58615   -1.000
 3595.00    0.62209   0.59976   -1.000
 3596.00    0.65226   0.61459   -1.000
 3597.00    0.66270   0.62390   -1.000
 3598.00    0.64307   0.62992   -1.000
 3599.00    0.62507   0.63434   -1.000
 3600.00    0.61769   0.63178   -1.000
 3601.00    0.61099   0.61603  344.873
 3602.00    0.59733   0.59594  346.770
 3603.00    0.57084   0.57994   -1.000
 3604.00    0.55576   0.57514   -1.000
 3605.00    0.56161   0.57662   -1.000
 3606.00    0.56779   0.57464  346.770
 3607.00    0.57459   0.56658  346.770
 3608.00    0.57609   0.55632   -1.000
 3609.00    0.56017   0.55218  346.770
 3610.00    0.55026   0.55657  346.770
 3611.00    0.56291   0.56724  346.770
 3612.00    0.58406   0.57860  346.770
 3613.00    0.59583   0.58863  346.770
 3614.00    0.59006   0.60059   -1.000
 3615.00    0.57361   0.61297   -1.000
 3616.00    0.57421   0.61029   -1.000
 3617.00    0.58774   0.58938  346.770
 3618.00    0.55307   0.56225   -1.000
 3619.00    0.51891   0.55120   75.277
 3620.00    0.53620   0.56349   84.843
 3621.00    0.58494   0.58876  346.770
 3622.00    0.61508   0.61091  346.770
 3623.00    0.61967   0.62439  346.770
 3624.00    0.63186   0.63659  345.090
 3625.00    0.64889   0.65656   -1.000
 3626.00    0.66489   0.67994   -1.000
 3627.00    0.66793   0.69457   -1.000
 3628.00    0.63997   0.68482   -1.000
 3629.00    0.61759   0.65051   -1.000
 3630.00    0.59733   0.60512  346.770
 3631.00    0.55806   0.57584   -1.000
 3632.00    0.53373   0.57198   -1.000
 3633.00    0.55471   0.58698   -1.000
 3634.00    0.57338   0.60344   -1.000
 3635.00    0.57987   0.61178   -1.000
 3636.00    0.59078   0.61693   -1.000
 3637.00    0.60061   0.62990   -1.000
 3638.00    0.65116   0.64798  338.054
 3639.00    0.66811   0.66215  324.977
 3640.00    0.65970   0.66730  319.835
 3641.00    0.66272   0.66052  324.099
 3642.00    0.62810   0.64422   -1.000
 3643.00    0.59100   0.62585   -1.000
 3644.00    0.58515   0.61050   -1.000
 3645.00    0.58678   0.59998   -1.000
 3646.00    0.57704   0.59198   -1.000
 3647.00    0.56872   0.58605   -1.000
 3648.00    0.58286   0.58623  346.770
 3649.00    0.61520   0.59230   -1.000
 3650.00    0.62356   0.60526   -1.000
 3651.00    0.62439   0.62302  346.770
 3652.00    0.64801   0.64323  335.726
 3653.00    0.64833   0.65805   -1.000
 3654.00    0.65263   0.66946   -1.000
 3655.00    0.68163   0.68041  316.239
 3656.00    0.69950   0.69094  313.778
 3657.00    0.71990   0.69918   -1.000
 3658.00    0.73938   0.70249   -1.000
 3659.00    0.68861   0.70255   -1.000
 3660.00    0.64026   0.69861   -1.000
 3661.00    0.65040   0.68959   -1.000
 3662.00    0.66539   0.67784   -1.000
 3663.00    0.66802   0.66990  313.508
 3664.00    0.66286   0.66939  317.299
 3665.00    0.67306   0.67334  316.251
 3666.00    0.66430   0.67490   -1.000
 3667.00    0.64516   0.67003   -1.000
 3668.00    0.64834   0.65930   -1.000
 3669.00    0.64706   0.65059  329.259
 3670.00    0.62335   0.65269   -1.000
 3671.00    0.62499   0.66432   -1.000
 3672.00    0.65408   0.67685   -1.000
 3673.00    0.67398   0.68342   -1.000
 3674.00    0.66899   0.68208   -1.000
 3675.00    0.66931   0.67395  311.164
 3676.00    0.65813   0.65878  316.688
 3677.00    0.62382   0.63923   -1.000
 3678.00    0.61399   0.62218   -1.000
 3679.00    0.61596   0.61506  346.021
 3680.00    0.61074   0.61858   -1.000
 3681.00    0.62198   0.62868  343.967
 3682.00    0.63918   0.63930  334.349
 3683.00    0.63835   0.64378  328.234
 3684.00    0.64241   0.63873  331.178
 3685.00    0.63454   0.62506  342.348
 3686.00    0.59793   0.61039   -1.000
 3687.00    0.57022   0.60753   -1.000
 3688.00    0.58762   0.62143   -1.000
 3689.00    0.63261   0.64799   -1.000
 3690.00    0.67274   0.67264  322.775
 3691.00    0.68350   0.68570  307.742
 3692.00    0.66496   0.68402   -1.000
 3693.00    0.66703   0.67505  310.551
 3694.00    0.66524   0.66915  316.912
 3695.00    0.64905   0.66844   -1.000
 3696.00    0.65274   0.67001   -1.000
 3697.00    0.67502   0.67524  312.457
 3698.00    0.68168   0.68960   -1.000
 3699.00    0.68508   0.70756   -1.000
 3700.00    0.71437   0.71991  290.664
 3701.00    0.71794   0.71127  291.877
 3702.00    0.66906   0.67840  301.740
 3703.00    0.62658   0.63201  323.448
 3704.00    0.61324   0.59243   -1.000
 3705.00    0.58043   0.57153  346.770
 3706.00    0.56645   0.57237  346.770
 3707.00    0.60144   0.58320   -1.000
 3708.00    0.61738   0.59557   -1.000
 3709.00    0.63800   0.60510   -1.000
 3710.00    0.65420   0.61303   -1.000
 3711.00    0.64326   0.62367   -1.000
 3712.00    0.66366   0.64264   -1.000
 3713.00    0.69200   0.66882   -1.000
 3714.00    0.69630   0.69364  290.484
 3715.00    0.73610   0.70771   -1.000
 3716.00    0.75316   0.70582   -1.000
 3717.00    0.71035   0.68659   -1.000
 3718.00    0.64274   0.64936  322.595
 3719.00    0.57354   0.59605   -1.000
 3720.00    0.52785   0.54107   -1.000
 3721.00    0.51444   0.51447   78.272
 3722.00    0.51624   0.52676   84.576
 3723.00    0.56032   0.56842   -1.000
 3724.00    0.61148   0.62011   -1.000
 3725.00    0.60105   0.65559   -1.000
 3726.00    0.56885   0.66439   -1.000
 3727.00    0.54093   0.66193   -1.000
 3728.00    0.51041   0.66334   -1.000
 3729.00    0.49620   0.66742   -1.000
 3730.00    0.53153   0.66277   -1.000
 3731.00    0.59454   0.63478   -1.000
 3732.00    0.58857   0.58066   -1.000
 3733.00    0.52490   0.52411   76.345
 3734.00    0.52350   0.48189   46.777
 3735.00    0.53118   0.46949   -1.000
 3736.00    0.54915   0.49153   49.907
 3737.00    0.58950   0.53919   46.168
 3738.00    0.59649   0.59354   82.206
 3739.00    0.62914   0.64550   -1.000
 3740.00    0.66588   0.67794   -1.000
 3741.00    0.66086   0.68359   -1.000
 3742.00    0.64640   0.66510   -1.000
 3743.00    0.64603   0.63780   -1.000
 3744.00    0.64650   0.61089   -1.000
 3745.00    0.63026   0.58993   -1.000
 3746.00    0.59161   0.56954   -1.000
 3747.00    0.55182   0.54167   78.234
 3748.00    0.51843   0.51259   46.225
 3749.00    0.49022   0.49453   47.923
 3750.00    0.50148   0.50387   89.802
 3751.00    0.55718   0.54425   -1.000
 3752.00    0.62903   0.59986   -1.000
 3753.00    0.67507   0.65494   -1.000
 3754.00    0.69432   0.69606  307.009
 3755.00    0.71344   0.71078  296.325
 3756.00    0.70381   0.69623  302.327
 3757.00    0.67147   0.66216   -1.000
 3758.00    0.65527   0.63017   -1.000
 3759.00    0.64621   0.61937   -1.000
 3760.00    0.62523   0.62678  346.770
 3761.00    0.64015   0.64193  346.770
 3762.00    0.68536   0.65311   -1.000
 3763.00    0.69366   0.65715   -1.000
 3764.00    0.68115   0.65565   -1.000
 3765.00    0.67626   0.64867   -1.000
 3766.00    0.66326   0.63625   -1.000
 3767.00    0.66313   0.62056   -1.000
 3768.00    0.63992   0.60144   -1.000
 3769.00    0.60687   0.58271   -1.000
 3770.00    0.62147   0.57381   -1.000
 3771.00    0.64165   0.58668   -1.000
 3772.00    0.65714   0.61929   -1.000
 3773.00    0.66655   0.65716  311.176
 3774.00    0.68468   0.68250  306.340
 3775.00    0.71045   0.69363   -1.000
 3776.00    0.71735   0.70032   -1.000
 3777.00    0.73922   0.71148   -1.000
 3778.00    0.76193   0.72985   -1.000
 3779.00    0.76304   0.74942   -1.000
 3780.00    0.75851   0.76539  285.898
 3781.00    0.76108   0.77336   -1.000
 3782.00    0.80243   0.77435   -1.000
 3783.00    0.82994   0.77001   -1.000
 3784.00    0.80724   0.75833   -1.000
 3785.00    0.76591   0.73708   -1.000
 3786.00    0.73592   0.71164   -1.000
 3787.00    0.71145   0.68757   -1.000
 3788.00    0.68989   0.67285   -1.000
 3789.00    0.67861   0.67176  346.473
 3790.00    0.67689   0.67782  342.979
 3791.00    0.69119   0.68149   -1.000
 3792.00    0.69190   0.67601   -1.000
 3793.00    0.66583   0.65633   -1.000
 3794.00    0.63519   0.62771   -1.000
 3795.00    0.60877   0.59431   -1.000
 3796.00    0.57029   0.55911   -1.000
 3797.00    0.53340   0.52723  346.770
 3798.00    0.51905   0.51503  346.770
 3799.00    0.55089   0.53821   -1.000
 3800.00    0.62057   0.59397   -1.000
 3801.00    0.68145   0.65364   -1.000
 3802.00    0.69966   0.69969  326.090
 3803.00    0.70074   0.72404   -1.000
 3804.00    0.71398   0.73156   -1.000
 3805.00    0.72553   0.72595  313.236
 3806.00    0.72953   0.71590   -1.000
 3807.00    0.71991   0.71490  331.132
 3808.00    0.72571   0.72766  329.450
 3809.00    0.75461   0.74693  318.376
 3810.00    0.77188   0.75990   -1.000
 3811.00    0.75754   0.75396  312.219
 3812.00    0.73771   0.72724   -1.000
 3813.00    0.70771   0.69401   -1.000
 3814.00    0.65446   0.66638   -1.000
 3815.00    0.62408   0.65705   -1.000
 3816.00    0.62676   0.66559   -1.000
 3817.00    0.66094   0.67777   -1.000
 3818.00    0.67386   0.67587  346.770
 3819.00    0.63340   0.65634   -1.000
 3820.00    0.62521   0.63820   -1.000
 3821.00    0.65504   0.63652   -1.000
 3822.00    0.67171   0.64867   -1.000
 3823.00    0.67257   0.65133   -1.000
 3824.00    0.62094   0.63297   -1.000
 3825.00    0.58759   0.61022   82.048
 3826.00    0.59920   0.59590   46.761
 3827.00    0.58404   0.59151   47.019
 3828.00    0.56565   0.59195   46.411
 3829.00    0.57808   0.59050   45.649
 3830.00    0.59544   0.58209   45.585
 3831.00    0.57907   0.56276   46.951
 3832.00    0.53525   0.53187   49.949
 3833.00    0.50315   0.49513   52.710
 3834.00    0.50636   0.46770   52.891
 3835.00    0.51942   0.45980   -1.000
 3836.00    0.52417   0.46966   49.641
 3837.00    0.51756   0.48969   49.679
 3838.00    0.51880   0.51257   50.845
 3839.00    0.53214   0.53737   50.951
 3840.00    0.55602   0.56689   48.936
 3841.00    0.61290   0.60517   86.992
 3842.00    0.67293   0.64514   -1.000
 3843.00    0.69969   0.68114   -1.000
 3844.00    0.70887   0.70456  346.770
 3845.00    0.71128   0.71599  346.770
 3846.00    0.72058   0.72346  346.770
 3847.00    0.72319   0.72860  346.770
 3848.00    0.70574   0.72632   -1.000
 3849.00    0.70346   0.71831   -1.000
 3850.00    0.70457   0.71374  346.770
 3851.00    0.70066   0.72148   -1.000
 3852.00    0.71022   0.73476   -1.000
 3853.00    0.72701   0.74191   -1.000
 3854.00    0.74157   0.73597  346.770
 3855.00    0.71324   0.72223  346.770
 3856.00    0.68108   0.70652   -1.000
 3857.00    0.66751   0.68996   -1.000
 3858.00    0.63249   0.67371   -1.000
 3859.00    0.62350   0.66685   45.187
 3860.00    0.64059   0.67618   46.033
 3861.00    0.67316   0.70144   82.799
 3862.00    0.71392   0.72883   -1.000
 3863.00    0.72894   0.74321   -1.000
 3864.00    0.73739   0.74243  346.770
 3865.00    0.74997   0.73638   -1.000
 3866.00    0.76545   0.73391   -1.000
 3867.00    0.76950   0.73550   -1.000
 3868.00    0.74540   0.73591   -1.000
 3869.00    0.71990   0.72832  346.770
 3870.00    0.68226   0.71117   -1.000
 3871.00    0.63464   0.69295   -1.000
 3872.00    0.64359   0.68153   -1.000
 3873.00    0.67472   0.68615   -1.000
 3874.00    0.69639   0.70359  346.770
 3875.00    0.71973   0.71884  346.770
 3876.00    0.71586   0.71466  346.731
 3877.00    0.69043   0.69438  346.770
 3878.00    0.65091   0.67705   -1.000
 3879.00    0.63035   0.67317   -1.000
 3880.00    0.65067   0.67968   -1.000
 3881.00    0.66482   0.68394   -1.000
 3882.00    0.65676   0.68115   -1.000
 3883.00    0.65516   0.67667   -1.000
 3884.00    0.66874   0.66454  346.770
 3885.00    0.66019   0.63394   -1.000
 3886.00    0.61578   0.59034   -1.000
 3887.00    0.57380   0.54717   -1.000
 3888.00    0.55080   0.52429   -1.000
 3889.00    0.54600   0.53371   -1.000
 3890.00    0.58240   0.57417  346.770
 3891.00    0.64511   0.62983   -1.000
 3892.00    0.68170   0.67678  302.778
 3893.00    0.68638   0.69875   -1.000
 3894.00    0.69603   0.70470   -1.000
 3895.00    0.72586   0.71093   -1.000
 3896.00    0.74051   0.72195   -1.000
 3897.00    0.74308   0.73393  291.094
 3898.00    0.74550   0.73981  289.937
 3899.00    0.74620   0.73992  294.861
 3900.00    0.74750   0.74365  294.687
 3901.00    0.76339   0.75022   -1.000
 3902.00    0.76853   0.75132   -1.000
 3903.00    0.74540   0.74452  299.137
 3904.00    0.74502   0.73260   -1.000
 3905.00    0.74571   0.72665   -1.000
 3906.00    0.73694   0.73383  321.048
 3907.00    0.75151   0.75679  309.614
 3908.00    0.77665   0.78651  289.759
 3909.00    0.82165   0.81073   -1.000
 3910.00    0.85600   0.82329   -1.000
 3911.00    0.83650   0.82904  269.952
 3912.00    0.83661   0.83017  267.875
 3913.00    0.83887   0.82459   -1.000
 3914.00    0.81158   0.81345  273.229
 3915.00    0.79028   0.80422   -1.000
 3916.00    0.77514   0.79820   -1.000
 3917.00    0.78009   0.79024  288.053
 3918.00    0.78023   0.77618  294.247
 3919.00    0.75465   0.75775  305.195
 3920.00    0.74583   0.74256  319.377
 3921.00    0.75578   0.73482   -1.000
 3922.00    0.77140   0.73667   -1.000
 3923.00    0.76558   0.74286   -1.000
 3924.00    0.75643   0.74374   -1.000
 3925.00    0.73516   0.73315  335.036
 3926.00    0.67494   0.70597   -1.000
 3927.00    0.61902   0.66745   -1.000
 3928.00    0.56175   0.62066   -1.000
 3929.00    0.51157   0.56948   -1.000
 3930.00    0.46087   0.51104   -1.000
 3931.00    0.40350   0.43926   72.832
 3932.00    0.33835   0.36552   85.741
 3933.00    0.29154   0.31481   97.073
 3934.00    0.29989   0.31613   99.253
 3935.00    0.34046   0.36819   90.153
 3936.00    0.39740   0.44493   -1.000
 3937.00    0.47011   0.52206   -1.000
 3938.00    0.53891   0.59417   52.145
 3939.00    0.59476   0.64961   -1.000
 3940.00    0.64746   0.68765   -1.000
 3941.00    0.68397   0.70836   -1.000
 3942.00    0.68099   0.71438   -1.000
 3943.00    0.67440   0.71571   -1.000
 3944.00    0.70395   0.72480   -1.000
 3945.00    0.74933   0.74305  338.977
 3946.00    0.78278   0.76291   -1.000
 3947.00    0.78158   0.77552  303.160
 3948.00    0.76726   0.78035   -1.000
 3949.00    0.77858   0.78495  293.808
 3950.00    0.80310   0.79031   -1.000
 3951.00    0.80201   0.79075  279.595
 3952.00    0.78006   0.79158   -1.000
 3953.00    0.79458   0.79885  281.964
 3954.00    0.81865   0.80472   -1.000
 3955.00    0.80838   0.80150  273.845
 3956.00    0.79227   0.79102  280.507
 3957.00    0.77940   0.78226  288.041
 3958.00    0.78001   0.78068  287.637
 3959.00    0.78020   0.77235  288.335
 3960.00    0.73281   0.74265  306.887
 3961.00    0.66549   0.70291   -1.000
 3962.00    0.63410   0.66366   -1.000
 3963.00    0.61084   0.63094   -1.000
 3964.00    0.56624   0.59511   83.925
 3965.00    0.50158   0.53744   49.733
 3966.00    0.43026   0.45910   59.749
 3967.00    0.36475   0.37270   73.484
 3968.00    0.30294   0.31261   85.737
 3969.00    0.27369   0.30393   86.785
 3970.00    0.32608   0.34719   75.517
 3971.00    0.41262   0.42136   62.086
 3972.00    0.46938   0.50546   51.511
 3973.00    0.54840   0.57931   83.778
 3974.00    0.63180   0.64167   -1.000
 3975.00    0.68782   0.69256  341.712
 3976.00    0.74516   0.73472   -1.000
 3977.00    0.79859   0.77116   -1.000
 3978.00    0.82317   0.80266   -1.000
 3979.00    0.84258   0.82821   -1.000
 3980.00    0.86194   0.83933   -1.000
 3981.00    0.86127   0.83865   -1.000
 3982.00    0.85602   0.83498   -1.000
 3983.00    0.85524   0.83669   -1.000
 3984.00    0.86805   0.84823   -1.000
 3985.00    0.88518   0.86315   -1.000
 3986.00    0.89517   0.87570   -1.000
 3987.00    0.90333   0.88772   -1.000
 3988.00    0.91517   0.89820   -1.000
 3989.00    0.92412   0.90191   -1.000
 3990.00    0.91901   0.90473   -1.000
 3991.00    0.93481   0.91246   -1.000
 3992.00    0.96226   0.92321   -1.000
 3993.00    0.96103   0.92956   -1.000
 3994.00    0.95068   0.92521   -1.000
 3995.00    0.93544   0.91056   -1.000
 3996.00    0.93164   0.89255   -1.000
 3997.00    0.94095   0.88535   -1.000
 3998.00    0.93279   0.89411   -1.000
 3999.00    0.93342   0.91406   -1.000
 4000.00    0.96982   0.93343   -1.000
 4001.00    0.99321   0.94708   -1.000
 4002.00    1.00239   0.95015   -1.000
 4003.00    0.97777   0.93805   -1.000
 4004.00    0.94420   0.91157   -1.000
 4005.00    0.92638   0.88824   -1.000
 4006.00    0.90466   0.88802   -1.000
 4007.00    0.92856   0.91003   -1.000
 4008.00    0.95920   0.93868   -1.000
 4009.00    0.94884   0.95672  215.947
 4010.00    0.97747   0.96426  213.447
 4011.00    0.99181   0.96709   -1.000
 4012.00    0.96965   0.96794  212.392
 4013.00    0.98286   0.96983  213.773
 4014.00    1.00011   0.97409   -1.000
 4015.00    1.00376   0.97814   -1.000
 4016.00    0.98989   0.97932  210.542
 4017.00    0.98977   0.98070  212.846
 4018.00    1.01268   0.98654   -1.000
 4019.00    1.03037   0.99366   -1.000
 4020.00    1.03459   0.99710   -1.000
 4021.00    1.02633   0.99313   -1.000
 4022.00    0.98766   0.98527  214.072
 4023.00    0.97833   0.97630  215.370
 4024.00    0.99366   0.96925   -1.000
 4025.00    1.00000   0.97091   -1.000
 4026.00    1.02345   0.98548   -1.000
 4027.00    1.04991   1.00358   -1.000
 4028.00    1.04042   1.00565   -1.000
 4029.00    0.98580   0.98346  206.554
 4030.00    0.93777   0.94676  218.006
 4031.00    0.93091   0.91661   -1.000
 4032.00    0.94952   0.90295   -1.000
 4033.00    0.96140   0.90682   -1.000
 4034.00    0.96699   0.92632   -1.000
 4035.00    0.99944   0.95902   -1.000
 4036.00    1.02674   0.99589   -1.000
 4037.00    1.04198   1.02669  201.221
 4038.00    1.05901   1.03759   -1.000
 4039.00    1.06382   1.03072   -1.000
 4040.00    1.06547   1.01864   -1.000
 4041.00    1.05440   1.01009   -1.000
 4042.00    1.03373   0.99729   -1.000
 4043.00    1.01830   0.96529   -1.000
 4044.00    0.97084   0.91730   -1.000
 4045.00    0.92240   0.88169   -1.000
 4046.00    0.92001   0.88634   -1.000
 4047.00    0.96027   0.92899   -1.000
 4048.00    0.99911   0.97812   -1.000
 4049.00    1.01670   1.01225  208.028
 4050.00    1.04028   1.02420  203.958
 4051.00    1.04358   1.02283   -1.000
 4052.00    1.02521   1.01256  207.076
 4053.00    1.00098   0.99814  212.707
 4054.00    0.98700   0.98623  217.127
 4055.00    0.99051   0.97774  219.647
 4056.00    0.98594   0.97078   -1.000
 4057.00    0.98863   0.96770   -1.000
 4058.00    1.00646   0.97616   -1.000
 4059.00    1.01599   0.99428   -1.000
 4060.00    1.03572   1.00358   -1.000
 4061.00    1.03787   0.98685   -1.000
 4062.00    0.98179   0.94762   -1.000
 4063.00    0.92221   0.91489  236.617
 4064.00    0.92056   0.90373   -1.000
 4065.00    0.95535   0.91184   -1.000
 4066.00    0.98938   0.93258   -1.000
 4067.00    0.99602   0.95309   -1.000
 4068.00    1.00218   0.96638   -1.000
 4069.00    1.02387   0.96736   -1.000
 4070.00    1.01490   0.95111   -1.000
 4071.00    0.99169   0.92967   -1.000
 4072.00    0.98060   0.92639   -1.000
 4073.00    0.98669   0.94016   -1.000
 4074.00    0.99451   0.95011   -1.000
 4075.00    0.96881   0.93680   -1.000
 4076.00    0.91336   0.90705  234.519
 4077.00    0.87047   0.88729   -1.000
 4078.00    0.88661   0.89361  247.851
 4079.00    0.94152   0.92799  234.840
 4080.00    1.00192   0.96911   -1.000
 4081.00    1.04539   0.99481   -1.000
 4082.00    1.04172   0.99512   -1.000
 4083.00    1.00023   0.97958   -1.000
 4084.00    0.99423   0.96614   -1.000
 4085.00    1.01632   0.96793   -1.000
 4086.00    1.01860   0.98659   -1.000
 4087.00    1.03819   1.01112   -1.000
 4088.00    1.07325   1.02928   -1.000
 4089.00    1.08851   1.03203   -1.000
 4090.00    1.08529   1.02263   -1.000
 4091.00    1.06086   1.01108   -1.000
 4092.00    1.03922   1.00292   -1.000
 4093.00    1.03811   0.99198   -1.000
 4094.00    1.02599   0.97419   -1.000
 4095.00    1.00005   0.94848   -1.000
 4096.00    0.97875   0.92117   -1.000
 4097.00    0.94842   0.89659   -1.000
 4098.00    0.92216   0.86589   -1.000
 4099.00    0.88105   0.81880   -1.000
 4100.00    0.79138   0.75828   -1.000
 4101.00    0.71524   0.71257  275.812
 4102.00    0.71292   0.70980  282.528
 4103.00    0.77496   0.75866   -1.000
 4104.00    0.87001   0.83044   -1.000
 4105.00    0.94104   0.89438   -1.000
 4106.00    0.97612   0.93315   -1.000
 4107.00    0.98727   0.95122   -1.000
 4108.00    0.97695   0.95667   -1.000
 4109.00    0.97954   0.95602   -1.000
 4110.00    0.97976   0.95712   -1.000
 4111.00    0.97875   0.96468   -1.000
 4112.00    1.00416   0.97860   -1.000
 4113.00    1.01839   0.99619   -1.000
 4114.00    1.03769   1.01366   -1.000
 4115.00    1.06727   1.02555   -1.000
 4116.00    1.06277   1.02472   -1.000
 4117.00    1.02746   1.01138   -1.000
 4118.00    0.98725   0.99389  216.918
 4119.00    0.99628   0.98239   -1.000
 4120.00    1.03631   0.98351   -1.000
 4121.00    1.03041   0.99078   -1.000
 4122.00    1.00158   0.99764  218.154
 4123.00    1.00501   1.00453  217.157
 4124.00    1.02672   1.01288  214.008
 4125.00    1.04517   1.01929   -1.000
 4126.00    1.03336   1.01770   -1.000
 4127.00    1.01428   1.00933  216.573
 4128.00    1.02467   1.00207   -1.000
 4129.00    1.01286   0.99771   -1.000
 4130.00    0.99997   0.98758   -1.000
 4131.00    0.98348   0.96978   -1.000
 4132.00    0.95346   0.95372  235.462
 4133.00    0.97215   0.95496   -1.000
 4134.00    1.01231   0.97589   -1.000
 4135.00    1.01742   1.00472  225.791
 4136.00    1.02826   1.03073  216.303
 4137.00    1.06581   1.05027   -1.000
 4138.00    1.08757   1.06397   -1.000
 4139.00    1.09146   1.06973   -1.000
 4140.00    1.07487   1.05828   -1.000
 4141.00    1.02177   1.02626  214.983
 4142.00    0.95080   0.98453   -1.000
 4143.00    0.92871   0.95711   -1.000
 4144.00    0.95534   0.96053  247.872
 4145.00    0.99829   0.98847  235.427
 4146.00    1.04652   1.01877   -1.000
 4147.00    1.05766   1.03129   -1.000
 4148.00    1.03888   1.02861  219.457
 4149.00    1.02853   1.02303  224.744
 4150.00    1.02211   1.02147  229.405
 4151.00    1.02577   1.02172  229.971
 4152.00    1.02895   1.01780  228.377
 4153.00    1.05888   1.00938   -1.000
 4154.00    1.28085   1.00133   -1.000
 4155.00    1.33629   1.00006   -1.000
 4156.00    0.86111   1.00842   -1.000
 4157.00    0.71819   1.02315   -1.000
 4158.00    1.06140   1.04091   -1.000
 4159.00    1.11448   1.05573   -1.000
 4160.00    1.05191   1.06487  220.335
 4161.00    1.07166   1.07069  216.214
 4162.00    1.07599   1.07572  211.533
 4163.00    1.06364   1.07978   -1.000
 4164.00    1.06040   1.07922   -1.000
 4165.00    1.06144   1.07152  216.865
 4166.00    1.06074   1.05765  220.900
 4167.00    1.06583   1.04821   -1.000
 4168.00    1.06372   1.04732   -1.000
 4169.00    1.06620   1.04842   -1.000
 4170.00    1.05847   1.03743   -1.000
 4171.00    1.01494   1.00857  229.871
 4172.00    0.95235   0.97979   -1.000
 4173.00    0.92251   0.96924   -1.000
 4174.00    0.95771   0.97958   -1.000
 4175.00    1.00524   0.99837  238.536
 4176.00    1.01983   1.00925  233.991
 4177.00    1.00103   1.01411  234.738
 4178.00    0.99318   1.02056   -1.000
 4179.00    1.02038   1.02942  232.609
 4180.00    1.04010   1.03579  229.580
 4181.00    1.02356   1.03313  228.562
 4182.00    1.00950   1.03126   -1.000
 4183.00    1.02916   1.04074  223.949
 4184.00    1.05488   1.05097  219.656
 4185.00    1.05391   1.04983  217.818
 4186.00    1.03241   1.03547  221.617
 4187.00    1.01256   1.02137  228.768
 4188.00    1.00509   1.02156   -1.000
 4189.00    1.01722   1.03160   -1.000
 4190.00    1.04318   1.04117  223.908
 4191.00    1.04871   1.04766  221.839
 4192.00    1.05589   1.05474  217.923
 4193.00    1.08098   1.06125   -1.000
 4194.00    1.07544   1.05702   -1.000
 4195.00    1.03733   1.03515  224.554
 4196.00    1.00470   1.00728  234.459
 4197.00    0.97757   0.98444  240.366
 4198.00    0.96369   0.97139  242.722
 4199.00    0.98590   0.96706   -1.000
 4200.00    0.99683   0.97112   -1.000
 4201.00    0.99778   0.97837   -1.000
 4202.00    1.01075   0.98718   -1.000
 4203.00    1.01608   1.00270  232.346
 4204.00    1.01991   1.02402  229.600
 4205.00    1.01885   1.04322   -1.000
 4206.00    1.04741   1.05828  221.502
 4207.00    1.07311   1.06949  216.526
 4208.00    1.07383   1.07335  213.864
 4209.00    1.05365   1.07170   -1.000
 4210.00    1.04457   1.07122   -1.000
 4211.00    1.05089   1.07606   -1.000
 4212.00    1.04867   1.08018   -1.000
 4213.00    1.04228   1.06851   -1.000
 4214.00    1.00345   1.04307   -1.000
 4215.00    0.95485   1.02377   -1.000
 4216.00    0.97270   1.02487   -1.000
 4217.00    1.02971   1.05042   -1.000
 4218.00    1.07940   1.08109  209.468
 4219.00    1.11382   1.10301  201.970
 4220.00    1.12838   1.11042  198.096
 4221.00    1.11860   1.10321  197.928
 4222.00    1.08293   1.07864  202.849
 4223.00    1.03060   1.03324  214.172
 4224.00    0.96552   0.96900  232.287
 4225.00    0.89088   0.90894   -1.000
 4226.00    0.83368   0.87727   -1.000
 4227.00    0.84946   0.89816   -1.000
 4228.00    0.94470   0.96445   -1.000
 4229.00    1.03440   1.04103  229.436
 4230.00    1.08318   1.08438  211.803
 4231.00    1.09690   1.09049  205.522
 4232.00    1.07007   1.07639  207.116
 4233.00    1.05467   1.05580  212.340
 4234.00    1.05139   1.03789  216.278
 4235.00    1.02513   1.03075  219.736
 4236.00    0.99221   1.03046   -1.000
 4237.00    0.98999   1.03580   -1.000
 4238.00    1.00042   1.04844   -1.000
 4239.00    1.02803   1.06392   -1.000
 4240.00    1.05746   1.08060   -1.000
 4241.00    1.05341   1.09727   -1.000
 4242.00    1.07375   1.11054   -1.000
 4243.00    1.09569   1.12098   -1.000
 4244.00    1.09168   1.12684   -1.000
 4245.00    1.08571   1.12027   -1.000
 4246.00    1.05921   1.09588   -1.000
 4247.00    1.02370   1.06425   -1.000
 4248.00    1.01012   1.03808   -1.000
 4249.00    0.99813   1.02643   -1.000
 4250.00    0.99032   1.02959   -1.000
 4251.00    1.03317   1.04488   -1.000
 4252.00    1.06613   1.05774  217.692
 4253.00    1.05112   1.05796  215.093
 4254.00    1.02974   1.05294   -1.000
 4255.00    1.04395   1.05899   -1.000
 4256.00    1.07540   1.07803  214.668
 4257.00    1.08624   1.08644  209.298
 4258.00    1.06185   1.06782  212.386
 4259.00    1.02919   1.03760  222.574
 4260.00    1.00094   1.02331   -1.000
 4261.00    0.99054   1.04122   -1.000
 4262.00    1.04427   1.08102   -1.000
 4263.00    1.09405   1.12116   -1.000
 4264.00    1.10859   1.14312   -1.000
 4265.00    1.13918   1.14547  196.702
 4266.00    1.13242   1.13649  198.099
 4267.00    1.10609   1.11865   -1.000
 4268.00    1.08382   1.09091  209.640
 4269.00    1.05361   1.05463  216.800
 4270.00    1.01551   1.01272  228.014
 4271.00    0.97717   0.98073  242.873
 4272.00    0.96003   0.96789  251.935
 4273.00    0.94963   0.97656   -1.000
 4274.00    0.95845   0.99991   -1.000
 4275.00    0.99684   1.03304   -1.000
 4276.00    1.03903   1.07335   -1.000
 4277.00    1.07788   1.10966   -1.000
 4278.00    1.09600   1.12106   -1.000
 4279.00    1.07922   1.10838   -1.000
 4280.00    1.04775   1.08702   -1.000
 4281.00    1.02946   1.07690   -1.000
 4282.00    1.04802   1.07962   -1.000
 4283.00    1.06101   1.08209   -1.000
 4284.00    1.04417   1.07874   -1.000
 4285.00    1.01684   1.06915   -1.000
 4286.00    1.00324   1.05522   -1.000
 4287.00    0.99617   1.03547   -1.000
 4288.00    0.96479   1.00794   -1.000
 4289.00    0.91635   0.97977   -1.000
 4290.00    0.91245   0.97115   -1.000
 4291.00    0.96021   0.99037   -1.000
 4292.00    1.00457   1.02197   -1.000
 4293.00    1.02162   1.03991   -1.000
 4294.00    1.01326   1.03796   -1.000
 4295.00    0.99226   1.02788   -1.000
 4296.00    0.97165   1.01177   -1.000
 4297.00    0.93379   0.98189   -1.000
 4298.00    0.89215   0.94216   -1.000
 4299.00    0.86134   0.90366   -1.000
 4300.00    0.83189   0.88203   -1.000
 4301.00    0.81790   0.88074   -1.000
 4302.00    0.82493   0.89168   -1.000
 4303.00    0.85002   0.90484   -1.000
 4304.00    0.87157   0.91555   -1.000
 4305.00    0.87623   0.91458   -1.000
 4306.00    0.85493   0.89783   -1.000
 4307.00    0.82404   0.87572   -1.000
 4308.00    0.80942   0.86413   -1.000
 4309.00    0.81593   0.87435   -1.000
 4310.00    0.84399   0.90180   -1.000
 4311.00    0.88031   0.93602   -1.000
 4312.00    0.91182   0.96745   -1.000
 4313.00    0.94282   1.00121   -1.000
 4314.00    0.99007   1.04689   -1.000
 4315.00    1.06063   1.10370   -1.000
 4316.00    1.12714   1.16346   -1.000
 4317.00    1.17620   1.20136   -1.000
 4318.00    1.19617   1.20959   -1.000
 4319.00    1.18625   1.19784  186.567
 4320.00    1.16842   1.17746  190.206
 4321.00    1.12539   1.14845   -1.000
 4322.00    1.08316   1.10733   -1.000
 4323.00    1.04136   1.05360   -1.000
 4324.00    0.98044   1.00375   -1.000
 4325.00    0.95055   0.98540   -1.000
 4326.00    0.98956   1.01561   -1.000
 4327.00    1.06496   1.07752   -1.000
 4328.00    1.12308   1.13740   -1.000
 4329.00    1.14033   1.16569   -1.000
 4330.00    1.12756   1.16848   -1.000
 4331.00    1.12636   1.16605   -1.000
 4332.00    1.14416   1.16979   -1.000
 4333.00    1.15792   1.17405   -1.000
 4334.00    1.16561   1.16714  187.846
 4335.00    1.14775   1.13864  189.203
 4336.00    1.09829   1.08149  196.716
 4337.00    1.01221   0.99875  212.714
 4338.00    0.91276   0.90705  233.306
 4339.00    0.82142   0.84142   -1.000
 4340.00    0.75460   0.82155   -1.000
 4341.00    0.77487   0.85680   -1.000
 4342.00    0.87245   0.93323   -1.000
 4343.00    0.98432   1.01655   -1.000
 4344.00    1.06664   1.07609  208.318
 4345.00    1.10340   1.11465   -1.000
 4346.00    1.11549   1.14215   -1.000
 4347.00    1.12738   1.16579   -1.000
 4348.00    1.14871   1.18099   -1.000
 4349.00    1.14473   1.17187   -1.000
 4350.00    1.10698   1.13501   -1.000
 4351.00    1.05668   1.09491   -1.000
 4352.00    1.03538   1.07833   -1.000
 4353.00    1.05185   1.09798   -1.000
 4354.00    1.09840   1.13639   -1.000
 4355.00    1.13489   1.17024   -1.000
 4356.00    1.16031   1.18783   -1.000
 4357.00    1.17547   1.19055   -1.000
 4358.00    1.15464   1.18372   -1.000
 4359.00    1.13249   1.17950   -1.000
 4360.00    1.13584   1.18858   -1.000
 4361.00    1.16048   1.20662   -1.000
 4362.00    1.19209   1.22474   -1.000
 4363.00    1.21941   1.23751   -1.000
 4364.00    1.21963   1.24414   -1.000
 4365.00    1.21548   1.24015   -1.000
 4366.00    1.20715   1.22137   -1.000
 4367.00    1.16970   1.19582   -1.000
 4368.00    1.14850   1.17955   -1.000
 4369.00    1.14984   1.17437   -1.000
 4370.00    1.15799   1.17291   -1.000
 4371.00    1.14590   1.16684   -1.000
 4372.00    1.13378   1.15008   -1.000
 4373.00    1.11822   1.12352  200.745
 4374.00    1.08901   1.09760  209.128
 4375.00    1.08079   1.09373   -1.000
 4376.00    1.09711   1.11948   -1.000
 4377.00    1.13687   1.15975   -1.000
 4378.00    1.16624   1.18623   -1.000
 4379.00    1.16978   1.18764   -1.000
 4380.00    1.16697   1.16403  193.569
 4381.00    1.14848   1.11418   -1.000
 4382.00    1.08495   1.04608   -1.000
 4383.00    1.00322   0.99168  239.937
 4384.00    0.96414   0.98141   -1.000
 4385.00    1.00598   1.01906   -1.000
 4386.00    1.08532   1.07564  220.836
 4387.00    1.13038   1.11304   -1.000
 4388.00    1.12199   1.12517  203.437
 4389.00    1.11946   1.12572  204.780
 4390.00    1.13591   1.12791  206.348
 4391.00    1.14331   1.13666  204.724
 4392.00    1.15543   1.14702  200.272
 4393.00    1.15835   1.14913  198.487
 4394.00    1.13913   1.14329  201.503
 4395.00    1.12017   1.14760   -1.000
 4396.00    1.14367   1.16954   -1.000
 4397.00    1.16784   1.18966   -1.000
 4398.00    1.17166   1.18915   -1.000
 4399.00    1.16637   1.17012  194.132
 4400.00    1.13593   1.15342   -1.000
 4401.00    1.14073   1.14866  202.831
 4402.00    1.16502   1.14455   -1.000
 4403.00    1.14685   1.12638   -1.000
 4404.00    1.10433   1.10065  210.473
 4405.00    1.10477   1.09064  218.072
 4406.00    1.12576   1.10388   -1.000
 4407.00    1.11892   1.12497  209.453
 4408.00    1.12393   1.14584   -1.000
 4409.00    1.16109   1.17345   -1.000
 4410.00    1.20134   1.21070  193.961
 4411.00    1.23919   1.23986  186.444
 4412.00    1.24446   1.24062  182.123
 4413.00    1.21942   1.21314  183.402
 4414.00    1.17936   1.17296  191.243
 4415.00    1.13314   1.14114  200.659
 4416.00    1.12353   1.14105   -1.000
 4417.00    1.14277   1.17082   -1.000
 4418.00    1.19056   1.21180   -1.000
 4419.00    1.22728   1.24095   -1.000
 4420.00    1.23226   1.24786   -1.000
 4421.00    1.23477   1.23427  185.708
 4422.00    1.22507   1.21744  190.063
 4423.00    1.20333   1.21117  191.317
 4424.00    1.19454   1.21324   -1.000
 4425.00    1.20127   1.21489   -1.000
 4426.00    1.18677   1.21437   -1.000
 4427.00    1.17232   1.21711   -1.000
 4428.00    1.16724   1.22222   -1.000
 4429.00    1.16340   1.22501   -1.000
 4430.00    1.18284   1.22530   -1.000
 4431.00    1.20058   1.22631   -1.000
 4432.00    1.18894   1.22377   -1.000
 4433.00    1.17145   1.20688   -1.000
 4434.00    1.14352   1.18173   -1.000
 4435.00    1.12776   1.17117   -1.000
 4436.00    1.16283   1.19375   -1.000
 4437.00    1.22019   1.24140   -1.000
 4438.00    1.26223   1.28106   -1.000
 4439.00    1.25831   1.29140   -1.000
 4440.00    1.23181   1.26750   -1.000
 4441.00    1.20663   1.22841   -1.000
 4442.00    1.17644   1.19766   -1.000
 4443.00    1.15696   1.19574   -1.000
 4444.00    1.17323   1.22240   -1.000
 4445.00    1.22196   1.25901   -1.000
 4446.00    1.25992   1.28491   -1.000
 4447.00    1.27443   1.29293   -1.000
 4448.00    1.27207   1.29277   -1.000
 4449.00    1.25243   1.29112   -1.000
 4450.00    1.24582   1.28754   -1.000
 4451.00    1.25839   1.28135   -1.000
 4452.00    1.25654   1.26862  184.740
 4453.00    1.22255   1.24322   -1.000
 4454.00    1.19255   1.20865   -1.000
 4455.00    1.17458   1.18675   -1.000
 4456.00    1.16984   1.18775   -1.000
 4457.00    1.19085   1.20104  200.168
 4458.00    1.19968   1.20881  198.311
 4459.00    1.19130   1.20682   -1.000
 4460.00    1.17889   1.20257   -1.000
 4461.00    1.16375   1.20486   -1.000
 4462.00    1.17353   1.21980   -1.000
 4463.00    1.21900   1.24311   -1.000
 4464.00    1.25095   1.26217  189.136
 4465.00    1.25286   1.26896   -1.000
 4466.00    1.24490   1.26418   -1.000
 4467.00    1.23983   1.25246  187.860
 4468.00    1.21600   1.24060   -1.000
 4469.00    1.20685   1.23652   -1.000
 4470.00    1.22382   1.24886   -1.000
 4471.00    1.25564   1.27739   -1.000
 4472.00    1.28882   1.30819   -1.000
 4473.00    1.33085   1.33119  176.196
 4474.00    1.34648   1.34215  172.979
 4475.00    1.32837   1.34737   -1.000
 4476.00    1.33510   1.35384   -1.000
 4477.00    1.34852   1.35716  170.644
 4478.00    1.33449   1.34510  170.832
 4479.00    1.29128   1.31221   -1.000
 4480.00    1.25683   1.27343   -1.000
 4481.00    1.23023   1.25257   -1.000
 4482.00    1.22282   1.26219   -1.000
 4483.00    1.26384   1.29824   -1.000
 4484.00    1.30552   1.34005   -1.000
 4485.00    1.33419   1.36846   -1.000
 4486.00    1.33560   1.37270   -1.000
 4487.00    1.32255   1.35370   -1.000
 4488.00    1.29972   1.32259   -1.000
 4489.00    1.26483   1.30113   -1.000
 4490.00    1.25088   1.30198   -1.000
 4491.00    1.28774   1.31978   -1.000
 4492.00    1.32566   1.33240  177.406
 4493.00    1.31929   1.32328  177.150
 4494.00    1.28420   1.30328   -1.000
 4495.00    1.25862   1.29263   -1.000
 4496.00    1.26973   1.30120   -1.000
 4497.00    1.29515   1.32207   -1.000
 4498.00    1.31850   1.34041   -1.000
 4499.00    1.33142   1.34609   -1.000
 4500.00    1.31902   1.33972   -1.000
 4501.00    1.30344   1.33731   -1.000
 4502.00    1.31135   1.35087   -1.000
 4503.00    1.34466   1.37690   -1.000
 4504.00    1.38729   1.40147   -1.000
 4505.00    1.40037   1.41097  162.877
 4506.00    1.37522   1.40508   -1.000
 4507.00    1.36115   1.39395   -1.000
 4508.00    1.37889   1.38839  168.717
 4509.00    1.39959   1.39095  168.141
 4510.00    1.39651   1.39570  166.849
 4511.00    1.38542   1.39309  166.861
 4512.00    1.36877   1.38144  169.240
 4513.00    1.34321   1.36776   -1.000
 4514.00    1.33544   1.35735   -1.000
 4515.00    1.33841   1.35217   -1.000
 4516.00    1.34285   1.35071  174.202
 4517.00    1.34927   1.34855  175.128
 4518.00    1.34206   1.34658  176.856
 4519.00    1.34124   1.35137  175.995
 4520.00    1.35171   1.36144  172.626
 4521.00    1.35102   1.36650   -1.000
 4522.00    1.32398   1.35901   -1.000
 4523.00    1.31013   1.34273   -1.000
 4524.00    1.31806   1.32713  179.862
 4525.00    1.30955   1.31181  181.988
 4526.00    1.28044   1.29071  186.239
 4527.00    1.24266   1.26500   -1.000
 4528.00    1.22224   1.24469   -1.000
 4529.00    1.23111   1.24042  196.385
 4530.00    1.25243   1.25116  193.893
 4531.00    1.27806   1.26687  190.347
 4532.00    1.29165   1.27268   -1.000
 4533.00    1.27288   1.26237  189.943
 4534.00    1.23652   1.24852   -1.000
 4535.00    1.22110   1.25224   -1.000
 4536.00    1.26344   1.28326   -1.000
 4537.00    1.32958   1.32841  180.179
 4538.00    1.36988   1.36324  172.164
 4539.00    1.37151   1.37243  170.546
 4540.00    1.34666   1.36286   -1.000
 4541.00    1.36474   1.35257  175.861
 4542.00    1.28098   1.35153   -1.000
 4543.00    0.67869   1.35512   -1.000
 4544.00    0.07128   1.35381   -1.000
 4545.00    0.17549   1.34706   -1.000
 4546.00    0.73863   1.34110   -1.000
 4547.00    0.87620   1.33395   -1.000
 4548.00    0.73342   1.31913   -1.000
 4549.00    1.25741   1.30290   -1.000
 4550.00    1.28560   1.30099  105.744
 4551.00    1.29181   1.31528   -1.000
 4552.00    1.30449   1.32598   -1.000
 4553.00    1.28730   1.32003   -1.000
 4554.00    1.25894   1.30860   -1.000
 4555.00    1.27754   1.30949   -1.000
 4556.00    1.31197   1.33172   -1.000
 4557.00    1.35704   1.36621  173.612
 4558.00    1.39099   1.39469  168.364
 4559.00    1.39352   1.40996   -1.000
 4560.00    1.38106   1.41625   -1.000
 4561.00    1.38316   1.41419   -1.000
 4562.00    1.38431   1.40083   -1.000
 4563.00    1.35654   1.37813   -1.000
 4564.00    1.31873   1.35891   -1.000
 4565.00    1.32144   1.35643   -1.000
 4566.00    1.34852   1.37238   -1.000
 4567.00    1.37423   1.39594   -1.000
 4568.00    1.40089   1.41179  167.128
 4569.00    1.41911   1.40959  167.099
 4570.00    1.39674   1.39210  170.124
 4571.00    1.34621   1.37139   -1.000
 4572.00    1.34082   1.36446   -1.000
 4573.00    1.36953   1.37954  173.289
 4574.00    1.39208   1.40198  169.144
 4575.00    1.40574   1.41362  167.940
 4576.00    1.40781   1.41234  168.421
 4577.00    1.37767   1.40366   -1.000
 4578.00    1.34582   1.38808   -1.000
 4579.00    1.34617   1.36563   -1.000
 4580.00    1.34185   1.34406  179.743
 4581.00    1.32547   1.33352  181.533
 4582.00    1.32417   1.33498  179.967
 4583.00    1.33199   1.34015  177.892
 4584.00    1.33551   1.34384  177.434
 4585.00    1.33560   1.34741  178.287
 4586.00    1.33591   1.35607   -1.000
 4587.00    1.35715   1.37317   -1.000
 4588.00    1.38274   1.39227  169.997
 4589.00    1.39253   1.40274  167.893
 4590.00    1.39060   1.40159  168.941
 4591.00    1.37290   1.39120   -1.000
 4592.00    1.35689   1.37719   -1.000
 4593.00    1.34346   1.36876   -1.000
 4594.00    1.33886   1.36840   -1.000
 4595.00    1.35729   1.37180  174.575
 4596.00    1.37036   1.37707  173.606
 4597.00    1.37488   1.38320  173.218
 4598.00    1.38297   1.38682  172.845
 4599.00    1.39763   1.38592  173.290
 4600.00    1.39383   1.38084  174.902
 4601.00    1.35838   1.37563   -1.000
 4602.00    1.34685   1.37476   -1.000
 4603.00    1.37112   1.37776  173.424
 4604.00    1.39319   1.38188  172.451
 4605.00    1.39061   1.38666  172.564
 4606.00    1.37658   1.39596   -1.000
 4607.00    1.39092   1.41339   -1.000
 4608.00    1.41713   1.43403   -1.000
 4609.00    1.44824   1.44968  162.580
 4610.00    1.45701   1.45217  161.870
 4611.00    1.43592   1.44205  163.342
 4612.00    1.42533   1.43028  165.461
 4613.00    1.40713   1.42466   -1.000
 4614.00    1.40635   1.42685   -1.000
 4615.00    1.41931   1.43274   -1.000
 4616.00    1.42472   1.43653   -1.000
 4617.00    1.42138   1.43657   -1.000
 4618.00    1.41613   1.43411   -1.000
 4619.00    1.41294   1.43292   -1.000
 4620.00    1.42961   1.43745  165.990
 4621.00    1.44348   1.44733  163.887
 4622.00    1.44903   1.45554  162.355
 4623.00    1.45304   1.45575  162.598
 4624.00    1.43921   1.44988  162.982
 4625.00    1.44045   1.44459  163.812
 4626.00    1.45551   1.44146  164.885
 4627.00    1.44957   1.44100  165.033
 4628.00    1.43575   1.44142  165.432
 4629.00    1.42990   1.44159  166.236
 4630.00    1.43571   1.44463  166.045
 4631.00    1.43427   1.45027   -1.000
 4632.00    1.43508   1.45114   -1.000
 4633.00    1.43586   1.44434  165.444
 4634.00    1.44384   1.43538  167.672
 4635.00    1.43885   1.43017  168.629
 4636.00    1.42996   1.42550  169.062
 4637.00    1.40687   1.41747  170.873
 4638.00    1.38855   1.40954   -1.000
 4639.00    1.38985   1.40777   -1.000
 4640.00    1.41313   1.41585  171.278
 4641.00    1.43659   1.43050  167.704
 4642.00    1.45239   1.44333  164.335
 4643.00    1.46655   1.44560   -1.000
 4644.00    1.43926   1.43333  165.204
 4645.00    1.39330   1.41172  169.057
 4646.00    1.37223   1.38701  173.858
 4647.00    1.36642   1.37174  176.912
 4648.00    1.38948   1.37658  175.818
 4649.00    1.41853   1.39766   -1.000
 4650.00    1.41848   1.42243  168.791
 4651.00    1.41529   1.44036   -1.000
 4652.00    1.42019   1.44571   -1.000
 4653.00    1.42227   1.43934   -1.000
 4654.00    1.40424   1.42559   -1.000
 4655.00    1.37676   1.41468   -1.000
 4656.00    1.38145   1.41641   -1.000
 4657.00    1.41751   1.43421   -1.000
 4658.00    1.45648   1.46460  164.833
 4659.00    1.49159   1.49401  159.615
 4660.00    1.50489   1.50673  157.598
 4661.00    1.49843   1.49860  158.469
 4662.00    1.47393   1.47883  161.343
 4663.00    1.45085   1.45794  165.056
 4664.00    1.44762   1.43884  167.043
 4665.00    1.42989   1.41531  168.333
 4666.00    1.39360   1.38451  173.089
 4667.00    1.34841   1.35594  180.637
 4668.00    1.32593   1.34763   -1.000
 4669.00    1.34800   1.36681   -1.000
 4670.00    1.39965   1.39973  175.642
 4671.00    1.44096   1.42802  169.349
 4672.00    1.44653   1.44256  166.401
 4673.00    1.44011   1.44640  166.019
 4674.00    1.43570   1.45023  166.055
 4675.00    1.43941   1.45852   -1.000
 4676.00    1.46746   1.46701  162.635
 4677.00    1.48169   1.46482  161.571
 4678.00    1.45567   1.44906  163.660
 4679.00    1.42169   1.42862  167.190
 4680.00    1.41770   1.41182  170.253
 4681.00    1.40898   1.40476  172.550
 4682.00    1.40062   1.40999  172.527
 4683.00    1.42324   1.42388  169.274
 4684.00    1.44222   1.43766  165.802
 4685.00    1.44393   1.44425  164.877
 4686.00    1.45036   1.44392  165.327
 4687.00    1.45480   1.44088  165.746
 4688.00    1.45218   1.43913  166.329
 4689.00    1.45278   1.43928  166.303
 4690.00    1.45111   1.43935  166.827
 4691.00    1.45334   1.43852  167.713
 4692.00    1.45984   1.44067   -1.000
 4693.00    1.47394   1.44832   -1.000
 4694.00    1.48528   1.45843   -1.000
 4695.00    1.50269   1.46690   -1.000
 4696.00    1.51743   1.46874   -1.000
 4697.00    1.49913   1.45797   -1.000
 4698.00    1.46611   1.43720   -1.000
 4699.00    1.44381   1.41798   -1.000
 4700.00    1.44255   1.40673   -1.000
 4701.00    1.44406   1.39879   -1.000
 4702.00    1.43031   1.39087   -1.000
 4703.00    1.42628   1.38858   -1.000
 4704.00    1.42966   1.39818   -1.000
 4705.00    1.43162   1.41203   -1.000
 4706.00    1.43468   1.41589  168.877
 4707.00    1.41408   1.40755  171.865
 4708.00    1.39118   1.39761  174.601
 4709.00    1.40015   1.39866  175.107
 4710.00    1.42110   1.41328  172.257
 4711.00    1.45352   1.43215   -1.000
 4712.00    1.48146   1.44340   -1.000
 4713.00    1.47768   1.44072   -1.000
 4714.00    1.44668   1.43271  166.030
 4715.00    1.43030   1.43466  167.906
 4716.00    1.46138   1.45105  166.354
 4717.00    1.48203   1.47347  162.973
 4718.00    1.49399   1.49132  160.750
 4719.00    1.51740   1.50200  160.015
 4720.00    1.52345   1.50614  159.470
 4721.00    1.50539   1.50415  159.728
 4722.00    1.48442   1.49924   -1.000
 4723.00    1.48119   1.49929   -1.000
 4724.00    1.49647   1.50494  159.949
 4725.00    1.50619   1.50455  159.022
 4726.00    1.48676   1.48937  160.858
 4727.00    1.45041   1.46109  165.842
 4728.00    1.42275   1.43250  171.172
 4729.00    1.41795   1.41843  173.012
 4730.00    1.42090   1.41955  171.727
 4731.00    1.44560   1.42971  170.105
 4732.00    1.46549   1.44471   -1.000
 4733.00    1.45588   1.45928  166.660
 4734.00    1.46328   1.46721  165.448
 4735.00    1.48331   1.46708  164.533
 4736.00    1.48100   1.46342  164.743
 4737.00    1.47543   1.46315  165.967
 4738.00    1.47422   1.46942  165.110
 4739.00    1.48772   1.47790  163.812
 4740.00    1.48307   1.48129  164.343
 4741.00    1.46172   1.48071   -1.000
 4742.00    1.48173   1.48373  164.557
 4743.00    1.49329   1.49049  162.976
 4744.00    1.49722   1.49650  162.063
 4745.00    1.50438   1.50146  162.396
 4746.00    1.50497   1.50714  161.955
 4747.00    1.50746   1.51574  160.510
 4748.00    1.50960   1.52460   -1.000
 4749.00    1.50866   1.52987   -1.000
 4750.00    1.50997   1.53251   -1.000
 4751.00    1.50909   1.53173   -1.000
 4752.00    1.49172   1.52456   -1.000
 4753.00    1.48525   1.51217   -1.000
 4754.00    1.48902   1.50074  164.506
 4755.00    1.48918   1.49507  165.030
 4756.00    1.47554   1.49571   -1.000
 4757.00    1.45928   1.50093   -1.000
 4758.00    1.45282   1.50891   -1.000
 4759.00    1.46778   1.51609   -1.000
 4760.00    1.47973   1.51717   -1.000
 4761.00    1.46393   1.50683   -1.000
 4762.00    1.43420   1.48631   -1.000
 4763.00    1.41220   1.46482   -1.000
 4764.00    1.41198   1.45183   -1.000
 4765.00    1.42270   1.44778   -1.000
 4766.00    1.42953   1.45101   -1.000
 4767.00    1.44449   1.46388   -1.000
 4768.00    1.47261   1.48757   -1.000
 4769.00    1.49349   1.51353   -1.000
 4770.00    1.49845   1.52854   -1.000
 4771.00    1.48883   1.52713   -1.000
 4772.00    1.47710   1.51997   -1.000
 4773.00    1.49391   1.52222   -1.000
 4774.00    1.50460   1.53675   -1.000
 4775.00    1.50842   1.55304   -1.000
 4776.00    1.51753   1.56102   -1.000
 4777.00    1.51801   1.56195   -1.000
 4778.00    1.52374   1.55877   -1.000
 4779.00    1.50347   1.55143   -1.000
 4780.00    1.48044   1.54258   -1.000
 4781.00    1.47579   1.53629   -1.000
 4782.00    1.46818   1.53009   -1.000
 4783.00    1.46619   1.52148   -1.000
 4784.00    1.47925   1.51457   -1.000
 4785.00    1.47743   1.51090   -1.000
 4786.00    1.46224   1.50647   -1.000
 4787.00    1.46536   1.50179   -1.000
 4788.00    1.45642   1.50102   -1.000
 4789.00    1.45905   1.50374   -1.000
 4790.00    1.47231   1.50927   -1.000
 4791.00    1.48293   1.52124   -1.000
 4792.00    1.49871   1.54083   -1.000
 4793.00    1.52683   1.56382   -1.000
 4794.00    1.54530   1.58564   -1.000
 4795.00    1.54899   1.59853   -1.000
 4796.00    1.53980   1.59717   -1.000
 4797.00    1.52771   1.58234   -1.000
 4798.00    1.50446   1.56060   -1.000
 4799.00    1.48212   1.54353   -1.000
 4800.00    1.47974   1.54183   -1.000
 4801.00    1.51380   1.55581   -1.000
 4802.00    1.53909   1.57553   -1.000
 4803.00    1.52719   1.58602   -1.000
 4804.00    1.50242   1.57801   -1.000
 4805.00    1.48690   1.56090   -1.000
 4806.00    1.48495   1.54728   -1.000
 4807.00    1.48690   1.54219   -1.000
 4808.00    1.50370   1.54473   -1.000
 4809.00    1.51468   1.55212   -1.000
 4810.00    1.50666   1.56047   -1.000
 4811.00    1.51054   1.56727   -1.000
 4812.00    1.51845   1.57170   -1.000
 4813.00    1.52903   1.57555   -1.000
 4814.00    1.53466   1.58116   -1.000
 4815.00    1.52330   1.58845   -1.000
 4816.00    1.53274   1.59676   -1.000
 4817.00    1.55432   1.60498   -1.000
 4818.00    1.56604   1.61128   -1.000
 4819.00    1.55950   1.61467   -1.000
 4820.00    1.54408   1.61416   -1.000
 4821.00    1.54786   1.60534   -1.000
 4822.00    1.54643   1.58449   -1.000
 4823.00    1.51615   1.55741   -1.000
 4824.00    1.49697   1.53982   -1.000
 4825.00    1.50164   1.54288   -1.000
 4826.00    1.51914   1.55962   -1.000
 4827.00    1.52383   1.57146   -1.000
 4828.00    1.51761   1.57072   -1.000
 4829.00    1.51200   1.56336   -1.000
 4830.00    1.50624   1.55649   -1.000
 4831.00    1.51894   1.54983   -1.000
 4832.00    1.52197   1.54401   -1.000
 4833.00    1.52691   1.54553   -1.000
 4834.00    1.53241   1.55538   -1.000
 4835.00    1.53544   1.56790   -1.000
 4836.00    1.52836   1.57434   -1.000
 4837.00    1.52964   1.57370   -1.000
 4838.00    1.52941   1.56713   -1.000
 4839.00    1.51771   1.55502   -1.000
 4840.00    1.49474   1.54362   -1.000
 4841.00    1.49114   1.53905   -1.000
 4842.00    1.49824   1.53932   -1.000
 4843.00    1.50804   1.54129   -1.000
 4844.00    1.52192   1.54736   -1.000
 4845.00    1.53914   1.55957   -1.000
 4846.00    1.55677   1.57067  159.674
 4847.00    1.54147   1.56875   -1.000
 4848.00    1.51939   1.55500   -1.000
 4849.00    1.51661   1.54536   -1.000
 4850.00    1.52266   1.54714   -1.000
 4851.00    1.52375   1.55250   -1.000
 4852.00    1.51233   1.55223   -1.000
 4853.00    1.50406   1.53915   -1.000
 4854.00    1.47079   1.50995   -1.000
 4855.00    1.41777   1.47359   -1.000
 4856.00    1.40693   1.44882   -1.000
 4857.00    1.42900   1.43574  173.190
 4858.00    1.39460   1.40910  173.949
 4859.00    1.28171   1.33636   -1.000
 4860.00    1.10124   1.21882   -1.000
 4861.00    0.93874   1.12013   -1.000
 4862.00    0.95165   1.10502   -1.000
 4863.00    1.13242   1.18486   -1.000
 4864.00    1.31009   1.29710  187.552
 4865.00    1.39435   1.38551  178.446
 4866.00    1.42358   1.44041   -1.000
 4867.00    1.43872   1.47440   -1.000
 4868.00    1.45163   1.49446   -1.000
 4869.00    1.46881   1.49698   -1.000
 4870.00    1.46184   1.47676  172.353
 4871.00    1.42520   1.44398   -1.000
 4872.00    1.41950   1.42502  179.077
 4873.00    1.44184   1.44082  175.925
 4874.00    1.45127   1.47798   -1.000
 4875.00    1.46538   1.50856   -1.000
 4876.00    1.48032   1.52437   -1.000
 4877.00    1.49071   1.53353   -1.000
 4878.00    1.50464   1.54671   -1.000
 4879.00    1.52133   1.56460   -1.000
 4880.00    1.52318   1.57855   -1.000
 4881.00    1.50084   1.57846   -1.000
 4882.00    1.48576   1.56592   -1.000
 4883.00    1.47766   1.55487   -1.000
 4884.00    1.47214   1.54685   -1.000
 4885.00    1.47020   1.53552   -1.000
 4886.00    1.47008   1.52435   -1.000
 4887.00    1.47422   1.52078   -1.000
 4888.00    1.48392   1.51987   -1.000
 4889.00    1.47393   1.50954   -1.000
 4890.00    1.43925   1.48784   -1.000
 4891.00    1.42902   1.47235   -1.000
 4892.00    1.47175   1.48966   -1.000
 4893.00    1.51908   1.54149   -1.000
 4894.00    1.55722   1.60225   -1.000
 4895.00    1.59550   1.64585   -1.000
 4896.00    1.61259   1.66559   -1.000
 4897.00    1.61534   1.66767   -1.000
 4898.00    1.60503   1.65835   -1.000
 4899.00    1.58027   1.64142   -1.000
 4900.00    1.54147   1.62390   -1.000
 4901.00    1.53376   1.61317   -1.000
 4902.00    1.55080   1.60706   -1.000
 4903.00    1.53989   1.60047   -1.000
 4904.00    1.53565   1.60025   -1.000
 4905.00    1.56084   1.61633   -1.000
 4906.00    1.59124   1.63877   -1.000
 4907.00    1.60708   1.64379   -1.000
 4908.00    1.59263   1.62637   -1.000
 4909.00    1.54157   1.59744   -1.000
 4910.00    1.49980   1.57143   -1.000
 4911.00    1.50496   1.56168   -1.000
 4912.00    1.52618   1.57212   -1.000
 4913.00    1.55056   1.59432   -1.000
 4914.00    1.57128   1.61640   -1.000
 4915.00    1.57908   1.63244   -1.000
 4916.00    1.58941   1.63307   -1.000
 4917.00    1.57211   1.60525   -1.000
 4918.00    1.52089   1.54708   -1.000
 4919.00    1.46320   1.48069   -1.000
 4920.00    1.42711   1.43576  182.573
 4921.00    1.44253   1.43454  181.355
 4922.00    1.47499   1.46792  174.994
 4923.00    1.49534   1.50489  170.076
 4924.00    1.52408   1.52666  168.549
 4925.00    1.54175   1.54432  167.669
 4926.00    1.54598   1.57233   -1.000
 4927.00    1.56982   1.60554   -1.000
 4928.00    1.60718   1.63323   -1.000
 4929.00    1.62524   1.65362   -1.000
 4930.00    1.63729   1.66481   -1.000
 4931.00    1.62626   1.66009   -1.000
 4932.00    1.59376   1.63556   -1.000
 4933.00    1.54960   1.59877   -1.000
 4934.00    1.52724   1.57123   -1.000
 4935.00    1.53840   1.56843   -1.000
 4936.00    1.55853   1.57516   -1.000
 4937.00    1.54580   1.56514   -1.000
 4938.00    1.50924   1.53798   -1.000
 4939.00    1.48497   1.52243   -1.000
 4940.00    1.51726   1.54053   -1.000
 4941.00    1.57083   1.58442  164.543
 4942.00    1.60217   1.63003   -1.000
 4943.00    1.60513   1.65683   -1.000
 4944.00    1.61747   1.66403   -1.000
 4945.00    1.62951   1.65898   -1.000
 4946.00    1.62101   1.65276   -1.000
 4947.00    1.61159   1.65421   -1.000
 4948.00    1.62376   1.66480   -1.000
 4949.00    1.63118   1.67779   -1.000
 4950.00    1.64196   1.68472   -1.000
 4951.00    1.65619   1.68446   -1.000
 4952.00    1.64934   1.67887   -1.000
 4953.00    1.63017   1.67064   -1.000
 4954.00    1.61357   1.65837   -1.000
 4955.00    1.58788   1.63061   -1.000
 4956.00    1.53248   1.57678   -1.000
 4957.00    1.47840   1.51443   -1.000
 4958.00    1.47741   1.49196   -1.000
 4959.00    1.52403   1.52957  171.915
 4960.00    1.58070   1.59445   -1.000
 4961.00    1.59656   1.64495   -1.000
 4962.00    1.58730   1.66421   -1.000
 4963.00    1.58818   1.66204   -1.000
 4964.00    1.58491   1.64753   -1.000
 4965.00    1.57132   1.62476   -1.000
 4966.00    1.55234   1.60297   -1.000
 4967.00    1.55475   1.59318   -1.000
 4968.00    1.56297   1.59381   -1.000
 4969.00    1.54895   1.59997   -1.000
 4970.00    1.54374   1.61141   -1.000
 4971.00    1.57005   1.62771   -1.000
 4972.00    1.59936   1.64564   -1.000
 4973.00    1.62494   1.66086   -1.000
 4974.00    1.62523   1.66844   -1.000
 4975.00    1.62699   1.66726   -1.000
 4976.00    1.61585   1.65908   -1.000
 4977.00    1.58977   1.64434   -1.000
 4978.00    1.57029   1.62696   -1.000
 4979.00    1.55946   1.61171   -1.000
 4980.00    1.54184   1.59308   -1.000
 4981.00    1.52116   1.56278   -1.000
 4982.00    1.48737   1.52325   -1.000
 4983.00    1.46564   1.49179   -1.000
 4984.00    1.47435   1.48842  181.344
 4985.00    1.49979   1.51355  177.220
 4986.00    1.52851   1.55422   -1.000
 4987.00    1.56305   1.59516   -1.000
 4988.00    1.58262   1.62255   -1.000
 4989.00    1.57669   1.62534   -1.000
 4990.00    1.55738   1.61190   -1.000
 4991.00    1.56056   1.60050   -1.000
 4992.00    1.59375   1.60093  168.255
 4993.00    1.59777   1.60891  167.016
 4994.00    1.58737   1.61678   -1.000
 4995.00    1.59512   1.62527   -1.000
 4996.00    1.60283   1.63505   -1.000
 4997.00    1.59487   1.63724   -1.000
 4998.00    1.57295   1.62221   -1.000
 4999.00    1.54397   1.59016   -1.000
 5000.00    1.52263   1.55671   -1.000
 5001.00    1.53218   1.54462  173.725
 5002.00    1.54220   1.55069  173.141
 5003.00    1.54036   1.55913   -1.000
 5004.00    1.54274   1.55515  171.854
 5005.00    1.52793   1.53427  175.110
 5006.00    1.49984   1.51178  178.340
 5007.00    1.50260   1.51333  177.237
 5008.00    1.53940   1.54510  172.381
 5009.00    1.57993   1.58077  168.374
 5010.00    1.58369   1.59445  168.122
 5011.00    1.54337   1.57822   -1.000
 5012.00    1.50762   1.54300   -1.000
 5013.00    1.48342   1.50885   -1.000
 5014.00    1.45940   1.49301   -1.000
 5015.00    1.47122   1.50057   -1.000
 5016.00    1.49990   1.51725   -1.000
 5017.00    1.51157   1.52672  176.346
 5018.00    1.52432   1.52726  175.952
 5019.00    1.53428   1.53343  175.243
 5020.00    1.54971   1.54978  173.412
 5021.00    1.55617   1.56263  172.815
 5022.00    1.55743   1.56743  173.486
 5023.00    1.57114   1.57416  173.349
 5024.00    1.58106   1.59015  172.012
 5025.00    1.59056   1.60686   -1.000
 5026.00    1.58777   1.61048   -1.000
 5027.00    1.57536   1.60246   -1.000
 5028.00    1.57459   1.59868   -1.000
 5029.00    1.58541   1.60755   -1.000
 5030.00    1.60083   1.62550   -1.000
 5031.00    1.62615   1.64646   -1.000
 5032.00    1.64682   1.66653   -1.000
 5033.00    1.65136   1.67722   -1.000
 5034.00    1.62534   1.66711   -1.000
 5035.00    1.58964   1.63656   -1.000
 5036.00    1.54964   1.60458   -1.000
 5037.00    1.54053   1.58852   -1.000
 5038.00    1.53754   1.57786   -1.000
 5039.00    1.49792   1.55089   -1.000
 5040.00    1.44385   1.50694   -1.000
 5041.00    1.41790   1.47527   -1.000
 5042.00    1.45577   1.48856   -1.000
 5043.00    1.55831   1.54432  178.115
 5044.00    1.34648   1.61327   -1.000
 5045.00    0.51303   1.66636   -1.000
 5046.00    0.00653   1.69182   -1.000
 5047.00    0.25057   1.68712   -1.000
 5048.00    1.14113   1.65725   -1.000
 5049.00    1.66667   1.61735   -1.000
 5050.00    1.56022   1.58751   -1.000
 5051.00    1.55256   1.57734   -1.000
 5052.00    1.57194   1.58772   -1.000
 5053.00    1.60413   1.61605  166.845
 5054.00    1.63919   1.65156  163.055
 5055.00    1.66685   1.67807  160.635
 5056.00    1.66751   1.69133   -1.000
 5057.00    1.66611   1.69687   -1.000
 5058.00    1.67378   1.70046   -1.000
 5059.00    1.66519   1.70617   -1.000
 5060.00    1.67556   1.71451   -1.000
 5061.00    1.68404   1.72229   -1.000
 5062.00    1.65993   1.71992   -1.000
 5063.00    1.64143   1.69735   -1.000
 5064.00    1.60340   1.65862   -1.000
 5065.00    1.56716   1.62473   -1.000
 5066.00    1.56651   1.61278   -1.000
 5067.00    1.58384   1.61741   -1.000
 5068.00    1.60953   1.62543   -1.000
 5069.00    1.61362   1.63333   -1.000
 5070.00    1.62317   1.64199   -1.000
 5071.00    1.63086   1.64566   -1.000
 5072.00    1.61733   1.64020   -1.000
 5073.00    1.62446   1.63362  168.290
 5074.00    1.64390   1.63476  166.406
 5075.00    1.63899   1.64119  165.521
 5076.00    1.62894   1.64543   -1.000
 5077.00    1.62484   1.63880  165.866
 5078.00    1.59991   1.61306  169.034
 5079.00    1.56925   1.57254  175.843
 5080.00    1.53731   1.54253  181.997
 5081.00    1.53704   1.54313  181.723
 5082.00    1.56251   1.56251  177.719
 5083.00    1.57787   1.58317  174.442
 5084.00    1.59872   1.60416  171.781
 5085.00    1.62078   1.62863  168.616
 5086.00    1.63907   1.65055  166.353
 5087.00    1.66034   1.66357  165.561
 5088.00    1.66268   1.66940  165.136
 5089.00    1.66527   1.67434  164.152
 5090.00    1.67804   1.68061  163.057
 5091.00    1.68952   1.68860  162.186
 5092.00    1.70108   1.70033  160.965
 5093.00    1.70793   1.71329  159.227
 5094.00    1.71217   1.71793  158.857
 5095.00    1.70745   1.70609  161.068
 5096.00    1.66312   1.67800  164.537
 5097.00    1.62086   1.64182   -1.000
 5098.00    1.61146   1.60929  172.155
 5099.00    1.59933   1.59432  174.635
 5100.00    1.60891   1.60819  173.307
 5101.00    1.64136   1.64117  168.626
 5102.00    1.67086   1.67052  164.962
 5103.00    1.66594   1.68009  164.490
 5104.00    1.65391   1.67372   -1.000
 5105.00    1.64234   1.66036   -1.000
 5106.00    1.62875   1.64177  170.261
 5107.00    1.60749   1.62060  172.363
 5108.00    1.57947   1.60552   -1.000
 5109.00    1.58661   1.60104  172.999
 5110.00    1.61566   1.60859  171.817
 5111.00    1.64310   1.62834  170.123
 5112.00    1.66527   1.65556  167.770
 5113.00    1.66766   1.67879  165.730
 5114.00    1.67647   1.69353   -1.000
 5115.00    1.69191   1.70401  162.658
 5116.00    1.70364   1.71509  161.493
 5117.00    1.71279   1.72606  159.888
 5118.00    1.71904   1.73157  159.219
 5119.00    1.70803   1.72699   -1.000
 5120.00    1.68899   1.71175   -1.000
 5121.00    1.66590   1.68837   -1.000
 5122.00    1.63279   1.65927   -1.000
 5123.00    1.60519   1.62834   -1.000
 5124.00    1.59170   1.60557  176.893
 5125.00    1.58802   1.59951  176.973
 5126.00    1.61241   1.60518  175.572
 5127.00    1.61674   1.61067  174.668
 5128.00    1.61427   1.61208  174.087
 5129.00    1.61555   1.61455  174.233
 5130.00    1.61916   1.62381  173.287
 5131.00    1.63740   1.63996  170.702
 5132.00    1.66620   1.65650  168.321
 5133.00    1.68422   1.66965  166.916
 5134.00    1.68958   1.68005  165.358
 5135.00    1.69403   1.68645  164.279
 5136.00    1.67499   1.68214  165.102
 5137.00    1.64352   1.66058   -1.000
 5138.00    1.63109   1.63066  172.209
 5139.00    1.62077   1.61222  174.002
 5140.00    1.61247   1.61151  173.503
 5141.00    1.61807   1.61779  172.911
 5142.00    1.61320   1.61909  174.848
 5143.00    1.61085   1.62000  176.351
 5144.00    1.61491   1.63003   -1.000
 5145.00    1.61766   1.64070   -1.000
 5146.00    1.62246   1.63823  172.599
 5147.00    1.63238   1.62977  173.862
 5148.00    1.63866   1.62906  173.315
 5149.00    1.64588   1.63522  171.516
 5150.00    1.63865   1.63571  171.700
 5151.00    1.61668   1.62537  174.301
 5152.00    1.59434   1.61393   -1.000
 5153.00    1.60831   1.61139  177.141
 5154.00    1.62819   1.61968  175.264
 5155.00    1.66156   1.63964   -1.000
 5156.00    1.70485   1.66894   -1.000
 5157.00    1.72711   1.69780   -1.000
 5158.00    1.73969   1.71705   -1.000
 5159.00    1.74331   1.72526  160.133
 5160.00    1.75446   1.72420   -1.000
 5161.00    1.73117   1.71461  161.043
 5162.00    1.70714   1.69734  162.302
 5163.00    1.71258   1.67328   -1.000
 5164.00    1.68414   1.63743   -1.000
 5165.00    1.60408   1.57580   -1.000
 5166.00    1.49747   1.48194   -1.000
 5167.00    1.40751   1.38832   -1.000
 5168.00    1.37074   1.35185   -1.000
 5169.00    1.41103   1.38243   -1.000
 5170.00    1.46531   1.42696   -1.000
 5171.00    1.44298   1.42046   -1.000
 5172.00    1.37863   1.37326  218.984
 5173.00    1.37194   1.35892  225.135
 5174.00    1.45357   1.42033   -1.000
 5175.00    1.56345   1.52760   -1.000
 5176.00    1.63829   1.61479   -1.000
 5177.00    1.68001   1.65815   -1.000
 5178.00    1.70018   1.67267   -1.000
 5179.00    1.70241   1.67102   -1.000
 5180.00    1.67383   1.64848   -1.000
 5181.00    1.59899   1.58794  182.121
 5182.00    1.48377   1.48792  198.298
 5183.00    1.37375   1.39046   -1.000
 5184.00    1.36100   1.35692  225.987
 5185.00    1.45707   1.41810   -1.000
 5186.00    1.57473   1.52652   -1.000
 5187.00    1.64136   1.61186   -1.000
 5188.00    1.66558   1.65103  171.037
 5189.00    1.67744   1.66156  169.950
 5190.00    1.66946   1.65496  170.172
 5191.00    1.62659   1.62800  173.369
 5192.00    1.58990   1.59254  178.785
 5193.00    1.60307   1.57729   -1.000
 5194.00    1.62352   1.58883   -1.000
 5195.00    1.62993   1.60837   -1.000
 5196.00    1.64468   1.62773  173.615
 5197.00    1.65549   1.65005  170.731
 5198.00    1.66421   1.67503  167.447
 5199.00    1.65552   1.69742   -1.000
 5200.00    1.65037   1.71057   -1.000
 5201.00    1.65529   1.71024   -1.000
 5202.00    1.67262   1.69404   -1.000
 5203.00    1.67590   1.66148  170.050
 5204.00    1.65101   1.61561   -1.000
 5205.00    1.60573   1.57043   -1.000
 5206.00    1.58286   1.54175   -1.000
 5207.00    1.57228   1.53320   -1.000
 5208.00    1.59250   1.53506   -1.000
 5209.00    1.61887   1.54641   -1.000
 5210.00    1.63358   1.57938   -1.000
 5211.00    1.68301   1.63272   -1.000
 5212.00    1.74504   1.68563   -1.000
 5213.00    1.76454   1.71835   -1.000
 5214.00    1.75486   1.71871   -1.000
 5215.00    1.72861   1.69471   -1.000
 5216.00    1.69916   1.67001   -1.000
 5217.00    1.70487   1.66857   -1.000
 5218.00    1.73958   1.69353   -1.000
 5219.00    1.75542   1.72765   -1.000
 5220.00    1.76364   1.75429  159.855
 5221.00    1.79094   1.76636   -1.000
 5222.00    1.79676   1.76141   -1.000
 5223.00    1.77001   1.73695   -1.000
 5224.00    1.72229   1.69134   -1.000
 5225.00    1.64232   1.62793   -1.000
 5226.00    1.59271   1.56822   -1.000
 5227.00    1.60132   1.54694   -1.000
 5228.00    1.64636   1.58090   -1.000
 5229.00    1.72488   1.64793   -1.000
 5230.00    1.76742   1.70440   -1.000
 5231.00    1.76380   1.72030   -1.000
 5232.00    1.75504   1.70102   -1.000
 5233.00    1.73794   1.67161   -1.000
 5234.00    1.72836   1.66229   -1.000
 5235.00    1.74556   1.68407   -1.000
 5236.00    1.77070   1.72290   -1.000
 5237.00    1.79929   1.75931   -1.000
 5238.00    1.80950   1.77940   -1.000
 5239.00    1.80350   1.78401  157.535
 5240.00    1.80762   1.78195   -1.000
 5241.00    1.80937   1.77861   -1.000
 5242.00    1.80988   1.77642   -1.000
 5243.00    1.80903   1.77869   -1.000
 5244.00    1.80930   1.78367   -1.000
 5245.00    1.79628   1.78000  157.403
 5246.00    1.75867   1.75786  161.352
 5247.00    1.73140   1.72624  166.047
 5248.00    1.73230   1.70405   -1.000
 5249.00    1.73696   1.69481   -1.000
 5250.00    1.72313   1.69111   -1.000
 5251.00    1.69770   1.69416  169.908
 5252.00    1.70837   1.70605  168.456
 5253.00    1.74679   1.71659   -1.000
 5254.00    1.75306   1.71930   -1.000
 5255.00    1.75099   1.72308   -1.000
 5256.00    1.78161   1.74294   -1.000
 5257.00    1.81413   1.77794   -1.000
 5258.00    1.83561   1.80641   -1.000
 5259.00    1.84042   1.81157   -1.000
 5260.00    1.81298   1.78863   -1.000
 5261.00    1.75892   1.74131  162.891
 5262.00    1.70012   1.68118   -1.000
 5263.00    1.64615   1.62307   -1.000
 5264.00    1.60161   1.57715   -1.000
 5265.00    1.58658   1.55357   -1.000
 5266.00    1.61658   1.55499   -1.000
 5267.00    1.65435   1.56744   -1.000
 5268.00    1.65031   1.56056   -1.000
 5269.00    1.60568   1.52690   -1.000
 5270.00    1.57727   1.50566   -1.000
 5271.00    1.61636   1.53772   -1.000
 5272.00    1.69782   1.61110   -1.000
 5273.00    1.74080   1.66894   -1.000
 5274.00    1.74158   1.68749   -1.000
 5275.00    1.73823   1.69254   -1.000
 5276.00    1.76154   1.71144   -1.000
 5277.00    1.80773   1.75009   -1.000
 5278.00    1.85132   1.78907   -1.000
 5279.00    1.85216   1.80331   -1.000
 5280.00    1.82972   1.78663   -1.000
 5281.00    1.80215   1.75250   -1.000
 5282.00    1.77029   1.71865   -1.000
 5283.00    1.75290   1.69957   -1.000
 5284.00    1.75671   1.70937   -1.000
 5285.00    1.80114   1.74965   -1.000
 5286.00    1.84998   1.80143   -1.000
 5287.00    1.87619   1.83570   -1.000
 5288.00    1.87478   1.84745   -1.000
 5289.00    1.87745   1.85080   -1.000
 5290.00    1.88571   1.85406   -1.000
 5291.00    1.89432   1.85497   -1.000
 5292.00    1.88136   1.85010   -1.000
 5293.00    1.86085   1.84179  153.701
 5294.00    1.84675   1.83031  155.386
 5295.00    1.83752   1.80662   -1.000
 5296.00    1.79485   1.76509   -1.000
 5297.00    1.72847   1.71937  168.977
 5298.00    1.70775   1.69482  171.452
 5299.00    1.74848   1.70504   -1.000
 5300.00    1.77720   1.73338   -1.000
 5301.00    1.78429   1.75669   -1.000
 5302.00    1.80013   1.77442   -1.000
 5303.00    1.82964   1.79864   -1.000
 5304.00    1.86194   1.82988   -1.000
 5305.00    1.88851   1.85242   -1.000
 5306.00    1.89392   1.85479   -1.000
 5307.00    1.87800   1.84642   -1.000
 5308.00    1.87824   1.84340   -1.000
 5309.00    1.89233   1.85252   -1.000
 5310.00    1.90009   1.86586   -1.000
 5311.00    1.90672   1.87081   -1.000
 5312.00    1.89648   1.86601   -1.000
 5313.00    1.88317   1.85642   -1.000
 5314.00    1.88289   1.84371   -1.000
 5315.00    1.87578   1.82761   -1.000
 5316.00    1.85720   1.81105   -1.000
 5317.00    1.84918   1.80323   -1.000
 5318.00    1.85680   1.80990   -1.000
 5319.00    1.86968   1.82243   -1.000
 5320.00    1.87097   1.82904   -1.000
 5321.00    1.87293   1.82489   -1.000
 5322.00    1.85956   1.80846   -1.000
 5323.00    1.83652   1.78136   -1.000
 5324.00    1.81409   1.75470   -1.000
 5325.00    1.81095   1.73430   -1.000
 5326.00    1.78777   1.70350   -1.000
 5327.00    1.71162   1.64850   -1.000
 5328.00    1.65674   1.59577   -1.000
 5329.00    1.66665   1.59486   -1.000
 5330.00    1.73858   1.65857   -1.000
 5331.00    1.82748   1.73616   -1.000
 5332.00    1.85844   1.78329   -1.000
 5333.00    1.86240   1.80270   -1.000
 5334.00    1.86249   1.81576   -1.000
 5335.00    1.88093   1.82907   -1.000
 5336.00    1.86738   1.83509   -1.000
 5337.00    1.85185   1.82907  157.025
 5338.00    1.84537   1.81092   -1.000
 5339.00    1.83906   1.77999   -1.000
 5340.00    1.80161   1.74666   -1.000
 5341.00    1.80092   1.73512   -1.000
 5342.00    1.84010   1.75728   -1.000
 5343.00    1.87245   1.79137   -1.000
 5344.00    1.87334   1.81095   -1.000
 5345.00    1.84645   1.81056   -1.000
 5346.00    1.84417   1.80003   -1.000
 5347.00    1.85049   1.78844   -1.000
 5348.00    1.84879   1.77848   -1.000
 5349.00    1.85042   1.77443   -1.000
 5350.00    1.85971   1.78611   -1.000
 5351.00    1.87711   1.81203   -1.000
 5352.00    1.89233   1.83880   -1.000
 5353.00    1.89262   1.85776   -1.000
 5354.00    1.89538   1.87122  153.122
 5355.00    1.92764   1.88618   -1.000
 5356.00    1.96094   1.90018   -1.000
 5357.00    1.96425   1.90680   -1.000
 5358.00    1.95946   1.90667   -1.000
 5359.00    1.94944   1.90189   -1.000
 5360.00    1.93065   1.89086   -1.000
 5361.00    1.91173   1.87360   -1.000
 5362.00    1.89123   1.85435   -1.000
 5363.00    1.88854   1.83636   -1.000
 5364.00    1.87548   1.82093   -1.000
 5365.00    1.85400   1.80984   -1.000
 5366.00    1.85170   1.80541   -1.000
 5367.00    1.85999   1.80565   -1.000
 5368.00    1.85573   1.79732   -1.000
 5369.00    1.84086   1.76792   -1.000
 5370.00    1.79447   1.72497   -1.000
 5371.00    1.76468   1.69587   -1.000
 5372.00    1.79114   1.70937   -1.000
 5373.00    1.84622   1.76312   -1.000
 5374.00    1.90674   1.82393   -1.000
 5375.00    1.94155   1.86338   -1.000
 5376.00    1.95127   1.87563   -1.000
 5377.00    1.95845   1.87471   -1.000
 5378.00    1.95126   1.87290   -1.000
 5379.00    1.93711   1.87095   -1.000
 5380.00    1.91450   1.86395   -1.000
 5381.00    1.88840   1.85057   -1.000
 5382.00    1.87151   1.83674   -1.000
 5383.00    1.87236   1.83038   -1.000
 5384.00    1.89172   1.83583   -1.000
 5385.00    1.91807   1.85035   -1.000
 5386.00    1.91772   1.86466   -1.000
 5387.00    1.92211   1.86861   -1.000
 5388.00    1.92519   1.85902   -1.000
 5389.00    1.90202   1.83997   -1.000
 5390.00    1.87491   1.81889   -1.000
 5391.00    1.86817   1.80316   -1.000
 5392.00    1.86505   1.79405   -1.000
 5393.00    1.86045   1.78999   -1.000
 5394.00    1.85056   1.78663   -1.000
 5395.00    1.83815   1.77468   -1.000
 5396.00    1.82037   1.75019   -1.000
 5397.00    1.80683   1.72964   -1.000
 5398.00    1.83523   1.73650   -1.000
 5399.00    1.88001   1.76904   -1.000
 5400.00    1.91632   1.80411   -1.000
 5401.00    1.91290   1.82370   -1.000
 5402.00    1.87938   1.82220   -1.000
 5403.00    1.84822   1.79546   -1.000
 5404.00    1.80173   1.74666   -1.000
 5405.00    1.76767   1.69964   -1.000
 5406.00    1.77700   1.68805   -1.000
 5407.00    1.80245   1.71380   -1.000
 5408.00    1.83109   1.74382   -1.000
 5409.00    1.82945   1.75402   -1.000
 5410.00    1.82366   1.75335   -1.000
 5411.00    1.84319   1.76971   -1.000
 5412.00    1.89394   1.80387   -1.000
 5413.00    1.91255   1.83060   -1.000
 5414.00    1.91548   1.84004   -1.000
 5415.00    1.91143   1.84371   -1.000
 5416.00    1.90767   1.85554   -1.000
 5417.00    1.91587   1.87226   -1.000
 5418.00    1.91191   1.87904   -1.000
 5419.00    1.90281   1.87333   -1.000
 5420.00    1.89683   1.86461   -1.000
 5421.00    1.90231   1.85884   -1.000
 5422.00    1.90443   1.85342   -1.000
 5423.00    1.89687   1.84241   -1.000
 5424.00    1.88160   1.83207   -1.000
 5425.00    1.87236   1.83923   -1.000
 5426.00    1.90079   1.86320   -1.000
 5427.00    1.92453   1.87762   -1.000
 5428.00    1.89665   1.85621   -1.000
 5429.00    1.84735   1.81038   -1.000
 5430.00    1.82448   1.78170   -1.000
 5431.00    1.84038   1.78591   -1.000
 5432.00    1.86808   1.80015   -1.000
 5433.00    1.85839   1.79611   -1.000
 5434.00    1.82692   1.77573   -1.000
 5435.00    1.82055   1.76739   -1.000
 5436.00    1.84835   1.78721   -1.000
 5437.00    1.88109   1.82847   -1.000
 5438.00    1.92081   1.87305   -1.000
 5439.00    1.97041   1.90566   -1.000
 5440.00    2.00059   1.92311   -1.000
 5441.00    1.98969   1.93031   -1.000
 5442.00    1.97090   1.93147   -1.000
 5443.00    1.96807   1.92219   -1.000
 5444.00    1.93640   1.89292   -1.000
 5445.00    1.88284   1.84134   -1.000
 5446.00    1.81961   1.78627   -1.000
 5447.00    1.79507   1.76195   -1.000
 5448.00    1.84423   1.78283   -1.000
 5449.00    1.89883   1.83148   -1.000
 5450.00    1.93341   1.87394   -1.000
 5451.00    1.93692   1.89049   -1.000
 5452.00    1.91696   1.88421   -1.000
 5453.00    1.88999   1.85908   -1.000
 5454.00    1.86689   1.81760   -1.000
 5455.00    1.82678   1.77760   -1.000
 5456.00    1.83134   1.76978   -1.000
 5457.00    1.86610   1.80643   -1.000
 5458.00    1.90825   1.86173   -1.000
 5459.00    1.94734   1.89523   -1.000
 5460.00    1.92761   1.89571   -1.000
 5461.00    1.90851   1.87411   -1.000
 5462.00    1.90716   1.84638   -1.000
 5463.00    1.88165   1.82925   -1.000
 5464.00    1.88079   1.83277   -1.000
 5465.00    1.90286   1.85095   -1.000
 5466.00    1.91775   1.86914   -1.000
 5467.00    1.92348   1.88116   -1.000
 5468.00    1.92687   1.88761   -1.000
 5469.00    1.91908   1.88820   -1.000
 5470.00    1.91741   1.88267   -1.000
 5471.00    1.92753   1.87315   -1.000
 5472.00    1.90972   1.86317   -1.000
 5473.00    1.88966   1.85285   -1.000
 5474.00    1.87706   1.83616   -1.000
 5475.00    1.84272   1.80839   -1.000
 5476.00    1.81458   1.77759   -1.000
 5477.00    1.81865   1.76669   -1.000
 5478.00    1.83481   1.79106   -1.000
 5479.00    1.87561   1.82771   -1.000
 5480.00    1.89725   1.84399   -1.000
 5481.00    1.87255   1.83660   -1.000
 5482.00    1.86852   1.82880   -1.000
 5483.00    1.88741   1.84218   -1.000
 5484.00    1.91563   1.87117   -1.000
 5485.00    1.93765   1.89339   -1.000
 5486.00    1.93498   1.89413   -1.000
 5487.00    1.89820   1.87803   -1.000
 5488.00    1.87494   1.86265  161.456
 5489.00    1.88227   1.85965   -1.000
 5490.00    1.89404   1.86897   -1.000
 5491.00    1.91632   1.88055   -1.000
 5492.00    1.93989   1.88670   -1.000
 5493.00    1.93745   1.88684   -1.000
 5494.00    1.93648   1.88496   -1.000
 5495.00    1.93166   1.88229   -1.000
 5496.00    1.93315   1.87473   -1.000
 5497.00    1.90907   1.86514   -1.000
 5498.00    1.90977   1.86598   -1.000
 5499.00    1.92970   1.87612   -1.000
 5500.00    1.92432   1.87789   -1.000
 5501.00    1.90595   1.86377   -1.000
 5502.00    1.90613   1.84703   -1.000
 5503.00    1.93574   1.84448   -1.000
 5504.00    1.93525   1.85004   -1.000
 5505.00    1.89912   1.84551   -1.000
 5506.00    1.87656   1.83242   -1.000
 5507.00    1.88567   1.82822   -1.000
 5508.00    1.90992   1.84306   -1.000
 5509.00    1.92503   1.86507   -1.000
 5510.00    1.92286   1.87101   -1.000
 5511.00    1.90395   1.85592   -1.000
 5512.00    1.87588   1.83251   -1.000
 5513.00    1.87144   1.81655   -1.000
 5514.00    1.87005   1.81731   -1.000
 5515.00    1.89818   1.83206   -1.000
 5516.00    1.93825   1.85377   -1.000
 5517.00    1.95778   1.87766   -1.000
 5518.00    1.96537   1.90065   -1.000
 5519.00    1.98580   1.91801   -1.000
 5520.00    1.98934   1.92487   -1.000
 5521.00    1.97954   1.92303   -1.000
 5522.00    1.98417   1.92062   -1.000
 5523.00    1.98037   1.92008   -1.000
 5524.00    1.95731   1.91633   -1.000
 5525.00    1.93178   1.90070   -1.000
 5526.00    1.90455   1.86912   -1.000
 5527.00    1.86263   1.83094   -1.000
 5528.00    1.84026   1.80677   -1.000
 5529.00    1.86413   1.81571   -1.000
 5530.00    1.91261   1.85136   -1.000
 5531.00    1.94331   1.88716   -1.000
 5532.00    1.95755   1.90196   -1.000
 5533.00    1.93608   1.89700   -1.000
 5534.00    1.90749   1.88580   -1.000
 5535.00    1.91025   1.87898   -1.000
 5536.00    1.92424   1.88106   -1.000
 5537.00    1.92892   1.88981   -1.000
 5538.00    1.94496   1.90066   -1.000
 5539.00    1.96452   1.91231   -1.000
 5540.00    1.99637   1.92455   -1.000
 5541.00    2.00817   1.93176   -1.000
 5542.00    1.98762   1.92802   -1.000
 5543.00    1.96882   1.91669   -1.000
 5544.00    1.96640   1.90805   -1.000
 5545.00    1.96862   1.90711   -1.000
 5546.00    1.96035   1.91160   -1.000
 5547.00    1.97004   1.92041   -1.000
 5548.00    1.98739   1.93491   -1.000
 5549.00    2.01109   1.95021   -1.000
 5550.00    2.00927   1.95836   -1.000
 5551.00    2.00405   1.95713   -1.000
 5552.00    1.99867   1.94832   -1.000
 5553.00    1.96163   1.93551   -1.000
 5554.00    1.94688   1.92509   -1.000
 5555.00    1.96668   1.92231   -1.000
 5556.00    1.99034   1.92539   -1.000
 5557.00    1.98863   1.92901   -1.000
 5558.00    1.98646   1.93027   -1.000
 5559.00    1.98825   1.93147   -1.000
 5560.00    1.99106   1.93238   -1.000
 5561.00    1.98207   1.92774   -1.000
 5562.00    1.97444   1.91690   -1.000
 5563.00    1.96429   1.90650   -1.000
 5564.00    1.94260   1.90103   -1.000
 5565.00    1.92813   1.89859   -1.000
 5566.00    1.93682   1.89508   -1.000
 5567.00    1.95371   1.89073   -1.000
 5568.00    1.94204   1.88792   -1.000
 5569.00    1.93855   1.88774   -1.000
 5570.00    1.94887   1.88965   -1.000
 5571.00    1.93398   1.88908   -1.000
 5572.00    1.91665   1.88482   -1.000
 5573.00    1.92975   1.88315   -1.000
 5574.00    1.92291   1.89023   -1.000
 5575.00    1.85541   1.90474   -1.000
 5576.00    1.82012   1.91660   -1.000
 5577.00    1.62055   1.92219   -1.000
 5578.00    1.33765   1.92772   -1.000
 5579.00    2.59688   1.93458   -1.000
 5580.00    4.79809   1.93802   -1.000
 5581.00    5.00792   1.93580   -1.000
 5582.00    3.20377   1.93064   -1.000
 5583.00    2.10405   1.92646   -1.000
 5584.00    1.99525   1.91882   -1.000
 5585.00    1.96076   1.89593   -1.000
 5586.00    1.93080   1.85626   -1.000
 5587.00    1.89163   1.81504   -1.000
 5588.00    1.85019   1.79245   -1.000
 5589.00    1.85485   1.79658   -1.000
 5590.00    1.87518   1.82009   -1.000
 5591.00    1.91321   1.84831   -1.000
 5592.00    1.92844   1.86603   -1.000
 5593.00    1.92577   1.87163   -1.000
 5594.00    1.91636   1.87628   -1.000
 5595.00    1.93402   1.89124   -1.000
 5596.00    1.94283   1.90969   -1.000
 5597.00    1.94457   1.91204   -1.000
 5598.00    1.92710   1.89575   -1.000
 5599.00    1.90749   1.87503   -1.000
 5600.00    1.89425   1.85841   -1.000
 5601.00    1.89006   1.84481   -1.000
 5602.00    1.89536   1.83989   -1.000
 5603.00    1.90913   1.85555   -1.000
 5604.00    1.94210   1.89318   -1.000
 5605.00    1.98565   1.93690   -1.000
 5606.00    2.02339   1.96852   -1.000
 5607.00    2.03117   1.98306   -1.000
 5608.00    2.02635   1.98588   -1.000
 5609.00    2.01848   1.98489   -1.000
 5610.00    2.01720   1.98647   -1.000
 5611.00    2.01422   1.99051   -1.000
 5612.00    2.02038   1.98682   -1.000
 5613.00    2.01488   1.96191   -1.000
 5614.00    1.96836   1.91300   -1.000
 5615.00    1.91478   1.86310   -1.000
 5616.00    1.90566   1.84603   -1.000
 5617.00    1.94140   1.86769   -1.000
 5618.00    1.96576   1.90283   -1.000
 5619.00    1.96887   1.92462   -1.000
 5620.00    1.97804   1.93433   -1.000
 5621.00    1.99898   1.94230   -1.000
 5622.00    1.98524   1.94309   -1.000
 5623.00    1.95276   1.92761   -1.000
 5624.00    1.92871   1.90290   -1.000
 5625.00    1.95252   1.88832   -1.000
 5626.00    1.96346   1.89747   -1.000
 5627.00    1.98329   1.92134   -1.000
 5628.00    2.01258   1.94457   -1.000
 5629.00    2.02485   1.96302   -1.000
 5630.00    2.03928   1.97591   -1.000
 5631.00    2.02480   1.98068   -1.000
 5632.00    2.02011   1.97707   -1.000
 5633.00    2.01094   1.96846   -1.000
 5634.00    2.01347   1.95793   -1.000
 5635.00    2.00524   1.94581   -1.000
 5636.00    1.98312   1.93321   -1.000
 5637.00    1.97148   1.92404   -1.000
 5638.00    1.98292   1.92194   -1.000
 5639.00    1.98519   1.92419   -1.000
 5640.00    1.97653   1.92397   -1.000
 5641.00    1.96978   1.91949   -1.000
 5642.00    1.98065   1.91754   -1.000
 5643.00    1.98919   1.92343   -1.000
 5644.00    1.99852   1.93259   -1.000
 5645.00    2.01704   1.94012   -1.000
 5646.00    2.02245   1.94584   -1.000
 5647.00    2.01215   1.94898   -1.000
 5648.00    2.00227   1.94810   -1.000
 5649.00    2.01754   1.94475   -1.000
 5650.00    2.01516   1.94412   -1.000
 5651.00    2.00513   1.94998   -1.000
 5652.00    2.03326   1.95744   -1.000
 5653.00    2.03965   1.95721   -1.000
 5654.00    2.02450   1.94864   -1.000
 5655.00    2.01308   1.93624   -1.000
 5656.00    1.99443   1.91725   -1.000
 5657.00    1.95353   1.88847   -1.000
 5658.00    1.90920   1.86064   -1.000
 5659.00    1.89093   1.85301   -1.000
 5660.00    1.91993   1.87082   -1.000
 5661.00    1.95618   1.89247   -1.000
 5662.00    1.95108   1.90153   -1.000
 5663.00    1.95604   1.91104   -1.000
 5664.00    1.97595   1.93044   -1.000
 5665.00    1.99253   1.94720   -1.000
 5666.00    1.99155   1.94872   -1.000
 5667.00    1.98546   1.93765   -1.000
 5668.00    1.98564   1.92801   -1.000
 5669.00    1.98811   1.92867   -1.000
 5670.00    1.98886   1.93723   -1.000
 5671.00    2.01015   1.95023   -1.000
 5672.00    2.03267   1.96623   -1.000
 5673.00    2.05114   1.98047   -1.000
 5674.00    2.04430   1.98741   -1.000
 5675.00    2.02629   1.98790   -1.000
 5676.00    2.03601   1.98711   -1.000
 5677.00    2.04229   1.98764   -1.000
 5678.00    2.03350   1.98584   -1.000
 5679.00    2.02934   1.97851   -1.000
 5680.00    2.03673   1.96708   -1.000
 5681.00    2.03595   1.95217   -1.000
 5682.00    2.00086   1.93429   -1.000
 5683.00    1.98925   1.92127   -1.000
 5684.00    2.00359   1.92165   -1.000
 5685.00    2.00233   1.92911   -1.000
 5686.00    2.01073   1.93143   -1.000
 5687.00    2.00080   1.92685   -1.000
 5688.00    1.98391   1.92367   -1.000
 5689.00    1.99856   1.92996   -1.000
 5690.00    2.02236   1.94581   -1.000
 5691.00    2.04886   1.96459   -1.000
 5692.00    2.05176   1.97946   -1.000
 5693.00    2.04835   1.98695   -1.000
 5694.00    2.04326   1.98779   -1.000
 5695.00    2.03978   1.98558   -1.000
 5696.00    2.03309   1.98181   -1.000
 5697.00    2.03651   1.97472   -1.000
 5698.00    2.01802   1.96305   -1.000
 5699.00    1.99890   1.94921   -1.000
 5700.00    1.99749   1.93597   -1.000
 5701.00    1.99380   1.92555   -1.000
 5702.00    2.00334   1.92419   -1.000
 5703.00    2.00262   1.93403   -1.000
 5704.00    2.00542   1.94434   -1.000
 5705.00    2.00448   1.94346   -1.000
 5706.00    1.99026   1.92864   -1.000
 5707.00    1.96830   1.90610   -1.000
 5708.00    1.93628   1.88460   -1.000
 5709.00    1.92493   1.86854   -1.000
 5710.00    1.91763   1.86251   -1.000
 5711.00    1.92377   1.87073   -1.000
 5712.00    1.95108   1.89323   -1.000
 5713.00    1.99413   1.92539   -1.000
 5714.00    2.01984   1.95499   -1.000
 5715.00    2.03290   1.97242   -1.000
 5716.00    2.04899   1.98158   -1.000
 5717.00    2.05192   1.98832   -1.000
 5718.00    2.05702   1.99465   -1.000
 5719.00    2.06101   2.00223   -1.000
 5720.00    2.06366   2.01121   -1.000
 5721.00    2.07849   2.01974   -1.000
 5722.00    2.06760   2.02638   -1.000
 5723.00    2.05480   2.03050   -1.000
 5724.00    2.08450   2.02983   -1.000
 5725.00    2.09100   2.02083   -1.000
 5726.00    2.07416   2.00504   -1.000
 5727.00    2.05462   1.99253   -1.000
 5728.00    2.06080   1.99222   -1.000
 5729.00    2.07043   1.99915   -1.000
 5730.00    2.06307   2.00155   -1.000
 5731.00    2.06069   1.99781   -1.000
 5732.00    2.05799   1.99651   -1.000
 5733.00    2.06582   2.00534   -1.000
 5734.00    2.05491   2.01996   -1.000
 5735.00    2.05488   2.02748   -1.000
 5736.00    2.05093   2.02558   -1.000
 5737.00    2.04907   2.02058   -1.000
 5738.00    2.05324   2.01733   -1.000
 5739.00    2.07770   2.01735   -1.000
 5740.00    2.09405   2.01780   -1.000
 5741.00    2.09876   2.01605   -1.000
 5742.00    2.09043   2.01316   -1.000
 5743.00    2.08421   2.01436   -1.000
 5744.00    2.07890   2.02215   -1.000
 5745.00    2.07285   2.03030   -1.000
 5746.00    2.07104   2.02937   -1.000
 5747.00    2.06373   2.01852   -1.000
 5748.00    2.04926   2.01031   -1.000
 5749.00    2.05952   2.01434   -1.000
 5750.00    2.07307   2.02207   -1.000
 5751.00    2.06500   2.01837   -1.000
 5752.00    2.04362   1.99736   -1.000
 5753.00    2.02929   1.97287   -1.000
 5754.00    2.03436   1.96578   -1.000
 5755.00    2.05267   1.98282   -1.000
 5756.00    2.07019   2.01261   -1.000
 5757.00    2.08990   2.03621   -1.000
 5758.00    2.10304   2.04405   -1.000
 5759.00    2.09279   2.03542   -1.000
 5760.00    2.06433   2.01530   -1.000
 5761.00    2.04315   1.99242   -1.000
 5762.00    2.03788   1.97805   -1.000
 5763.00    2.04120   1.98269   -1.000
 5764.00    2.05989   2.00729   -1.000
 5765.00    2.09005   2.03603   -1.000
 5766.00    2.10634   2.05270   -1.000
 5767.00    2.09786   2.05755   -1.000
 5768.00    2.10013   2.05660   -1.000
 5769.00    2.09256   2.05297   -1.000
 5770.00    2.08607   2.04770   -1.000
 5771.00    2.09044   2.04169   -1.000
 5772.00    2.08106   2.03502   -1.000
 5773.00    2.07742   2.02831   -1.000
 5774.00    2.06774   2.02307   -1.000
 5775.00    2.05415   2.02164   -1.000
 5776.00    2.06939   2.02579   -1.000
 5777.00    2.07070   2.02919   -1.000
 5778.00    2.05615   2.02235   -1.000
 5779.00    2.01450   2.00200  157.513
 5780.00    1.96577   1.97312  160.374
 5781.00    1.93249   1.94731  163.662
 5782.00    1.93229   1.93454  164.890
 5783.00    1.97077   1.93525   -1.000
 5784.00    2.01353   1.93951   -1.000
 5785.00    2.02911   1.94427   -1.000
 5786.00    2.04051   1.95753   -1.000
 5787.00    2.06614   1.97951   -1.000
 5788.00    2.07569   1.99951   -1.000
 5789.00    2.07313   2.00944   -1.000
 5790.00    2.06453   2.00882   -1.000
 5791.00    2.06051   2.00589   -1.000
 5792.00    2.08994   2.01104   -1.000
 5793.00    2.09628   2.02648   -1.000
 5794.00    2.09258   2.04399   -1.000
 5795.00    2.09080   2.05338   -1.000
 5796.00    2.07843   2.04913   -1.000
 5797.00    2.07423   2.03663   -1.000
 5798.00    2.06184   2.03091   -1.000
 5799.00    2.08405   2.04103   -1.000
 5800.00    2.11812   2.06065   -1.000
 5801.00    2.11844   2.07550   -1.000
 5802.00    2.11257   2.07729   -1.000
 5803.00    2.11064   2.06642   -1.000
 5804.00    2.10782   2.05031   -1.000
 5805.00    2.10488   2.03968   -1.000
 5806.00    2.10589   2.03904   -1.000
 5807.00    2.09696   2.04556   -1.000
 5808.00    2.10844   2.05311   -1.000
 5809.00    2.13525   2.05892   -1.000
 5810.00    2.12640   2.06415   -1.000
 5811.00    2.12266   2.06860   -1.000
 5812.00    2.13518   2.06966   -1.000
 5813.00    2.13447   2.06508   -1.000
 5814.00    2.11949   2.05422   -1.000
 5815.00    2.11095   2.04078   -1.000
 5816.00    2.10587   2.03417   -1.000
 5817.00    2.12291   2.04239   -1.000
 5818.00    2.14348   2.06086   -1.000
 5819.00    2.14383   2.07757   -1.000
 5820.00    2.15155   2.08481   -1.000
 5821.00    2.15311   2.08403   -1.000
 5822.00    2.14766   2.08038   -1.000
 5823.00    2.15478   2.07746   -1.000
 5824.00    2.14954   2.07680   -1.000
 5825.00    2.15912   2.07803   -1.000
 5826.00    2.15403   2.08065   -1.000
 5827.00    2.15644   2.08375   -1.000
 5828.00    2.15579   2.08755   -1.000
 5829.00    2.15921   2.09127   -1.000
 5830.00    2.15003   2.09228   -1.000
 5831.00    2.15548   2.09034   -1.000
 5832.00    2.16447   2.08646   -1.000
 5833.00    2.16780   2.08063   -1.000
 5834.00    2.15834   2.07425   -1.000
 5835.00    2.15675   2.07107   -1.000
 5836.00    2.16441   2.07273   -1.000
 5837.00    2.15391   2.07544   -1.000
 5838.00    2.16955   2.07769   -1.000
 5839.00    2.16424   2.08264   -1.000
 5840.00    2.18356   2.09066   -1.000
 5841.00    2.19978   2.09788   -1.000
 5842.00    2.17779   2.10008   -1.000
 5843.00    2.17587   2.09608   -1.000
 5844.00    2.17314   2.08788   -1.000
 5845.00    2.14827   2.07735   -1.000
 5846.00    2.13180   2.06625   -1.000
 5847.00    2.13101   2.05795   -1.000
 5848.00    2.12576   2.05571   -1.000
 5849.00    2.12745   2.05814   -1.000
 5850.00    2.13223   2.05809   -1.000
 5851.00    2.12358   2.04871   -1.000
 5852.00    2.11778   2.03189   -1.000
 5853.00    2.10840   2.01772   -1.000
 5854.00    2.10129   2.01295   -1.000
 5855.00    2.09924   2.01016   -1.000
 5856.00    2.09018   1.99694   -1.000
 5857.00    2.07207   1.97704   -1.000
 5858.00    2.06815   1.96885   -1.000
 5859.00    2.09248   1.98234   -1.000
 5860.00    2.11233   2.00715   -1.000
 5861.00    2.12065   2.02599   -1.000
 5862.00    2.11639   2.03490   -1.000
 5863.00    2.12178   2.03887   -1.000
 5864.00    2.13203   2.04113   -1.000
 5865.00    2.12935   2.03860   -1.000
 5866.00    2.12525   2.03092   -1.000
 5867.00    2.13672   2.02787   -1.000
 5868.00    2.14146   2.03749   -1.000
 5869.00    2.13760   2.05377   -1.000
 5870.00    2.15511   2.06605   -1.000
 5871.00    2.15951   2.06918   -1.000
 5872.00    2.16786   2.06510   -1.000
 5873.00    2.15609   2.05959   -1.000
 5874.00    2.16581   2.05613   -1.000
 5875.00    2.16718   2.05441   -1.000
 5876.00    2.14577   2.05165   -1.000
 5877.00    2.14688   2.04525   -1.000
 5878.00    2.14533   2.03477   -1.000
 5879.00    2.11093   2.02308   -1.000
 5880.00    2.10462   2.01496   -1.000
 5881.00    2.10873   2.01296   -1.000
 5882.00    2.12854   2.01358   -1.000
 5883.00    2.11995   2.01036   -1.000
 5884.00    2.10424   2.00408   -1.000
 5885.00    2.10026   1.99822   -1.000
 5886.00    2.08480   1.98139   -1.000
 5887.00    2.02824   1.92844   -1.000
 5888.00    1.90396   1.82809   -1.000
 5889.00    1.76130   1.71510   -1.000
 5890.00    1.68544   1.65629   -1.000
 5891.00    1.80033   1.68284   -1.000
 5892.00    1.96607   1.75677   -1.000
 5893.00    2.03840   1.80561   -1.000
 5894.00    1.97133   1.79536   -1.000
 5895.00    1.84488   1.74923   -1.000
 5896.00    1.78345   1.72698   -1.000
 5897.00    1.84310   1.76707   -1.000
 5898.00    1.99264   1.84100   -1.000
 5899.00    2.05886   1.90569   -1.000
 5900.00    2.07243   1.94977   -1.000
 5901.00    2.07836   1.98002   -1.000
 5902.00    2.08944   1.99956   -1.000
 5903.00    2.10414   2.00994   -1.000
 5904.00    2.10083   2.01413   -1.000
 5905.00    2.11502   2.01529   -1.000
 5906.00    2.11028   2.01726   -1.000
 5907.00    2.10899   2.02234   -1.000
 5908.00    2.11653   2.02906   -1.000
 5909.00    2.12791   2.03501   -1.000
 5910.00    2.12429   2.03945   -1.000
 5911.00    2.10443   2.03989   -1.000
 5912.00    2.09817   2.03188   -1.000
 5913.00    2.09155   2.01435   -1.000
 5914.00    2.07434   1.99436   -1.000
 5915.00    2.07073   1.98378   -1.000
 5916.00    2.09620   1.98698   -1.000
 5917.00    2.10718   1.99913   -1.000
 5918.00    2.10462   2.01463   -1.000
 5919.00    2.10164   2.02723   -1.000
 5920.00    2.09696   2.03327   -1.000
 5921.00    2.09660   2.03343   -1.000
 5922.00    2.09208   2.03153   -1.000
 5923.00    2.08625   2.03271   -1.000
 5924.00    2.09625   2.03956   -1.000
 5925.00    2.11059   2.04870   -1.000
 5926.00    2.12159   2.05429   -1.000
 5927.00    2.13526   2.05174   -1.000
 5928.00    2.13370   2.04003   -1.000
 5929.00    2.10473   2.02607   -1.000
 5930.00    2.08454   2.02126   -1.000
 5931.00    2.10438   2.02946   -1.000
 5932.00    2.12436   2.04001   -1.000
 5933.00    2.13346   2.04136   -1.000
 5934.00    2.13723   2.03461   -1.000
 5935.00    2.12631   2.03115   -1.000
 5936.00    2.11550   2.03859   -1.000
 5937.00    2.12229   2.05027   -1.000
 5938.00    2.13394   2.05548   -1.000
 5939.00    2.14030   2.05091   -1.000
 5940.00    2.13157   2.03942   -1.000
 5941.00    2.12423   2.02754   -1.000
 5942.00    2.11490   2.02264   -1.000
 5943.00    2.09325   2.02805   -1.000
 5944.00    2.10278   2.03941   -1.000
 5945.00    2.12260   2.04907   -1.000
 5946.00    2.11996   2.05065   -1.000
 5947.00    2.10616   2.04223   -1.000
 5948.00    2.08015   2.03073   -1.000
 5949.00    2.07581   2.02787   -1.000
 5950.00    2.08862   2.03446   -1.000
 5951.00    2.11456   2.03923   -1.000
 5952.00    2.09865   2.03700   -1.000
 5953.00    2.08808   2.03336   -1.000
 5954.00    2.11827   2.03392   -1.000
 5955.00    2.14510   2.03506   -1.000
 5956.00    2.13197   2.03147   -1.000
 5957.00    2.11305   2.02792   -1.000
 5958.00    2.10962   2.03326   -1.000
 5959.00    2.12530   2.04733   -1.000
 5960.00    2.15045   2.06285   -1.000
 5961.00    2.17259   2.07361   -1.000
 5962.00    2.16549   2.07723   -1.000
 5963.00    2.16788   2.07461   -1.000
 5964.00    2.16385   2.06758   -1.000
 5965.00    2.14892   2.05937   -1.000
 5966.00    2.12854   2.05575   -1.000
 5967.00    2.13073   2.05999   -1.000
 5968.00    2.13477   2.06790   -1.000
 5969.00    2.14337   2.07504   -1.000
 5970.00    2.16858   2.08104   -1.000
 5971.00    2.17014   2.08514   -1.000
 5972.00    2.15811   2.08555   -1.000
 5973.00    2.15845   2.08139   -1.000
 5974.00    2.16485   2.07168   -1.000
 5975.00    2.14112   2.05630   -1.000
 5976.00    2.11802   2.04105   -1.000
 5977.00    2.10520   2.03402   -1.000
 5978.00    2.10459   2.03812   -1.000
 5979.00    2.11853   2.05077   -1.000
 5980.00    2.12301   2.06384   -1.000
 5981.00    2.13160   2.06760   -1.000
 5982.00    2.13867   2.05676   -1.000
 5983.00    2.12258   2.03707   -1.000
 5984.00    2.10938   2.02212   -1.000
 5985.00    2.12462   2.02269   -1.000
 5986.00    2.13700   2.03583   -1.000
 5987.00    2.13226   2.05007   -1.000
 5988.00    2.14443   2.06051   -1.000
 5989.00    2.15306   2.06659   -1.000
 5990.00    2.15229   2.06761   -1.000
 5991.00    2.16458   2.06706   -1.000
 5992.00    2.18314   2.07226   -1.000
 5993.00    2.19188   2.08428   -1.000
 5994.00    2.17827   2.09373   -1.000
 5995.00    2.16531   2.09161   -1.000
 5996.00    2.14550   2.07923   -1.000
 5997.00    2.14389   2.06594   -1.000
 5998.00    2.14891   2.06064   -1.000
 5999.00    2.15655   2.06491   -1.000
 6000.00    2.15132   2.07086   -1.000
 6001.00    2.15806   2.07120   -1.000
 6002.00    2.15391   2.06584   -1.000
 6003.00    2.15584   2.06083   -1.000
 6004.00    2.14529   2.06149   -1.000
 6005.00    2.13759   2.06080   -1.000
 6006.00    2.12677   2.04998   -1.000
 6007.00    2.12774   2.03384   -1.000
 6008.00    2.13272   2.02710   -1.000
 6009.00    2.13657   2.03950   -1.000
 6010.00    2.14848   2.06010   -1.000
 6011.00    2.15743   2.06885   -1.000
 6012.00    2.14143   2.06300   -1.000
 6013.00    2.13272   2.05447   -1.000
 6014.00    2.14522   2.05271   -1.000
 6015.00    2.14821   2.05526   -1.000
 6016.00    2.16118   2.05525   -1.000
 6017.00    2.15416   2.05375   -1.000
 6018.00    2.14431   2.05205   -1.000
 6019.00    2.15120   2.04632   -1.000
 6020.00    2.12965   2.03863   -1.000
 6021.00    2.13297   2.03644   -1.000
 6022.00    2.14398   2.04112   -1.000
 6023.00    2.14780   2.04934   -1.000
 6024.00    2.15005   2.05956   -1.000
 6025.00    2.15381   2.07109   -1.000
 6026.00    2.17179   2.08110   -1.000
 6027.00    2.19458   2.08835   -1.000
 6028.00    2.17952   2.09551   -1.000
 6029.00    2.16009   2.10252   -1.000
 6030.00    2.16942   2.10704   -1.000
 6031.00    2.16717   2.11024   -1.000
 6032.00    2.16532   2.11421   -1.000
 6033.00    2.18517   2.11956   -1.000
 6034.00    2.20223   2.12602   -1.000
 6035.00    2.20925   2.13093   -1.000
 6036.00    2.20618   2.13097   -1.000
 6037.00    2.17946   2.12576   -1.000
 6038.00    2.18188   2.11751   -1.000
 6039.00    2.18878   2.10903   -1.000
 6040.00    2.18162   2.10353   -1.000
 6041.00    2.18792   2.10171   -1.000
 6042.00    2.18262   2.09967   -1.000
 6043.00    2.19080   2.10134   -1.000
 6044.00    2.20619   2.11280   -1.000
 6045.00    2.20115   2.12583   -1.000
 6046.00    2.20961   2.13288   -1.000
 6047.00    2.21769   2.13558   -1.000
 6048.00    2.20538   2.13707   -1.000
 6049.00    2.20813   2.13754   -1.000
 6050.00    2.20630   2.13653   -1.000
 6051.00    2.19175   2.13265   -1.000
 6052.00    2.20085   2.12550   -1.000
 6053.00    2.20618   2.11675   -1.000
 6054.00    2.19896   2.10751   -1.000
 6055.00    2.19822   2.09880   -1.000
 6056.00    2.19189   2.09394   -1.000
 6057.00    2.19310   2.09599   -1.000
 6058.00    2.19250   2.10321   -1.000
 6059.00    2.18604   2.11143   -1.000
 6060.00    2.14996   2.11615   -1.000
 6061.00    2.24466   2.11350   -1.000
 6062.00    2.18112   2.10175   -1.000
 6063.00    1.26226   2.08233   -1.000
 6064.00    1.38444   2.06320   -1.000
 6065.00    2.45684   2.05694   -1.000
 6066.00    2.19579   2.07090   -1.000
 6067.00    2.12755   2.09790   56.446
 6068.00    2.02136   2.12194   -1.000
 6069.00    1.26642   2.13473   -1.000
 6070.00    0.96444   2.14024   -1.000
 6071.00    2.28197   2.14327   -1.000
 6072.00    2.24255   2.14384   -1.000
 6073.00    2.23833   2.14227   -1.000
 6074.00    2.20936   2.14097   -1.000
 6075.00    2.20251   2.13681   -1.000
 6076.00    2.20878   2.12649   -1.000
 6077.00    2.18380   2.11295   -1.000
 6078.00    2.18141   2.10165   -1.000
 6079.00    2.18634   2.09611   -1.000
 6080.00    2.18070   2.09341   -1.000
 6081.00    2.17189   2.08926   -1.000
 6082.00    2.15829   2.08526   -1.000
 6083.00    2.15271   2.08478   -1.000
 6084.00    2.15978   2.08679   -1.000
 6085.00    2.16776   2.09010   -1.000
 6086.00    2.18059   2.09539   -1.000
 6087.00    2.19085   2.10106   -1.000
 6088.00    2.19189   2.10253   -1.000
 6089.00    2.17637   2.09673   -1.000
 6090.00    2.15302   2.08748   -1.000
 6091.00    2.16750   2.08250   -1.000
 6092.00    2.16923   2.08545   -1.000
 6093.00    2.19347   2.09476   -1.000
 6094.00    2.21119   2.10653   -1.000
 6095.00    2.22094   2.11586   -1.000
 6096.00    2.20549   2.12028   -1.000
 6097.00    2.20157   2.12294   -1.000
 6098.00    2.20837   2.12599   -1.000
 6099.00    2.20033   2.12321   -1.000
 6100.00    2.19193   2.10499   -1.000
 6101.00    2.16290   2.07001   -1.000
 6102.00    2.11882   2.03587   -1.000
 6103.00    2.12196   2.02834   -1.000
 6104.00    2.14333   2.05020   -1.000
 6105.00    2.17365   2.08118   -1.000
 6106.00    2.18424   2.10187   -1.000
 6107.00    2.18507   2.11143   -1.000
 6108.00    2.18041   2.11805   -1.000
 6109.00    2.18586   2.12411   -1.000
 6110.00    2.19108   2.12596   -1.000
 6111.00    2.20194   2.12435   -1.000
 6112.00    2.19730   2.12501   -1.000
 6113.00    2.19415   2.12978   -1.000
 6114.00    2.19625   2.13368   -1.000
 6115.00    2.18304   2.13239   -1.000
 6116.00    2.17965   2.12866   -1.000
 6117.00    2.18288   2.12533   -1.000
 6118.00    2.18224   2.11618   -1.000
 6119.00    2.16680   2.09458   -1.000
 6120.00    2.14336   2.06384   -1.000
 6121.00    2.11264   2.03415   -1.000
 6122.00    2.10673   2.02306   -1.000
 6123.00    2.12913   2.04123   -1.000
 6124.00    2.14689   2.07234   -1.000
 6125.00    2.16720   2.09321   -1.000
 6126.00    2.16067   2.09932   -1.000
 6127.00    2.15203   2.09772   -1.000
 6128.00    2.15407   2.09753   -1.000
 6129.00    2.16515   2.10558   -1.000
 6130.00    2.17731   2.12049   -1.000
 6131.00    2.17785   2.13435   -1.000
 6132.00    2.18506   2.13961   -1.000
 6133.00    2.17165   2.12950   -1.000
 6134.00    2.13761   2.09667   -1.000
 6135.00    2.10078   2.04340   -1.000
 6136.00    2.05614   1.99324   -1.000
 6137.00    2.02092   1.97854   -1.000
 6138.00    2.04548   2.00512   -1.000
 6139.00    2.09622   2.04519   -1.000
 6140.00    2.12220   2.06663   -1.000
 6141.00    2.11335   2.07024   -1.000
 6142.00    2.07476   2.07837  165.151
 6143.00    2.10274   2.09817  164.906
 6144.00    2.14649   2.11856   -1.000
 6145.00    2.16155   2.12819   -1.000
 6146.00    2.16190   2.12584   -1.000
 6147.00    2.16656   2.11628   -1.000
 6148.00    2.16453   2.10447   -1.000
 6149.00    2.15242   2.09508   -1.000
 6150.00    2.15911   2.09212   -1.000
 6151.00    2.15422   2.09671   -1.000
 6152.00    2.14920   2.10403   -1.000
 6153.00    2.15845   2.10619   -1.000
 6154.00    2.16146   2.09977   -1.000
 6155.00    2.15432   2.09103   -1.000
 6156.00    2.14915   2.08645   -1.000
 6157.00    2.14557   2.08409   -1.000
 6158.00    2.11661   2.07574   -1.000
 6159.00    2.08514   2.05020   -1.000
 6160.00    2.04568   2.00273   -1.000
 6161.00    2.01170   1.94888   -1.000
 6162.00    1.97254   1.91905   -1.000
 6163.00    1.98660   1.92876   -1.000
 6164.00    2.02205   1.96458   -1.000
 6165.00    2.04387   2.00207   -1.000
 6166.00    2.07345   2.02393   -1.000
 6167.00    2.05349   2.02500   -1.000
 6168.00    2.04050   2.00890   -1.000
 6169.00    2.02505   1.99189   -1.000
 6170.00    2.01838   1.99409   -1.000
 6171.00    2.07109   2.01789   -1.000
 6172.00    2.08968   2.04513   -1.000
 6173.00    2.08004   2.06177   -1.000
 6174.00    2.09701   2.06967   -1.000
 6175.00    2.09034   2.07363   -1.000
 6176.00    2.08994   2.07599  169.496
 6177.00    2.09713   2.07984   -1.000
 6178.00    2.11141   2.08565   -1.000
 6179.00    2.10410   2.09042  167.765
 6180.00    2.10668   2.09469  167.210
 6181.00    2.10425   2.10128  166.619
 6182.00    2.11301   2.10776  165.898
 6183.00    2.11516   2.10952  165.712
 6184.00    2.12387   2.10540   -1.000
 6185.00    2.11416   2.09572   -1.000
 6186.00    2.10046   2.08222   -1.000
 6187.00    2.09145   2.06882   -1.000
 6188.00    2.07300   2.05597   -1.000
 6189.00    2.05023   2.03772   -1.000
 6190.00    2.03134   2.01484   -1.000
 6191.00    2.02293   2.00274   -1.000
 6192.00    2.03817   2.01518   -1.000
 6193.00    2.07344   2.04605   -1.000
 6194.00    2.11102   2.07656   -1.000
 6195.00    2.12613   2.09534   -1.000
 6196.00    2.11248   2.10264  167.479
 6197.00    2.11055   2.09902  167.628
 6198.00    2.10803   2.08528   -1.000
 6199.00    2.08635   2.07110   -1.000
 6200.00    2.08226   2.07028  171.929
 6201.00    2.07685   2.08357  171.197
 6202.00    2.08058   2.10066   -1.000
 6203.00    2.10077   2.11302  167.437
 6204.00    2.10319   2.11918  167.302
 6205.00    2.12348   2.12237  167.268
 6206.00    2.12049   2.12514  167.007
 6207.00    2.11978   2.12710  167.206
 6208.00    2.13640   2.12590  167.773
 6209.00    2.12764   2.12034  167.839
 6210.00    2.11028   2.11035  168.894
 6211.00    2.08496   2.09422  170.477
 6212.00    2.06904   2.07028  171.842
 6213.00    2.04787   2.04417  173.812
 6214.00    2.03422   2.02713  176.369
 6215.00    2.04553   2.02510   -1.000
 6216.00    2.05486   2.03283   -1.000
 6217.00    2.04596   2.03928  175.019
 6218.00    2.04755   2.03736  174.950
 6219.00    2.04556   2.03073   -1.000
 6220.00    2.02117   2.03021  174.934
 6221.00    1.91581   2.03951   -1.000
 6222.00    2.02178   2.05163   -1.000
 6223.00    2.10649   2.05954   -1.000
 6224.00    2.08936   2.06375   -1.000
 6225.00    2.09348   2.06744   -1.000
 6226.00    2.10452   2.06901   -1.000
 6227.00    2.09116   2.06221   -1.000
 6228.00    2.07884   2.04136   -1.000
 6229.00    2.06057   2.00968   -1.000
 6230.00    1.99908   1.98299   -1.000
 6231.00    1.98366   1.97787  181.922
 6232.00    2.01065   1.99734   -1.000
 6233.00    2.03432   2.03073  177.373
 6234.00    2.06993   2.06264  174.051
 6235.00    2.10938   2.08053   -1.000
 6236.00    2.10849   2.08000   -1.000
 6237.00    2.09688   2.06662   -1.000
 6238.00    2.09033   2.04928   -1.000
 6239.00    2.06969   2.03531   -1.000
 6240.00    2.05563   2.02774   -1.000
 6241.00    2.04507   2.02364   -1.000
 6242.00    2.03665   2.01667   -1.000
 6243.00    2.03044   2.00636   -1.000
 6244.00    2.01998   1.99850   -1.000
 6245.00    2.02539   1.99831   -1.000
 6246.00    2.04349   2.00970   -1.000
 6247.00    2.04953   2.03189   -1.000
 6248.00    2.05434   2.05487  175.184
 6249.00    2.06496   2.06602  173.803
 6250.00    2.05494   2.05881  174.232
 6251.00    2.04464   2.03597  176.415
 6252.00    2.03273   2.01019   -1.000
 6253.00    1.99893   1.99450  181.429
 6254.00    1.98430   1.99035  182.405
 6255.00    2.01335   1.98945   -1.000
 6256.00    2.01871   1.98458   -1.000
 6257.00    2.00145   1.97883   -1.000
 6258.00    1.98954   1.98226  185.893
 6259.00    2.01030   1.99963   -1.000
 6260.00    2.05344   2.02554   -1.000
 6261.00    2.05588   2.05080  178.747
 6262.00    2.06908   2.06946  176.267
 6263.00    2.09201   2.07725   -1.000
 6264.00    2.09175   2.07483   -1.000
 6265.00    2.08088   2.07071  175.351
 6266.00    2.07722   2.07309  176.004
 6267.00    2.06062   2.07905  174.886
 6268.00    2.04946   2.08021   -1.000
 6269.00    2.05467   2.07676  174.919
 6270.00    2.05309   2.07535   -1.000
 6271.00    2.06056   2.07863  175.104
 6272.00    2.07112   2.08211  174.518
 6273.00    2.08751   2.07883  174.332
 6274.00    2.07393   2.06591  175.073
 6275.00    2.06659   2.04681   -1.000
 6276.00    2.03225   2.02735  178.209
 6277.00    1.98414   2.01094   -1.000
 6278.00    1.93567   1.99889   -1.000
 6279.00    1.89992   1.99158   -1.000
 6280.00    1.88997   1.99251   -1.000
 6281.00    1.87143   2.00538   -1.000
 6282.00    1.89609   2.02807   -1.000
 6283.00    1.92616   2.05311   -1.000
 6284.00    1.91184   2.07356   -1.000
 6285.00    1.92571   2.08741   -1.000
 6286.00    1.96298   2.09740   -1.000
 6287.00    2.01709   2.10478   -1.000
 6288.00    2.05204   2.10631   -1.000
 6289.00    2.07485   2.09926   -1.000
 6290.00    2.05966   2.08707   -1.000
 6291.00    2.03771   2.07648   -1.000
 6292.00    2.02619   2.07155   -1.000
 6293.00    2.02470   2.07069   -1.000
 6294.00    2.00222   2.06857   -1.000
 6295.00    1.98924   2.05988   -1.000
 6296.00    1.91029   2.04637   -1.000
 6297.00    1.75558   2.03651   -1.000
 6298.00    1.46483   2.03514   -1.000
 6299.00    1.08342   2.03689   -1.000
 6300.00    0.59058   2.03335   -1.000
 6301.00    0.08677   2.02756   -1.000
 6302.00    0.49725   2.03051   -1.000
 6303.00    1.87653   2.04474   -1.000
 6304.00    2.74862   2.06335   -1.000
 6305.00    2.51804   2.07997   -1.000
 6306.00    2.25354   2.09384   -1.000
 6307.00    2.11659   2.10521  173.469
 6308.00    2.09592   2.11096  172.159
 6309.00    2.09475   2.10944  172.250
 6310.00    2.07869   2.10310   -1.000
 6311.00    2.04488   2.09550   -1.000
 6312.00    2.03952   2.08832   -1.000
 6313.00    2.03219   2.07973   -1.000
 6314.00    2.03049   2.06851   -1.000
 6315.00    2.02508   2.05813   -1.000
 6316.00    2.01167   2.05061   -1.000
 6317.00    1.99882   2.04459   -1.000
 6318.00    1.99697   2.04476   -1.000
 6319.00    2.00884   2.05725   -1.000
 6320.00    2.04179   2.07606   -1.000
 6321.00    2.05303   2.09114   -1.000
 6322.00    2.07074   2.10216   -1.000
 6323.00    2.07061   2.11368   -1.000
 6324.00    2.08415   2.12521   -1.000
 6325.00    2.08837   2.13213   -1.000
 6326.00    2.07980   2.13321   -1.000
 6327.00    2.08223   2.13184   -1.000
 6328.00    2.09221   2.13090   -1.000
 6329.00    2.09889   2.13053   -1.000
 6330.00    2.09499   2.13201   -1.000
 6331.00    2.09826   2.13661   -1.000
 6332.00    2.10732   2.13869   -1.000
 6333.00    2.09928   2.12929   -1.000
 6334.00    2.07538   2.10693   -1.000
 6335.00    2.04142   2.08286   -1.000
 6336.00    2.03223   2.07286   -1.000
 6337.00    2.04769   2.08060   -1.000
 6338.00    2.07138   2.09780   -1.000
 6339.00    2.08648   2.11591   -1.000
 6340.00    2.09016   2.12902   -1.000
 6341.00    2.08917   2.13216   -1.000
 6342.00    2.08577   2.12503   -1.000
 6343.00    2.08776   2.11418   -1.000
 6344.00    2.08254   2.10954   -1.000
 6345.00    2.06460   2.11525   -1.000
 6346.00    2.06957   2.12729   -1.000
 6347.00    2.08380   2.14062   -1.000
 6348.00    2.10749   2.15266   -1.000
 6349.00    2.10159   2.16174   -1.000
 6350.00    2.10921   2.16626   -1.000
 6351.00    2.09265   2.16501   -1.000
 6352.00    2.08309   2.15711   -1.000
 6353.00    2.06249   2.14361   -1.000
 6354.00    2.05360   2.12971   -1.000
 6355.00    2.05465   2.12101   -1.000
 6356.00    2.05017   2.11556   -1.000
 6357.00    2.05025   2.10658   -1.000
 6358.00    2.02686   2.09373   -1.000
 6359.00    2.00528   2.08335   -1.000
 6360.00    1.95201   2.07728   -1.000
 6361.00    1.89598   2.07300   -1.000
 6362.00    1.84304   2.07204   -1.000
 6363.00    1.70441   2.07820   -1.000
 6364.00    1.50377   2.09126   -1.000
 6365.00    1.47694   2.10725   -1.000
 6366.00    1.72598   2.12310   -1.000
 6367.00    1.97710   2.13683   -1.000
 6368.00    2.12824   2.14507  167.762
 6369.00    2.09172   2.14667   -1.000
 6370.00    2.07243   2.14654   -1.000
 6371.00    2.07695   2.15035   -1.000
 6372.00    2.07649   2.15854   -1.000
 6373.00    2.06104   2.16637   -1.000
 6374.00    2.06209   2.16962   -1.000
 6375.00    2.03821   2.16842   -1.000
 6376.00    2.03389   2.16418   -1.000
 6377.00    2.01759   2.15738   -1.000
 6378.00    2.01867   2.14966   -1.000
 6379.00    2.02231   2.14352   -1.000
 6380.00    2.02257   2.14063   -1.000
 6381.00    2.00451   2.14130   -1.000
 6382.00    2.00825   2.14406   -1.000
 6383.00    2.01874   2.14658   -1.000
 6384.00    2.02513   2.14887   -1.000
 6385.00    2.00916   2.15288   -1.000
 6386.00    1.99429   2.15848   -1.000
 6387.00    1.99584   2.16266   -1.000
 6388.00    1.98368   2.16384   -1.000
 6389.00    1.97008   2.16171   -1.000
 6390.00    1.96392   2.15285   -1.000
 6391.00    1.93912   2.13383   -1.000
 6392.00    1.91846   2.11024   -1.000
 6393.00    1.89320   2.09762   -1.000
 6394.00    1.87882   2.10703   -1.000
 6395.00    1.89970   2.13066   -1.000
 6396.00    1.92639   2.14940   -1.000
 6397.00    1.90884   2.14848   -1.000
 6398.00    1.88690   2.12676   -1.000
 6399.00    1.85192   2.10057   -1.000
 6400.00    1.81402   2.09369   -1.000
 6401.00    1.81995   2.11401   -1.000
 6402.00    1.85373   2.14588   -1.000
 6403.00    1.86811   2.17001   -1.000
 6404.00    1.84890   2.17810   -1.000
 6405.00    1.84561   2.17046   -1.000
 6406.00    1.84326   2.15317   -1.000
 6407.00    1.80241   2.13638   -1.000
 6408.00    1.77164   2.12910   -1.000
 6409.00    1.77146   2.13231   -1.000
 6410.00    1.76321   2.13641   -1.000
 6411.00    1.74894   2.13569   -1.000
 6412.00    1.72672   2.13631   -1.000
 6413.00    1.71132   2.14193   -1.000
 6414.00    1.70957   2.14931   -1.000
 6415.00    1.70788   2.15547   -1.000
 6416.00    1.71270   2.15863   -1.000
 6417.00    1.68756   2.15530   -1.000
 6418.00    1.66511   2.14279   -1.000
 6419.00    1.64197   2.12439   -1.000
 6420.00    1.60723   2.11152   -1.000
 6421.00    1.57261   2.11603   -1.000
 6422.00    1.57366   2.13725   -1.000
 6423.00    1.58531   2.16185   -1.000
 6424.00    1.59314   2.17915   -1.000
 6425.00    1.58584   2.18892   -1.000
 6426.00    1.56749   2.19403   -1.000
 6427.00    1.54154   2.19160   -1.000
 6428.00    1.51732   2.17580   -1.000
