###################################################################
## OUTPUT of StarlightChains_v04.for    [Cid@UFSC - 01/Apr/2007] ##
###################################################################

## Some input info
NGC6441_a_1.cxt                          [arq_obs]
Base.BC03.S                              [arq_base]
NGC6441_a_1.msk                          [arq_masks]
StCv04.C11.config                        [arq_config]
  150                                    [N_base]
    0                                    [N_YAV_components = # of components with extra extinction!]
    0                                    [i_FitPowerLaw (1/0 = Yes/No)]
-9.99                                    [alpha_PowerLaw]
CCM                                      [red_law_option]
 1.458241                                [q_norm = A(l_norm)/A(V)]

## (Re)Sampling Parameters
 3359.00                                 [l_ini (A)]
 6428.00                                 [l_fin (A)]
    1.00                                 [dl    (A)]     (OBS: dl_cushion =    50.00 A)

## Normalization info
 4020.00                                 [l_norm (A) - for base]
 4010.00                                 [llow_norm (A) - window for f_obs]
 4060.00                                 [lupp_norm (A) - window for f_obs]
2.855491E-14                             [fobs_norm (in input units)]

## S/N
 4730.00                                 [llow_SN (A) - window for S/N]
 4780.00                                 [lupp_SN (A) - window for S/N]
  36.149                                 [S/N in S/N window]
  21.540                                 [S/N in norm. window]
 181.134                                 [S/N_err in S/N window]
 107.930                                 [S/N_err in norm. window]
  1.0000                                 [fscale_chi2]

## etc...
  2147483609                             [idum_orig]
  3067                                   [NOl_eff]
   861                                   [Nl_eff]
  2206    NSIGMA                         [Ntot_cliped & clip_method]
  2033640                                [Nglobal_steps]
   7                                     [N_chains]
  27                                     [NEX0s_base = N_base in EX0s-fits]
 0   0   1      126   2.0   2.568E+02    [Clip-Bug, RC-Crash & Burn-In warning-flags, n_censored_weights, wei_nsig_threshold & wei_limit]
    74     74.355     74.351      0.004  [idt_all, wdt_TotTime, wdt_UsrTime & wdt_SysTime (sec)]

## Synthesis Results - Best model ##

 2.71858E+00                             [chi2/Nl_eff]
     1.71616                             [adev (%)]

   100.88178                             [sum-of-x (%)]
 1.35011E-13                             [Flux_tot (units of input spectrum!)]
 1.04713E-08                             [Mini_tot (???)]
 5.19865E-09                             [Mcor_tot (???)]

 -10.72                                  [v0_min  (km/s)]
  31.76                                  [vd_min  (km/s)]
 1.1501                                  [AV_min  (mag)]
 0.0000                                  [YAV_min (mag)]

# j     x_j(%)      Mini_j(%)     Mcor_j(%)     age_j(yr)     Z_j      (L/M)_j    YAV?  Mstars   component_j        a/Fe...       SSP_chi2r SSP_adev(%)   SSP_AV   SSP_x(%)
  1      0.0000     0.0000E+00    0.0000E+00    1.000000E+06  0.00010  8.160E-03    0   1.0000   age020_m22            0.0000     2.6764E+03    42.5098   4.0000   102.8155
  2      0.0000     0.0000E+00    0.0000E+00    3.160000E+06  0.00010  4.759E-02    0   1.0000   age045_m22            0.0000     2.0156E+02    10.3398   3.3851    95.9351
  3      1.5365     1.0165E-03    1.9618E-03    5.010000E+06  0.00010  1.932E-02    0   0.9582   age055_m22            0.0000     4.2147E+02    17.9443   3.5816    85.9522
  4      0.0000     0.0000E+00    0.0000E+00    6.610000E+06  0.00010  9.973E-03    0   0.9297   age061_m22            0.0000     2.6206E+03    41.7111   4.0000   105.4576
  5      0.0000     0.0000E+00    0.0000E+00    8.710000E+06  0.00010  7.690E-03    0   0.9030   age067_m22            0.0000     2.5806E+03    41.3212   4.0000   105.8333
  6      0.0000     0.0000E+00    0.0000E+00    1.000000E+07  0.00010  6.375E-03    0   0.8902   age070_m22            0.0000     2.6086E+03    41.2950   4.0000   106.1106
  7      0.0000     0.0000E+00    0.0000E+00    1.445000E+07  0.00010  4.874E-03    0   0.8589   age078_m22            0.0000     2.0055E+03    36.7024   4.0000   107.0683
  8      0.0000     0.0000E+00    0.0000E+00    2.512000E+07  0.00010  4.103E-03    0   0.8174   age090_m22            0.0000     1.0110E+03    26.1590   4.0000   107.1100
  9      0.0000     0.0000E+00    0.0000E+00    4.000000E+07  0.00010  3.654E-03    0   0.7830   age104_m22            0.0000     6.0439E+02    18.4106   4.0000   105.6153
 10      0.0000     0.0000E+00    0.0000E+00    5.500000E+07  0.00010  3.093E-03    0   0.7597   age110_m22            0.0000     5.0968E+02    16.0938   4.0000   104.7157
 11      0.7211     3.7909E-03    5.4504E-03    1.015200E+08  0.00010  2.431E-03    0   0.7138   age116_m22            0.0000     3.4275E+02    12.0088   4.0000    98.5335
 12      0.0000     0.0000E+00    0.0000E+00    1.609000E+08  0.00010  1.319E-03    0   0.6775   age120_m22            0.0000     3.1572E+02    11.1775   3.6127    98.2129
 13      0.0000     0.0000E+00    0.0000E+00    2.861200E+08  0.00010  1.075E-03    0   0.6412   age125_m22            0.0000     4.6328E+02    14.1647   3.7442    99.5085
 14      0.0000     0.0000E+00    0.0000E+00    5.088000E+08  0.00010  7.183E-04    0   0.6083   age130_m22            0.0000     5.0507E+02    14.9439   3.5300   100.6482
 15      0.0000     0.0000E+00    0.0000E+00    9.047900E+08  0.00010  4.524E-04    0   0.5785   age135_m22            0.0000     4.9905E+02    14.9537   3.3290   101.8433
 16      0.0000     0.0000E+00    0.0000E+00    1.278050E+09  0.00010  3.018E-04    0   0.5588   age138_m22            0.0000     3.2131E+02    11.6039   2.7561   101.6394
 17      0.0000     0.0000E+00    0.0000E+00    1.434000E+09  0.00010  2.691E-04    0   0.5532   age139_m22            0.0000     2.8790E+02    10.8868   2.5921   101.4109
 18      0.0000     0.0000E+00    0.0000E+00    2.500000E+09  0.00010  1.582E-04    0   0.5296   age150_m22            0.0000     2.7582E+02    10.6932   2.4656   102.5168
 19      0.0000     0.0000E+00    0.0000E+00    4.250000E+09  0.00010  1.007E-04    0   0.5110   age158_m22            0.0000     2.1326E+02     9.0122   2.2934   101.5487
 20      0.0000     0.0000E+00    0.0000E+00    6.250000E+09  0.00010  6.869E-05    0   0.4985   age166_m22            0.0000     1.7024E+02     7.7314   2.2135    99.5272
 21      0.0000     0.0000E+00    0.0000E+00    7.500000E+09  0.00010  5.873E-05    0   0.4931   age171_m22            0.0000     1.7036E+02     7.7683   2.1943    99.1996
 22      0.0000     0.0000E+00    0.0000E+00    1.000000E+10  0.00010  4.481E-05    0   0.4854   age181_m22            0.0000     1.6619E+02     7.6770   2.1559    98.8634
 23      0.0000     0.0000E+00    0.0000E+00    1.300000E+10  0.00010  3.489E-05    0   0.4791   age193_m22            0.0000     1.5757E+02     7.4638   2.0975    98.4137
 24      0.9396     3.9568E-01    3.7984E-01    1.500000E+10  0.00010  3.035E-05    0   0.4766   age201_m22            0.0000     1.5256E+02     7.3587   2.0568    98.3099
 25      4.2887     2.1838E+00    2.0827E+00    1.800000E+10  0.00010  2.510E-05    0   0.4735   age213_m22            0.0000     1.4266E+02     7.1487   1.9837    97.9039
 26      0.0000     0.0000E+00    0.0000E+00    1.000000E+06  0.00040  8.458E-03    0   1.0000   age020_m32            0.0000     2.7391E+03    42.6562   4.0000   103.6397
 27      0.0000     0.0000E+00    0.0000E+00    3.160000E+06  0.00040  3.973E-02    0   1.0000   age045_m32            0.0000     8.0812E+02    23.9441   4.0000   105.1115
 28      0.0000     0.0000E+00    0.0000E+00    5.010000E+06  0.00040  1.935E-02    0   0.9532   age055_m32            0.0000     1.3154E+03    31.4145   4.0000   103.2476
 29      0.0000     0.0000E+00    0.0000E+00    6.610000E+06  0.00040  1.204E-02    0   0.9243   age061_m32            0.0000     2.1425E+03    38.3003   4.0000   105.9989
 30      0.0000     0.0000E+00    0.0000E+00    8.710000E+06  0.00040  9.433E-03    0   0.9001   age067_m32            0.0000     2.0405E+03    37.3307   4.0000   106.5960
 31      0.0000     0.0000E+00    0.0000E+00    1.000000E+07  0.00040  8.053E-03    0   0.8877   age070_m32            0.0000     1.9322E+03    36.4505   4.0000   106.5984
 32      0.0000     0.0000E+00    0.0000E+00    1.445000E+07  0.00040  7.027E-03    0   0.8578   age078_m32            0.0000     7.6872E+02    24.0446   4.0000   102.7851
 33      0.3642     9.8883E-04    1.6264E-03    2.512000E+07  0.00040  4.707E-03    0   0.8166   age090_m32            0.0000     4.2346E+02    17.0685   4.0000    99.9959
 34      0.0000     0.0000E+00    0.0000E+00    4.000000E+07  0.00040  3.714E-03    0   0.7827   age104_m32            0.0000     3.1904E+02    13.1250   4.0000    98.1621
 35      0.0000     0.0000E+00    0.0000E+00    5.500000E+07  0.00040  2.982E-03    0   0.7593   age110_m32            0.0000     3.1310E+02    12.3669   4.0000    97.6503
 36      0.0000     0.0000E+00    0.0000E+00    1.015200E+08  0.00040  2.188E-03    0   0.7143   age116_m32            0.0000     3.6568E+02    12.2965   3.8823    97.6939
 37      0.0000     0.0000E+00    0.0000E+00    1.609000E+08  0.00040  1.690E-03    0   0.6856   age120_m32            0.0000     4.1989E+02    13.4745   3.7044    99.4518
 38      0.0000     0.0000E+00    0.0000E+00    2.861200E+08  0.00040  1.152E-03    0   0.6509   age125_m32            0.0000     4.6376E+02    14.2637   3.5026   100.4619
 39      0.0000     0.0000E+00    0.0000E+00    5.088000E+08  0.00040  7.331E-04    0   0.6182   age130_m32            0.0000     4.7735E+02    14.4878   3.3482   100.9020
 40      0.0000     0.0000E+00    0.0000E+00    9.047900E+08  0.00040  3.960E-04    0   0.5890   age135_m32            0.0000     3.2519E+02    11.6786   2.8566   100.7078
 41      0.0000     0.0000E+00    0.0000E+00    1.278050E+09  0.00040  2.854E-04    0   0.5687   age138_m32            0.0000     2.8946E+02    11.0901   2.5419   103.1561
 42      0.0000     0.0000E+00    0.0000E+00    1.434000E+09  0.00040  2.531E-04    0   0.5632   age139_m32            0.0000     2.8345E+02    11.0011   2.4789   103.2031
 43      0.0000     0.0000E+00    0.0000E+00    2.500000E+09  0.00040  1.488E-04    0   0.5386   age150_m32            0.0000     2.2778E+02     9.7096   2.2135   101.8453
 44      1.3873     1.9523E-01    2.0444E-01    4.250000E+09  0.00040  9.082E-05    0   0.5199   age158_m32            0.0000     1.5036E+02     7.2157   2.0806    99.7089
 45      9.9301     1.9949E+00    2.0396E+00    6.250000E+09  0.00040  6.362E-05    0   0.5076   age166_m32            0.0000     1.2401E+02     6.6233   2.0066    97.4000
 46     12.6432     3.0552E+00    3.0936E+00    7.500000E+09  0.00040  5.289E-05    0   0.5027   age171_m32            0.0000     1.1621E+02     6.5258   1.9668    96.3006
 47      7.7489     2.4934E+00    2.4850E+00    1.000000E+10  0.00040  3.972E-05    0   0.4948   age181_m32            0.0000     1.0756E+02     6.3738   1.9033    95.0588
 48      4.8422     1.8851E+00    1.8491E+00    1.300000E+10  0.00040  3.283E-05    0   0.4870   age193_m32            0.0000     1.1017E+02     6.2364   1.8759    97.3100
 49      1.8800     8.2146E-01    8.0315E-01    1.500000E+10  0.00040  2.925E-05    0   0.4854   age201_m32            0.0000     1.1689E+02     6.3936   1.8668    98.6179
 50      3.5328     1.8288E+00    1.7751E+00    1.800000E+10  0.00040  2.469E-05    0   0.4819   age213_m32            0.0000     1.1752E+02     6.4227   1.8307    99.0472
 51      0.0000     0.0000E+00    0.0000E+00    1.000000E+06  0.00400  1.114E-02    0   1.0000   age020_m42            0.0000     2.4996E+03    41.0788   4.0000   103.3723
 52      0.0000     0.0000E+00    0.0000E+00    3.160000E+06  0.00400  4.073E-02    0   0.9999   age045_m42            0.0000     3.9317E+02    16.3188   4.0000   101.0556
 53      0.0000     0.0000E+00    0.0000E+00    5.010000E+06  0.00400  2.534E-02    0   0.9488   age055_m42            0.0000     9.9664E+02    27.2219   4.0000   103.4247
 54      0.3928     1.9434E-04    3.6091E-04    6.610000E+06  0.00400  2.583E-02    0   0.9220   age061_m42            0.0000     2.9011E+02    13.4391   4.0000    97.3827
 55      0.0000     0.0000E+00    0.0000E+00    8.710000E+06  0.00400  1.706E-02    0   0.8983   age067_m42            0.0000     2.7806E+02    13.7670   3.9630    92.0963
 56      0.5259     5.2883E-04    9.4397E-04    1.000000E+07  0.00400  1.271E-02    0   0.8862   age070_m42            0.0000     3.2780E+02    15.4619   3.9260    91.3308
 57      0.0000     0.0000E+00    0.0000E+00    1.445000E+07  0.00400  7.666E-03    0   0.8571   age078_m42            0.0000     4.9872E+02    20.6426   4.0000    96.0581
 58      0.0000     0.0000E+00    0.0000E+00    2.512000E+07  0.00400  5.070E-03    0   0.8174   age090_m42            0.0000     3.0074E+02    14.8146   3.8041    92.7608
 59      0.0000     0.0000E+00    0.0000E+00    4.000000E+07  0.00400  3.505E-03    0   0.7851   age104_m42            0.0000     2.3223E+02    12.8475   3.5085    95.2191
 60      0.0000     0.0000E+00    0.0000E+00    5.500000E+07  0.00400  3.059E-03    0   0.7629   age110_m42            0.0000     2.3409E+02    10.7067   3.6316    97.7057
 61      0.0000     0.0000E+00    0.0000E+00    1.015200E+08  0.00400  2.268E-03    0   0.7207   age116_m42            0.0000     3.5432E+02    12.2919   3.6127   100.5122
 62      0.0000     0.0000E+00    0.0000E+00    1.609000E+08  0.00400  1.720E-03    0   0.6930   age120_m42            0.0000     3.5849E+02    12.3807   3.4870   101.5637
 63      0.0000     0.0000E+00    0.0000E+00    2.861200E+08  0.00400  1.079E-03    0   0.6613   age125_m42            0.0000     3.3944E+02    12.1197   3.1273   102.1963
 64      0.0000     0.0000E+00    0.0000E+00    5.088000E+08  0.00400  6.261E-04    0   0.6313   age130_m42            0.0000     3.6535E+02    12.9760   2.9366   104.9209
 65      0.9938     3.5931E-02    4.3597E-02    9.047900E+08  0.00400  3.535E-04    0   0.6024   age135_m42            0.0000     2.4107E+02    10.4044   2.5145   106.0632
 66      0.0000     0.0000E+00    0.0000E+00    1.278050E+09  0.00400  2.677E-04    0   0.5837   age138_m42            0.0000     7.4404E+01     5.7316   1.8166   104.5477
 67      0.5174     3.4624E-02    3.9863E-02    1.434000E+09  0.00400  1.910E-04    0   0.5716   age139_m42            0.0000     1.0931E+02     6.7195   1.9911   105.0438
 68      0.0000     0.0000E+00    0.0000E+00    2.500000E+09  0.00400  9.818E-05    0   0.5463   age150_m42            0.0000     3.3767E+01     3.4389   1.7006   101.1315
 69      0.4199     9.7727E-02    1.0372E-01    4.250000E+09  0.00400  5.491E-05    0   0.5269   age158_m42            0.0000     1.8075E+01     2.8214   1.5611    98.9607
 70      0.1236     4.0944E-02    4.2480E-02    6.250000E+09  0.00400  3.857E-05    0   0.5151   age166_m42            0.0000     1.5193E+01     2.8001   1.4369    97.7545
 71      0.0000     0.0000E+00    0.0000E+00    7.500000E+09  0.00400  3.243E-05    0   0.5110   age171_m42            0.0000     1.6107E+01     2.9237   1.3615    97.2253
 72      0.0160     8.4365E-03    8.5441E-03    1.000000E+10  0.00400  2.424E-05    0   0.5028   age181_m42            0.0000     2.0513E+01     3.3351   1.2858    96.6007
 73      0.0000     0.0000E+00    0.0000E+00    1.300000E+10  0.00400  1.883E-05    0   0.4927   age193_m42            0.0000     2.6697E+01     3.8565   1.2469    96.3296
 74      0.0000     0.0000E+00    0.0000E+00    1.500000E+10  0.00400  1.685E-05    0   0.4919   age201_m42            0.0000     2.5033E+01     3.7355   1.2511    96.3641
 75      0.0000     0.0000E+00    0.0000E+00    1.800000E+10  0.00400  1.452E-05    0   0.4874   age213_m42            0.0000     2.2338E+01     3.5313   1.2647    96.6701
 76      0.0000     0.0000E+00    0.0000E+00    1.000000E+06  0.00800  1.286E-02    0   1.0000   age020_m52            0.0000     2.4026E+03    40.1268   4.0000   105.0700
 77      0.0000     0.0000E+00    0.0000E+00    3.160000E+06  0.00800  3.147E-02    0   0.9966   age045_m52            0.0000     2.1608E+03    38.4626   4.0000   105.8003
 78      0.0000     0.0000E+00    0.0000E+00    5.010000E+06  0.00800  2.664E-02    0   0.9443   age055_m52            0.0000     1.2626E+03    30.5450   4.0000   104.5880
 79      0.0000     0.0000E+00    0.0000E+00    6.610000E+06  0.00800  2.151E-02    0   0.9177   age061_m52            0.0000     2.5461E+02    14.0729   3.5181    93.1252
 80      0.0000     0.0000E+00    0.0000E+00    8.710000E+06  0.00800  1.628E-02    0   0.8948   age067_m52            0.0000     2.9282E+02    14.5602   3.9091    92.8716
 81      0.0000     0.0000E+00    0.0000E+00    1.000000E+07  0.00800  1.215E-02    0   0.8827   age070_m52            0.0000     4.0849E+02    18.3121   4.0000    97.3763
 82      0.0000     0.0000E+00    0.0000E+00    1.445000E+07  0.00800  8.739E-03    0   0.8552   age078_m52            0.0000     4.3675E+02    18.3027   4.0000    99.6504
 83      0.0000     0.0000E+00    0.0000E+00    2.512000E+07  0.00800  5.676E-03    0   0.8162   age090_m52            0.0000     2.9940E+02    13.0809   3.9402    95.6505
 84      0.0000     0.0000E+00    0.0000E+00    4.000000E+07  0.00800  3.939E-03    0   0.7841   age104_m52            0.0000     2.8625E+02    11.9067   3.8086    97.1306
 85      0.0000     0.0000E+00    0.0000E+00    5.500000E+07  0.00800  3.155E-03    0   0.7627   age110_m52            0.0000     2.9644E+02    11.3640   3.7990    98.1234
 86      0.0000     0.0000E+00    0.0000E+00    1.015200E+08  0.00800  2.206E-03    0   0.7226   age116_m52            0.0000     3.2346E+02    11.3628   3.6517   100.8169
 87      0.0000     0.0000E+00    0.0000E+00    1.609000E+08  0.00800  1.596E-03    0   0.6963   age120_m52            0.0000     3.3016E+02    11.7407   3.4501   102.0863
 88      0.0000     0.0000E+00    0.0000E+00    2.861200E+08  0.00800  1.002E-03    0   0.6665   age125_m52            0.0000     3.7278E+02    12.9679   3.1888   103.9377
 89      0.0000     0.0000E+00    0.0000E+00    5.088000E+08  0.00800  5.759E-04    0   0.6377   age130_m52            0.0000     3.5669E+02    12.7043   2.8580   107.4184
 90      0.0000     0.0000E+00    0.0000E+00    9.047900E+08  0.00800  2.972E-04    0   0.6086   age135_m52            0.0000     2.0226E+02     9.0398   2.3081   106.8112
 91      0.0000     0.0000E+00    0.0000E+00    1.278050E+09  0.00800  2.242E-04    0   0.5907   age138_m52            0.0000     5.5668E+01     4.8971   1.6622   106.9266
 92      0.0000     0.0000E+00    0.0000E+00    1.434000E+09  0.00800  1.645E-04    0   0.5787   age139_m52            0.0000     5.3962E+01     4.6996   1.8033   106.4537
 93      0.0000     0.0000E+00    0.0000E+00    2.500000E+09  0.00800  7.723E-05    0   0.5519   age150_m52            0.0000     1.4852E+01     2.9052   1.4544   103.3132
 94      0.0000     0.0000E+00    0.0000E+00    4.250000E+09  0.00800  4.151E-05    0   0.5320   age158_m52            0.0000     1.2442E+01     2.8845   1.3762   101.1406
 95      0.0000     0.0000E+00    0.0000E+00    6.250000E+09  0.00800  3.010E-05    0   0.5197   age166_m52            0.0000     1.5651E+01     3.3122   1.1871    99.8454
 96      0.0000     0.0000E+00    0.0000E+00    7.500000E+09  0.00800  2.467E-05    0   0.5139   age171_m52            0.0000     1.8421E+01     3.5161   1.1478    99.4389
 97      0.0000     0.0000E+00    0.0000E+00    1.000000E+10  0.00800  1.862E-05    0   0.5054   age181_m52            0.0000     2.9546E+01     4.2545   1.0267    98.9593
 98      0.0000     0.0000E+00    0.0000E+00    1.300000E+10  0.00800  1.433E-05    0   0.4988   age193_m52            0.0000     4.5661E+01     5.1639   0.9404    99.4371
 99      0.1041     1.0692E-01    1.0631E-01    1.500000E+10  0.00800  1.244E-05    0   0.4936   age201_m52            0.0000     5.3035E+01     5.5092   0.9144    99.8409
100      0.0000     0.0000E+00    0.0000E+00    1.800000E+10  0.00800  1.070E-05    0   0.4888   age213_m52            0.0000     5.8999E+01     5.7613   0.8824    99.6817
101      0.0000     0.0000E+00    0.0000E+00    1.000000E+06  0.02000  1.989E-02    0   1.0000   age020_m62            0.0000     2.4057E+03    40.1175   4.0000   103.7504
102      0.0000     0.0000E+00    0.0000E+00    3.160000E+06  0.02000  3.772E-02    0   0.9858   age045_m62            0.0000     1.9922E+03    37.3874   4.0000   104.6622
103      0.0000     0.0000E+00    0.0000E+00    5.010000E+06  0.02000  3.227E-02    0   0.9342   age055_m62            0.0000     7.5877E+02    23.4963   4.0000   103.6799
104      0.0000     0.0000E+00    0.0000E+00    6.610000E+06  0.02000  2.387E-02    0   0.9090   age061_m62            0.0000     4.9382E+02    20.2061   4.0000    97.6598
105      0.0000     0.0000E+00    0.0000E+00    8.710000E+06  0.02000  1.102E-02    0   0.8861   age067_m62            0.0000     6.7347E+02    22.9244   3.8899    87.2539
106      0.0000     0.0000E+00    0.0000E+00    1.000000E+07  0.02000  1.011E-02    0   0.8751   age070_m62            0.0000     5.0016E+02    19.9358   3.9283    89.0370
107      0.0000     0.0000E+00    0.0000E+00    1.445000E+07  0.02000  7.331E-03    0   0.8472   age078_m62            0.0000     3.8798E+02    17.6035   3.9616    89.8387
108      0.0000     0.0000E+00    0.0000E+00    2.512000E+07  0.02000  4.206E-03    0   0.8099   age090_m62            0.0000     3.9146E+02    17.9419   3.8699    89.5030
109      0.0000     0.0000E+00    0.0000E+00    4.000000E+07  0.02000  3.373E-03    0   0.7799   age104_m62            0.0000     2.6065E+02    12.7036   3.7442    95.9955
110      0.0000     0.0000E+00    0.0000E+00    5.500000E+07  0.02000  2.747E-03    0   0.7595   age110_m62            0.0000     2.7160E+02    11.5059   3.7132    98.3083
111      0.0000     0.0000E+00    0.0000E+00    1.015200E+08  0.02000  1.878E-03    0   0.7221   age116_m62            0.0000     3.4477E+02    11.8820   3.6245   101.4896
112      0.0000     0.0000E+00    0.0000E+00    1.609000E+08  0.02000  1.378E-03    0   0.6978   age120_m62            0.0000     3.9503E+02    13.1157   3.4966   103.1751
113      0.0000     2.8912E-07    3.9018E-07    2.861200E+08  0.02000  8.869E-04    0   0.6700   age125_m62            0.0000     4.6834E+02    14.6989   3.1562   106.5780
114      0.0000     0.0000E+00    0.0000E+00    5.088000E+08  0.02000  4.834E-04    0   0.6430   age130_m62            0.0000     3.8320E+02    13.0513   2.7302   108.7182
115      0.0000     0.0000E+00    0.0000E+00    9.047900E+08  0.02000  2.312E-04    0   0.6152   age135_m62            0.0000     1.7282E+02     8.2653   2.1020   109.1197
116      0.0000     0.0000E+00    0.0000E+00    1.278050E+09  0.02000  1.387E-04    0   0.5927   age138_m62            0.0000     5.8975E+01     4.7244   1.6960   105.9353
117      0.0000     0.0000E+00    0.0000E+00    1.434000E+09  0.02000  1.168E-04    0   0.5865   age139_m62            0.0000     4.4544E+01     4.1571   1.6639   104.5604
118      0.0000     0.0000E+00    0.0000E+00    2.500000E+09  0.02000  5.505E-05    0   0.5610   age150_m62            0.0000     1.4639E+01     3.1880   1.2898   102.1767
119      0.0000     0.0000E+00    0.0000E+00    4.250000E+09  0.02000  3.070E-05    0   0.5407   age158_m62            0.0000     3.2068E+01     4.3949   1.0117   101.9723
120      0.0000     0.0000E+00    0.0000E+00    6.250000E+09  0.02000  2.104E-05    0   0.5277   age166_m62            0.0000     5.1147E+01     5.3483   0.8870   102.3198
121      0.0000     0.0000E+00    0.0000E+00    7.500000E+09  0.02000  1.770E-05    0   0.5223   age171_m62            0.0000     6.2996E+01     5.8507   0.8043   102.6227
122      1.3332     1.3138E+00    1.3551E+00    1.000000E+10  0.02000  1.297E-05    0   0.5121   age181_m62            0.0000     9.2034E+01     6.9102   0.6544   103.0289
123      6.4598     8.5194E+00    8.6606E+00    1.300000E+10  0.02000  9.691E-06    0   0.5047   age193_m62            0.0000     1.1451E+02     7.6199   0.5761   103.3405
124     14.8422     2.2691E+01    2.2848E+01    1.500000E+10  0.02000  8.360E-06    0   0.4999   age201_m62            0.0000     1.3528E+02     8.2217   0.5106   103.5123
125     21.4435     3.9656E+01    3.9507E+01    1.800000E+10  0.02000  6.911E-06    0   0.4946   age213_m62            0.0000     1.6269E+02     8.9599   0.4438   103.6660
126      0.0000     0.0000E+00    0.0000E+00    1.000000E+06  0.05000  2.651E-02    0   0.9998   age020_m72            0.0000     2.3863E+03    39.7967   4.0000   104.8618
127      0.0000     0.0000E+00    0.0000E+00    3.160000E+06  0.05000  4.817E-02    0   0.9577   age045_m72            0.0000     1.5443E+03    33.0069   4.0000   106.1045
128      0.0000     0.0000E+00    0.0000E+00    5.010000E+06  0.05000  3.101E-02    0   0.9147   age055_m72            0.0000     8.1413E+02    25.3485   4.0000   102.5133
129      0.0000     0.0000E+00    0.0000E+00    6.610000E+06  0.05000  1.472E-02    0   0.8877   age061_m72            0.0000     5.2133E+02    21.3264   4.0000    91.1342
130      0.0000     0.0000E+00    0.0000E+00    8.710000E+06  0.05000  1.050E-02    0   0.8638   age067_m72            0.0000     7.9983E+02    25.7908   4.0000   100.2473
131      0.0000     0.0000E+00    0.0000E+00    1.000000E+07  0.05000  8.954E-03    0   0.8524   age070_m72            0.0000     1.2579E+03    30.1231   4.0000   105.5286
132      0.0000     0.0000E+00    0.0000E+00    1.445000E+07  0.05000  6.392E-03    0   0.8262   age078_m72            0.0000     1.1221E+03    28.4265   4.0000   105.6722
133      0.0000     0.0000E+00    0.0000E+00    2.512000E+07  0.05000  4.207E-03    0   0.7902   age090_m72            0.0000     4.9846E+02    19.2776   4.0000   102.4702
134      0.0000     0.0000E+00    0.0000E+00    4.000000E+07  0.05000  3.198E-03    0   0.7618   age104_m72            0.0000     2.7862E+02    10.7664   3.9941    97.6385
135      0.0000     0.0000E+00    0.0000E+00    5.500000E+07  0.05000  2.593E-03    0   0.7432   age110_m72            0.0000     3.0856E+02    11.1968   3.9187    99.0310
136      0.0000     0.0000E+00    0.0000E+00    1.015200E+08  0.05000  1.716E-03    0   0.7092   age116_m72            0.0000     3.6707E+02    12.3977   3.7442   100.8716
137      0.0000     0.0000E+00    0.0000E+00    1.609000E+08  0.05000  1.218E-03    0   0.6876   age120_m72            0.0000     4.1824E+02    13.5836   3.4893   103.1174
138      0.0000     0.0000E+00    0.0000E+00    2.861200E+08  0.05000  7.047E-04    0   0.6618   age125_m72            0.0000     4.2519E+02    13.8264   2.9749   106.5464
139      0.0000     0.0000E+00    0.0000E+00    5.088000E+08  0.05000  3.590E-04    0   0.6356   age130_m72            0.0000     2.9666E+02    11.1751   2.3976   109.3900
140      0.0000     0.0000E+00    0.0000E+00    9.047900E+08  0.05000  1.484E-04    0   0.6088   age135_m72            0.0000     6.7222E+01     5.3756   1.6238   104.7386
141      0.0000     0.0000E+00    0.0000E+00    1.278050E+09  0.05000  9.435E-05    0   0.5924   age138_m72            0.0000     3.8931E+01     4.6595   1.2209   102.2960
142      0.0000     0.0000E+00    0.0000E+00    1.434000E+09  0.05000  7.827E-05    0   0.5847   age139_m72            0.0000     3.3441E+01     4.4045   1.2300   101.8102
143      0.0000     0.0000E+00    0.0000E+00    2.500000E+09  0.05000  3.759E-05    0   0.5583   age150_m72            0.0000     5.3929E+01     5.4740   0.9093   101.2763
144      0.0000     0.0000E+00    0.0000E+00    4.250000E+09  0.05000  1.842E-05    0   0.5374   age158_m72            0.0000     1.0449E+02     7.0901   0.6137   100.5973
145      0.0000     0.0000E+00    0.0000E+00    6.250000E+09  0.05000  1.207E-05    0   0.5242   age166_m72            0.0000     1.5689E+02     8.4054   0.3864   100.2516
146      0.0000     0.0000E+00    0.0000E+00    7.500000E+09  0.05000  9.993E-06    0   0.5183   age171_m72            0.0000     1.6669E+02     8.5809   0.3444   100.2106
147      0.0000     0.0000E+00    0.0000E+00    1.000000E+10  0.05000  7.291E-06    0   0.5081   age181_m72            0.0000     2.0891E+02     9.5323   0.2301   100.0546
148      0.6700     1.6107E+00    1.6280E+00    1.300000E+10  0.05000  5.316E-06    0   0.5018   age193_m72            0.0000     2.8586E+02    11.1352   0.0598    99.8091
149      0.0000     0.0000E+00    0.0000E+00    1.500000E+10  0.05000  4.497E-06    0   0.4972   age201_m72            0.0000     3.2646E+02    11.9469  -0.0069    99.9830
150      3.2251     1.1024E+01    1.0934E+01    1.800000E+10  0.05000  3.739E-06    0   0.4924   age213_m72            0.0000     3.8162E+02    12.9961  -0.1041   100.0226


## Synthesis Results - Average & Chains ##

# j      x_j: min, <> & last-chain-values for 1 ...  7 chains
  1      0.0000      0.0103      0.0000      0.0000      0.0190      0.0000      0.0000      0.0000      0.0000
  2      0.0000      0.0288      0.1200      0.0479      0.0000      0.0257      0.1020      0.0000      0.0521
  3      1.5365      0.9872      1.0166      1.0064      1.0261      1.0193      0.9144      0.8688      1.1732
  4      0.0000      0.0105      0.0231      0.0000      0.0067      0.0146      0.0000      0.0000      0.0000
  5      0.0000      0.0359      0.0907      0.0440      0.0314      0.0458      0.0000      0.0000      0.1935
  6      0.0000      0.0261      0.0000      0.0000      0.0000      0.0000      0.0000      0.0000      0.0000
  7      0.0000      0.0437      0.0000      0.0000      0.0000      0.0000      0.0252      0.1151      0.0668
  8      0.0000      0.0454      0.0000      0.0000      0.0950      0.1710      0.2161      0.1897      0.0000
  9      0.0000      0.0301      0.1517      0.0847      0.1280      0.0000      0.0000      0.0000      0.0000
 10      0.0000      0.0676      0.1190      0.0000      0.1062      0.1784      0.0000      0.2745      0.0000
 11      0.7211      0.0647      0.2316      0.0524      0.5264      0.0000      0.1330      0.0250      0.0000
 12      0.0000      0.0327      0.0000      0.1820      0.0000      0.0000      0.0844      0.0000      0.0578
 13      0.0000      0.0484      0.0000      0.1629      0.0000      0.0000      0.0752      0.0259      0.0643
 14      0.0000      0.0087      0.0000      0.0000      0.0000      0.0000      0.0000      0.0107      0.0920
 15      0.0000      0.0220      0.0000      0.0000      0.0000      0.0000      0.0000      0.0000      0.0000
 16      0.0000      0.0201      0.0000      0.0000      0.0000      0.0000      0.0000      0.0000      0.0194
 17      0.0000      0.0199      0.0000      0.0000      0.0000      0.0054      0.0000      0.0000      0.0000
 18      0.0000      0.0655      0.0000      0.0000      0.0000      0.1415      0.0000      0.0000      0.0000
 19      0.0000      0.1157      0.0000      0.0000      0.0000      0.1372      0.0000      0.0563      0.0000
 20      0.0000      0.0852      0.0690      0.0000      0.0000      0.2663      0.0836      0.1739      0.1931
 21      0.0000      0.1238      0.0000      0.0000      0.0865      0.1261      0.0819      0.1107      0.1770
 22      0.0000      0.1076      0.0000      0.3631      0.0000      0.2081      0.2171      0.1496      0.1164
 23      0.0000      0.0923      0.1697      0.0000      0.0000      0.2858      0.2806      0.3267      0.1398
 24      0.9396      1.1650      1.2814      0.9417      0.8576      0.9637      1.2772      1.6833      1.2605
 25      4.2887      4.5762      4.5175      4.6568      4.5306      4.6925      4.2772      4.9214      4.7076
 26      0.0000      0.0253      0.0000      0.0000      0.0000      0.0000      0.0000      0.0357      0.0101
 27      0.0000      0.0160      0.0705      0.0000      0.0000      0.0000      0.1434      0.0000      0.0000
 28      0.0000      0.0139      0.1780      0.0000      0.0000      0.0000      0.0000      0.0089      0.0124
 29      0.0000      0.0526      0.0967      0.0000      0.0000      0.0000      0.0000      0.0996      0.2072
 30      0.0000      0.0295      0.0000      0.0665      0.0000      0.0000      0.0000      0.0298      0.0012
 31      0.0000      0.0289      0.0000      0.2814      0.0065      0.0000      0.0000      0.0000      0.0000
 32      0.0000      0.0572      0.0294      0.0000      0.0000      0.0000      0.2001      0.0000      0.3313
 33      0.3642      0.0370      0.0000      0.0000      0.1790      0.0000      0.0000      0.0000      0.0000
 34      0.0000      0.0220      0.0000      0.0000      0.0637      0.0000      0.0000      0.0000      0.1115
 35      0.0000      0.0309      0.2259      0.0123      0.0175      0.0054      0.0493      0.1617      0.0000
 36      0.0000      0.0215      0.0000      0.0000      0.0000      0.0000      0.0000      0.0000      0.0000
 37      0.0000      0.0315      0.0000      0.0000      0.0000      0.0137      0.0000      0.0000      0.1638
 38      0.0000      0.0155      0.0000      0.0000      0.0000      0.0207      0.0001      0.0000      0.0000
 39      0.0000      0.0143      0.0000      0.0000      0.0000      0.0000      0.0000      0.0000      0.0000
 40      0.0000      0.0205      0.0000      0.0697      0.0000      0.0000      0.0000      0.0073      0.0000
 41      0.0000      0.0980      0.0887      0.0973      0.0783      0.0000      0.0540      0.0000      0.0000
 42      0.0000      0.0482      0.0574      0.0000      0.0000      0.0883      0.0000      0.0000      0.0000
 43      0.0000      0.0560      0.3794      0.0000      0.0000      0.0611      0.2496      0.0081      0.0000
 44      1.3873      1.2997      1.3555      1.5735      1.2774      1.1401      1.5939      1.3880      1.3660
 45      9.9301      8.6963      8.4689      8.7988      9.3107      8.6223      8.8476      8.5797      9.2228
 46     12.6432     11.3257     11.2546     11.3967     11.7626     11.9789     11.3678     11.1915     11.3643
 47      7.7489      8.1559      8.8163      8.2703      8.1529      8.1279      8.4893      8.0684      7.9521
 48      4.8422      5.6280      5.6772      5.1745      5.6930      5.7361      6.0655      5.6509      5.6939
 49      1.8800      2.2333      1.9937      2.3201      2.0694      2.1640      2.2994      1.8324      2.2666
 50      3.5328      3.6910      3.9237      3.8307      3.8880      3.5290      3.2371      3.6032      3.8946
 51      0.0000      0.0393      0.0226      0.0000      0.0000      0.1534      0.1316      0.0000      0.0000
 52      0.0000      0.0356      0.0000      0.0000      0.0000      0.0000      0.0000      0.1297      0.0064
 53      0.0000      0.0316      0.0837      0.0000      0.0350      0.0000      0.0723      0.1389      0.0000
 54      0.3928      0.0473      0.0000      0.1609      0.1911      0.0000      0.1338      0.0000      0.0000
 55      0.0000      0.0493      0.0000      0.0000      0.0000      0.0000      0.0364      0.0000      0.1053
 56      0.5259      0.0787      0.3566      0.0791      0.3048      0.0000      0.0000      0.1001      0.0000
 57      0.0000      0.0166      0.0000      0.0000      0.0000      0.0000      0.0000      0.0104      0.0000
 58      0.0000      0.0314      0.0000      0.0000      0.0672      0.0000      0.0276      0.0863      0.0000
 59      0.0000      0.0252      0.0000      0.0236      0.0000      0.0528      0.1073      0.0000      0.0000
 60      0.0000      0.0603      0.0000      0.0000      0.1238      0.0000      0.2945      0.5473      0.0293
 61      0.0000      0.0286      0.0000      0.0000      0.0000      0.0000      0.0000      0.0000      0.0000
 62      0.0000      0.0188      0.0000      0.0000      0.0000      0.0000      0.0000      0.0000      0.0300
 63      0.0000      0.0154      0.0000      0.0000      0.0000      0.0000      0.0145      0.1536      0.0000
 64      0.0000      0.0393      0.2443      0.0000      0.0000      0.0000      0.1942      0.0000      0.0000
 65      0.9938      0.0611      0.0000      0.1175      0.2719      0.1394      0.0000      0.1976      0.2005
 66      0.0000      0.1316      0.0000      0.3703      0.0000      0.1256      0.0000      0.0000      0.1832
 67      0.5174      0.0844      0.0707      0.0182      0.2845      0.2857      0.0740      0.1070      0.0000
 68      0.0000      0.0807      0.0237      0.0000      0.0000      0.0452      0.0511      0.4208      0.0181
 69      0.4199      0.1273      0.2600      0.0000      0.1730      0.0000      0.4560      0.0000      0.4009
 70      0.1236      0.1390      0.0000      0.0666      0.4244      0.0262      0.0000      0.0113      0.0400
 71      0.0000      0.1106      0.0000      0.0000      0.0000      0.0188      0.0983      0.0105      0.0000
 72      0.0160      0.1033      0.0000      0.1859      0.2663      0.0000      0.0968      0.0477      0.0000
 73      0.0000      0.0969      0.0000      0.0000      0.0000      0.1468      0.1397      0.0000      0.0696
 74      0.0000      0.0921      0.0746      0.0000      0.0000      0.3116      0.0000      0.0000      0.0000
 75      0.0000      0.0977      0.0000      0.1037      0.0178      0.0725      0.1319      0.3240      0.0000
 76      0.0000      0.0264      0.0000      0.0000      0.0000      0.0000      0.0000      0.0000      0.0000
 77      0.0000      0.0169      0.1002      0.0000      0.0554      0.0000      0.0000      0.0000      0.0000
 78      0.0000      0.0420      0.0143      0.0000      0.0000      0.0000      0.0558      0.0000      0.0000
 79      0.0000      0.0581      0.0000      0.0798      0.0000      0.1355      0.0848      0.1102      0.0364
 80      0.0000      0.0279      0.0000      0.0000      0.0000      0.1152      0.0000      0.0000      0.0000
 81      0.0000      0.0181      0.0174      0.0000      0.0612      0.0000      0.0000      0.0000      0.0000
 82      0.0000      0.0347      0.0000      0.0326      0.0000      0.3537      0.0000      0.0000      0.0435
 83      0.0000      0.0334      0.0000      0.0475      0.0000      0.0000      0.0000      0.0671      0.0568
 84      0.0000      0.0540      0.0743      0.0000      0.0000      0.0585      0.0000      0.1281      0.0657
 85      0.0000      0.0242      0.1044      0.0139      0.0000      0.1902      0.0000      0.0393      0.0000
 86      0.0000      0.0224      0.0000      0.0000      0.0000      0.0277      0.0000      0.0000      0.0000
 87      0.0000      0.0141      0.0000      0.0000      0.0824      0.0699      0.0000      0.0000      0.0000
 88      0.0000      0.0227      0.0305      0.0000      0.0000      0.0849      0.0000      0.0397      0.0610
 89      0.0000      0.0177      0.0000      0.0000      0.0000      0.0000      0.0145      0.0000      0.0000
 90      0.0000      0.0185      0.0000      0.0000      0.0000      0.0000      0.0000      0.0000      0.0000
 91      0.0000      0.0489      0.0000      0.0000      0.0000      0.0000      0.0000      0.0000      0.0000
 92      0.0000      0.0421      0.1031      0.0000      0.0000      0.0000      0.0000      0.0000      0.0000
 93      0.0000      0.0899      0.0000      0.3131      0.0000      0.0000      0.1098      0.0481      0.0000
 94      0.0000      0.1056      0.0000      0.0718      0.0000      0.0000      0.0000      0.0381      0.0000
 95      0.0000      0.1471      0.0000      0.0000      0.0000      0.3453      0.0000      0.0402      0.0000
 96      0.0000      0.1649      0.0528      0.0000      0.1546      0.0018      0.0000      0.2558      0.0000
 97      0.0000      0.1423      0.1169      0.1431      0.0000      0.0000      0.0000      0.0011      0.0980
 98      0.0000      0.1455      0.3462      0.0454      0.0000      0.0000      0.1388      0.8321      0.2107
 99      0.1041      0.1889      0.2447      0.1584      0.5041      0.5781      0.0000      0.0000      0.0000
100      0.0000      0.1234      0.0000      0.6915      0.0000      0.0000      0.0000      0.0000      0.1204
101      0.0000      0.0217      0.0000      0.0000      0.0342      0.0000      0.0180      0.0000      0.0000
102      0.0000      0.0092      0.0555      0.0219      0.0000      0.0868      0.0000      0.0000      0.0000
103      0.0000      0.0141      0.0000      0.0543      0.0000      0.0000      0.0430      0.0000      0.0000
104      0.0000      0.0438      0.0107      0.3243      0.0046      0.0650      0.0000      0.0180      0.0101
105      0.0000      0.0234      0.0000      0.0000      0.0000      0.0000      0.0000      0.0432      0.0128
106      0.0000      0.0200      0.0000      0.0273      0.0585      0.0000      0.0000      0.0000      0.0025
107      0.0000      0.0143      0.0000      0.0259      0.0000      0.0000      0.0595      0.0000      0.0166
108      0.0000      0.0419      0.0000      0.0000      0.0000      0.0000      0.0056      0.0000      0.0274
109      0.0000      0.0236      0.0000      0.2159      0.0000      0.0826      0.1160      0.0000      0.0000
110      0.0000      0.0195      0.0000      0.1718      0.0000      0.0000      0.0000      0.0000      0.0000
111      0.0000      0.0266      0.1590      0.0521      0.0000      0.0000      0.0226      0.0000      0.0000
112      0.0000      0.0397      0.0000      0.1377      0.0000      0.0000      0.0000      0.0000      0.0000
113      0.0000      0.0226      0.0000      0.0000      0.1829      0.0000      0.0000      0.0000      0.1194
114      0.0000      0.0125      0.0000      0.0000      0.0000      0.0000      0.0000      0.0000      0.0000
115      0.0000      0.0271      0.1463      0.0000      0.0000      0.0000      0.0000      0.0187      0.0761
116      0.0000      0.0426      0.0000      0.0001      0.0000      0.0000      0.0000      0.0094      0.0000
117      0.0000      0.0317      0.0000      0.0058      0.0000      0.0267      0.0020      0.0000      0.0811
118      0.0000      0.0706      0.0884      0.0000      0.0000      0.0000      0.0000      0.0000      0.0000
119      0.0000      0.1272      0.0548      0.0000      0.0000      0.0000      0.0000      0.0000      0.0000
120      0.0000      0.1184      0.0921      0.0786      0.1348      0.0000      0.2451      0.0802      0.0633
121      0.0000      0.1718      0.0000      0.1574      0.0000      0.0832      0.2316      0.2828      0.1070
122      1.3332      1.6369      1.6343      2.7535      1.1713      1.6565      1.1892      1.5063      1.4613
123      6.4598      6.0925      6.1129      6.3702      6.4620      6.1015      6.2781      6.5548      6.2827
124     14.8422     14.2030     13.9992     13.2545     14.5695     14.1665     14.2621     14.3844     14.5421
125     21.4435     19.9955     20.5214     20.0320     20.3497     20.4668     20.3072     19.6968     20.3501
126      0.0000      0.0177      0.0000      0.0000      0.0000      0.0000      0.0799      0.0776      0.0000
127      0.0000      0.0173      0.0622      0.0058      0.0273      0.0000      0.0000      0.0000      0.0000
128      0.0000      0.0212      0.0000      0.0000      0.0000      0.0233      0.0000      0.0000      0.0000
129      0.0000      0.0227      0.0262      0.0227      0.0000      0.0798      0.0000      0.0000      0.0000
130      0.0000      0.0294      0.0000      0.0275      0.0390      0.0000      0.0000      0.0185      0.0000
131      0.0000      0.0256      0.0000      0.0000      0.0000      0.0000      0.0000      0.0000      0.0000
132      0.0000      0.0189      0.0000      0.1236      0.0000      0.0034      0.0186      0.0000      0.0000
133      0.0000      0.0129      0.0000      0.0000      0.0140      0.0798      0.0000      0.0038      0.0953
134      0.0000      0.0157      0.0031      0.0000      0.0103      0.0000      0.0000      0.0000      0.0365
135      0.0000      0.0098      0.0000      0.0000      0.0000      0.0320      0.0000      0.0000      0.0000
136      0.0000      0.0179      0.0000      0.0000      0.0000      0.0000      0.0000      0.0000      0.0000
137      0.0000      0.0244      0.0000      0.0000      0.1082      0.0000      0.0155      0.0100      0.0000
138      0.0000      0.0131      0.0849      0.0850      0.0000      0.0016      0.0000      0.0000      0.0877
139      0.0000      0.0180      0.0000      0.0230      0.0000      0.0000      0.0000      0.0000      0.0232
140      0.0000      0.0275      0.0000      0.0586      0.0000      0.0534      0.0085      0.0000      0.0000
141      0.0000      0.0269      0.0000      0.0000      0.0000      0.0000      0.0000      0.0031      0.0000
142      0.0000      0.0312      0.0000      0.0000      0.0000      0.0000      0.0000      0.0000      0.0000
143      0.0000      0.0501      0.0000      0.0000      0.0000      0.0000      0.0000      0.0000      0.0000
144      0.0000      0.0822      0.0660      0.1699      0.0012      0.0000      0.0000      0.0465      0.0000
145      0.0000      0.0760      0.0000      0.0000      0.0954      0.1458      0.0000      0.0481      0.0435
146      0.0000      0.1444      0.4259      0.0000      0.0000      0.0000      0.2107      0.1423      0.0456
147      0.0000      0.0815      0.1860      0.0000      0.1550      0.2198      0.0000      0.0167      0.2059
148      0.6700      0.7359      0.6665      0.7858      0.7861      0.8279      0.7673      0.7738      0.7239
149      0.0000      0.0718      0.0707      0.0944      0.0000      0.0000      0.2569      0.1120      0.0000
150      3.2251      3.6378      3.5722      3.5899      3.7091      3.4745      3.7776      3.5158      3.7412

# j      m_j: min, <> & last-chain-values for 1 ...  7 chains
  1  0.0000E+00  3.2466E-05  0.0000E+00  0.0000E+00  5.9301E-05  0.0000E+00  0.0000E+00  0.0000E+00  0.0000E+00
  2  0.0000E+00  1.5544E-05  6.4640E-05  2.5968E-05  0.0000E+00  1.3848E-05  5.4686E-05  0.0000E+00  2.7939E-05
  3  1.9618E-03  1.2598E-03  1.2930E-03  1.2865E-03  1.2984E-03  1.2973E-03  1.1571E-03  1.1081E-03  1.4842E-03
  4  0.0000E+00  2.5084E-05  5.5284E-05  0.0000E+00  1.5932E-05  3.4810E-05  0.0000E+00  0.0000E+00  0.0000E+00
  5  0.0000E+00  1.0846E-04  2.7325E-04  1.3309E-04  9.4084E-05  1.3807E-04  0.0000E+00  0.0000E+00  5.7972E-04
  6  0.0000E+00  9.3732E-05  0.0000E+00  0.0000E+00  0.0000E+00  0.0000E+00  0.0000E+00  0.0000E+00  0.0000E+00
  7  0.0000E+00  1.9826E-04  0.0000E+00  0.0000E+00  0.0000E+00  0.0000E+00  1.1346E-04  5.2144E-04  3.0031E-04
  8  0.0000E+00  2.3273E-04  0.0000E+00  0.0000E+00  4.8296E-04  8.7425E-04  1.0986E-03  9.7199E-04  0.0000E+00
  9  0.0000E+00  1.6611E-04  8.3372E-04  4.6773E-04  6.9960E-04  0.0000E+00  0.0000E+00  0.0000E+00  0.0000E+00
 10  0.0000E+00  4.2691E-04  7.4971E-04  0.0000E+00  6.6571E-04  1.1243E-03  0.0000E+00  1.7337E-03  0.0000E+00
 11  5.4504E-03  4.8864E-04  1.7436E-03  3.9657E-04  3.9434E-03  0.0000E+00  9.9624E-04  1.8848E-04  0.0000E+00
 12  0.0000E+00  4.3226E-04  0.0000E+00  2.4089E-03  0.0000E+00  0.0000E+00  1.1056E-03  0.0000E+00  7.5733E-04
 13  0.0000E+00  7.4286E-04  0.0000E+00  2.5044E-03  0.0000E+00  0.0000E+00  1.1444E-03  3.9739E-04  9.7763E-04
 14  0.0000E+00  1.8958E-04  0.0000E+00  0.0000E+00  0.0000E+00  0.0000E+00  0.0000E+00  2.3379E-04  1.9869E-03
 15  0.0000E+00  7.2336E-04  0.0000E+00  0.0000E+00  0.0000E+00  0.0000E+00  0.0000E+00  0.0000E+00  0.0000E+00
 16  0.0000E+00  9.5867E-04  0.0000E+00  0.0000E+00  0.0000E+00  0.0000E+00  0.0000E+00  0.0000E+00  9.1605E-04
 17  0.0000E+00  1.0551E-03  0.0000E+00  0.0000E+00  0.0000E+00  2.8399E-04  0.0000E+00  0.0000E+00  0.0000E+00
 18  0.0000E+00  5.6427E-03  0.0000E+00  0.0000E+00  0.0000E+00  1.2155E-02  0.0000E+00  0.0000E+00  0.0000E+00
 19  0.0000E+00  1.5105E-02  0.0000E+00  0.0000E+00  0.0000E+00  1.7870E-02  0.0000E+00  7.3515E-03  0.0000E+00
 20  0.0000E+00  1.5916E-02  1.2847E-02  0.0000E+00  0.0000E+00  4.9593E-02  1.5480E-02  3.2460E-02  3.5748E-02
 21  0.0000E+00  2.6746E-02  0.0000E+00  0.0000E+00  1.8531E-02  2.7174E-02  1.7544E-02  2.3892E-02  3.7903E-02
 22  0.0000E+00  2.9978E-02  0.0000E+00  1.0138E-01  0.0000E+00  5.7854E-02  5.9992E-02  4.1661E-02  3.2170E-02
 23  0.0000E+00  3.2609E-02  5.9776E-02  0.0000E+00  0.0000E+00  1.0071E-01  9.8309E-02  1.1536E-01  4.8959E-02
 24  3.7984E-01  4.7070E-01  5.1605E-01  3.8115E-01  3.4360E-01  3.8834E-01  5.1173E-01  6.7972E-01  5.0491E-01
 25  2.0827E+00  2.2212E+00  2.1855E+00  2.2642E+00  2.1806E+00  2.2716E+00  2.0588E+00  2.3873E+00  2.2653E+00
 26  0.0000E+00  7.6954E-05  0.0000E+00  0.0000E+00  0.0000E+00  0.0000E+00  0.0000E+00  1.0846E-04  3.0557E-05
 27  0.0000E+00  1.0348E-05  4.5492E-05  0.0000E+00  0.0000E+00  0.0000E+00  9.2088E-05  0.0000E+00  0.0000E+00
 28  0.0000E+00  1.7667E-05  2.2481E-04  0.0000E+00  0.0000E+00  0.0000E+00  0.0000E+00  1.1278E-05  1.5522E-05
 29  0.0000E+00  1.0393E-04  1.9039E-04  0.0000E+00  0.0000E+00  0.0000E+00  0.0000E+00  1.9660E-04  4.0577E-04
 30  0.0000E+00  7.2424E-05  0.0000E+00  1.6344E-04  0.0000E+00  0.0000E+00  0.0000E+00  7.3192E-05  2.8915E-06
 31  0.0000E+00  8.2009E-05  0.0000E+00  7.9962E-04  1.8286E-05  0.0000E+00  0.0000E+00  0.0000E+00  0.0000E+00
 32  0.0000E+00  1.7973E-04  9.1926E-05  0.0000E+00  0.0000E+00  0.0000E+00  6.2322E-04  0.0000E+00  1.0317E-03
 33  1.6264E-03  1.6500E-04  0.0000E+00  0.0000E+00  7.9217E-04  0.0000E+00  0.0000E+00  0.0000E+00  0.0000E+00
 34  0.0000E+00  1.1940E-04  0.0000E+00  0.0000E+00  3.4250E-04  0.0000E+00  0.0000E+00  0.0000E+00  5.9950E-04
 35  0.0000E+00  2.0225E-04  1.4751E-03  8.1048E-05  1.1362E-04  3.5327E-05  3.2017E-04  1.0588E-03  0.0000E+00
 36  0.0000E+00  1.8055E-04  0.0000E+00  0.0000E+00  0.0000E+00  0.0000E+00  0.0000E+00  0.0000E+00  0.0000E+00
 37  0.0000E+00  3.2878E-04  0.0000E+00  0.0000E+00  0.0000E+00  1.4232E-04  0.0000E+00  0.0000E+00  1.6947E-03
 38  0.0000E+00  2.2541E-04  0.0000E+00  0.0000E+00  0.0000E+00  3.0017E-04  9.7515E-07  0.0000E+00  0.0000E+00
 39  0.0000E+00  3.1090E-04  0.0000E+00  0.0000E+00  0.0000E+00  0.0000E+00  0.0000E+00  0.0000E+00  0.0000E+00
 40  0.0000E+00  7.8480E-04  0.0000E+00  2.6734E-03  0.0000E+00  0.0000E+00  0.0000E+00  2.8104E-04  0.0000E+00
 41  0.0000E+00  5.0265E-03  4.5311E-03  4.9957E-03  3.9824E-03  0.0000E+00  2.7438E-03  0.0000E+00  0.0000E+00
 42  0.0000E+00  2.7605E-03  3.2771E-03  0.0000E+00  0.0000E+00  5.0424E-03  0.0000E+00  0.0000E+00  0.0000E+00
 43  0.0000E+00  5.2190E-03  3.5222E-02  0.0000E+00  0.0000E+00  5.6763E-03  2.3052E-02  7.5318E-04  0.0000E+00
 44  2.0444E-01  1.9144E-01  1.9899E-01  2.3216E-01  1.8657E-01  1.6748E-01  2.3281E-01  2.0432E-01  1.9946E-01
 45  2.0396E+00  1.7852E+00  1.7328E+00  1.8094E+00  1.8953E+00  1.7653E+00  1.8012E+00  1.7603E+00  1.8770E+00
 46  3.0936E+00  2.7697E+00  2.7432E+00  2.7919E+00  2.8524E+00  2.9217E+00  2.7568E+00  2.7353E+00  2.7552E+00
 47  2.4850E+00  2.6141E+00  2.8165E+00  2.6554E+00  2.5912E+00  2.5982E+00  2.6983E+00  2.5845E+00  2.5268E+00
 48  1.8491E+00  2.1480E+00  2.1597E+00  1.9784E+00  2.1546E+00  2.1835E+00  2.2957E+00  2.1555E+00  2.1545E+00
 49  8.0315E-01  9.5356E-01  8.4846E-01  9.9237E-01  8.7616E-01  9.2154E-01  9.7360E-01  7.8193E-01  9.5944E-01
 50  1.7751E+00  1.8536E+00  1.9640E+00  1.9271E+00  1.9361E+00  1.7675E+00  1.6121E+00  1.8084E+00  1.9390E+00
 51  0.0000E+00  9.0849E-05  5.2054E-05  0.0000E+00  0.0000E+00  3.5327E-04  3.0143E-04  0.0000E+00  0.0000E+00
 52  0.0000E+00  2.2472E-05  0.0000E+00  0.0000E+00  0.0000E+00  0.0000E+00  0.0000E+00  8.1906E-05  3.9787E-06
 53  0.0000E+00  3.0450E-05  8.0414E-05  0.0000E+00  3.3467E-05  0.0000E+00  6.9062E-05  1.3370E-04  0.0000E+00
 54  3.6091E-04  4.3416E-05  0.0000E+00  1.4807E-04  1.7405E-04  0.0000E+00  1.2187E-04  0.0000E+00  0.0000E+00
 55  0.0000E+00  6.6773E-05  0.0000E+00  0.0000E+00  0.0000E+00  0.0000E+00  4.8855E-05  0.0000E+00  1.4145E-04
 56  9.4397E-04  1.4110E-04  6.3759E-04  1.4216E-04  5.4228E-04  0.0000E+00  0.0000E+00  1.7947E-04  0.0000E+00
 57  0.0000E+00  4.7688E-05  0.0000E+00  0.0000E+00  0.0000E+00  0.0000E+00  0.0000E+00  2.9810E-05  0.0000E+00
 58  0.0000E+00  1.3026E-04  0.0000E+00  0.0000E+00  2.7633E-04  0.0000E+00  1.1348E-04  3.5772E-04  0.0000E+00
 59  0.0000E+00  1.4529E-04  0.0000E+00  1.3607E-04  0.0000E+00  3.0366E-04  6.1331E-04  0.0000E+00  0.0000E+00
 60  0.0000E+00  3.8710E-04  0.0000E+00  0.0000E+00  7.8749E-04  0.0000E+00  1.8740E-03  3.5097E-03  1.8663E-04
 61  0.0000E+00  2.3360E-04  0.0000E+00  0.0000E+00  0.0000E+00  0.0000E+00  0.0000E+00  0.0000E+00  0.0000E+00
 62  0.0000E+00  1.9450E-04  0.0000E+00  0.0000E+00  0.0000E+00  0.0000E+00  0.0000E+00  0.0000E+00  3.0808E-04
 63  0.0000E+00  2.4214E-04  0.0000E+00  0.0000E+00  0.0000E+00  0.0000E+00  2.2733E-04  2.4208E-03  0.0000E+00
 64  0.0000E+00  1.0201E-03  6.3172E-03  0.0000E+00  0.0000E+00  0.0000E+00  4.9954E-03  0.0000E+00  0.0000E+00
 65  4.3597E-02  2.6775E-03  0.0000E+00  5.1608E-03  1.1820E-02  6.0964E-03  0.0000E+00  8.6587E-03  8.7153E-03
 66  0.0000E+00  7.3809E-03  0.0000E+00  2.0809E-02  0.0000E+00  7.0285E-03  0.0000E+00  0.0000E+00  1.0191E-02
 67  3.9863E-02  6.4984E-03  5.4272E-03  1.4003E-03  2.1724E-02  2.1941E-02  5.6530E-03  8.2330E-03  0.0000E+00
 68  0.0000E+00  1.1550E-02  3.3814E-03  0.0000E+00  0.0000E+00  6.4494E-03  7.2516E-03  6.0203E-02  2.5655E-03
 69  1.0372E-01  3.1439E-02  6.3980E-02  0.0000E+00  4.2353E-02  0.0000E+00  1.1165E-01  0.0000E+00  9.8127E-02
 70  4.2480E-02  4.7757E-02  0.0000E+00  2.2911E-02  1.4461E-01  8.9903E-03  0.0000E+00  3.8949E-03  1.3643E-02
 71  0.0000E+00  4.4857E-02  0.0000E+00  0.0000E+00  0.0000E+00  7.6035E-03  3.9537E-02  4.2607E-03  0.0000E+00
 72  8.5441E-03  5.5138E-02  0.0000E+00  9.9369E-02  1.4093E-01  0.0000E+00  5.1255E-02  2.5463E-02  0.0000E+00
 73  0.0000E+00  6.5268E-02  0.0000E+00  0.0000E+00  0.0000E+00  9.8580E-02  9.3242E-02  0.0000E+00  4.6426E-02
 74  0.0000E+00  6.9174E-02  5.5852E-02  0.0000E+00  0.0000E+00  2.3341E-01  0.0000E+00  0.0000E+00  0.0000E+00
 75  0.0000E+00  8.4409E-02  0.0000E+00  8.9744E-02  1.5224E-02  6.2440E-02  1.1296E-01  2.7964E-01  0.0000E+00
 76  0.0000E+00  5.2753E-05  0.0000E+00  0.0000E+00  0.0000E+00  0.0000E+00  0.0000E+00  0.0000E+00  0.0000E+00
 77  0.0000E+00  1.3799E-05  8.1372E-05  0.0000E+00  4.4779E-05  0.0000E+00  0.0000E+00  0.0000E+00  0.0000E+00
 78  0.0000E+00  3.8304E-05  1.3001E-05  0.0000E+00  0.0000E+00  0.0000E+00  5.0433E-05  0.0000E+00  0.0000E+00
 79  0.0000E+00  6.3753E-05  0.0000E+00  8.7717E-05  0.0000E+00  1.4830E-04  9.2283E-05  1.2092E-04  3.9628E-05
 80  0.0000E+00  3.9464E-05  0.0000E+00  0.0000E+00  0.0000E+00  1.6242E-04  0.0000E+00  0.0000E+00  0.0000E+00
 81  0.0000E+00  3.3822E-05  3.2443E-05  0.0000E+00  1.1350E-04  0.0000E+00  0.0000E+00  0.0000E+00  0.0000E+00
 82  0.0000E+00  8.7404E-05  0.0000E+00  8.2166E-05  0.0000E+00  8.8817E-04  0.0000E+00  0.0000E+00  1.0865E-04
 83  0.0000E+00  1.2340E-04  0.0000E+00  1.7594E-04  0.0000E+00  0.0000E+00  0.0000E+00  2.4819E-04  2.0820E-04
 84  0.0000E+00  2.7643E-04  3.7937E-04  0.0000E+00  0.0000E+00  2.9896E-04  0.0000E+00  6.5578E-04  3.3339E-04
 85  0.0000E+00  1.5062E-04  6.4692E-04  8.6556E-05  0.0000E+00  1.1798E-03  0.0000E+00  2.4418E-04  0.0000E+00
 86  0.0000E+00  1.8839E-04  0.0000E+00  0.0000E+00  0.0000E+00  2.3282E-04  0.0000E+00  0.0000E+00  0.0000E+00
 87  0.0000E+00  1.5862E-04  0.0000E+00  0.0000E+00  9.1763E-04  7.8311E-04  0.0000E+00  0.0000E+00  0.0000E+00
 88  0.0000E+00  3.8889E-04  5.2003E-04  0.0000E+00  0.0000E+00  1.4487E-03  0.0000E+00  6.7819E-04  1.0356E-03
 89  0.0000E+00  5.0355E-04  0.0000E+00  0.0000E+00  0.0000E+00  0.0000E+00  4.0918E-04  0.0000E+00  0.0000E+00
 90  0.0000E+00  9.7675E-04  0.0000E+00  0.0000E+00  0.0000E+00  0.0000E+00  0.0000E+00  0.0000E+00  0.0000E+00
 91  0.0000E+00  3.3149E-03  0.0000E+00  0.0000E+00  0.0000E+00  0.0000E+00  0.0000E+00  0.0000E+00  0.0000E+00
 92  0.0000E+00  3.8065E-03  9.3043E-03  0.0000E+00  0.0000E+00  0.0000E+00  0.0000E+00  0.0000E+00  0.0000E+00
 93  0.0000E+00  1.6521E-02  0.0000E+00  5.7670E-02  0.0000E+00  0.0000E+00  2.0028E-02  8.8352E-03  0.0000E+00
 94  0.0000E+00  3.4831E-02  0.0000E+00  2.3732E-02  0.0000E+00  0.0000E+00  0.0000E+00  1.2567E-02  0.0000E+00
 95  0.0000E+00  6.5329E-02  0.0000E+00  0.0000E+00  0.0000E+00  1.5300E-01  0.0000E+00  1.7854E-02  0.0000E+00
 96  0.0000E+00  8.8376E-02  2.8212E-02  0.0000E+00  8.2166E-02  9.4695E-04  0.0000E+00  1.3701E-01  0.0000E+00
 97  0.0000E+00  9.9389E-02  8.1397E-02  1.0009E-01  0.0000E+00  0.0000E+00  0.0000E+00  7.5047E-04  6.7884E-02
 98  0.0000E+00  1.3030E-01  3.0903E-01  4.0753E-02  0.0000E+00  0.0000E+00  1.2324E-01  7.4478E-01  1.8706E-01
 99  1.0631E-01  1.9289E-01  2.4901E-01  1.6202E-01  5.1035E-01  5.8861E-01  0.0000E+00  0.0000E+00  0.0000E+00
100  0.0000E+00  1.4505E-01  0.0000E+00  8.1422E-01  0.0000E+00  0.0000E+00  0.0000E+00  0.0000E+00  1.4033E-01
101  0.0000E+00  2.8131E-05  0.0000E+00  0.0000E+00  4.3848E-05  0.0000E+00  2.3045E-05  0.0000E+00  0.0000E+00
102  0.0000E+00  6.2108E-06  3.7228E-05  1.4744E-05  0.0000E+00  5.8223E-05  0.0000E+00  0.0000E+00  0.0000E+00
103  0.0000E+00  1.0535E-05  0.0000E+00  4.0501E-05  0.0000E+00  0.0000E+00  3.1778E-05  0.0000E+00  0.0000E+00
104  0.0000E+00  4.2899E-05  1.0462E-05  3.1829E-04  4.5056E-06  6.3472E-05  0.0000E+00  1.7596E-05  9.8469E-06
105  0.0000E+00  4.8345E-05  0.0000E+00  0.0000E+00  0.0000E+00  0.0000E+00  0.0000E+00  8.9331E-05  2.6198E-05
106  0.0000E+00  4.4493E-05  0.0000E+00  6.0905E-05  1.2924E-04  0.0000E+00  0.0000E+00  0.0000E+00  5.4856E-06
107  0.0000E+00  4.2428E-05  0.0000E+00  7.7022E-05  0.0000E+00  0.0000E+00  1.7545E-04  0.0000E+00  4.8983E-05
108  0.0000E+00  2.0776E-04  0.0000E+00  0.0000E+00  0.0000E+00  0.0000E+00  2.7583E-05  0.0000E+00  1.3474E-04
109  0.0000E+00  1.4019E-04  0.0000E+00  1.2867E-03  0.0000E+00  4.9037E-04  6.8439E-04  0.0000E+00  0.0000E+00
110  0.0000E+00  1.3856E-04  0.0000E+00  1.2242E-03  0.0000E+00  0.0000E+00  0.0000E+00  0.0000E+00  0.0000E+00
111  0.0000E+00  2.6308E-04  1.5678E-03  5.1590E-04  0.0000E+00  0.0000E+00  2.2128E-04  0.0000E+00  0.0000E+00
112  0.0000E+00  5.1779E-04  0.0000E+00  1.7973E-03  0.0000E+00  0.0000E+00  0.0000E+00  0.0000E+00  0.0000E+00
113  3.9018E-07  4.3945E-04  0.0000E+00  0.0000E+00  3.5251E-03  0.0000E+00  0.0000E+00  0.0000E+00  2.3009E-03
114  0.0000E+00  4.2925E-04  0.0000E+00  0.0000E+00  0.0000E+00  0.0000E+00  0.0000E+00  0.0000E+00  0.0000E+00
115  0.0000E+00  1.8567E-03  9.9811E-03  0.0000E+00  0.0000E+00  0.0000E+00  0.0000E+00  1.2766E-03  5.1685E-03
116  0.0000E+00  4.6792E-03  0.0000E+00  8.2104E-06  0.0000E+00  0.0000E+00  0.0000E+00  1.0306E-03  0.0000E+00
117  0.0000E+00  4.0992E-03  0.0000E+00  7.5352E-04  0.0000E+00  3.4396E-03  2.6047E-04  0.0000E+00  1.0388E-02
118  0.0000E+00  1.8510E-02  2.3111E-02  0.0000E+00  0.0000E+00  0.0000E+00  0.0000E+00  0.0000E+00  0.0000E+00
119  0.0000E+00  5.7653E-02  2.4753E-02  0.0000E+00  0.0000E+00  0.0000E+00  0.0000E+00  0.0000E+00  0.0000E+00
120  0.0000E+00  7.6421E-02  5.9224E-02  5.0804E-02  8.6290E-02  0.0000E+00  1.5684E-01  5.1701E-02  4.0478E-02
121  0.0000E+00  1.3046E-01  0.0000E+00  1.1975E-01  0.0000E+00  6.3017E-02  1.7435E-01  2.1462E-01  8.0517E-02
122  1.3551E+00  1.6629E+00  1.6548E+00  2.8021E+00  1.1799E+00  1.6783E+00  1.1980E+00  1.5294E+00  1.4717E+00
123  8.6606E+00  8.1638E+00  8.1643E+00  8.5508E+00  8.5863E+00  8.1541E+00  8.3425E+00  8.7780E+00  8.3461E+00
124  2.2848E+01  2.1852E+01  2.1468E+01  2.0428E+01  2.2228E+01  2.1738E+01  2.1760E+01  2.2118E+01  2.2181E+01
125  3.9507E+01  3.6819E+01  3.7664E+01  3.6951E+01  3.7157E+01  3.7587E+01  3.7082E+01  3.6248E+01  3.7149E+01
126  0.0000E+00  1.7190E-05  0.0000E+00  0.0000E+00  0.0000E+00  0.0000E+00  7.6845E-05  7.5221E-05  0.0000E+00
127  0.0000E+00  8.8307E-06  3.1727E-05  2.9492E-06  1.3841E-05  0.0000E+00  0.0000E+00  0.0000E+00  0.0000E+00
128  0.0000E+00  1.6092E-05  0.0000E+00  0.0000E+00  0.0000E+00  1.7619E-05  0.0000E+00  0.0000E+00  0.0000E+00
129  0.0000E+00  3.5287E-05  4.0581E-05  3.5246E-05  0.0000E+00  1.2346E-04  0.0000E+00  0.0000E+00  0.0000E+00
130  0.0000E+00  6.2151E-05  0.0000E+00  5.8389E-05  8.1901E-05  0.0000E+00  0.0000E+00  3.9172E-05  0.0000E+00
131  0.0000E+00  6.2760E-05  0.0000E+00  0.0000E+00  0.0000E+00  0.0000E+00  0.0000E+00  0.0000E+00  0.0000E+00
132  0.0000E+00  6.2945E-05  0.0000E+00  4.1192E-04  0.0000E+00  1.1300E-05  6.1260E-05  0.0000E+00  0.0000E+00
133  0.0000E+00  6.2539E-05  0.0000E+00  0.0000E+00  6.6994E-05  3.8480E-04  0.0000E+00  1.8297E-05  4.5667E-04
134  0.0000E+00  9.6427E-05  1.8672E-05  0.0000E+00  6.2713E-05  0.0000E+00  0.0000E+00  0.0000E+00  2.2161E-04
135  0.0000E+00  7.2348E-05  0.0000E+00  0.0000E+00  0.0000E+00  2.3499E-04  0.0000E+00  0.0000E+00  0.0000E+00
136  0.0000E+00  1.8986E-04  0.0000E+00  0.0000E+00  0.0000E+00  0.0000E+00  0.0000E+00  0.0000E+00  0.0000E+00
137  0.0000E+00  3.5470E-04  0.0000E+00  0.0000E+00  1.5580E-03  0.0000E+00  2.2259E-04  1.4502E-04  0.0000E+00
138  0.0000E+00  3.1736E-04  2.0447E-03  2.0582E-03  0.0000E+00  3.8834E-05  0.0000E+00  0.0000E+00  2.1013E-03
139  0.0000E+00  8.1892E-04  0.0000E+00  1.0502E-03  0.0000E+00  0.0000E+00  0.0000E+00  0.0000E+00  1.0463E-03
140  0.0000E+00  2.9046E-03  0.0000E+00  6.1961E-03  0.0000E+00  5.6226E-03  8.9328E-04  0.0000E+00  0.0000E+00
141  0.0000E+00  4.3386E-03  0.0000E+00  0.0000E+00  0.0000E+00  0.0000E+00  0.0000E+00  4.9965E-04  0.0000E+00
142  0.0000E+00  5.9998E-03  0.0000E+00  0.0000E+00  0.0000E+00  0.0000E+00  0.0000E+00  0.0000E+00  0.0000E+00
143  0.0000E+00  1.9164E-02  0.0000E+00  0.0000E+00  0.0000E+00  0.0000E+00  0.0000E+00  0.0000E+00  0.0000E+00
144  0.0000E+00  6.1676E-02  4.9370E-02  1.2773E-01  9.0634E-04  0.0000E+00  0.0000E+00  3.4857E-02  0.0000E+00
145  0.0000E+00  8.4897E-02  0.0000E+00  0.0000E+00  1.0571E-01  1.6246E-01  0.0000E+00  5.3695E-02  4.8146E-02
146  0.0000E+00  1.9267E-01  5.6649E-01  0.0000E+00  0.0000E+00  0.0000E+00  2.7879E-01  1.8975E-01  6.0304E-02
147  0.0000E+00  1.4613E-01  3.3249E-01  0.0000E+00  2.7551E-01  3.9310E-01  0.0000E+00  2.9902E-02  3.6599E-01
148  1.6280E+00  1.7874E+00  1.6134E+00  1.9117E+00  1.8932E+00  2.0055E+00  1.8480E+00  1.8781E+00  1.7429E+00
149  0.0000E+00  2.0433E-01  2.0056E-01  2.6893E-01  0.0000E+00  0.0000E+00  7.2479E-01  3.1837E-01  0.0000E+00
150  1.0934E+01  1.2326E+01  1.2064E+01  1.2185E+01  1.2463E+01  1.1742E+01  1.2694E+01  1.1906E+01  1.2567E+01

# AV, chi2 & Mass for <> & i_chain = 1 ...  7 solutions
AV       1.1501      1.1434      1.1484      1.1471      1.1427      1.1454      1.1443      1.1476      1.1431
chi2 2.7186E+00  2.7580E+00  2.7434E+00  2.7480E+00  2.7429E+00  2.7436E+00  2.7475E+00  2.7461E+00  2.7469E+00
Mass 5.1986E-09  5.1547E-09  5.2064E-09  5.1710E-09  5.1934E-09  5.1824E-09  5.2038E-09  5.1867E-09  5.1972E-09
 -10.72                                  [v0_min (km/s) before EX0s...]
  31.76                                  [vd_min (km/s) before EX0s...]


## Synthetic spectrum (Best Model) ##l_obs f_obs f_syn wei
 3070    [Nl_obs]
 3359.00    0.00000   0.32157   -2.000
 3360.00    0.17896   0.30068   -1.000
 3361.00    0.19498   0.31158   -1.000
 3362.00    0.20957   0.34551   -1.000
 3363.00    0.21636   0.38622   -1.000
 3364.00    0.23555   0.41119   -1.000
 3365.00    0.24574   0.40810   -1.000
 3366.00    0.25475   0.39072   -1.000
 3367.00    0.25063   0.37404   -1.000
 3368.00    0.23361   0.35704   -1.000
 3369.00    0.22081   0.34431   -1.000
 3370.00    0.22230   0.32703   -1.000
 3371.00    0.21877   0.31749   -1.000
 3372.00    0.22401   0.32543   -1.000
 3373.00    0.23335   0.35032   -1.000
 3374.00    0.24608   0.38240   -1.000
 3375.00    0.25813   0.41260   -1.000
 3376.00    0.27748   0.42756   -1.000
 3377.00    0.28789   0.42080   -1.000
 3378.00    0.28927   0.39876   -1.000
 3379.00    0.28196   0.37968   -1.000
 3380.00    0.28130   0.37424   -1.000
 3381.00    0.27312   0.38412   -1.000
 3382.00    0.26992   0.39677   -1.000
 3383.00    0.27492   0.40843   -1.000
 3384.00    0.28614   0.41728   -1.000
 3385.00    0.29624   0.42577   -1.000
 3386.00    0.30015   0.42261   -1.000
 3387.00    0.29749   0.41279   -1.000
 3388.00    0.31131   0.40623   -1.000
 3389.00    0.31774   0.41117   -1.000
 3390.00    0.31930   0.41599   -1.000
 3391.00    0.31704   0.41037   -1.000
 3392.00    0.30933   0.39665   -1.000
 3393.00    0.31261   0.39102   -1.000
 3394.00    0.32217   0.40133   -1.000
 3395.00    0.33650   0.42221   -1.000
 3396.00    0.34566   0.44152   -1.000
 3397.00    0.36083   0.45911   -1.000
 3398.00    0.37437   0.47452   -1.000
 3399.00    0.38952   0.48246   30.283
 3400.00    0.39974   0.48017   29.862
 3401.00    0.39137   0.46748   30.115
 3402.00    0.39269   0.44656   31.414
 3403.00    0.39284   0.43303   31.769
 3404.00    0.38197   0.42393   32.321
 3405.00    0.38180   0.42188   32.911
 3406.00    0.37208   0.41815   33.449
 3407.00    0.36524   0.41091   33.612
 3408.00    0.36341   0.40722   34.143
 3409.00    0.35961   0.41259   34.339
 3410.00    0.36056   0.42499   34.135
 3411.00    0.37124   0.42192   33.118
 3412.00    0.37704   0.40429   32.839
 3413.00    0.37861   0.38272   34.225
 3414.00    0.36189   0.37372   34.878
 3415.00    0.34640   0.38951   34.817
 3416.00    0.36079   0.41357   33.969
 3417.00    0.38029   0.43778   32.521
 3418.00    0.39998   0.45594   30.985
 3419.00    0.40833   0.47085   29.420
 3420.00    0.40600   0.47623   29.263
 3421.00    0.41025   0.46683   29.063
 3422.00    0.40900   0.44083   29.231
 3423.00    0.41038   0.42269   30.073
 3424.00    0.40666   0.41904   30.760
 3425.00    0.41059   0.42549   29.921
 3426.00    0.40777   0.43435   29.129
 3427.00    0.41424   0.44695   28.955
 3428.00    0.43095   0.46833   -1.000
 3429.00    0.44274   0.49003   -1.000
 3430.00    0.44967   0.49052   -1.000
 3431.00    0.43608   0.46858   -1.000
 3432.00    0.43253   0.44123  256.794
 3433.00    0.42386   0.43192   30.347
 3434.00    0.42381   0.44596   28.876
 3435.00    0.42587   0.46017   -1.000
 3436.00    0.42762   0.45862   -1.000
 3437.00    0.42360   0.43973   30.127
 3438.00    0.39825   0.41278   30.162
 3439.00    0.38528   0.38261   31.967
 3440.00    0.37090   0.35799   34.496
 3441.00    0.35273   0.33879   35.936
 3442.00    0.34704   0.33656   36.044
 3443.00    0.34886   0.34560   35.897
 3444.00    0.36677   0.36080   34.513
 3445.00    0.37950   0.37873   32.638
 3446.00    0.38812   0.40316   30.831
 3447.00    0.40778   0.42876   29.738
 3448.00    0.42973   0.45355   -1.000
 3449.00    0.44653   0.46999   -1.000
 3450.00    0.45801   0.46499  256.794
 3451.00    0.46453   0.44446   -1.000
 3452.00    0.45418   0.42989   -1.000
 3453.00    0.44158   0.42930   -1.000
 3454.00    0.44568   0.44267  256.794
 3455.00    0.45758   0.45306  256.794
 3456.00    0.46241   0.44890   -1.000
 3457.00    0.45933   0.43489   -1.000
 3458.00    0.43910   0.41568   -1.000
 3459.00    0.42978   0.40192   30.222
 3460.00    0.42358   0.39076   29.323
 3461.00    0.41502   0.39193   29.149
 3462.00    0.42039   0.40870   -1.000
 3463.00    0.43671   0.42823   -1.000
 3464.00    0.46846   0.43235   -1.000
 3465.00    0.48116   0.42639   -1.000
 3466.00    0.46573   0.42671   -1.000
 3467.00    0.45594   0.44066   -1.000
 3468.00    0.47402   0.46287   -1.000
 3469.00    0.48535   0.47832  246.557
 3470.00    0.50062   0.48285   -1.000
 3471.00    0.49599   0.47107   -1.000
 3472.00    0.48299   0.44833   -1.000
 3473.00    0.46301   0.41551   -1.000
 3474.00    0.44473   0.38892   -1.000
 3475.00    0.42914   0.37491   30.479
 3476.00    0.42126   0.38407   30.242
 3477.00    0.43157   0.41052   29.642
 3478.00    0.45281   0.43879   -1.000
 3479.00    0.47153   0.45737   -1.000
 3480.00    0.48493   0.46668   -1.000
 3481.00    0.48059   0.46331   -1.000
 3482.00    0.48651   0.45288   -1.000
 3483.00    0.48291   0.44363   -1.000
 3484.00    0.46829   0.44360   -1.000
 3485.00    0.48529   0.45756   -1.000
 3486.00    0.51276   0.47242   -1.000
 3487.00    0.50975   0.47507   -1.000
 3488.00    0.50920   0.45621   -1.000
 3489.00    0.48742   0.42788   -1.000
 3490.00    0.45522   0.40693   -1.000
 3491.00    0.44510   0.40705   -1.000
 3492.00    0.44180   0.42140   -1.000
 3493.00    0.46486   0.43391   -1.000
 3494.00    0.46527   0.43848   -1.000
 3495.00    0.46284   0.42989   -1.000
 3496.00    0.45418   0.42165   -1.000
 3497.00    0.45054   0.42576   -1.000
 3498.00    0.46459   0.44426   -1.000
 3499.00    0.49196   0.46722   -1.000
 3500.00    0.51635   0.47599   -1.000
 3501.00    0.52605   0.48241   -1.000
 3502.00    0.53050   0.49305   -1.000
 3503.00    0.54318   0.49894   -1.000
 3504.00    0.53591   0.49590   -1.000
 3505.00    0.53540   0.48295   -1.000
 3506.00    0.52883   0.47133   -1.000
 3507.00    0.51530   0.46713   -1.000
 3508.00    0.52081   0.46207   -1.000
 3509.00    0.52535   0.45559   -1.000
 3510.00    0.51025   0.44866   -1.000
 3511.00    0.49415   0.43835   -1.000
 3512.00    0.48279   0.42506   -1.000
 3513.00    0.47390   0.41254   -1.000
 3514.00    0.45575   0.41186   -1.000
 3515.00    0.47105   0.43446   -1.000
 3516.00    0.50851   0.47337   -1.000
 3517.00    0.53097   0.50280   -1.000
 3518.00    0.53063   0.50904   -1.000
 3519.00    0.53180   0.48768   -1.000
 3520.00    0.50013   0.46041   -1.000
 3521.00    0.48311   0.43446   -1.000
 3522.00    0.47541   0.41697   -1.000
 3523.00    0.46395   0.39868   -1.000
 3524.00    0.43565   0.38042   30.238
 3525.00    0.42311   0.37587   29.933
 3526.00    0.42643   0.39299   29.785
 3527.00    0.44416   0.42317   -1.000
 3528.00    0.47821   0.45758   -1.000
 3529.00    0.49820   0.47922   -1.000
 3530.00    0.50789   0.48597   -1.000
 3531.00    0.51033   0.48103   -1.000
 3532.00    0.49701   0.47475   -1.000
 3533.00    0.49607   0.46832   -1.000
 3534.00    0.50686   0.47032   -1.000
 3535.00    0.52247   0.47754   -1.000
 3536.00    0.52572   0.48978   -1.000
 3537.00    0.52755   0.50681   -1.000
 3538.00    0.52852   0.51994  230.313
 3539.00    0.52749   0.52331  227.361
 3540.00    0.53749   0.51629   -1.000
 3541.00    0.52202   0.50520   -1.000
 3542.00    0.51638   0.50551   -1.000
 3543.00    0.51670   0.51850  234.180
 3544.00    0.52426   0.52771  230.687
 3545.00    0.52848   0.52721  229.891
 3546.00    0.52134   0.51760  234.002
 3547.00    0.51633   0.50920  239.363
 3548.00    0.51828   0.50783   -1.000
 3549.00    0.51878   0.51136  239.991
 3550.00    0.52078   0.51457  238.322
 3551.00    0.51314   0.51015  241.443
 3552.00    0.49128   0.49518  248.862
 3553.00    0.48138   0.47621  256.102
 3554.00    0.47066   0.46943  256.794
 3555.00    0.46540   0.47620  256.794
 3556.00    0.48385   0.48483  252.363
 3557.00    0.48574   0.49108  253.288
 3558.00    0.48379   0.49100  256.794
 3559.00    0.47720   0.49231   -1.000
 3560.00    0.48020   0.49998   -1.000
 3561.00    0.48409   0.50837   -1.000
 3562.00    0.48660   0.50829   -1.000
 3563.00    0.48996   0.48684  252.317
 3564.00    0.47467   0.45189   -1.000
 3565.00    0.44066   0.41693   30.552
 3566.00    0.41184   0.40693   30.373
 3567.00    0.40925   0.41052   30.082
 3568.00    0.42454   0.40805   29.907
 3569.00    0.42131   0.39897   30.887
 3570.00    0.40834   0.38868   31.475
 3571.00    0.40976   0.39157   30.543
 3572.00    0.42587   0.40804   29.188
 3573.00    0.44399   0.42179   -1.000
 3574.00    0.45150   0.43409   -1.000
 3575.00    0.45229   0.44258   -1.000
 3576.00    0.45366   0.44378   -1.000
 3577.00    0.45672   0.43605   -1.000
 3578.00    0.44341   0.42098   -1.000
 3579.00    0.42083   0.39617   31.589
 3580.00    0.40401   0.37404   32.507
 3581.00    0.37164   0.36142   34.324
 3582.00    0.36431   0.36234   34.609
 3583.00    0.36551   0.36613   34.754
 3584.00    0.37441   0.36421   35.607
 3585.00    0.36251   0.35423   36.775
 3586.00    0.36073   0.34625   37.320
 3587.00    0.36368   0.35181   35.516
 3588.00    0.37666   0.37302   33.623
 3589.00    0.39526   0.40839   31.992
 3590.00    0.41350   0.44172   29.169
 3591.00    0.44935   0.46378  191.262
 3592.00    0.47346   0.46594  256.794
 3593.00    0.47483   0.46537   -1.000
 3594.00    0.47661   0.47403  253.653
 3595.00    0.49531   0.49513  245.667
 3596.00    0.51785   0.51833  233.835
 3597.00    0.52815   0.52986  226.841
 3598.00    0.54837   0.53806  220.871
 3599.00    0.56166   0.54447   -1.000
 3600.00    0.55805   0.53869   -1.000
 3601.00    0.54352   0.51627   -1.000
 3602.00    0.52516   0.48938   -1.000
 3603.00    0.50002   0.46718   -1.000
 3604.00    0.48940   0.45929   -1.000
 3605.00    0.47771   0.45790   -1.000
 3606.00    0.46750   0.45292   -1.000
 3607.00    0.47877   0.43957   -1.000
 3608.00    0.46368   0.42444   -1.000
 3609.00    0.44383   0.42116   -1.000
 3610.00    0.44315   0.43253   -1.000
 3611.00    0.47304   0.45520   -1.000
 3612.00    0.48672   0.47216   -1.000
 3613.00    0.49024   0.48776  249.495
 3614.00    0.50489   0.50539  244.928
 3615.00    0.51721   0.51754  236.116
 3616.00    0.52274   0.50543   -1.000
 3617.00    0.49641   0.47109   -1.000
 3618.00    0.45431   0.43048   -1.000
 3619.00    0.43815   0.42269   30.123
 3620.00    0.44183   0.44438  191.283
 3621.00    0.48645   0.48147  247.524
 3622.00    0.52162   0.50964   -1.000
 3623.00    0.53669   0.52847  227.291
 3624.00    0.54803   0.54804  224.404
 3625.00    0.56396   0.57751  216.251
 3626.00    0.58262   0.60762   -1.000
 3627.00    0.60085   0.62226   -1.000
 3628.00    0.59943   0.60425  207.475
 3629.00    0.57006   0.55483   -1.000
 3630.00    0.52041   0.49011   -1.000
 3631.00    0.47534   0.45556   -1.000
 3632.00    0.45730   0.45323  256.794
 3633.00    0.47143   0.47654  256.794
 3634.00    0.48829   0.49773  253.357
 3635.00    0.50366   0.51159  247.414
 3636.00    0.51719   0.52297  238.239
 3637.00    0.53737   0.54434  227.052
 3638.00    0.55993   0.56949  216.801
 3639.00    0.57969   0.58705  209.447
 3640.00    0.58985   0.59255  208.976
 3641.00    0.58088   0.58090  214.078
 3642.00    0.56792   0.55861  221.269
 3643.00    0.53924   0.53694  233.193
 3644.00    0.52610   0.51755  240.221
 3645.00    0.51734   0.50105   -1.000
 3646.00    0.50582   0.48485   -1.000
 3647.00    0.49062   0.47035   -1.000
 3648.00    0.48042   0.46941   -1.000
 3649.00    0.48896   0.48171  246.396
 3650.00    0.51428   0.50819  236.517
 3651.00    0.53587   0.53887  225.087
 3652.00    0.56331   0.57104  215.585
 3653.00    0.58486   0.58836  210.165
 3654.00    0.59492   0.60199  207.172
 3655.00    0.60124   0.61506  206.408
 3656.00    0.60667   0.62979   -1.000
 3657.00    0.62451   0.64414   -1.000
 3658.00    0.62747   0.64980   -1.000
 3659.00    0.63103   0.65100   -1.000
 3660.00    0.62578   0.64604   -1.000
 3661.00    0.62578   0.63306  200.767
 3662.00    0.62095   0.61513  202.924
 3663.00    0.59918   0.60402  206.380
 3664.00    0.59496   0.60228  208.017
 3665.00    0.60621   0.60761  205.598
 3666.00    0.60761   0.60864  205.649
 3667.00    0.60521   0.60035  209.889
 3668.00    0.58961   0.58448  212.261
 3669.00    0.57001   0.57176  217.457
 3670.00    0.57271   0.57924  216.264
 3671.00    0.60039   0.59841  208.294
 3672.00    0.61745   0.61522  203.994
 3673.00    0.61556   0.62324  203.177
 3674.00    0.62184   0.62048  203.111
 3675.00    0.61978   0.60861  203.565
 3676.00    0.61027   0.58587   -1.000
 3677.00    0.59030   0.55734   -1.000
 3678.00    0.56573   0.53152   -1.000
 3679.00    0.54511   0.51948   -1.000
 3680.00    0.54507   0.52504   -1.000
 3681.00    0.55977   0.54094   -1.000
 3682.00    0.57243   0.55679   -1.000
 3683.00    0.57707   0.56473  213.721
 3684.00    0.57618   0.55706   -1.000
 3685.00    0.56151   0.53569   -1.000
 3686.00    0.54058   0.51081   -1.000
 3687.00    0.52911   0.50692   -1.000
 3688.00    0.53313   0.52562  234.981
 3689.00    0.55806   0.56404  219.625
 3690.00    0.59485   0.60061  205.051
 3691.00    0.62410   0.62314  198.623
 3692.00    0.63293   0.61839   -1.000
 3693.00    0.62349   0.60173   -1.000
 3694.00    0.61309   0.59189   -1.000
 3695.00    0.60541   0.59072   -1.000
 3696.00    0.59756   0.59709  205.648
 3697.00    0.60956   0.61025  203.148
 3698.00    0.63084   0.63301  196.575
 3699.00    0.65105   0.65093  191.540
 3700.00    0.66377   0.65925  188.914
 3701.00    0.66156   0.64383   -1.000
 3702.00    0.63821   0.60284   -1.000
 3703.00    0.59179   0.54479   -1.000
 3704.00    0.54891   0.49777   -1.000
 3705.00    0.51869   0.46855   -1.000
 3706.00    0.50577   0.46664   -1.000
 3707.00    0.51778   0.47438   -1.000
 3708.00    0.52259   0.48712   -1.000
 3709.00    0.52425   0.50510   -1.000
 3710.00    0.55313   0.53019   -1.000
 3711.00    0.58554   0.55827   -1.000
 3712.00    0.61418   0.59221   -1.000
 3713.00    0.65106   0.62413   -1.000
 3714.00    0.68042   0.64052   -1.000
 3715.00    0.68294   0.63802   -1.000
 3716.00    0.66164   0.62010   -1.000
 3717.00    0.63890   0.58184   -1.000
 3718.00    0.59169   0.52725   -1.000
 3719.00    0.52837   0.46596   -1.000
 3720.00    0.46996   0.40970   -1.000
 3721.00    0.44414   0.39447   30.774
 3722.00    0.45530   0.42183   -1.000
 3723.00    0.50701   0.47682   -1.000
 3724.00    0.56329   0.53425   -1.000
 3725.00    0.60167   0.56758   -1.000
 3726.00    0.60820   0.56838   -1.000
 3727.00    0.59212   0.55832   -1.000
 3728.00    0.58017   0.56012   -1.000
 3729.00    0.59422   0.56428   -1.000
 3730.00    0.59318   0.55680   -1.000
 3731.00    0.56352   0.52187   -1.000
 3732.00    0.52648   0.45770   -1.000
 3733.00    0.47307   0.39930   30.194
 3734.00    0.42022   0.35684   32.146
 3735.00    0.39018   0.34825   33.470
 3736.00    0.39651   0.37298   31.908
 3737.00    0.43103   0.42365   28.950
 3738.00    0.48571   0.48085  181.832
 3739.00    0.53127   0.53919  230.153
 3740.00    0.58251   0.57227  216.459
 3741.00    0.60024   0.57487   -1.000
 3742.00    0.58178   0.54734   -1.000
 3743.00    0.55434   0.51246   -1.000
 3744.00    0.52306   0.47687   -1.000
 3745.00    0.49254   0.45599   -1.000
 3746.00    0.46710   0.43795   -1.000
 3747.00    0.45162   0.41374   30.645
 3748.00    0.42142   0.39243   31.051
 3749.00    0.40876   0.38555   31.458
 3750.00    0.42870   0.40895   -1.000
 3751.00    0.48139   0.46021   -1.000
 3752.00    0.54351   0.51793   -1.000
 3753.00    0.58834   0.57409   -1.000
 3754.00    0.63294   0.61542   -1.000
 3755.00    0.66349   0.62104   -1.000
 3756.00    0.64406   0.59279   -1.000
 3757.00    0.59141   0.54618   -1.000
 3758.00    0.53493   0.51221   -1.000
 3759.00    0.51629   0.51051  255.185
 3760.00    0.53520   0.52617  239.280
 3761.00    0.56207   0.54579   -1.000
 3762.00    0.57827   0.54885   -1.000
 3763.00    0.57562   0.54406   -1.000
 3764.00    0.57570   0.53931   -1.000
 3765.00    0.57562   0.53200   -1.000
 3766.00    0.56645   0.52274   -1.000
 3767.00    0.55706   0.51674   -1.000
 3768.00    0.55512   0.51212   -1.000
 3769.00    0.56157   0.50871   -1.000
 3770.00    0.56697   0.51438   -1.000
 3771.00    0.57371   0.53639   -1.000
 3772.00    0.60429   0.56668   -1.000
 3773.00    0.63072   0.59684   -1.000
 3774.00    0.63623   0.61144   -1.000
 3775.00    0.64012   0.61602   -1.000
 3776.00    0.64351   0.62090   -1.000
 3777.00    0.64968   0.63168   -1.000
 3778.00    0.66634   0.65060   -1.000
 3779.00    0.67824   0.67113  189.470
 3780.00    0.69529   0.68855  184.991
 3781.00    0.70359   0.69626  183.654
 3782.00    0.70738   0.69755  182.536
 3783.00    0.71643   0.69319   -1.000
 3784.00    0.71118   0.67589   -1.000
 3785.00    0.68565   0.64424   -1.000
 3786.00    0.64451   0.60935   -1.000
 3787.00    0.59867   0.57822   -1.000
 3788.00    0.58574   0.56040   -1.000
 3789.00    0.57963   0.56224   -1.000
 3790.00    0.57534   0.57404  222.380
 3791.00    0.58624   0.58150  220.049
 3792.00    0.58777   0.57558   -1.000
 3793.00    0.56959   0.55061   -1.000
 3794.00    0.53913   0.52266   -1.000
 3795.00    0.52315   0.49366   -1.000
 3796.00    0.50914   0.46438   -1.000
 3797.00    0.48148   0.43737   -1.000
 3798.00    0.46481   0.42801   -1.000
 3799.00    0.48703   0.45288   -1.000
 3800.00    0.52571   0.51004   -1.000
 3801.00    0.56741   0.56567  218.963
 3802.00    0.59509   0.61110   -1.000
 3803.00    0.62184   0.63291  204.376
 3804.00    0.64325   0.63713  203.118
 3805.00    0.62698   0.62620  206.134
 3806.00    0.60331   0.61442  213.901
 3807.00    0.59232   0.61258   -1.000
 3808.00    0.60521   0.62851   -1.000
 3809.00    0.62919   0.64970   -1.000
 3810.00    0.64407   0.66124  202.063
 3811.00    0.64406   0.64996  205.863
 3812.00    0.62372   0.61590  216.852
 3813.00    0.59436   0.57963   -1.000
 3814.00    0.55428   0.54855  244.177
 3815.00    0.52730   0.53872  255.415
 3816.00    0.52964   0.54640   -1.000
 3817.00    0.54753   0.55775  241.927
 3818.00    0.55119   0.55017  245.655
 3819.00    0.52239   0.52530  256.794
 3820.00    0.48986   0.50810   -1.000
 3821.00    0.48995   0.50888   -1.000
 3822.00    0.50917   0.52306  256.794
 3823.00    0.51802   0.51981  256.794
 3824.00    0.48992   0.49515  256.794
 3825.00    0.45514   0.47358   31.710
 3826.00    0.44786   0.46123   30.844
 3827.00    0.44355   0.45891   30.605
 3828.00    0.44614   0.46232   30.115
 3829.00    0.44867   0.46533   29.619
 3830.00    0.45228   0.45980   29.965
 3831.00    0.44219   0.44232   31.310
 3832.00    0.41459   0.41450   33.803
 3833.00    0.39393   0.38595   34.891
 3834.00    0.39090   0.37007   34.250
 3835.00    0.40297   0.37065   32.876
 3836.00    0.41159   0.38309   32.139
 3837.00    0.40952   0.39478   32.788
 3838.00    0.40178   0.40583   33.584
 3839.00    0.40168   0.42120   33.024
 3840.00    0.42593   0.44734   31.164
 3841.00    0.46334   0.48802   -1.000
 3842.00    0.51823   0.53078  255.795
 3843.00    0.54791   0.57064   -1.000
 3844.00    0.56409   0.59258   -1.000
 3845.00    0.56735   0.60233   -1.000
 3846.00    0.56370   0.60952   -1.000
 3847.00    0.57250   0.61250   -1.000
 3848.00    0.57356   0.60686   -1.000
 3849.00    0.54943   0.59496   -1.000
 3850.00    0.54187   0.58992   -1.000
 3851.00    0.54811   0.60154   -1.000
 3852.00    0.56233   0.61550   -1.000
 3853.00    0.56491   0.62136   -1.000
 3854.00    0.55749   0.61134   -1.000
 3855.00    0.54221   0.59424   -1.000
 3856.00    0.53439   0.57718   -1.000
 3857.00    0.52567   0.55784   -1.000
 3858.00    0.49963   0.53757   30.039
 3859.00    0.46627   0.53203   30.362
 3860.00    0.47033   0.54530   29.764
 3861.00    0.50557   0.57823   -1.000
 3862.00    0.55284   0.60993   -1.000
 3863.00    0.58917   0.62691   -1.000
 3864.00    0.59735   0.62377   -1.000
 3865.00    0.59052   0.61552   -1.000
 3866.00    0.57736   0.61381   -1.000
 3867.00    0.56424   0.61481   -1.000
 3868.00    0.54872   0.61309   -1.000
 3869.00    0.52780   0.60175   -1.000
 3870.00    0.50993   0.58042   -1.000
 3871.00    0.49340   0.56541   30.442
 3872.00    0.50175   0.56286   -1.000
 3873.00    0.53645   0.57945   -1.000
 3874.00    0.58498   0.60226   -1.000
 3875.00    0.61239   0.61750  223.347
 3876.00    0.60375   0.60347  229.938
 3877.00    0.56866   0.57537  249.061
 3878.00    0.52650   0.55705   -1.000
 3879.00    0.51622   0.55260   -1.000
 3880.00    0.51790   0.56010   -1.000
 3881.00    0.50350   0.56515   -1.000
 3882.00    0.49887   0.56629   -1.000
 3883.00    0.53387   0.57041   -1.000
 3884.00    0.57510   0.56184   -1.000
 3885.00    0.57357   0.52823   -1.000
 3886.00    0.54521   0.48727   -1.000
 3887.00    0.52704   0.45383   -1.000
 3888.00    0.52649   0.44938   -1.000
 3889.00    0.54398   0.47763   -1.000
 3890.00    0.58387   0.52885   -1.000
 3891.00    0.63519   0.58255   -1.000
 3892.00    0.67671   0.62244   -1.000
 3893.00    0.69282   0.63214   -1.000
 3894.00    0.68240   0.62808   -1.000
 3895.00    0.67552   0.63039   -1.000
 3896.00    0.68898   0.63894   -1.000
 3897.00    0.70730   0.64979   -1.000
 3898.00    0.71142   0.65295   -1.000
 3899.00    0.70114   0.65094   -1.000
 3900.00    0.69974   0.65686   -1.000
 3901.00    0.70672   0.66341   -1.000
 3902.00    0.71113   0.66108   -1.000
 3903.00    0.70688   0.65027   -1.000
 3904.00    0.68527   0.63491   -1.000
 3905.00    0.65302   0.63217   -1.000
 3906.00    0.65311   0.64591  208.946
 3907.00    0.68857   0.67846  196.916
 3908.00    0.73801   0.71410   -1.000
 3909.00    0.76803   0.74240   -1.000
 3910.00    0.78005   0.75594   -1.000
 3911.00    0.79163   0.76280   -1.000
 3912.00    0.79923   0.76600   -1.000
 3913.00    0.78453   0.76343   -1.000
 3914.00    0.76053   0.75255  180.252
 3915.00    0.76035   0.74091   -1.000
 3916.00    0.75971   0.72956   -1.000
 3917.00    0.73947   0.71515   -1.000
 3918.00    0.72666   0.69345   -1.000
 3919.00    0.70042   0.66719   -1.000
 3920.00    0.66240   0.64693   -1.000
 3921.00    0.64764   0.63474   -1.000
 3922.00    0.64943   0.63920  215.954
 3923.00    0.66326   0.65024   -1.000
 3924.00    0.67043   0.65350   -1.000
 3925.00    0.65925   0.64162   -1.000
 3926.00    0.61495   0.60886  245.406
 3927.00    0.54999   0.56674  256.794
 3928.00    0.49958   0.51693   33.599
 3929.00    0.44572   0.46750   37.196
 3930.00    0.39132   0.41375   43.518
 3931.00    0.33442   0.34827   51.484
 3932.00    0.27677   0.28935   60.256
 3933.00    0.24102   0.25397   66.024
 3934.00    0.23724   0.26070   63.592
 3935.00    0.27148   0.30869   55.368
 3936.00    0.32671   0.38156   45.848
 3937.00    0.39129   0.45376   37.652
 3938.00    0.45438   0.52427   31.624
 3939.00    0.51764   0.57329   -1.000
 3940.00    0.56204   0.60504   -1.000
 3941.00    0.58450   0.61924   -1.000
 3942.00    0.58822   0.61926   -1.000
 3943.00    0.57568   0.61646   -1.000
 3944.00    0.57767   0.62964   -1.000
 3945.00    0.62555   0.65648   -1.000
 3946.00    0.68004   0.68367  199.724
 3947.00    0.70842   0.70065  197.255
 3948.00    0.70834   0.70834  195.813
 3949.00    0.72528   0.71933  188.767
 3950.00    0.75659   0.73182   -1.000
 3951.00    0.76467   0.73228   -1.000
 3952.00    0.75231   0.73324   -1.000
 3953.00    0.75694   0.74208   -1.000
 3954.00    0.77225   0.74692   -1.000
 3955.00    0.77500   0.74136   -1.000
 3956.00    0.74935   0.72676   -1.000
 3957.00    0.73068   0.71502   -1.000
 3958.00    0.73259   0.71217   -1.000
 3959.00    0.72858   0.69371   -1.000
 3960.00    0.67185   0.64682   -1.000
 3961.00    0.59969   0.59812  237.706
 3962.00    0.54525   0.55366  256.794
 3963.00    0.51110   0.52612   -1.000
 3964.00    0.49003   0.49590   31.636
 3965.00    0.44036   0.43957   35.045
 3966.00    0.36453   0.36917   43.152
 3967.00    0.30049   0.29564   52.819
 3968.00    0.25739   0.25444   58.627
 3969.00    0.25720   0.25733   54.815
 3970.00    0.29432   0.30452   45.361
 3971.00    0.35642   0.37300   37.265
 3972.00    0.43072   0.45017   31.156
 3973.00    0.49946   0.51614   -1.000
 3974.00    0.56303   0.57727   -1.000
 3975.00    0.62615   0.62847  213.276
 3976.00    0.67464   0.67324  196.404
 3977.00    0.71936   0.71659  184.720
 3978.00    0.76805   0.75470  174.996
 3979.00    0.80935   0.78700   -1.000
 3980.00    0.83790   0.79854   -1.000
 3981.00    0.83426   0.79793   -1.000
 3982.00    0.82556   0.79400   -1.000
 3983.00    0.83066   0.79739   -1.000
 3984.00    0.84582   0.81111   -1.000
 3985.00    0.86091   0.82930   -1.000
 3986.00    0.88309   0.85008   -1.000
 3987.00    0.88768   0.87056  154.241
 3988.00    0.90615   0.88024   -1.000
 3989.00    0.91461   0.87937   -1.000
 3990.00    0.89730   0.87965  152.303
 3991.00    0.91473   0.88789   -1.000
 3992.00    0.94359   0.90183   -1.000
 3993.00    0.94469   0.91004   -1.000
 3994.00    0.92963   0.90426   -1.000
 3995.00    0.90552   0.88655   -1.000
 3996.00    0.88250   0.86564  156.778
 3997.00    0.87411   0.86106  158.141
 3998.00    0.87976   0.87565  154.692
 3999.00    0.92216   0.90519  147.629
 4000.00    0.96125   0.93133   -1.000
 4001.00    0.97895   0.94944   -1.000
 4002.00    0.98769   0.95161   -1.000
 4003.00    0.98049   0.93140   -1.000
 4004.00    0.93604   0.88897   -1.000
 4005.00    0.87358   0.85765  158.199
 4006.00    0.87003   0.85946  157.216
 4007.00    0.91586   0.89194   -1.000
 4008.00    0.95334   0.93284  142.300
 4009.00    0.97920   0.95443   -1.000
 4010.00    0.99168   0.96424   -1.000
 4011.00    0.98919   0.96891  138.325
 4012.00    0.98759   0.97181  139.290
 4013.00    0.98914   0.97600  140.058
 4014.00    0.99593   0.98255  139.052
 4015.00    1.00723   0.98672  137.083
 4016.00    1.00803   0.98512   -1.000
 4017.00    0.99472   0.98544  139.908
 4018.00    1.00000   0.99282  139.294
 4019.00    1.01925   1.00154  137.153
 4020.00    1.02301   1.00603  137.421
 4021.00    1.02145   0.99959   -1.000
 4022.00    1.01586   0.98996   -1.000
 4023.00    1.00192   0.98122  141.182
 4024.00    0.99242   0.97677  142.286
 4025.00    1.00698   0.98292   -1.000
 4026.00    1.03604   1.00345   -1.000
 4027.00    1.06036   1.02422   -1.000
 4028.00    1.06248   1.02040   -1.000
 4029.00    1.02261   0.98048   -1.000
 4030.00    0.96526   0.91791   -1.000
 4031.00    0.91463   0.87112   -1.000
 4032.00    0.89689   0.84719   -1.000
 4033.00    0.89364   0.85091   -1.000
 4034.00    0.91261   0.88024   -1.000
 4035.00    0.96109   0.93297   -1.000
 4036.00    1.02009   0.99006   -1.000
 4037.00    1.06263   1.03754   -1.000
 4038.00    1.08369   1.05076   -1.000
 4039.00    1.07500   1.03971   -1.000
 4040.00    1.04140   1.02078  134.646
 4041.00    1.02259   1.00954  136.158
 4042.00    1.03319   0.98780   -1.000
 4043.00    0.99695   0.93442   -1.000
 4044.00    0.90770   0.86080   -1.000
 4045.00    0.82526   0.80654   -1.000
 4046.00    0.82998   0.81931  163.129
 4047.00    0.91049   0.88754   -1.000
 4048.00    0.99574   0.95818   -1.000
 4049.00    1.03766   1.01139   -1.000
 4050.00    1.06150   1.03071   -1.000
 4051.00    1.05243   1.03113  133.478
 4052.00    1.02528   1.01678  137.107
 4053.00    1.00242   0.99679  140.677
 4054.00    0.98409   0.97728  142.901
 4055.00    0.97400   0.96171  144.064
 4056.00    0.96100   0.94779  145.041
 4057.00    0.95141   0.93840  146.556
 4058.00    0.95150   0.94814  144.903
 4059.00    0.97392   0.97154  139.692
 4060.00    1.01435   0.98176   -1.000
 4061.00    1.01168   0.95492   -1.000
 4062.00    0.95255   0.89446   -1.000
 4063.00    0.88037   0.85445   -1.000
 4064.00    0.87106   0.84974   -1.000
 4065.00    0.92058   0.87343   -1.000
 4066.00    0.95880   0.90831   -1.000
 4067.00    0.97409   0.93756   -1.000
 4068.00    1.00296   0.95558   -1.000
 4069.00    1.02498   0.95543   -1.000
 4070.00    0.99451   0.92612   -1.000
 4071.00    0.95033   0.89121   -1.000
 4072.00    0.94718   0.89175   -1.000
 4073.00    0.97869   0.91690   -1.000
 4074.00    0.99428   0.93607   -1.000
 4075.00    0.96044   0.91631   -1.000
 4076.00    0.90422   0.87480   -1.000
 4077.00    0.86263   0.85638  164.546
 4078.00    0.87159   0.87424  159.340
 4079.00    0.92693   0.92825  148.461
 4080.00    0.99021   0.98173  138.202
 4081.00    1.03338   1.01374  133.874
 4082.00    1.02397   1.00888  135.998
 4083.00    0.99593   0.98592  140.650
 4084.00    0.98059   0.96940  142.878
 4085.00    0.98181   0.97638  140.845
 4086.00    1.01252   1.00760  136.116
 4087.00    1.05717   1.04130  130.878
 4088.00    1.09641   1.06548   -1.000
 4089.00    1.09028   1.06489   -1.000
 4090.00    1.07447   1.04834   -1.000
 4091.00    1.05032   1.02913  132.154
 4092.00    1.03540   1.01851  133.670
 4093.00    1.04000   1.00456   -1.000
 4094.00    1.03073   0.98019   -1.000
 4095.00    0.99600   0.94450   -1.000
 4096.00    0.94686   0.90913   -1.000
 4097.00    0.92900   0.88531   -1.000
 4098.00    0.91827   0.86012   -1.000
 4099.00    0.88683   0.81587   -1.000
 4100.00    0.82630   0.75771   -1.000
 4101.00    0.75148   0.72031   -1.000
 4102.00    0.75246   0.72944   -1.000
 4103.00    0.80338   0.78861  167.379
 4104.00    0.87251   0.85677  154.274
 4105.00    0.93475   0.91594  145.892
 4106.00    0.97256   0.94993  141.355
 4107.00    0.99119   0.96534   -1.000
 4108.00    0.98158   0.96600  141.886
 4109.00    0.97039   0.95842  144.650
 4110.00    0.96193   0.95333  146.815
 4111.00    0.96272   0.95882  145.074
 4112.00    0.97952   0.97402  141.803
 4113.00    0.99950   0.99611  139.347
 4114.00    1.02351   1.01819  137.199
 4115.00    1.03932   1.03231  135.841
 4116.00    1.04140   1.02716  136.472
 4117.00    1.02386   1.00778  139.350
 4118.00    0.99806   0.98558  144.061
 4119.00    0.98242   0.97375  145.827
 4120.00    0.99207   0.97905  144.067
 4121.00    1.00186   0.99003  142.560
 4122.00    0.99424   0.99987  142.674
 4123.00    0.99440   1.00922  141.177
 4124.00    1.01840   1.02036  138.675
 4125.00    1.02748   1.02792  138.162
 4126.00    1.02660   1.02353  139.986
 4127.00    1.01218   1.01111  143.008
 4128.00    0.99520   1.00141  144.237
 4129.00    0.98643   0.99055  144.969
 4130.00    0.97390   0.96884  146.778
 4131.00    0.95492   0.93902  151.378
 4132.00    0.92428   0.91381  156.182
 4133.00    0.91718   0.91969  156.699
 4134.00    0.94236   0.95341  151.637
 4135.00    0.99065   0.99532  143.984
 4136.00    1.02840   1.03168  139.233
 4137.00    1.04424   1.05554  136.941
 4138.00    1.06826   1.06824  134.800
 4139.00    1.07066   1.07213  134.233
 4140.00    1.05765   1.05204  136.927
 4141.00    1.02429   1.00227   -1.000
 4142.00    0.95408   0.93964  156.254
 4143.00    0.89561   0.90440  164.672
 4144.00    0.89531   0.91245   -1.000
 4145.00    0.94765   0.95404  149.398
 4146.00    1.00462   0.99770  143.739
 4147.00    1.01975   1.01221  142.164
 4148.00    1.01139   1.00820  144.799
 4149.00    0.99352   0.99958  148.861
 4150.00    0.96837   0.99568   -1.000
 4151.00    0.96703   0.99378   -1.000
 4152.00    0.96364   0.98845   -1.000
 4153.00    0.96082   0.97996  150.207
 4154.00    0.96036   0.97171  152.681
 4155.00    0.95150   0.97185   -1.000
 4156.00    0.95379   0.98549   -1.000
 4157.00    1.07934   1.00713   -1.000
 4158.00    1.05622   1.03344   -1.000
 4159.00    0.97055   1.05600   -1.000
 4160.00    0.96947   1.07062   -1.000
 4161.00    1.01712   1.08318   -1.000
 4162.00    1.04917   1.09228   -1.000
 4163.00    1.06083   1.09565   -1.000
 4164.00    1.05734   1.08667   -1.000
 4165.00    1.03359   1.06568   -1.000
 4166.00    1.00810   1.04085   -1.000
 4167.00    0.98016   1.03234   -1.000
 4168.00    0.98269   1.03566   -1.000
 4169.00    1.01387   1.04170   -1.000
 4170.00    1.01035   1.02999  146.028
 4171.00    0.97049   0.99325   -1.000
 4172.00    0.90871   0.95980   -1.000
 4173.00    0.88146   0.94681   -1.000
 4174.00    0.90640   0.96028   -1.000
 4175.00    0.94246   0.98258   -1.000
 4176.00    0.95287   0.99428   -1.000
 4177.00    0.94676   1.00274   -1.000
 4178.00    0.94584   1.01521   -1.000
 4179.00    0.95833   1.02530   -1.000
 4180.00    0.96634   1.02877   -1.000
 4181.00    0.98025   1.02083   -1.000
 4182.00    0.98154   1.02208   -1.000
 4183.00    0.99446   1.04333   -1.000
 4184.00    1.03118   1.05962   -1.000
 4185.00    1.03807   1.05601  142.510
 4186.00    1.01807   1.03045  147.285
 4187.00    0.98316   1.00917   -1.000
 4188.00    0.97442   1.01233   -1.000
 4189.00    1.00388   1.02918   -1.000
 4190.00    1.00669   1.04581   -1.000
 4191.00    1.00704   1.05615   -1.000
 4192.00    1.03309   1.06635   -1.000
 4193.00    1.05728   1.07360  139.023
 4194.00    1.05300   1.06153  143.002
 4195.00    1.00807   1.02444  150.544
 4196.00    0.95960   0.98682   -1.000
 4197.00    0.93854   0.95877   -1.000
 4198.00    0.93210   0.94839  158.747
 4199.00    0.94683   0.94803  157.031
 4200.00    0.97194   0.95538  154.505
 4201.00    0.97431   0.96260  154.057
 4202.00    0.96971   0.97400  153.074
 4203.00    0.98217   0.99905  150.668
 4204.00    1.00345   1.03426   -1.000
 4205.00    1.02457   1.06576   -1.000
 4206.00    1.03783   1.08821   -1.000
 4207.00    1.06179   1.10266   -1.000
 4208.00    1.08265   1.10370  139.484
 4209.00    1.07756   1.09715  140.056
 4210.00    1.07391   1.09371  139.772
 4211.00    1.08242   1.09872  138.787
 4212.00    1.08305   1.10158  139.573
 4213.00    1.06716   1.07692  144.128
 4214.00    1.02113   1.03575  150.758
 4215.00    0.97718   1.01516   -1.000
 4216.00    0.99196   1.03281   -1.000
 4217.00    1.06095   1.08482   -1.000
 4218.00    1.12415   1.13004  134.035
 4219.00    1.16054   1.15799  130.276
 4220.00    1.17491   1.15992  128.842
 4221.00    1.17596   1.13987   -1.000
 4222.00    1.14690   1.09428   -1.000
 4223.00    1.08516   1.02139   -1.000
 4224.00    0.99855   0.92191   -1.000
 4225.00    0.89357   0.83692   -1.000
 4226.00    0.79751   0.79480  195.500
 4227.00    0.80489   0.83253   -1.000
 4228.00    0.92522   0.92767  158.969
 4229.00    1.04971   1.03872  142.610
 4230.00    1.11902   1.09808  135.073
 4231.00    1.14276   1.11286   -1.000
 4232.00    1.12567   1.09742   -1.000
 4233.00    1.08907   1.06977  140.553
 4234.00    1.06581   1.04455  141.967
 4235.00    1.05207   1.03632  145.297
 4236.00    1.03769   1.03687  147.951
 4237.00    1.04196   1.04776  146.893
 4238.00    1.05547   1.06853  143.452
 4239.00    1.06728   1.09209   -1.000
 4240.00    1.09207   1.11720   -1.000
 4241.00    1.12231   1.14450   -1.000
 4242.00    1.14222   1.16715   -1.000
 4243.00    1.14515   1.18893   -1.000
 4244.00    1.16116   1.20372   -1.000
 4245.00    1.17166   1.19644   -1.000
 4246.00    1.14071   1.16015  138.483
 4247.00    1.10055   1.10983  143.787
 4248.00    1.07038   1.06061  147.474
 4249.00    1.04697   1.03380  148.842
 4250.00    1.03754   1.03097  148.685
 4251.00    1.05361   1.05052  144.417
 4252.00    1.09170   1.06286   -1.000
 4253.00    1.10183   1.05730   -1.000
 4254.00    1.07050   1.04809   -1.000
 4255.00    1.05726   1.06354  143.141
 4256.00    1.10463   1.10320  137.525
 4257.00    1.13498   1.11822  136.355
 4258.00    1.09511   1.08804  141.570
 4259.00    1.04222   1.04062  149.447
 4260.00    1.01094   1.01862  153.434
 4261.00    1.02112   1.05236   -1.000
 4262.00    1.08893   1.11810   -1.000
 4263.00    1.16794   1.18403  131.915
 4264.00    1.20044   1.21645  128.804
 4265.00    1.21307   1.21999  128.470
 4266.00    1.21312   1.20518  130.565
 4267.00    1.17599   1.17254  134.914
 4268.00    1.13655   1.12161  139.023
 4269.00    1.10084   1.05969   -1.000
 4270.00    1.03051   0.98985   -1.000
 4271.00    0.95655   0.94407  163.480
 4272.00    0.93059   0.92797  165.288
 4273.00    0.94946   0.94388  161.600
 4274.00    0.97563   0.98008  157.529
 4275.00    1.01844   1.03203  150.478
 4276.00    1.08376   1.09543  140.681
 4277.00    1.14499   1.15479  134.107
 4278.00    1.17613   1.17140  133.973
 4279.00    1.16085   1.15350  139.968
 4280.00    1.10875   1.12188  144.879
 4281.00    1.08578   1.10996   -1.000
 4282.00    1.09812   1.11565  143.240
 4283.00    1.10990   1.11984  141.929
 4284.00    1.10581   1.11585  143.745
 4285.00    1.07792   1.10261   -1.000
 4286.00    1.05173   1.08613   -1.000
 4287.00    1.03632   1.05875   -1.000
 4288.00    1.00863   1.01694  159.832
 4289.00    0.95793   0.97428  167.874
 4290.00    0.93668   0.96479   -1.000
 4291.00    0.97181   0.99621   -1.000
 4292.00    1.03314   1.04331  149.635
 4293.00    1.08057   1.06721  146.734
 4294.00    1.08076   1.06687  148.077
 4295.00    1.06259   1.05547  150.531
 4296.00    1.04785   1.03369  153.977
 4297.00    1.01050   0.98907   -1.000
 4298.00    0.94202   0.93254  175.864
 4299.00    0.87596   0.87990  189.044
 4300.00    0.84499   0.85925  191.531
 4301.00    0.86275   0.86588  185.850
 4302.00    0.87740   0.88454  182.995
 4303.00    0.89317   0.89888  180.218
 4304.00    0.91253   0.90552  178.033
 4305.00    0.91895   0.89322   -1.000
 4306.00    0.89406   0.86003   -1.000
 4307.00    0.85496   0.82550   -1.000
 4308.00    0.81750   0.81361  199.954
 4309.00    0.82509   0.83577  196.016
 4310.00    0.88340   0.88124  185.432
 4311.00    0.93724   0.93753  173.283
 4312.00    0.98714   0.98984  164.502
 4313.00    1.01762   1.04786   -1.000
 4314.00    1.05955   1.12087   -1.000
 4315.00    1.12834   1.20107   -1.000
 4316.00    1.23179   1.28370   -1.000
 4317.00    1.29864   1.32683   -1.000
 4318.00    1.30602   1.32821  121.026
 4319.00    1.28437   1.30503  122.929
 4320.00    1.26403   1.27499  125.725
 4321.00    1.22937   1.23121  130.000
 4322.00    1.18267   1.16642  136.425
 4323.00    1.11323   1.07660   -1.000
 4324.00    1.03034   0.99643   -1.000
 4325.00    0.95745   0.97105  166.316
 4326.00    0.97317   1.02250   -1.000
 4327.00    1.08077   1.12118   -1.000
 4328.00    1.19528   1.22157   -1.000
 4329.00    1.24444   1.26634   -1.000
 4330.00    1.24611   1.27335   -1.000
 4331.00    1.23246   1.27174   -1.000
 4332.00    1.24397   1.28227   -1.000
 4333.00    1.25584   1.29607   -1.000
 4334.00    1.26711   1.29362   -1.000
 4335.00    1.26690   1.25948  124.782
 4336.00    1.20900   1.18552   -1.000
 4337.00    1.10780   1.08087   -1.000
 4338.00    1.01005   0.96966   -1.000
 4339.00    0.93176   0.90798   -1.000
 4340.00    0.88969   0.90450   -1.000
 4341.00    0.92472   0.96226   -1.000
 4342.00    1.01540   1.05278   -1.000
 4343.00    1.10726   1.13847   -1.000
 4344.00    1.15282   1.19052   -1.000
 4345.00    1.19126   1.22782   -1.000
 4346.00    1.22489   1.25697   -1.000
 4347.00    1.24246   1.28625   -1.000
 4348.00    1.26880   1.30762   -1.000
 4349.00    1.28484   1.29184  125.189
 4350.00    1.24019   1.23160  132.188
 4351.00    1.14223   1.16492   -1.000
 4352.00    1.09676   1.13379   -1.000
 4353.00    1.14190   1.16157   -1.000
 4354.00    1.20674   1.21518  131.960
 4355.00    1.24185   1.26299   -1.000
 4356.00    1.27810   1.28635  125.244
 4357.00    1.30151   1.29018  125.309
 4358.00    1.27455   1.27975  128.074
 4359.00    1.25123   1.27583   -1.000
 4360.00    1.26014   1.29331   -1.000
 4361.00    1.29822   1.32216   -1.000
 4362.00    1.33626   1.34968  121.870
 4363.00    1.34817   1.36639  121.381
 4364.00    1.34634   1.37658   -1.000
 4365.00    1.36327   1.37286  119.903
 4366.00    1.34065   1.34340  123.653
 4367.00    1.28301   1.30228  128.212
 4368.00    1.25193   1.27987   -1.000
 4369.00    1.25737   1.27472  128.326
 4370.00    1.26812   1.27582  127.533
 4371.00    1.27115   1.26672  127.425
 4372.00    1.26663   1.23931   -1.000
 4373.00    1.22527   1.19900   -1.000
 4374.00    1.17048   1.16102  139.377
 4375.00    1.15302   1.15831  139.447
 4376.00    1.19108   1.19730  133.639
 4377.00    1.25540   1.25430  126.893
 4378.00    1.29834   1.28412  124.665
 4379.00    1.30127   1.27604   -1.000
 4380.00    1.28031   1.22793   -1.000
 4381.00    1.23785   1.14062   -1.000
 4382.00    1.13527   1.03488   -1.000
 4383.00    0.99588   0.96465   -1.000
 4384.00    0.93763   0.96270   -1.000
 4385.00    1.01008   1.03243   -1.000
 4386.00    1.13079   1.12452  137.467
 4387.00    1.20686   1.17785   -1.000
 4388.00    1.22198   1.19121   -1.000
 4389.00    1.21299   1.18847  134.613
 4390.00    1.20186   1.19219  135.036
 4391.00    1.21884   1.20653  132.393
 4392.00    1.25016   1.22282   -1.000
 4393.00    1.24945   1.23020  130.300
 4394.00    1.23096   1.23046  133.235
 4395.00    1.23269   1.24779  132.721
 4396.00    1.26899   1.28715  126.577
 4397.00    1.32777   1.31586  122.904
 4398.00    1.33960   1.31048   -1.000
 4399.00    1.28546   1.27820  129.341
 4400.00    1.23376   1.25200  133.189
 4401.00    1.23006   1.23586  131.592
 4402.00    1.26041   1.21367   -1.000
 4403.00    1.23899   1.16636   -1.000
 4404.00    1.15627   1.11261   -1.000
 4405.00    1.11246   1.09628  142.848
 4406.00    1.15288   1.12549   -1.000
 4407.00    1.18933   1.16827  135.991
 4408.00    1.19231   1.21386   -1.000
 4409.00    1.22440   1.26729   -1.000
 4410.00    1.28831   1.33202   -1.000
 4411.00    1.33783   1.37569   -1.000
 4412.00    1.36847   1.36601  118.413
 4413.00    1.34749   1.31387   -1.000
 4414.00    1.27187   1.25115  128.770
 4415.00    1.19923   1.20941  133.412
 4416.00    1.19864   1.22438   -1.000
 4417.00    1.24368   1.28314   -1.000
 4418.00    1.28980   1.35163   -1.000
 4419.00    1.33182   1.38776   -1.000
 4420.00    1.34371   1.38594   -1.000
 4421.00    1.30907   1.35333   -1.000
 4422.00    1.26836   1.31965   -1.000
 4423.00    1.25073   1.30698   -1.000
 4424.00    1.25695   1.31275   -1.000
 4425.00    1.26340   1.31911   -1.000
 4426.00    1.26433   1.32190   -1.000
 4427.00    1.26294   1.32919   -1.000
 4428.00    1.27780   1.33800   -1.000
 4429.00    1.27334   1.33908   -1.000
 4430.00    1.25891   1.33415   -1.000
 4431.00    1.26069   1.33286   -1.000
 4432.00    1.27089   1.32884   -1.000
 4433.00    1.25655   1.29903   -1.000
 4434.00    1.21151   1.25731   -1.000
 4435.00    1.18199   1.24341   -1.000
 4436.00    1.21730   1.28370   -1.000
 4437.00    1.29583   1.36260   -1.000
 4438.00    1.36868   1.42045   -1.000
 4439.00    1.38993   1.43222   -1.000
 4440.00    1.36963   1.39212  119.624
 4441.00    1.30362   1.33463   -1.000
 4442.00    1.25058   1.29465   -1.000
 4443.00    1.24364   1.30595   -1.000
 4444.00    1.28183   1.35815   -1.000
 4445.00    1.35080   1.41179   -1.000
 4446.00    1.39540   1.44252   -1.000
 4447.00    1.40063   1.44626   -1.000
 4448.00    1.38998   1.44426   -1.000
 4449.00    1.38943   1.44300   -1.000
 4450.00    1.37094   1.43614   -1.000
 4451.00    1.36952   1.42202   -1.000
 4452.00    1.37267   1.39529  121.223
 4453.00    1.33663   1.34811  125.754
 4454.00    1.27410   1.28966  131.604
 4455.00    1.23071   1.26000   -1.000
 4456.00    1.23952   1.26111   -1.000
 4457.00    1.26152   1.27792  129.637
 4458.00    1.26919   1.28389  129.738
 4459.00    1.26254   1.27588  130.420
 4460.00    1.24679   1.26913   -1.000
 4461.00    1.23736   1.27686   -1.000
 4462.00    1.25393   1.30772   -1.000
 4463.00    1.30791   1.35162   -1.000
 4464.00    1.35275   1.38626   -1.000
 4465.00    1.36235   1.39735   -1.000
 4466.00    1.36524   1.38923   -1.000
 4467.00    1.36263   1.37602  123.542
 4468.00    1.33537   1.36685   -1.000
 4469.00    1.31809   1.36597   -1.000
 4470.00    1.33506   1.38603   -1.000
 4471.00    1.35952   1.42736   -1.000
 4472.00    1.40560   1.46735   -1.000
 4473.00    1.45756   1.49729   -1.000
 4474.00    1.47807   1.50888   -1.000
 4475.00    1.47816   1.51780   -1.000
 4476.00    1.49993   1.53210   -1.000
 4477.00    1.52286   1.53930  111.207
 4478.00    1.50911   1.51812  112.224
 4479.00    1.45856   1.46218  116.426
 4480.00    1.38319   1.40082  121.752
 4481.00    1.33101   1.37426   -1.000
 4482.00    1.34150   1.39739   -1.000
 4483.00    1.39525   1.45884   -1.000
 4484.00    1.46200   1.51966   -1.000
 4485.00    1.50375   1.55969   -1.000
 4486.00    1.51591   1.55945   -1.000
 4487.00    1.49882   1.52401  114.331
 4488.00    1.44256   1.47028   -1.000
 4489.00    1.38746   1.44034   -1.000
 4490.00    1.37867   1.44512   -1.000
 4491.00    1.41105   1.47288   -1.000
 4492.00    1.44481   1.48596   -1.000
 4493.00    1.44061   1.46262  116.798
 4494.00    1.39694   1.42908   -1.000
 4495.00    1.36220   1.41324   -1.000
 4496.00    1.36825   1.43388   -1.000
 4497.00    1.41119   1.47439   -1.000
 4498.00    1.45293   1.50840   -1.000
 4499.00    1.47634   1.52116   -1.000
 4500.00    1.46131   1.51563   -1.000
 4501.00    1.43820   1.51688   -1.000
 4502.00    1.45326   1.53799   -1.000
 4503.00    1.52006   1.57625   -1.000
 4504.00    1.58007   1.61384   -1.000
 4505.00    1.58118   1.62796   -1.000
 4506.00    1.57884   1.61516   -1.000
 4507.00    1.57049   1.59649  110.195
 4508.00    1.55234   1.58978   -1.000
 4509.00    1.55828   1.59397   -1.000
 4510.00    1.57299   1.59910  108.659
 4511.00    1.56586   1.59077  109.592
 4512.00    1.53917   1.56750   -1.000
 4513.00    1.50169   1.54203   -1.000
 4514.00    1.47629   1.52609   -1.000
 4515.00    1.48606   1.52283   -1.000
 4516.00    1.49343   1.52467   -1.000
 4517.00    1.48412   1.52298   -1.000
 4518.00    1.47254   1.52221   -1.000
 4519.00    1.48484   1.53437   -1.000
 4520.00    1.52556   1.55680   -1.000
 4521.00    1.54102   1.57019   -1.000
 4522.00    1.51658   1.55967   -1.000
 4523.00    1.47784   1.53016   -1.000
 4524.00    1.45838   1.49827   -1.000
 4525.00    1.43692   1.46510   -1.000
 4526.00    1.38164   1.42163   -1.000
 4527.00    1.34358   1.37474   -1.000
 4528.00    1.32065   1.34333   -1.000
 4529.00    1.31873   1.33987   -1.000
 4530.00    1.33314   1.35971   -1.000
 4531.00    1.36307   1.38645   -1.000
 4532.00    1.38417   1.40227  122.624
 4533.00    1.37423   1.39705   -1.000
 4534.00    1.33963   1.38262   -1.000
 4535.00    1.32862   1.38816   -1.000
 4536.00    1.37437   1.42955   -1.000
 4537.00    1.47420   1.49530  114.144
 4538.00    1.53671   1.54753  111.072
 4539.00    1.53580   1.55919  112.157
 4540.00    1.49625   1.54255   -1.000
 4541.00    1.48205   1.52687   -1.000
 4542.00    1.49771   1.52816   -1.000
 4543.00    1.50098   1.53576   -1.000
 4544.00    1.47267   1.53370   -1.000
 4545.00    1.51228   1.51939   53.457
 4546.00    0.54996   1.50598   -1.000
 4547.00   -0.03226   1.49681    0.000
 4548.00   -0.04967   1.48372    0.000
 4549.00    0.90288   1.47121   -1.000
 4550.00    0.57013   1.47407   -1.000
 4551.00    0.77352   1.49227   -1.000
 4552.00    1.49801   1.49990  118.993
 4553.00    1.44080   1.48638   -1.000
 4554.00    1.42655   1.46982   -1.000
 4555.00    1.42862   1.47437   -1.000
 4556.00    1.47216   1.50995   -1.000
 4557.00    1.53109   1.56353   -1.000
 4558.00    1.56905   1.60881   -1.000
 4559.00    1.58373   1.62980   -1.000
 4560.00    1.58301   1.63408   -1.000
 4561.00    1.58299   1.62640   -1.000
 4562.00    1.57233   1.60731   -1.000
 4563.00    1.52937   1.57475   -1.000
 4564.00    1.47915   1.54328   -1.000
 4565.00    1.46427   1.53304   -1.000
 4566.00    1.50179   1.55512   -1.000
 4567.00    1.55688   1.59429   -1.000
 4568.00    1.58771   1.62459   -1.000
 4569.00    1.58926   1.62290   -1.000
 4570.00    1.54911   1.59639   -1.000
 4571.00    1.49661   1.56590   -1.000
 4572.00    1.50163   1.55864   -1.000
 4573.00    1.54859   1.58389   -1.000
 4574.00    1.57860   1.61600   -1.000
 4575.00    1.58152   1.63058   -1.000
 4576.00    1.57521   1.62542   -1.000
 4577.00    1.56417   1.60953   -1.000
 4578.00    1.54561   1.58104   -1.000
 4579.00    1.50700   1.54192   -1.000
 4580.00    1.45900   1.50780   -1.000
 4581.00    1.45991   1.49819   -1.000
 4582.00    1.47274   1.51077   -1.000
 4583.00    1.48369   1.52727   -1.000
 4584.00    1.48614   1.53102   -1.000
 4585.00    1.48211   1.52591   -1.000
 4586.00    1.49429   1.53209   -1.000
 4587.00    1.52370   1.55948   -1.000
 4588.00    1.56686   1.59534   -1.000
 4589.00    1.58868   1.61858   -1.000
 4590.00    1.57515   1.61752   -1.000
 4591.00    1.53766   1.59497   -1.000
 4592.00    1.51927   1.56583   -1.000
 4593.00    1.51146   1.54749   -1.000
 4594.00    1.51242   1.54101   -1.000
 4595.00    1.51083   1.54200   -1.000
 4596.00    1.51546   1.54662   -1.000
 4597.00    1.52498   1.55493   -1.000
 4598.00    1.53163   1.56317   -1.000
 4599.00    1.53669   1.56644   -1.000
 4600.00    1.51965   1.56256   -1.000
 4601.00    1.50725   1.55689   -1.000
 4602.00    1.51645   1.55642   -1.000
 4603.00    1.53674   1.55955  112.672
 4604.00    1.54886   1.56290  112.852
 4605.00    1.55048   1.56858  112.668
 4606.00    1.56718   1.58508  111.445
 4607.00    1.59450   1.61848  109.241
 4608.00    1.63779   1.65989  106.897
 4609.00    1.66898   1.69187  105.630
 4610.00    1.66754   1.69304  106.094
 4611.00    1.64144   1.67211   -1.000
 4612.00    1.61475   1.64979   -1.000
 4613.00    1.60333   1.63971   -1.000
 4614.00    1.61492   1.64503   -1.000
 4615.00    1.62336   1.65925   -1.000
 4616.00    1.62481   1.67167   -1.000
 4617.00    1.62680   1.67772   -1.000
 4618.00    1.62440   1.67786   -1.000
 4619.00    1.60891   1.67533   -1.000
 4620.00    1.62014   1.67802   -1.000
 4621.00    1.64916   1.68743   -1.000
 4622.00    1.65431   1.69358   -1.000
 4623.00    1.64245   1.68989   -1.000
 4624.00    1.63650   1.67952   -1.000
 4625.00    1.63418   1.67058   -1.000
 4626.00    1.63964   1.66333  107.875
 4627.00    1.64624   1.66159  107.819
 4628.00    1.63894   1.66574  108.515
 4629.00    1.62729   1.67096   -1.000
 4630.00    1.63478   1.67757   -1.000
 4631.00    1.65714   1.68446  106.954
 4632.00    1.64530   1.68194   -1.000
 4633.00    1.62132   1.66599   -1.000
 4634.00    1.61148   1.64760   -1.000
 4635.00    1.60884   1.63707   -1.000
 4636.00    1.59806   1.62722   -1.000
 4637.00    1.58254   1.60978   -1.000
 4638.00    1.55972   1.59024   -1.000
 4639.00    1.55911   1.58030  112.787
 4640.00    1.58945   1.58740  110.876
 4641.00    1.62339   1.60948  108.151
 4642.00    1.65089   1.63006  106.662
 4643.00    1.65764   1.63238  107.090
 4644.00    1.62895   1.60880  109.089
 4645.00    1.59247   1.57116  112.174
 4646.00    1.54515   1.53006  115.287
 4647.00    1.51641   1.50676  115.794
 4648.00    1.52057   1.51865  113.747
 4649.00    1.56690   1.55794  111.077
 4650.00    1.60546   1.60205  109.548
 4651.00    1.61932   1.63302  109.354
 4652.00    1.63321   1.64576  109.129
 4653.00    1.62262   1.64032  110.425
 4654.00    1.59878   1.62024  112.997
 4655.00    1.56216   1.60290   -1.000
 4656.00    1.55793   1.60704   -1.000
 4657.00    1.58832   1.63695   -1.000
 4658.00    1.65515   1.68807   -1.000
 4659.00    1.70840   1.73528  103.127
 4660.00    1.73098   1.75451  103.016
 4661.00    1.69831   1.73834   -1.000
 4662.00    1.66023   1.70149   -1.000
 4663.00    1.62854   1.66140   -1.000
 4664.00    1.60916   1.62568  109.244
 4665.00    1.58639   1.58669  111.034
 4666.00    1.52793   1.53851  115.821
 4667.00    1.45706   1.49390   -1.000
 4668.00    1.43055   1.48269   -1.000
 4669.00    1.47526   1.51675   -1.000
 4670.00    1.56335   1.57635  112.181
 4671.00    1.61322   1.62569  109.138
 4672.00    1.63485   1.64739  108.484
 4673.00    1.63391   1.64613  108.570
 4674.00    1.62881   1.64666  108.458
 4675.00    1.64631   1.65791  107.047
 4676.00    1.68058   1.67250  105.429
 4677.00    1.69293   1.67143  105.954
 4678.00    1.65800   1.64846  108.264
 4679.00    1.60902   1.61796  110.411
 4680.00    1.57939   1.59181  112.238
 4681.00    1.57725   1.58042  113.327
 4682.00    1.59079   1.58869  111.922
 4683.00    1.62374   1.61219  109.087
 4684.00    1.66371   1.63621  107.649
 4685.00    1.67078   1.64689  108.013
 4686.00    1.65087   1.64491  108.060
 4687.00    1.64308   1.63609  108.678
 4688.00    1.64927   1.63000  108.686
 4689.00    1.64480   1.62858  108.695
 4690.00    1.63686   1.62788  109.480
 4691.00    1.63450   1.62527  109.711
 4692.00    1.63932   1.62738  108.411
 4693.00    1.66316   1.63826  106.792
 4694.00    1.69290   1.65509   -1.000
 4695.00    1.71805   1.67158   -1.000
 4696.00    1.72288   1.67728   -1.000
 4697.00    1.69487   1.66036   -1.000
 4698.00    1.64250   1.62629  109.804
 4699.00    1.60262   1.59392  111.093
 4700.00    1.60404   1.57615  110.201
 4701.00    1.59720   1.56610   -1.000
 4702.00    1.57358   1.55956  112.994
 4703.00    1.56448   1.56184  113.589
 4704.00    1.58536   1.58024  111.436
 4705.00    1.61871   1.60064  109.784
 4706.00    1.61364   1.60433  111.309
 4707.00    1.59238   1.59019  113.558
 4708.00    1.56109   1.57564  114.660
 4709.00    1.55555   1.57960  114.063
 4710.00    1.59461   1.60265  110.701
 4711.00    1.64780   1.62978  107.657
 4712.00    1.67134   1.64301  106.585
 4713.00    1.66973   1.63646   -1.000
 4714.00    1.64565   1.62424  109.651
 4715.00    1.62854   1.62912  109.665
 4716.00    1.66252   1.65804  107.487
 4717.00    1.70162   1.69677  105.414
 4718.00    1.71591   1.72807  104.757
 4719.00    1.72488   1.74777  104.388
 4720.00    1.72944   1.75772  104.030
 4721.00    1.71583   1.75486   -1.000
 4722.00    1.70736   1.74497   -1.000
 4723.00    1.71161   1.74292   -1.000
 4724.00    1.71993   1.75068   -1.000
 4725.00    1.72455   1.74799  104.062
 4726.00    1.68227   1.72008   -1.000
 4727.00    1.61955   1.66757   -1.000
 4728.00    1.57751   1.61329   -1.000
 4729.00    1.57262   1.58762  112.749
 4730.00    1.58505   1.59249  111.591
 4731.00    1.60562   1.61718  110.712
 4732.00    1.63114   1.64721  109.376
 4733.00    1.64932   1.67105  108.425
 4734.00    1.67606   1.68148  107.809
 4735.00    1.68713   1.68143  107.208
 4736.00    1.66706   1.67895  108.359
 4737.00    1.65626   1.68114  108.505
 4738.00    1.67927   1.69423  107.099
 4739.00    1.69539   1.71062  107.138
 4740.00    1.68638   1.71608   -1.000
 4741.00    1.67161   1.71292   -1.000
 4742.00    1.67966   1.71500   -1.000
 4743.00    1.70440   1.72321  105.873
 4744.00    1.71686   1.73173  106.083
 4745.00    1.71819   1.74155  106.180
 4746.00    1.71953   1.75528   -1.000
 4747.00    1.73177   1.77294   -1.000
 4748.00    1.73455   1.78528   -1.000
 4749.00    1.73295   1.79067   -1.000
 4750.00    1.73132   1.79326   -1.000
 4751.00    1.71917   1.78862   -1.000
 4752.00    1.71172   1.77238   -1.000
 4753.00    1.69130   1.74863   -1.000
 4754.00    1.66935   1.72805   -1.000
 4755.00    1.66205   1.72021   -1.000
 4756.00    1.65551   1.72373   -1.000
 4757.00    1.65768   1.73274   -1.000
 4758.00    1.66444   1.74550   -1.000
 4759.00    1.68162   1.75649   -1.000
 4760.00    1.68099   1.75815   -1.000
 4761.00    1.65581   1.74251   -1.000
 4762.00    1.60683   1.71140   -1.000
 4763.00    1.58291   1.67870   -1.000
 4764.00    1.57899   1.65736   -1.000
 4765.00    1.57715   1.64362   -1.000
 4766.00    1.59112   1.63604   -1.000
 4767.00    1.61997   1.64882   -1.000
 4768.00    1.65671   1.68887   -1.000
 4769.00    1.69298   1.73537   -1.000
 4770.00    1.70830   1.76183   -1.000
 4771.00    1.69837   1.75820   -1.000
 4772.00    1.67940   1.74512   -1.000
 4773.00    1.68476   1.75179   -1.000
 4774.00    1.72309   1.77915   -1.000
 4775.00    1.74798   1.80843   -1.000
 4776.00    1.74773   1.82168   -1.000
 4777.00    1.74033   1.82418   -1.000
 4778.00    1.73113   1.82336   -1.000
 4779.00    1.71246   1.81563   -1.000
 4780.00    1.70205   1.80080   -1.000
 4781.00    1.70298   1.78342   -1.000
 4782.00    1.69153   1.76289   -1.000
 4783.00    1.68137   1.74027   -1.000
 4784.00    1.68667   1.72787   -1.000
 4785.00    1.68516   1.72803   -1.000
 4786.00    1.66813   1.72848   -1.000
 4787.00    1.65596   1.72594   -1.000
 4788.00    1.65462   1.72630   -1.000
 4789.00    1.66037   1.72957   -1.000
 4790.00    1.66603   1.73590   -1.000
 4791.00    1.68212   1.75294   -1.000
 4792.00    1.70596   1.78686   -1.000
 4793.00    1.73362   1.82956   -1.000
 4794.00    1.78230   1.87039   -1.000
 4795.00    1.80355   1.89422   -1.000
 4796.00    1.78340   1.89097   -1.000
 4797.00    1.75915   1.86298   -1.000
 4798.00    1.71652   1.82525   -1.000
 4799.00    1.68210   1.79591   -1.000
 4800.00    1.68915   1.79035   -1.000
 4801.00    1.72622   1.81219   -1.000
 4802.00    1.76879   1.84788   -1.000
 4803.00    1.78094   1.87189   -1.000
 4804.00    1.75959   1.86253   -1.000
 4805.00    1.72569   1.83267   -1.000
 4806.00    1.71335   1.80369   -1.000
 4807.00    1.70443   1.78704   -1.000
 4808.00    1.70239   1.78487   -1.000
 4809.00    1.71416   1.79672   -1.000
 4810.00    1.73538   1.81480   -1.000
 4811.00    1.74388   1.83076   -1.000
 4812.00    1.74551   1.83746   -1.000
 4813.00    1.75501   1.83965   -1.000
 4814.00    1.75659   1.84498   -1.000
 4815.00    1.76578   1.85514   -1.000
 4816.00    1.78386   1.86942   -1.000
 4817.00    1.79251   1.88537   -1.000
 4818.00    1.80653   1.90038   -1.000
 4819.00    1.80610   1.91037   -1.000
 4820.00    1.80194   1.90969   -1.000
 4821.00    1.79521   1.89171   -1.000
 4822.00    1.75904   1.85544   -1.000
 4823.00    1.72119   1.81063   -1.000
 4824.00    1.69495   1.78246   -1.000
 4825.00    1.72636   1.79032   -1.000
 4826.00    1.76744   1.82147   -1.000
 4827.00    1.77507   1.83915   -1.000
 4828.00    1.75513   1.83352   -1.000
 4829.00    1.74000   1.82090   -1.000
 4830.00    1.73486   1.81084   -1.000
 4831.00    1.72548   1.79865   -1.000
 4832.00    1.71458   1.78610   -1.000
 4833.00    1.72805   1.78916   -1.000
 4834.00    1.75585   1.80967   -1.000
 4835.00    1.76722   1.83595   -1.000
 4836.00    1.76269   1.84864   -1.000
 4837.00    1.75887   1.84670   -1.000
 4838.00    1.74162   1.83271   -1.000
 4839.00    1.71532   1.80937   -1.000
 4840.00    1.70079   1.79017   -1.000
 4841.00    1.70400   1.78405   -1.000
 4842.00    1.71200   1.78466   -1.000
 4843.00    1.71209   1.78661   -1.000
 4844.00    1.72681   1.79820   -1.000
 4845.00    1.75956   1.82415   -1.000
 4846.00    1.78283   1.84849   -1.000
 4847.00    1.77007   1.84895   -1.000
 4848.00    1.72835   1.82695   -1.000
 4849.00    1.71397   1.81022   -1.000
 4850.00    1.73903   1.81373   -1.000
 4851.00    1.75212   1.82520   -1.000
 4852.00    1.74618   1.82784   -1.000
 4853.00    1.73011   1.80812   -1.000
 4854.00    1.68599   1.76502   -1.000
 4855.00    1.62831   1.71416   -1.000
 4856.00    1.61266   1.68626   -1.000
 4857.00    1.62685   1.68267   -1.000
 4858.00    1.59857   1.66416   -1.000
 4859.00    1.51040   1.58320   -1.000
 4860.00    1.35864   1.44111   -1.000
 4861.00    1.24876   1.33071   -1.000
 4862.00    1.27663   1.32295   -1.000
 4863.00    1.40012   1.42311   -1.000
 4864.00    1.50796   1.55098   -1.000
 4865.00    1.57331   1.64537   -1.000
 4866.00    1.62148   1.70147   -1.000
 4867.00    1.64442   1.73488   -1.000
 4868.00    1.65526   1.75106   -1.000
 4869.00    1.65205   1.74367   -1.000
 4870.00    1.61477   1.70397   -1.000
 4871.00    1.55909   1.64516   -1.000
 4872.00    1.53867   1.61012   -1.000
 4873.00    1.58638   1.63748   -1.000
 4874.00    1.63160   1.70100   -1.000
 4875.00    1.64456   1.75129   -1.000
 4876.00    1.66170   1.77855   -1.000
 4877.00    1.67701   1.79655   -1.000
 4878.00    1.70289   1.81868   -1.000
 4879.00    1.72877   1.84362   -1.000
 4880.00    1.73044   1.86001   -1.000
 4881.00    1.70087   1.85119   -1.000
 4882.00    1.68489   1.82575   -1.000
 4883.00    1.69442   1.81203   -1.000
 4884.00    1.68246   1.80322   -1.000
 4885.00    1.64663   1.77929   -1.000
 4886.00    1.62965   1.75162   -1.000
 4887.00    1.63769   1.74144   -1.000
 4888.00    1.64717   1.74151   -1.000
 4889.00    1.63750   1.72730   -1.000
 4890.00    1.60723   1.69197   -1.000
 4891.00    1.58666   1.66320   -1.000
 4892.00    1.62787   1.68886   -1.000
 4893.00    1.73383   1.77386   -1.000
 4894.00    1.82262   1.88065   -1.000
 4895.00    1.85938   1.95625   -1.000
 4896.00    1.87493   1.98736   -1.000
 4897.00    1.87639   1.98942   -1.000
 4898.00    1.85790   1.97471   -1.000
 4899.00    1.81573   1.94802   -1.000
 4900.00    1.79078   1.91950   -1.000
 4901.00    1.79506   1.90126   -1.000
 4902.00    1.78953   1.88912   -1.000
 4903.00    1.76896   1.87676   -1.000
 4904.00    1.77618   1.87611   -1.000
 4905.00    1.80862   1.90395   -1.000
 4906.00    1.83756   1.94408   -1.000
 4907.00    1.83599   1.95158   -1.000
 4908.00    1.80361   1.91760   -1.000
 4909.00    1.74945   1.86610   -1.000
 4910.00    1.71743   1.82277   -1.000
 4911.00    1.71674   1.81091   -1.000
 4912.00    1.74843   1.83370   -1.000
 4913.00    1.78366   1.87470   -1.000
 4914.00    1.81615   1.91215   -1.000
 4915.00    1.84662   1.93810   -1.000
 4916.00    1.85457   1.93858   -1.000
 4917.00    1.80253   1.89022   -1.000
 4918.00    1.69918   1.78692   -1.000
 4919.00    1.60412   1.67253   -1.000
 4920.00    1.56014   1.59773   -1.000
 4921.00    1.58730   1.60332  116.249
 4922.00    1.66507   1.67130  112.017
 4923.00    1.71721   1.74564   -1.000
 4924.00    1.72126   1.78589   -1.000
 4925.00    1.73842   1.80932   -1.000
 4926.00    1.78150   1.84813   -1.000
 4927.00    1.82536   1.89995   -1.000
 4928.00    1.85326   1.94644   -1.000
 4929.00    1.87612   1.98292   -1.000
 4930.00    1.88663   2.00228   -1.000
 4931.00    1.88292   1.99241   -1.000
 4932.00    1.84905   1.95145   -1.000
 4933.00    1.77982   1.89594   -1.000
 4934.00    1.74932   1.85744   -1.000
 4935.00    1.77641   1.85488   -1.000
 4936.00    1.79271   1.85921   -1.000
 4937.00    1.75488   1.83133   -1.000
 4938.00    1.69591   1.77577   -1.000
 4939.00    1.68468   1.74614   -1.000
 4940.00    1.74216   1.77963   -1.000
 4941.00    1.81515   1.85492   -1.000
 4942.00    1.85607   1.92955   -1.000
 4943.00    1.87797   1.97077   -1.000
 4944.00    1.89206   1.98360   -1.000
 4945.00    1.87754   1.97912   -1.000
 4946.00    1.85240   1.97002   -1.000
 4947.00    1.86452   1.97188   -1.000
 4948.00    1.89309   1.99034   -1.000
 4949.00    1.90330   2.01144   -1.000
 4950.00    1.90943   2.02226   -1.000
 4951.00    1.91613   2.02437   -1.000
 4952.00    1.90470   2.01671   -1.000
 4953.00    1.88469   2.00081   -1.000
 4954.00    1.87519   1.97339   -1.000
 4955.00    1.84680   1.91764   -1.000
 4956.00    1.76410   1.82177   -1.000
 4957.00    1.66592   1.71406   -1.000
 4958.00    1.66030   1.67686  115.103
 4959.00    1.75628   1.74333  108.610
 4960.00    1.85081   1.85243  104.770
 4961.00    1.89026   1.93423   -1.000
 4962.00    1.88178   1.95916   -1.000
 4963.00    1.87483   1.95131   -1.000
 4964.00    1.85732   1.92414   -1.000
 4965.00    1.80541   1.88238   -1.000
 4966.00    1.77909   1.84474   -1.000
 4967.00    1.77275   1.83000   -1.000
 4968.00    1.77554   1.83418   -1.000
 4969.00    1.78364   1.85029   -1.000
 4970.00    1.80191   1.87516   -1.000
 4971.00    1.83205   1.90584   -1.000
 4972.00    1.85559   1.93777   -1.000
 4973.00    1.87965   1.96211   -1.000
 4974.00    1.89102   1.97128   -1.000
 4975.00    1.89175   1.96800   -1.000
 4976.00    1.87795   1.95331   -1.000
 4977.00    1.84184   1.92633   -1.000
 4978.00    1.80585   1.89459   -1.000
 4979.00    1.78164   1.86733   -1.000
 4980.00    1.76575   1.83860   -1.000
 4981.00    1.71928   1.79274   -1.000
 4982.00    1.64975   1.73022   -1.000
 4983.00    1.62185   1.67970   -1.000
 4984.00    1.63945   1.67687   -1.000
 4985.00    1.68610   1.71957   -1.000
 4986.00    1.75848   1.78601   -1.000
 4987.00    1.81649   1.85189   -1.000
 4988.00    1.83291   1.89679   -1.000
 4989.00    1.81533   1.90041   -1.000
 4990.00    1.78979   1.88018   -1.000
 4991.00    1.78848   1.86614   -1.000
 4992.00    1.80402   1.86990   -1.000
 4993.00    1.81889   1.88249   -1.000
 4994.00    1.82796   1.89020   -1.000
 4995.00    1.83454   1.89768   -1.000
 4996.00    1.84574   1.91134   -1.000
 4997.00    1.83840   1.91448   -1.000
 4998.00    1.81774   1.88952   -1.000
 4999.00    1.78136   1.84409   -1.000
 5000.00    1.75271   1.79601   -1.000
 5001.00    1.75227   1.77135  113.561
 5002.00    1.74970   1.77223  112.523
 5003.00    1.76532   1.78101  111.765
 5004.00    1.76859   1.77196  113.280
 5005.00    1.72364   1.73613  116.139
 5006.00    1.68721   1.70025  116.888
 5007.00    1.71738   1.70570  114.150
 5008.00    1.78097   1.76167  110.679
 5009.00    1.82126   1.82075  109.410
 5010.00    1.81296   1.84335   -1.000
 5011.00    1.77945   1.81909   -1.000
 5012.00    1.71098   1.76369   -1.000
 5013.00    1.65747   1.70663   -1.000
 5014.00    1.64036   1.67790   -1.000
 5015.00    1.67532   1.69011  118.055
 5016.00    1.71176   1.71997  115.571
 5017.00    1.72397   1.74211  115.009
 5018.00    1.72194   1.75049   -1.000
 5019.00    1.74099   1.76263  113.758
 5020.00    1.77181   1.78219  112.810
 5021.00    1.77458   1.78842  113.258
 5022.00    1.76009   1.78348  113.522
 5023.00    1.76705   1.79085   -1.000
 5024.00    1.79449   1.82042   -1.000
 5025.00    1.81229   1.85353   -1.000
 5026.00    1.80445   1.86162   -1.000
 5027.00    1.77872   1.84400   -1.000
 5028.00    1.78573   1.83208   -1.000
 5029.00    1.82224   1.84751   -1.000
 5030.00    1.85580   1.88646   -1.000
 5031.00    1.87584   1.92973   -1.000
 5032.00    1.90619   1.96669   -1.000
 5033.00    1.93236   1.98544   -1.000
 5034.00    1.90007   1.96759   -1.000
 5035.00    1.83059   1.91487   -1.000
 5036.00    1.77947   1.85918   -1.000
 5037.00    1.76836   1.83148   -1.000
 5038.00    1.75759   1.81403   -1.000
 5039.00    1.71203   1.77019   -1.000
 5040.00    1.62947   1.69790   -1.000
 5041.00    1.58675   1.64679   -1.000
 5042.00    1.64398   1.67210   -1.000
 5043.00    1.75428   1.76705  112.214
 5044.00    1.85498   1.88402   -1.000
 5045.00    1.91497   1.97056   -1.000
 5046.00    1.97080   2.00759   -1.000
 5047.00    1.83875   1.99244   -1.000
 5048.00    1.09576   1.93465   -1.000
 5049.00    0.24541   1.86311   -1.000
 5050.00    0.19538   1.81697   -1.000
 5051.00    1.46380   1.80918   -1.000
 5052.00    1.80324   1.83081   -1.000
 5053.00    1.86056   1.87317  107.446
 5054.00    1.91383   1.92342  105.461
 5055.00    1.94108   1.96103  104.427
 5056.00    1.95236   1.98047   -1.000
 5057.00    1.94957   1.99078   -1.000
 5058.00    1.95397   2.00028   -1.000
 5059.00    1.95588   2.01571   -1.000
 5060.00    1.96683   2.03444   -1.000
 5061.00    1.97577   2.04950   -1.000
 5062.00    1.96791   2.04465   -1.000
 5063.00    1.92954   2.00230   -1.000
 5064.00    1.85104   1.93306   -1.000
 5065.00    1.79590   1.87264   -1.000
 5066.00    1.81971   1.85136   -1.000
 5067.00    1.84368   1.85906  110.365
 5068.00    1.84954   1.87359  109.971
 5069.00    1.85927   1.88897   -1.000
 5070.00    1.88481   1.90697  108.738
 5071.00    1.88150   1.91432   -1.000
 5072.00    1.85537   1.90376   -1.000
 5073.00    1.86068   1.89305   -1.000
 5074.00    1.88965   1.89921  108.276
 5075.00    1.89325   1.91076  108.110
 5076.00    1.88599   1.91592   -1.000
 5077.00    1.88593   1.90737  109.042
 5078.00    1.84103   1.87171   -1.000
 5079.00    1.75679   1.80778   -1.000
 5080.00    1.70939   1.75200   -1.000
 5081.00    1.72748   1.74626  117.224
 5082.00    1.77563   1.77489  114.710
 5083.00    1.81343   1.80846  113.142
 5084.00    1.84599   1.84133  111.020
 5085.00    1.88415   1.87849  109.109
 5086.00    1.91066   1.91334  108.298
 5087.00    1.91773   1.93693  108.133
 5088.00    1.91804   1.94809   -1.000
 5089.00    1.92668   1.95616   -1.000
 5090.00    1.93832   1.96466  106.231
 5091.00    1.94823   1.97809   -1.000
 5092.00    1.96842   2.00133   -1.000
 5093.00    1.99059   2.02605   -1.000
 5094.00    1.98967   2.03139   -1.000
 5095.00    1.97186   2.00445   -1.000
 5096.00    1.92013   1.95364   -1.000
 5097.00    1.86626   1.89571   -1.000
 5098.00    1.80870   1.84571   -1.000
 5099.00    1.78895   1.82133   -1.000
 5100.00    1.81951   1.84363   -1.000
 5101.00    1.88832   1.89698  108.330
 5102.00    1.91719   1.94478   -1.000
 5103.00    1.91738   1.95681   -1.000
 5104.00    1.89560   1.94253   -1.000
 5105.00    1.87926   1.92036   -1.000
 5106.00    1.85250   1.89466   -1.000
 5107.00    1.83071   1.86686   -1.000
 5108.00    1.83298   1.84469  113.344
 5109.00    1.82590   1.83535  112.628
 5110.00    1.83789   1.84550  111.820
 5111.00    1.87408   1.87446  110.229
 5112.00    1.90564   1.91411  108.871
 5113.00    1.92817   1.94668  107.544
 5114.00    1.94458   1.96985  106.565
 5115.00    1.96203   1.99160   -1.000
 5116.00    1.97544   2.01464   -1.000
 5117.00    1.99457   2.03450   -1.000
 5118.00    2.00943   2.04309   -1.000
 5119.00    1.99525   2.03363   -1.000
 5120.00    1.96159   2.00639   -1.000
 5121.00    1.92146   1.96588   -1.000
 5122.00    1.87622   1.91664   -1.000
 5123.00    1.82733   1.86489   -1.000
 5124.00    1.79426   1.82711   -1.000
 5125.00    1.80104   1.81776  115.010
 5126.00    1.82753   1.82978  114.433
 5127.00    1.83715   1.84143  113.753
 5128.00    1.83335   1.84460  113.897
 5129.00    1.83364   1.84890  113.803
 5130.00    1.83884   1.86533   -1.000
 5131.00    1.87084   1.89509   -1.000
 5132.00    1.91244   1.92495  109.513
 5133.00    1.92390   1.94577  108.474
 5134.00    1.94010   1.96042  107.516
 5135.00    1.96163   1.97226  107.223
 5136.00    1.94108   1.96901   -1.000
 5137.00    1.89272   1.93219   -1.000
 5138.00    1.84656   1.87912   -1.000
 5139.00    1.82006   1.85148   -1.000
 5140.00    1.83944   1.85526  112.762
 5141.00    1.85090   1.86822  113.558
 5142.00    1.83326   1.86827   -1.000
 5143.00    1.82552   1.86561   -1.000
 5144.00    1.85563   1.87890  112.867
 5145.00    1.87266   1.89069  112.440
 5146.00    1.85711   1.87748  113.467
 5147.00    1.84286   1.85976  113.769
 5148.00    1.86065   1.86009  112.402
 5149.00    1.87731   1.87389  111.750
 5150.00    1.87608   1.87822  113.095
 5151.00    1.84957   1.86282  115.159
 5152.00    1.81673   1.84494   -1.000
 5153.00    1.80889   1.83993   -1.000
 5154.00    1.83808   1.85089  113.207
 5155.00    1.88015   1.88335  110.337
 5156.00    1.93846   1.93417  107.528
 5157.00    1.99114   1.98503  105.500
 5158.00    2.01195   2.01691  104.699
 5159.00    2.01814   2.02892  104.669
 5160.00    2.01989   2.02723  105.014
 5161.00    2.00543   2.01239  105.615
 5162.00    1.97673   1.98031  106.798
 5163.00    1.94795   1.93153  108.450
 5164.00    1.90565   1.86861   -1.000
 5165.00    1.79571   1.77588  121.774
 5166.00    1.62905   1.63552  134.509
 5167.00    1.48911   1.49481  143.697
 5168.00    1.46408   1.44817  141.032
 5169.00    1.55961   1.49853   -1.000
 5170.00    1.62999   1.56267   -1.000
 5171.00    1.57599   1.54027   -1.000
 5172.00    1.44889   1.45615  148.880
 5173.00    1.44629   1.43236  143.056
 5174.00    1.60399   1.52479   -1.000
 5175.00    1.78778   1.68958   -1.000
 5176.00    1.88407   1.81707   -1.000
 5177.00    1.92338   1.87617   -1.000
 5178.00    1.93478   1.89525   -1.000
 5179.00    1.92953   1.88995   -1.000
 5180.00    1.88882   1.85183   -1.000
 5181.00    1.79454   1.75506   -1.000
 5182.00    1.62730   1.59901   -1.000
 5183.00    1.45587   1.46075  149.686
 5184.00    1.44235   1.42665  143.051
 5185.00    1.59971   1.53979   -1.000
 5186.00    1.80016   1.71453   -1.000
 5187.00    1.91070   1.84880   -1.000
 5188.00    1.93658   1.91503  111.280
 5189.00    1.95027   1.93658  110.814
 5190.00    1.94802   1.92473  111.985
 5191.00    1.89242   1.87330  115.524
 5192.00    1.82326   1.80697  118.737
 5193.00    1.81838   1.78038   -1.000
 5194.00    1.84412   1.80505   -1.000
 5195.00    1.87871   1.83934   -1.000
 5196.00    1.90588   1.87478   -1.000
 5197.00    1.93692   1.91684  110.226
 5198.00    1.97003   1.96083  108.347
 5199.00    2.00712   1.99604  107.447
 5200.00    2.02840   2.01283  107.332
 5201.00    2.02071   2.00716  108.189
 5202.00    1.99405   1.97739  110.144
 5203.00    1.94276   1.92328  112.665
 5204.00    1.88467   1.84337   -1.000
 5205.00    1.82624   1.76091   -1.000
 5206.00    1.79004   1.70562   -1.000
 5207.00    1.78752   1.68741   -1.000
 5208.00    1.77899   1.68979   -1.000
 5209.00    1.78954   1.71024   -1.000
 5210.00    1.85139   1.77011   -1.000
 5211.00    1.93544   1.86642   -1.000
 5212.00    2.01371   1.95986   -1.000
 5213.00    2.05666   2.01888   -1.000
 5214.00    2.04329   2.01992  105.853
 5215.00    1.99986   1.98095  108.359
 5216.00    1.95922   1.94298  109.698
 5217.00    1.97823   1.94737   -1.000
 5218.00    2.01878   1.99421  106.463
 5219.00    2.06972   2.05006  104.838
 5220.00    2.09108   2.09025  104.026
 5221.00    2.09635   2.10405  103.605
 5222.00    2.08562   2.08952  104.931
 5223.00    2.04273   2.04146  108.129
 5224.00    1.96037   1.96194  112.597
 5225.00    1.86105   1.86140  117.883
 5226.00    1.79071   1.77482  121.180
 5227.00    1.79547   1.75224   -1.000
 5228.00    1.88950   1.81658   -1.000
 5229.00    1.98827   1.92991   -1.000
 5230.00    2.05460   2.02157   -1.000
 5231.00    2.06731   2.03822   -1.000
 5232.00    2.03494   1.99982   -1.000
 5233.00    1.98529   1.95104   -1.000
 5234.00    1.97743   1.94192   -1.000
 5235.00    2.00794   1.98550  106.678
 5236.00    2.05995   2.05139  104.123
 5237.00    2.10695   2.11079  102.942
 5238.00    2.12879   2.13933  102.843
 5239.00    2.12862   2.14071  103.170
 5240.00    2.13318   2.13163  102.990
 5241.00    2.14509   2.12249  102.382
 5242.00    2.14088   2.11880  102.534
 5243.00    2.13452   2.12569  102.326
 5244.00    2.14568   2.13658  102.162
 5245.00    2.13204   2.12800  104.204
 5246.00    2.06671   2.08364  107.479
 5247.00    2.00769   2.02409  109.991
 5248.00    1.99918   1.98655  110.284
 5249.00    2.00303   1.97583  110.486
 5250.00    1.98751   1.97426  111.196
 5251.00    1.98745   1.98135  110.675
 5252.00    2.02079   2.00327  109.139
 5253.00    2.04324   2.02177  108.055
 5254.00    2.03607   2.02516  108.067
 5255.00    2.03595   2.02943  107.295
 5256.00    2.08376   2.06492  104.790
 5257.00    2.15306   2.13033  101.953
 5258.00    2.19668   2.18005  101.043
 5259.00    2.18877   2.18803  101.983
 5260.00    2.14308   2.14840  104.782
 5261.00    2.06026   2.06957  109.231
 5262.00    1.95942   1.96899  114.442
 5263.00    1.87164   1.87148  118.418
 5264.00    1.81036   1.79367  120.868
 5265.00    1.78810   1.75333   -1.000
 5266.00    1.80925   1.75185   -1.000
 5267.00    1.85874   1.77007   -1.000
 5268.00    1.85229   1.75852   -1.000
 5269.00    1.76691   1.70079   -1.000
 5270.00    1.75142   1.66460   -1.000
 5271.00    1.85214   1.72077   -1.000
 5272.00    1.97561   1.85412   -1.000
 5273.00    2.02770   1.95504   -1.000
 5274.00    2.02491   1.98160   -1.000
 5275.00    2.01316   1.99223  108.710
 5276.00    2.05288   2.02780  106.624
 5277.00    2.13238   2.09510   -1.000
 5278.00    2.19607   2.15778   -1.000
 5279.00    2.20204   2.17482   -1.000
 5280.00    2.15407   2.14251  104.105
 5281.00    2.09488   2.08229  106.824
 5282.00    2.05452   2.02309   -1.000
 5283.00    2.02963   1.99057   -1.000
 5284.00    2.04468   2.01360   -1.000
 5285.00    2.13363   2.09053   -1.000
 5286.00    2.19145   2.18440  100.557
 5287.00    2.22742   2.23717   99.791
 5288.00    2.24619   2.24858  100.321
 5289.00    2.24223   2.24849  100.309
 5290.00    2.25809   2.25398   99.721
 5291.00    2.26236   2.26023   99.507
 5292.00    2.25049   2.25338  100.092
 5293.00    2.23237   2.23703  101.041
 5294.00    2.21324   2.21709  102.385
 5295.00    2.17918   2.17623  105.168
 5296.00    2.09433   2.10019  109.221
 5297.00    2.00385   2.01526  112.160
 5298.00    1.98464   1.96960  111.469
 5299.00    2.03130   1.99178   -1.000
 5300.00    2.09343   2.04603   -1.000
 5301.00    2.11892   2.08793   -1.000
 5302.00    2.13688   2.12043  104.623
 5303.00    2.19249   2.16585  101.797
 5304.00    2.25121   2.22639   99.923
 5305.00    2.27745   2.27151   99.663
 5306.00    2.26610   2.27511  100.638
 5307.00    2.24862   2.25895  101.515
 5308.00    2.24668   2.25290  100.854
 5309.00    2.27645   2.26816   99.791
 5310.00    2.30224   2.28925   99.153
 5311.00    2.30568   2.29235   99.251
 5312.00    2.28930   2.27971   99.812
 5313.00    2.27014   2.26232  100.244
 5314.00    2.26150   2.24376  100.974
 5315.00    2.24911   2.22442  101.976
 5316.00    2.22017   2.20493  102.882
 5317.00    2.20422   2.19435  102.915
 5318.00    2.22412   2.20029  102.149
 5319.00    2.24193   2.20993   -1.000
 5320.00    2.23770   2.21270  102.088
 5321.00    2.22853   2.20504  102.810
 5322.00    2.20462   2.17998  104.023
 5323.00    2.16119   2.13448   -1.000
 5324.00    2.12227   2.08230   -1.000
 5325.00    2.10968   2.03504   -1.000
 5326.00    2.08252   1.97164   -1.000
 5327.00    1.98324   1.87490   -1.000
 5328.00    1.88143   1.79896   -1.000
 5329.00    1.90350   1.81094   -1.000
 5330.00    2.03881   1.92938   -1.000
 5331.00    2.15217   2.06091   -1.000
 5332.00    2.19418   2.13771   -1.000
 5333.00    2.20609   2.17022   -1.000
 5334.00    2.23089   2.19781   -1.000
 5335.00    2.26437   2.23134   -1.000
 5336.00    2.25853   2.24909  102.362
 5337.00    2.23612   2.23816  103.026
 5338.00    2.22007   2.20076  104.158
 5339.00    2.16987   2.13786   -1.000
 5340.00    2.11609   2.07183   -1.000
 5341.00    2.10775   2.04884   -1.000
 5342.00    2.15746   2.09104   -1.000
 5343.00    2.21514   2.15009   -1.000
 5344.00    2.23649   2.18270   -1.000
 5345.00    2.22456   2.18000   -1.000
 5346.00    2.21190   2.16103   -1.000
 5347.00    2.20322   2.14143   -1.000
 5348.00    2.17823   2.12326   -1.000
 5349.00    2.16495   2.11442   -1.000
 5350.00    2.20172   2.13697   -1.000
 5351.00    2.26035   2.18739   -1.000
 5352.00    2.29432   2.24006   -1.000
 5353.00    2.29874   2.27802  100.359
 5354.00    2.31665   2.30237   99.566
 5355.00    2.35003   2.32885   98.287
 5356.00    2.36524   2.35182   97.551
 5357.00    2.36864   2.35972   97.643
 5358.00    2.37126   2.35721   97.794
 5359.00    2.36151   2.34706   98.153
 5360.00    2.34228   2.32547   99.311
 5361.00    2.30861   2.29496  100.985
 5362.00    2.27304   2.26516  102.466
 5363.00    2.23227   2.23932  103.182
 5364.00    2.21012   2.21567  103.780
 5365.00    2.21232   2.19381  104.406
 5366.00    2.21821   2.17977   -1.000
 5367.00    2.22214   2.17704   -1.000
 5368.00    2.20972   2.16135   -1.000
 5369.00    2.16227   2.10630   -1.000
 5370.00    2.09151   2.02760   -1.000
 5371.00    2.05670   1.97463   -1.000
 5372.00    2.11128   2.00082   -1.000
 5373.00    2.22621   2.09875   -1.000
 5374.00    2.31326   2.20425   -1.000
 5375.00    2.34930   2.27022   -1.000
 5376.00    2.34740   2.28356   -1.000
 5377.00    2.33416   2.27821   -1.000
 5378.00    2.32764   2.28022   -1.000
 5379.00    2.32245   2.28770   -1.000
 5380.00    2.31270   2.28384   -1.000
 5381.00    2.28729   2.26162   -1.000
 5382.00    2.27259   2.23530   -1.000
 5383.00    2.26529   2.22067   -1.000
 5384.00    2.28943   2.22587   -1.000
 5385.00    2.31852   2.24741   -1.000
 5386.00    2.32348   2.27062   -1.000
 5387.00    2.31263   2.27461   -1.000
 5388.00    2.28925   2.25193   -1.000
 5389.00    2.25565   2.21398   -1.000
 5390.00    2.23224   2.17474   -1.000
 5391.00    2.21591   2.14959   -1.000
 5392.00    2.20640   2.14003   -1.000
 5393.00    2.19472   2.13899   -1.000
 5394.00    2.19239   2.13431   -1.000
 5395.00    2.18272   2.11296   -1.000
 5396.00    2.14267   2.07111   -1.000
 5397.00    2.10690   2.03592   -1.000
 5398.00    2.14583   2.04929   -1.000
 5399.00    2.21192   2.10804   -1.000
 5400.00    2.23792   2.17020   -1.000
 5401.00    2.24615   2.20131   -1.000
 5402.00    2.24376   2.19738   -1.000
 5403.00    2.20040   2.15295   -1.000
 5404.00    2.10870   2.06850   -1.000
 5405.00    2.04874   1.98073   -1.000
 5406.00    2.05774   1.95786   -1.000
 5407.00    2.12089   2.00584   -1.000
 5408.00    2.15992   2.05957   -1.000
 5409.00    2.14154   2.07961   -1.000
 5410.00    2.14622   2.07880   -1.000
 5411.00    2.19881   2.11250   -1.000
 5412.00    2.26480   2.18002   -1.000
 5413.00    2.30091   2.22888   -1.000
 5414.00    2.29456   2.24682   -1.000
 5415.00    2.28331   2.25318   -1.000
 5416.00    2.29785   2.27340  101.557
 5417.00    2.32939   2.30235   -1.000
 5418.00    2.32932   2.30963  101.348
 5419.00    2.29040   2.29315  102.369
 5420.00    2.26976   2.27230  102.974
 5421.00    2.28238   2.25962  102.540
 5422.00    2.29556   2.25372   -1.000
 5423.00    2.27937   2.23918   -1.000
 5424.00    2.25024   2.22274   -1.000
 5425.00    2.26718   2.23807   -1.000
 5426.00    2.31559   2.28059   -1.000
 5427.00    2.33300   2.30514   -1.000
 5428.00    2.27829   2.26498  104.856
 5429.00    2.19692   2.17635  108.238
 5430.00    2.16379   2.12130   -1.000
 5431.00    2.21300   2.12722   -1.000
 5432.00    2.23406   2.15497   -1.000
 5433.00    2.20638   2.14914   -1.000
 5434.00    2.17037   2.11009   -1.000
 5435.00    2.16738   2.09421   -1.000
 5436.00    2.20159   2.12712   -1.000
 5437.00    2.26364   2.19766   -1.000
 5438.00    2.33257   2.27668   -1.000
 5439.00    2.38317   2.33648   -1.000
 5440.00    2.41921   2.37080   -1.000
 5441.00    2.41030   2.38498   99.043
 5442.00    2.40919   2.38941   99.040
 5443.00    2.38435   2.37660  100.111
 5444.00    2.33415   2.32801  102.822
 5445.00    2.24377   2.23695  107.114
 5446.00    2.15457   2.13405  110.640
 5447.00    2.14271   2.08604   -1.000
 5448.00    2.20877   2.11754   -1.000
 5449.00    2.29183   2.19978   -1.000
 5450.00    2.33873   2.26906   -1.000
 5451.00    2.34877   2.28832   -1.000
 5452.00    2.33343   2.27333   -1.000
 5453.00    2.29383   2.23099   -1.000
 5454.00    2.22774   2.16287   -1.000
 5455.00    2.16813   2.09687   -1.000
 5456.00    2.18800   2.08551   -1.000
 5457.00    2.27584   2.15047   -1.000
 5458.00    2.34818   2.24948   -1.000
 5459.00    2.36828   2.30207   -1.000
 5460.00    2.34949   2.29656   -1.000
 5461.00    2.31350   2.25609   -1.000
 5462.00    2.27077   2.21027   -1.000
 5463.00    2.24491   2.18615   -1.000
 5464.00    2.26769   2.19663   -1.000
 5465.00    2.31077   2.22912   -1.000
 5466.00    2.32848   2.25896   -1.000
 5467.00    2.33423   2.27776   -1.000
 5468.00    2.34927   2.28456   -1.000
 5469.00    2.34919   2.27958   -1.000
 5470.00    2.33113   2.26544   -1.000
 5471.00    2.31543   2.24755   -1.000
 5472.00    2.30680   2.23299   -1.000
 5473.00    2.28908   2.22054   -1.000
 5474.00    2.25836   2.19467   -1.000
 5475.00    2.23254   2.14905   -1.000
 5476.00    2.17539   2.10105   -1.000
 5477.00    2.15621   2.08696   -1.000
 5478.00    2.22801   2.13489   -1.000
 5479.00    2.29504   2.19550   -1.000
 5480.00    2.28539   2.21300   -1.000
 5481.00    2.23836   2.18901   -1.000
 5482.00    2.23687   2.16982   -1.000
 5483.00    2.26100   2.20146   -1.000
 5484.00    2.31345   2.26204   -1.000
 5485.00    2.34572   2.30317   -1.000
 5486.00    2.33401   2.30122   -1.000
 5487.00    2.28340   2.26627  105.252
 5488.00    2.26839   2.23622   -1.000
 5489.00    2.28627   2.23234   -1.000
 5490.00    2.30593   2.25548   -1.000
 5491.00    2.33437   2.27844   -1.000
 5492.00    2.34778   2.28675   -1.000
 5493.00    2.33416   2.28318   -1.000
 5494.00    2.33264   2.27747   -1.000
 5495.00    2.35117   2.27415   -1.000
 5496.00    2.34116   2.26408   -1.000
 5497.00    2.32181   2.25043   -1.000
 5498.00    2.33591   2.25560   -1.000
 5499.00    2.37227   2.27577   -1.000
 5500.00    2.37561   2.27926   -1.000
 5501.00    2.33102   2.25464   -1.000
 5502.00    2.30575   2.22224   -1.000
 5503.00    2.32121   2.21500   -1.000
 5504.00    2.33293   2.22369   -1.000
 5505.00    2.31209   2.21386   -1.000
 5506.00    2.26977   2.19225   -1.000
 5507.00    2.26972   2.18929   -1.000
 5508.00    2.31901   2.22060   -1.000
 5509.00    2.34454   2.26264   -1.000
 5510.00    2.33264   2.26708   -1.000
 5511.00    2.29829   2.23105   -1.000
 5512.00    2.25389   2.18409   -1.000
 5513.00    2.23307   2.15404   -1.000
 5514.00    2.25568   2.15539   -1.000
 5515.00    2.28755   2.17846   -1.000
 5516.00    2.33369   2.21421   -1.000
 5517.00    2.36729   2.25662   -1.000
 5518.00    2.40819   2.30242   -1.000
 5519.00    2.43225   2.33897   -1.000
 5520.00    2.43766   2.35244   -1.000
 5521.00    2.42581   2.34667   -1.000
 5522.00    2.41623   2.34268   -1.000
 5523.00    2.40810   2.34392   -1.000
 5524.00    2.39837   2.34120   -1.000
 5525.00    2.36826   2.31903   -1.000
 5526.00    2.32494   2.26875   -1.000
 5527.00    2.27312   2.20447   -1.000
 5528.00    2.23799   2.15822   -1.000
 5529.00    2.26390   2.17214   -1.000
 5530.00    2.33430   2.23245   -1.000
 5531.00    2.38667   2.29195   -1.000
 5532.00    2.38396   2.31392   -1.000
 5533.00    2.36388   2.30465   -1.000
 5534.00    2.33616   2.28998   -1.000
 5535.00    2.32880   2.28074   -1.000
 5536.00    2.34345   2.28099   -1.000
 5537.00    2.36648   2.29049   -1.000
 5538.00    2.37786   2.30676   -1.000
 5539.00    2.41213   2.32763   -1.000
 5540.00    2.44502   2.35153   -1.000
 5541.00    2.45321   2.36540   -1.000
 5542.00    2.42687   2.35872   -1.000
 5543.00    2.39321   2.33800   -1.000
 5544.00    2.38825   2.32330   -1.000
 5545.00    2.39137   2.32106   -1.000
 5546.00    2.39994   2.32710   -1.000
 5547.00    2.41709   2.34149   -1.000
 5548.00    2.44870   2.36800   -1.000
 5549.00    2.47585   2.39575   -1.000
 5550.00    2.48110   2.40954   -1.000
 5551.00    2.47604   2.40598   -1.000
 5552.00    2.46132   2.38830   -1.000
 5553.00    2.43545   2.36361   -1.000
 5554.00    2.41060   2.34397   -1.000
 5555.00    2.41932   2.33784   -1.000
 5556.00    2.42915   2.34196   -1.000
 5557.00    2.42798   2.34665   -1.000
 5558.00    2.43343   2.34664   -1.000
 5559.00    2.43860   2.34835   -1.000
 5560.00    2.43417   2.34992   -1.000
 5561.00    2.42523   2.34039   -1.000
 5562.00    2.40448   2.32093   -1.000
 5563.00    2.38682   2.30589   -1.000
 5564.00    2.37692   2.29996   -1.000
 5565.00    2.37186   2.29644   -1.000
 5566.00    2.37432   2.28708   -1.000
 5567.00    2.37437   2.27728   -1.000
 5568.00    2.38049   2.27373   -1.000
 5569.00    2.37522   2.27609   -1.000
 5570.00    2.37886   2.28315   -1.000
 5571.00    2.38527   2.28773   -1.000
 5572.00    2.36697   2.28314   -1.000
 5573.00    2.36396   2.27580   -1.000
 5574.00    2.39485   2.28272   -1.000
 5575.00    2.37793   2.31079   -1.000
 5576.00    2.32775   2.33331  102.222
 5577.00    2.30492   2.33976   -1.000
 5578.00    2.33422   2.34918  102.345
 5579.00    2.42134   2.36309   -1.000
 5580.00    2.46042   2.36836   -1.000
 5581.00    2.44841   2.36285   -1.000
 5582.00    2.43511   2.34986   -1.000
 5583.00    2.43419   2.33843   -1.000
 5584.00    2.42545   2.32310   -1.000
 5585.00    2.37833   2.28069   -1.000
 5586.00    2.30788   2.21238   -1.000
 5587.00    2.24664   2.14410   -1.000
 5588.00    2.22201   2.11012   -1.000
 5589.00    2.23684   2.12342   -1.000
 5590.00    2.28056   2.16452   -1.000
 5591.00    2.32069   2.21187   -1.000
 5592.00    2.33273   2.23941   -1.000
 5593.00    2.33090   2.25013   -1.000
 5594.00    2.34029   2.26160   -1.000
 5595.00    2.37217   2.29072   -1.000
 5596.00    2.41177   2.32398   -1.000
 5597.00    2.40941   2.32572   -1.000
 5598.00    2.35958   2.29232   -1.000
 5599.00    2.32827   2.24857   -1.000
 5600.00    2.31781   2.21655   -1.000
 5601.00    2.30365   2.19756   -1.000
 5602.00    2.29680   2.19317   -1.000
 5603.00    2.32161   2.22024   -1.000
 5604.00    2.38891   2.28487   -1.000
 5605.00    2.46156   2.35751   -1.000
 5606.00    2.49938   2.40733   -1.000
 5607.00    2.51276   2.42917   -1.000
 5608.00    2.50341   2.43073   -1.000
 5609.00    2.50195   2.42616   -1.000
 5610.00    2.51334   2.42824   -1.000
 5611.00    2.51226   2.43890   -1.000
 5612.00    2.51178   2.43805   -1.000
 5613.00    2.47688   2.39919   -1.000
 5614.00    2.39145   2.31357   -1.000
 5615.00    2.30148   2.22213   -1.000
 5616.00    2.30222   2.18868   -1.000
 5617.00    2.35355   2.22234   -1.000
 5618.00    2.40921   2.28296   -1.000
 5619.00    2.42268   2.31511   -1.000
 5620.00    2.43811   2.32900   -1.000
 5621.00    2.45118   2.34766   -1.000
 5622.00    2.45673   2.35331   -1.000
 5623.00    2.42035   2.32292   -1.000
 5624.00    2.36542   2.27278   -1.000
 5625.00    2.34978   2.24044   -1.000
 5626.00    2.38636   2.25928   -1.000
 5627.00    2.43027   2.30570   -1.000
 5628.00    2.46548   2.34705   -1.000
 5629.00    2.49102   2.38110   -1.000
 5630.00    2.50949   2.40487   -1.000
 5631.00    2.51970   2.41239   -1.000
 5632.00    2.51541   2.40661   -1.000
 5633.00    2.50741   2.39315   -1.000
 5634.00    2.49270   2.37492   -1.000
 5635.00    2.46116   2.35154   -1.000
 5636.00    2.43195   2.32810   -1.000
 5637.00    2.41299   2.31412   -1.000
 5638.00    2.41373   2.31436   -1.000
 5639.00    2.42251   2.32112   -1.000
 5640.00    2.41824   2.32152   -1.000
 5641.00    2.41011   2.31030   -1.000
 5642.00    2.41068   2.30176   -1.000
 5643.00    2.42375   2.31167   -1.000
 5644.00    2.43990   2.32832   -1.000
 5645.00    2.45760   2.34169   -1.000
 5646.00    2.46721   2.35283   -1.000
 5647.00    2.46570   2.35879   -1.000
 5648.00    2.46501   2.35712   -1.000
 5649.00    2.46804   2.35213   -1.000
 5650.00    2.47113   2.35350   -1.000
 5651.00    2.48593   2.36922   -1.000
 5652.00    2.49845   2.38783   -1.000
 5653.00    2.48452   2.38579   -1.000
 5654.00    2.46250   2.36659   -1.000
 5655.00    2.43721   2.34763   -1.000
 5656.00    2.40783   2.32347   -1.000
 5657.00    2.34951   2.28274   -1.000
 5658.00    2.29075   2.23346   -1.000
 5659.00    2.30153   2.21173   -1.000
 5660.00    2.36067   2.24149   -1.000
 5661.00    2.39593   2.27878   -1.000
 5662.00    2.38157   2.28701   -1.000
 5663.00    2.39471   2.29990   -1.000
 5664.00    2.42843   2.33455   -1.000
 5665.00    2.45572   2.36446   -1.000
 5666.00    2.44952   2.36983   -1.000
 5667.00    2.42851   2.35201   -1.000
 5668.00    2.41888   2.33567   -1.000
 5669.00    2.42738   2.33605   -1.000
 5670.00    2.43465   2.34649   -1.000
 5671.00    2.45516   2.36573   -1.000
 5672.00    2.48206   2.39574   -1.000
 5673.00    2.50836   2.42485   -1.000
 5674.00    2.52910   2.43805   -1.000
 5675.00    2.52434   2.43827   -1.000
 5676.00    2.52844   2.43601   -1.000
 5677.00    2.53875   2.43921   -1.000
 5678.00    2.52625   2.43739   -1.000
 5679.00    2.51107   2.42258   -1.000
 5680.00    2.50093   2.40193   -1.000
 5681.00    2.47272   2.37797   -1.000
 5682.00    2.44378   2.34852   -1.000
 5683.00    2.42200   2.32996   -1.000
 5684.00    2.42965   2.33968   -1.000
 5685.00    2.43949   2.35591   -1.000
 5686.00    2.42847   2.35367   -1.000
 5687.00    2.40113   2.33820   -1.000
 5688.00    2.39149   2.32901   -1.000
 5689.00    2.42745   2.34208   -1.000
 5690.00    2.46963   2.37389   -1.000
 5691.00    2.50637   2.40906   -1.000
 5692.00    2.53115   2.43584   -1.000
 5693.00    2.53696   2.44656   -1.000
 5694.00    2.53115   2.44326   -1.000
 5695.00    2.52912   2.43568   -1.000
 5696.00    2.52551   2.42751   -1.000
 5697.00    2.50066   2.41185   -1.000
 5698.00    2.47265   2.38681   -1.000
 5699.00    2.44553   2.36102   -1.000
 5700.00    2.41220   2.33844   -1.000
 5701.00    2.39198   2.31929   -1.000
 5702.00    2.39276   2.31736   -1.000
 5703.00    2.40110   2.33899   -1.000
 5704.00    2.41508   2.35932   -1.000
 5705.00    2.40703   2.35814   -1.000
 5706.00    2.37659   2.32915   -1.000
 5707.00    2.34515   2.28752   -1.000
 5708.00    2.30730   2.25516   -1.000
 5709.00    2.29352   2.23418   -1.000
 5710.00    2.30914   2.22868   -1.000
 5711.00    2.32912   2.24467   -1.000
 5712.00    2.37017   2.28151   -1.000
 5713.00    2.42781   2.33436   -1.000
 5714.00    2.48343   2.38316   -1.000
 5715.00    2.51323   2.41096   -1.000
 5716.00    2.52247   2.42775   -1.000
 5717.00    2.52637   2.43934   -1.000
 5718.00    2.53293   2.44781   -1.000
 5719.00    2.55302   2.45911   -1.000
 5720.00    2.56570   2.47582   -1.000
 5721.00    2.58468   2.49346   -1.000
 5722.00    2.59279   2.50789   -1.000
 5723.00    2.59455   2.51613   -1.000
 5724.00    2.59183   2.51307   -1.000
 5725.00    2.56935   2.49152   -1.000
 5726.00    2.53827   2.45779   -1.000
 5727.00    2.51738   2.43387   -1.000
 5728.00    2.52711   2.43841   -1.000
 5729.00    2.54734   2.45718   -1.000
 5730.00    2.53880   2.46048   -1.000
 5731.00    2.52129   2.44851   -1.000
 5732.00    2.53124   2.44281   -1.000
 5733.00    2.56080   2.46268   -1.000
 5734.00    2.58314   2.49398   -1.000
 5735.00    2.58837   2.50558   -1.000
 5736.00    2.58034   2.49821   -1.000
 5737.00    2.57171   2.48524   -1.000
 5738.00    2.55750   2.47884   -1.000
 5739.00    2.54687   2.48181   -1.000
 5740.00    2.55090   2.48370   -1.000
 5741.00    2.55512   2.48070   -1.000
 5742.00    2.55298   2.47428   -1.000
 5743.00    2.54241   2.47739   -1.000
 5744.00    2.55236   2.49621   -1.000
 5745.00    2.57315   2.51488   -1.000
 5746.00    2.56684   2.51403   -1.000
 5747.00    2.54545   2.48908   -1.000
 5748.00    2.53362   2.46852   -1.000
 5749.00    2.54533   2.47593   -1.000
 5750.00    2.57196   2.49293   -1.000
 5751.00    2.55102   2.48985   -1.000
 5752.00    2.50372   2.45083   -1.000
 5753.00    2.46991   2.40500   -1.000
 5754.00    2.47339   2.39420   -1.000
 5755.00    2.51666   2.42880   -1.000
 5756.00    2.56723   2.48698   -1.000
 5757.00    2.60281   2.52694   -1.000
 5758.00    2.60525   2.53508   -1.000
 5759.00    2.58533   2.51169   -1.000
 5760.00    2.54535   2.46717   -1.000
 5761.00    2.50493   2.42041   -1.000
 5762.00    2.48351   2.39537   -1.000
 5763.00    2.50626   2.41042   -1.000
 5764.00    2.54231   2.46420   -1.000
 5765.00    2.58892   2.51980   -1.000
 5766.00    2.61383   2.54644   -1.000
 5767.00    2.61428   2.55386   -1.000
 5768.00    2.62156   2.55164   -1.000
 5769.00    2.60311   2.54388   -1.000
 5770.00    2.59027   2.53329   -1.000
 5771.00    2.57187   2.52278   -1.000
 5772.00    2.54875   2.51101   -1.000
 5773.00    2.53490   2.49933   -1.000
 5774.00    2.53539   2.49130   -1.000
 5775.00    2.53054   2.49136   -1.000
 5776.00    2.52939   2.50268   -1.000
 5777.00    2.51376   2.51139  102.140
 5778.00    2.45826   2.49996   -1.000
 5779.00    2.37550   2.46157   -1.000
 5780.00    2.29717   2.40333   -1.000
 5781.00    2.27785   2.34977   -1.000
 5782.00    2.32098   2.32274  107.504
 5783.00    2.37723   2.32489   -1.000
 5784.00    2.40997   2.32960   -1.000
 5785.00    2.43044   2.33359   -1.000
 5786.00    2.46755   2.35956   -1.000
 5787.00    2.51164   2.40468   -1.000
 5788.00    2.53713   2.44468   -1.000
 5789.00    2.54800   2.46433   -1.000
 5790.00    2.54803   2.46169   -1.000
 5791.00    2.54184   2.45525   -1.000
 5792.00    2.55113   2.46626   -1.000
 5793.00    2.56280   2.50022   -1.000
 5794.00    2.56055   2.53682   -1.000
 5795.00    2.55477   2.55300  101.125
 5796.00    2.53739   2.53940  101.763
 5797.00    2.51342   2.51003  102.414
 5798.00    2.52941   2.49897   -1.000
 5799.00    2.59355   2.52297   -1.000
 5800.00    2.64547   2.56833   -1.000
 5801.00    2.66688   2.60010   -1.000
 5802.00    2.65475   2.60097   -1.000
 5803.00    2.62200   2.57565   -1.000
 5804.00    2.59652   2.54084   -1.000
 5805.00    2.57632   2.51992   -1.000
 5806.00    2.56945   2.51842   -1.000
 5807.00    2.59023   2.52940   -1.000
 5808.00    2.60220   2.54174   -1.000
 5809.00    2.60878   2.55224   -1.000
 5810.00    2.62117   2.56272   -1.000
 5811.00    2.62955   2.56982   -1.000
 5812.00    2.63505   2.56823   -1.000
 5813.00    2.63277   2.55597   -1.000
 5814.00    2.62031   2.53177   -1.000
 5815.00    2.60135   2.50303   -1.000
 5816.00    2.59690   2.48982   -1.000
 5817.00    2.62107   2.50903   -1.000
 5818.00    2.65086   2.54808   -1.000
 5819.00    2.66917   2.58214   -1.000
 5820.00    2.68579   2.59370   -1.000
 5821.00    2.68056   2.58838   -1.000
 5822.00    2.67349   2.57776   -1.000
 5823.00    2.68085   2.57106   -1.000
 5824.00    2.68420   2.57312   -1.000
 5825.00    2.68076   2.57834   -1.000
 5826.00    2.67791   2.58402   -1.000
 5827.00    2.67713   2.58832   -1.000
 5828.00    2.67837   2.59344   -1.000
 5829.00    2.67785   2.60020   -1.000
 5830.00    2.67781   2.60284   -1.000
 5831.00    2.68530   2.60000   -1.000
 5832.00    2.68289   2.59244   -1.000
 5833.00    2.68085   2.58056   -1.000
 5834.00    2.67109   2.56813   -1.000
 5835.00    2.66433   2.56233   -1.000
 5836.00    2.67636   2.56613   -1.000
 5837.00    2.67699   2.56850   -1.000
 5838.00    2.66631   2.56826   -1.000
 5839.00    2.67433   2.57591   -1.000
 5840.00    2.68802   2.59312   -1.000
 5841.00    2.68441   2.61204   -1.000
 5842.00    2.69467   2.62137   -1.000
 5843.00    2.69706   2.61542   -1.000
 5844.00    2.67002   2.59842   -1.000
 5845.00    2.65306   2.57610   -1.000
 5846.00    2.64402   2.55324   -1.000
 5847.00    2.63598   2.53623   -1.000
 5848.00    2.63404   2.53072   -1.000
 5849.00    2.63852   2.53489   -1.000
 5850.00    2.63060   2.53493   -1.000
 5851.00    2.61444   2.51825   -1.000
 5852.00    2.58873   2.49115   -1.000
 5853.00    2.57827   2.47151   -1.000
 5854.00    2.57724   2.46833   -1.000
 5855.00    2.57393   2.46425   -1.000
 5856.00    2.55512   2.43659   -1.000
 5857.00    2.51839   2.39792   -1.000
 5858.00    2.52075   2.38283   -1.000
 5859.00    2.55700   2.41020   -1.000
 5860.00    2.59188   2.45861   -1.000
 5861.00    2.61460   2.48919   -1.000
 5862.00    2.60963   2.49876   -1.000
 5863.00    2.62041   2.49866   -1.000
 5864.00    2.62744   2.49906   -1.000
 5865.00    2.62431   2.49513   -1.000
 5866.00    2.60812   2.48080   -1.000
 5867.00    2.61077   2.47515   -1.000
 5868.00    2.63649   2.49671   -1.000
 5869.00    2.66258   2.52875   -1.000
 5870.00    2.67325   2.55029   -1.000
 5871.00    2.66800   2.55405   -1.000
 5872.00    2.66454   2.54553   -1.000
 5873.00    2.65802   2.53745   -1.000
 5874.00    2.66084   2.53618   -1.000
 5875.00    2.66106   2.53765   -1.000
 5876.00    2.65512   2.53082   -1.000
 5877.00    2.64213   2.51236   -1.000
 5878.00    2.63387   2.48791   -1.000
 5879.00    2.60949   2.46442   -1.000
 5880.00    2.58767   2.45148   -1.000
 5881.00    2.58289   2.45373   -1.000
 5882.00    2.59277   2.46271   -1.000
 5883.00    2.57564   2.45942   -1.000
 5884.00    2.55067   2.44822   -1.000
 5885.00    2.51838   2.43880   -1.000
 5886.00    2.42594   2.40677  105.227
 5887.00    2.20943   2.31269   -1.000
 5888.00    1.86605   2.13699   -1.000
 5889.00    1.55680   1.93434   -1.000
 5890.00    1.52723   1.82271   -1.000
 5891.00    1.74509   1.86074   -1.000
 5892.00    1.93818   1.99685   -1.000
 5893.00    1.94813   2.09088   -1.000
 5894.00    1.80238   2.08168   -1.000
 5895.00    1.66294   2.00180   -1.000
 5896.00    1.72384   1.95997   -1.000
 5897.00    1.96078   2.03716   -1.000
 5898.00    2.18275   2.16765  111.669
 5899.00    2.32230   2.27888   -1.000
 5900.00    2.43296   2.35571   -1.000
 5901.00    2.52496   2.40748   -1.000
 5902.00    2.56926   2.43784   -1.000
 5903.00    2.59125   2.45351   -1.000
 5904.00    2.60104   2.45846   -1.000
 5905.00    2.59661   2.45662   -1.000
 5906.00    2.59852   2.45714   -1.000
 5907.00    2.61339   2.46758   -1.000
 5908.00    2.61646   2.48178   -1.000
 5909.00    2.60550   2.49332   -1.000
 5910.00    2.60810   2.50334   -1.000
 5911.00    2.61214   2.50613   -1.000
 5912.00    2.60397   2.49243   -1.000
 5913.00    2.57178   2.45992   -1.000
 5914.00    2.54060   2.42203   -1.000
 5915.00    2.53142   2.40470   -1.000
 5916.00    2.54796   2.41521   -1.000
 5917.00    2.56713   2.44027   -1.000
 5918.00    2.57958   2.46895   -1.000
 5919.00    2.59585   2.48880   -1.000
 5920.00    2.59682   2.49682   -1.000
 5921.00    2.60270   2.49415   -1.000
 5922.00    2.59457   2.48734   -1.000
 5923.00    2.59581   2.48676   -1.000
 5924.00    2.60857   2.49957   -1.000
 5925.00    2.62107   2.51755   -1.000
 5926.00    2.63818   2.52736   -1.000
 5927.00    2.63566   2.51999   -1.000
 5928.00    2.61704   2.49637   -1.000
 5929.00    2.60201   2.47296   -1.000
 5930.00    2.60720   2.46753   -1.000
 5931.00    2.62491   2.48631   -1.000
 5932.00    2.63316   2.50504   -1.000
 5933.00    2.63201   2.50398   -1.000
 5934.00    2.61420   2.48873   -1.000
 5935.00    2.61453   2.48267   -1.000
 5936.00    2.62554   2.50141   -1.000
 5937.00    2.64128   2.52531   -1.000
 5938.00    2.64951   2.53493   -1.000
 5939.00    2.64520   2.52910   -1.000
 5940.00    2.62893   2.50885   -1.000
 5941.00    2.59802   2.48473   -1.000
 5942.00    2.58945   2.47471   -1.000
 5943.00    2.60058   2.48842   -1.000
 5944.00    2.62529   2.51344   -1.000
 5945.00    2.64526   2.53272   -1.000
 5946.00    2.63874   2.53483   -1.000
 5947.00    2.61052   2.51806   -1.000
 5948.00    2.59159   2.49419   -1.000
 5949.00    2.58708   2.48577   -1.000
 5950.00    2.59696   2.49634   -1.000
 5951.00    2.60937   2.50193   -1.000
 5952.00    2.61169   2.49551   -1.000
 5953.00    2.61025   2.48759   -1.000
 5954.00    2.61439   2.49072   -1.000
 5955.00    2.62129   2.49700   -1.000
 5956.00    2.60957   2.48871   -1.000
 5957.00    2.59491   2.47698   -1.000
 5958.00    2.61254   2.48447   -1.000
 5959.00    2.64583   2.51045   -1.000
 5960.00    2.66757   2.54109   -1.000
 5961.00    2.68704   2.56319   -1.000
 5962.00    2.69537   2.56975   -1.000
 5963.00    2.69175   2.56354   -1.000
 5964.00    2.68659   2.54902   -1.000
 5965.00    2.66151   2.53347   -1.000
 5966.00    2.64551   2.52920   -1.000
 5967.00    2.65604   2.54208   -1.000
 5968.00    2.66862   2.55948   -1.000
 5969.00    2.67987   2.57295   -1.000
 5970.00    2.69608   2.58329   -1.000
 5971.00    2.70244   2.58963   -1.000
 5972.00    2.69927   2.58862   -1.000
 5973.00    2.68829   2.58016   -1.000
 5974.00    2.66362   2.56249   -1.000
 5975.00    2.63248   2.53348   -1.000
 5976.00    2.61129   2.50452   -1.000
 5977.00    2.60246   2.49107   -1.000
 5978.00    2.61648   2.49644   -1.000
 5979.00    2.63697   2.51841   -1.000
 5980.00    2.65368   2.54270   -1.000
 5981.00    2.66511   2.55063   -1.000
 5982.00    2.64169   2.52878   -1.000
 5983.00    2.60896   2.49027   -1.000
 5984.00    2.58878   2.46260   -1.000
 5985.00    2.59364   2.46902   -1.000
 5986.00    2.61888   2.49966   -1.000
 5987.00    2.63763   2.52559   -1.000
 5988.00    2.65959   2.54319   -1.000
 5989.00    2.66838   2.55477   -1.000
 5990.00    2.65703   2.55756   -1.000
 5991.00    2.65720   2.55730   -1.000
 5992.00    2.66328   2.56768   -1.000
 5993.00    2.68710   2.59034   -1.000
 5994.00    2.69889   2.60786   -1.000
 5995.00    2.69302   2.60105   -1.000
 5996.00    2.68461   2.57197   -1.000
 5997.00    2.65987   2.54192   -1.000
 5998.00    2.64895   2.52915   -1.000
 5999.00    2.64792   2.53861   -1.000
 6000.00    2.66542   2.55214   -1.000
 6001.00    2.66600   2.55561   -1.000
 6002.00    2.64787   2.54762   -1.000
 6003.00    2.63652   2.54038   -1.000
 6004.00    2.63613   2.54575   -1.000
 6005.00    2.63172   2.54426   -1.000
 6006.00    2.61966   2.51958   -1.000
 6007.00    2.58812   2.48763   -1.000
 6008.00    2.57563   2.47739   -1.000
 6009.00    2.59662   2.50689   -1.000
 6010.00    2.62548   2.54710   -1.000
 6011.00    2.64415   2.55732   -1.000
 6012.00    2.63578   2.54032   -1.000
 6013.00    2.62733   2.52055   -1.000
 6014.00    2.63352   2.51936   -1.000
 6015.00    2.63705   2.52697   -1.000
 6016.00    2.63106   2.52436   -1.000
 6017.00    2.62703   2.52080   -1.000
 6018.00    2.63162   2.52227   -1.000
 6019.00    2.61133   2.51416   -1.000
 6020.00    2.60048   2.50094   -1.000
 6021.00    2.61439   2.50018   -1.000
 6022.00    2.62390   2.51073   -1.000
 6023.00    2.63851   2.52770   -1.000
 6024.00    2.65171   2.54739   -1.000
 6025.00    2.66218   2.56659   -1.000
 6026.00    2.67972   2.58182   -1.000
 6027.00    2.69337   2.59433   -1.000
 6028.00    2.70173   2.60929   -1.000
 6029.00    2.71923   2.62288   -1.000
 6030.00    2.72342   2.62920   -1.000
 6031.00    2.72199   2.63329   -1.000
 6032.00    2.73448   2.64027   -1.000
 6033.00    2.74077   2.65413   -1.000
 6034.00    2.73515   2.67420   -1.000
 6035.00    2.72492   2.68648   -1.000
 6036.00    2.72656   2.68277   -1.000
 6037.00    2.72832   2.66867   -1.000
 6038.00    2.72079   2.65024   -1.000
 6039.00    2.71035   2.63367   -1.000
 6040.00    2.70276   2.62475   -1.000
 6041.00    2.70737   2.62900   -1.000
 6042.00    2.71149   2.64270   -1.000
 6043.00    2.72637   2.66005   -1.000
 6044.00    2.74255   2.67402   -1.000
 6045.00    2.74153   2.68072   -1.000
 6046.00    2.74748   2.68559   -1.000
 6047.00    2.75029   2.68761   -1.000
 6048.00    2.74668   2.68814   -1.000
 6049.00    2.75635   2.68881   -1.000
 6050.00    2.76222   2.68886   -1.000
 6051.00    2.75568   2.68161   -1.000
 6052.00    2.75014   2.66497   -1.000
 6053.00    2.74276   2.64497   -1.000
 6054.00    2.73579   2.62608   -1.000
 6055.00    2.70307   2.60956   -1.000
 6056.00    2.69424   2.60147   -1.000
 6057.00    2.70725   2.60830   -1.000
 6058.00    2.72605   2.62409   -1.000
 6059.00    2.72790   2.64091   -1.000
 6060.00    2.73713   2.64912   -1.000
 6061.00    2.76778   2.64222   -1.000
 6062.00    2.59051   2.61982  105.270
 6063.00    1.35105   2.58670   -1.000
 6064.00    2.20212   2.55723   -1.000
 6065.00    2.65608   2.55054   -1.000
 6066.00    2.28648   2.57891   -1.000
 6067.00    0.79614   2.62823   -1.000
 6068.00    1.08300   2.66939   -1.000
 6069.00    2.43396   2.68881   -1.000
 6070.00    2.66637   2.69842  100.746
 6071.00    2.71447   2.70572   99.505
 6072.00    2.69361   2.70935  101.876
 6073.00    2.73980   2.70811   -1.000
 6074.00    2.77216   2.70171   -1.000
 6075.00    2.76540   2.68848   -1.000
 6076.00    2.75626   2.66735   -1.000
 6077.00    2.72704   2.64165   -1.000
 6078.00    2.69921   2.61921   -1.000
 6079.00    2.68933   2.60753   -1.000
 6080.00    2.68640   2.60053   -1.000
 6081.00    2.68260   2.59127   -1.000
 6082.00    2.66963   2.58458   -1.000
 6083.00    2.66547   2.58839   -1.000
 6084.00    2.67656   2.59663   -1.000
 6085.00    2.68239   2.60501   -1.000
 6086.00    2.68353   2.61610   -1.000
 6087.00    2.69518   2.62547   -1.000
 6088.00    2.69557   2.62429   -1.000
 6089.00    2.67800   2.60795   -1.000
 6090.00    2.67003   2.58679   -1.000
 6091.00    2.66583   2.57824   -1.000
 6092.00    2.67200   2.58626   -1.000
 6093.00    2.68386   2.60653   -1.000
 6094.00    2.70124   2.63035   -1.000
 6095.00    2.73103   2.64688   -1.000
 6096.00    2.74045   2.65137   -1.000
 6097.00    2.73444   2.65426   -1.000
 6098.00    2.72701   2.66294   -1.000
 6099.00    2.71779   2.66134   -1.000
 6100.00    2.69398   2.62969   -1.000
 6101.00    2.64500   2.56632   -1.000
 6102.00    2.59019   2.50493   -1.000
 6103.00    2.58219   2.49704   -1.000
 6104.00    2.62842   2.54048   -1.000
 6105.00    2.68220   2.59569   -1.000
 6106.00    2.71468   2.62802   -1.000
 6107.00    2.70212   2.64199   -1.000
 6108.00    2.69212   2.65471   -1.000
 6109.00    2.70376   2.66506   -1.000
 6110.00    2.71440   2.66389   -1.000
 6111.00    2.70476   2.65933   -1.000
 6112.00    2.71203   2.66554   -1.000
 6113.00    2.73043   2.68096   -1.000
 6114.00    2.73608   2.69050   -1.000
 6115.00    2.72991   2.68366   -1.000
 6116.00    2.71604   2.67116   -1.000
 6117.00    2.70087   2.66276   -1.000
 6118.00    2.69422   2.64621   -1.000
 6119.00    2.66459   2.60761   -1.000
 6120.00    2.63208   2.55326   -1.000
 6121.00    2.59589   2.50409   -1.000
 6122.00    2.58821   2.49130   -1.000
 6123.00    2.61822   2.52955   -1.000
 6124.00    2.65711   2.58636   -1.000
 6125.00    2.69196   2.61738   -1.000
 6126.00    2.68699   2.62105   -1.000
 6127.00    2.66574   2.61420   -1.000
 6128.00    2.66172   2.61655   -1.000
 6129.00    2.67432   2.63770   -1.000
 6130.00    2.69985   2.66805   -1.000
 6131.00    2.72968   2.69307   -1.000
 6132.00    2.71929   2.69842   -1.000
 6133.00    2.70211   2.67076   -1.000
 6134.00    2.65260   2.60216   -1.000
 6135.00    2.57612   2.50429   -1.000
 6136.00    2.49930   2.42282   -1.000
 6137.00    2.47246   2.41437   -1.000
 6138.00    2.52751   2.47719   -1.000
 6139.00    2.60881   2.55930   -1.000
 6140.00    2.64960   2.60136   -1.000
 6141.00    2.64708   2.60650   -1.000
 6142.00    2.65349   2.61861   -1.000
 6143.00    2.67314   2.64900   -1.000
 6144.00    2.70176   2.67830   -1.000
 6145.00    2.70728   2.68886  105.496
 6146.00    2.70463   2.68002   -1.000
 6147.00    2.68968   2.65855   -1.000
 6148.00    2.66683   2.63166   -1.000
 6149.00    2.64468   2.61053   -1.000
 6150.00    2.64147   2.60478   -1.000
 6151.00    2.64843   2.61637   -1.000
 6152.00    2.65838   2.63061   -1.000
 6153.00    2.67023   2.63117   -1.000
 6154.00    2.65644   2.61500   -1.000
 6155.00    2.63823   2.59854   -1.000
 6156.00    2.62721   2.59208   -1.000
 6157.00    2.62193   2.58575   -1.000
 6158.00    2.59879   2.56362   -1.000
 6159.00    2.56094   2.50833   -1.000
 6160.00    2.48995   2.41818   -1.000
 6161.00    2.41250   2.32400   -1.000
 6162.00    2.37443   2.27900   -1.000
 6163.00    2.39107   2.30530   -1.000
 6164.00    2.44870   2.37236   -1.000
 6165.00    2.50575   2.43977   -1.000
 6166.00    2.52881   2.47782   -1.000
 6167.00    2.52155   2.47886   -1.000
 6168.00    2.49854   2.44742   -1.000
 6169.00    2.45896   2.41657   -1.000
 6170.00    2.46440   2.42189   -1.000
 6171.00    2.49616   2.46671   -1.000
 6172.00    2.53178   2.51354  110.867
 6173.00    2.55539   2.53723  111.066
 6174.00    2.56441   2.54658  111.137
 6175.00    2.56949   2.54990  110.843
 6176.00    2.56533   2.55122  110.640
 6177.00    2.56720   2.55849  110.333
 6178.00    2.58292   2.57189  109.771
 6179.00    2.60082   2.58229  109.386
 6180.00    2.60928   2.59071  109.038
 6181.00    2.61847   2.60412  108.518
 6182.00    2.62683   2.61439  108.261
 6183.00    2.62898   2.61150  108.508
 6184.00    2.62827   2.59724   -1.000
 6185.00    2.60349   2.57413   -1.000
 6186.00    2.57611   2.54641   -1.000
 6187.00    2.55510   2.52188   -1.000
 6188.00    2.53222   2.50194   -1.000
 6189.00    2.51700   2.47376   -1.000
 6190.00    2.49422   2.43710   -1.000
 6191.00    2.47383   2.42024   -1.000
 6192.00    2.49113   2.44555   -1.000
 6193.00    2.54665   2.50028   -1.000
 6194.00    2.58868   2.55212   -1.000
 6195.00    2.60324   2.58197  109.523
 6196.00    2.61382   2.59277   -1.000
 6197.00    2.60925   2.58331   -1.000
 6198.00    2.58563   2.55615   -1.000
 6199.00    2.55086   2.53290  112.350
 6200.00    2.53009   2.53958  112.180
 6201.00    2.54270   2.56808  110.979
 6202.00    2.55674   2.59786   -1.000
 6203.00    2.55950   2.61677   -1.000
 6204.00    2.58274   2.62477   -1.000
 6205.00    2.60609   2.62982  109.161
 6206.00    2.62138   2.63451  109.174
 6207.00    2.63566   2.63765  109.628
 6208.00    2.63953   2.63476  109.580
 6209.00    2.62750   2.62266  110.108
 6210.00    2.60716   2.60253  111.154
 6211.00    2.57593   2.57209  112.003
 6212.00    2.54539   2.52830  113.123
 6213.00    2.50487   2.47958   -1.000
 6214.00    2.48265   2.44582   -1.000
 6215.00    2.48619   2.44110   -1.000
 6216.00    2.50388   2.45713   -1.000
 6217.00    2.52456   2.47350   -1.000
 6218.00    2.52740   2.47354   -1.000
 6219.00    2.51988   2.46172   -1.000
 6220.00    2.50684   2.46059   -1.000
 6221.00    2.52358   2.47513   -1.000
 6222.00    2.57365   2.49282   -1.000
 6223.00    2.45226   2.50312   -1.000
 6224.00    2.16861   2.50909   -1.000
 6225.00    2.53038   2.51672  113.201
 6226.00    2.57541   2.52214   -1.000
 6227.00    2.55874   2.51351   -1.000
 6228.00    2.53670   2.48074   -1.000
 6229.00    2.49046   2.42825   -1.000
 6230.00    2.45389   2.38327   -1.000
 6231.00    2.44359   2.37506   -1.000
 6232.00    2.46600   2.41000   -1.000
 6233.00    2.52043   2.47012   -1.000
 6234.00    2.57201   2.52867   -1.000
 6235.00    2.59098   2.56153   -1.000
 6236.00    2.58477   2.55941   -1.000
 6237.00    2.55885   2.53441   -1.000
 6238.00    2.53568   2.50116   -1.000
 6239.00    2.50264   2.47384   -1.000
 6240.00    2.48308   2.45753   -1.000
 6241.00    2.48937   2.44770   -1.000
 6242.00    2.47411   2.43499   -1.000
 6243.00    2.45864   2.42188   -1.000
 6244.00    2.45875   2.41882   -1.000
 6245.00    2.46964   2.42967   -1.000
 6246.00    2.49446   2.45635   -1.000
 6247.00    2.51556   2.49592  114.855
 6248.00    2.54715   2.53083  113.678
 6249.00    2.55978   2.54234  113.623
 6250.00    2.55363   2.52524   -1.000
 6251.00    2.51150   2.48506   -1.000
 6252.00    2.45731   2.44341  118.315
 6253.00    2.43474   2.42058  119.096
 6254.00    2.43945   2.41567   -1.000
 6255.00    2.43970   2.41130   -1.000
 6256.00    2.42477   2.39458   -1.000
 6257.00    2.40481   2.37798   -1.000
 6258.00    2.40494   2.38371  120.952
 6259.00    2.44626   2.41658   -1.000
 6260.00    2.48849   2.46538   -1.000
 6261.00    2.52672   2.51321  115.706
 6262.00    2.55177   2.54875  113.896
 6263.00    2.56722   2.56202  113.395
 6264.00    2.56175   2.55560  114.366
 6265.00    2.54605   2.54518  115.108
 6266.00    2.53623   2.54705  114.530
 6267.00    2.54081   2.55544  113.687
 6268.00    2.53508   2.55545  114.154
 6269.00    2.52123   2.55141  114.733
 6270.00    2.51905   2.55422   -1.000
 6271.00    2.54223   2.56488  114.143
 6272.00    2.55396   2.57403  113.881
 6273.00    2.56153   2.57174  114.209
 6274.00    2.54031   2.55527  115.064
 6275.00    2.51326   2.53064  115.995
 6276.00    2.47621   2.50551  117.907
 6277.00    2.42245   2.48316   -1.000
 6278.00    2.36815   2.46564   -1.000
 6279.00    2.32377   2.45233   -1.000
 6280.00    2.30014   2.44962   -1.000
 6281.00    2.27482   2.46699   -1.000
 6282.00    2.26131   2.50284   -1.000
 6283.00    2.26500   2.54210   -1.000
 6284.00    2.30630   2.57217   -1.000
 6285.00    2.36194   2.59057   -1.000
 6286.00    2.43470   2.60657   -1.000
 6287.00    2.49545   2.62294   -1.000
 6288.00    2.53733   2.63029   -1.000
 6289.00    2.55575   2.62014   -1.000
 6290.00    2.54007   2.59658   -1.000
 6291.00    2.53945   2.57354  115.439
 6292.00    2.53421   2.56197  115.637
 6293.00    2.53505   2.55930  115.761
 6294.00    2.54277   2.55595  115.971
 6295.00    2.52714   2.53893  116.904
 6296.00    2.50424   2.51303  117.664
 6297.00    2.49003   2.49844  117.818
 6298.00    2.47730   2.50301  117.630
 6299.00    2.47802   2.51241   -1.000
 6300.00    2.47421   2.50830   -1.000
 6301.00    2.45950   2.49703   -1.000
 6302.00    2.46429   2.49918   -1.000
 6303.00    2.49530   2.51767  117.923
 6304.00    2.52440   2.54308  116.026
 6305.00    2.53917   2.56755  114.622
 6306.00    2.55024   2.59319   -1.000
 6307.00    2.56976   2.61917   -1.000
 6308.00    2.57573   2.63437   -1.000
 6309.00    2.57163   2.63027   -1.000
 6310.00    2.55899   2.61399   -1.000
 6311.00    2.54166   2.59679   -1.000
 6312.00    2.53274   2.58489   -1.000
 6313.00    2.52630   2.57306   -1.000
 6314.00    2.50599   2.55483   -1.000
 6315.00    2.47948   2.53710   -1.000
 6316.00    2.46855   2.52332   -1.000
 6317.00    2.46499   2.50929   -1.000
 6318.00    2.46419   2.50664   -1.000
 6319.00    2.48141   2.53041   -1.000
 6320.00    2.52280   2.56551   -1.000
 6321.00    2.55191   2.59179   -1.000
 6322.00    2.56482   2.61021   -1.000
 6323.00    2.57518   2.62883   -1.000
 6324.00    2.58607   2.64748   -1.000
 6325.00    2.59367   2.65790   -1.000
 6326.00    2.59829   2.65952   -1.000
 6327.00    2.60068   2.66052   -1.000
 6328.00    2.60349   2.66254   -1.000
 6329.00    2.61465   2.66208   -1.000
 6330.00    2.61161   2.66297   -1.000
 6331.00    2.60900   2.67236   -1.000
 6332.00    2.60789   2.67912   -1.000
 6333.00    2.59564   2.66393   -1.000
 6334.00    2.56826   2.62314   -1.000
 6335.00    2.53497   2.57841   -1.000
 6336.00    2.52504   2.56157   -1.000
 6337.00    2.53403   2.57574   -1.000
 6338.00    2.56193   2.60503   -1.000
 6339.00    2.58944   2.63656   -1.000
 6340.00    2.60583   2.65855   -1.000
 6341.00    2.60690   2.65874   -1.000
 6342.00    2.59054   2.63838   -1.000
 6343.00    2.57603   2.61238  110.670
 6344.00    2.56430   2.60350   -1.000
 6345.00    2.56879   2.62078   -1.000
 6346.00    2.58195   2.64957   -1.000
 6347.00    2.59375   2.67675   -1.000
 6348.00    2.60805   2.69701   -1.000
 6349.00    2.61475   2.71034   -1.000
 6350.00    2.62327   2.71635   -1.000
 6351.00    2.62145   2.71331   -1.000
 6352.00    2.61266   2.69822   -1.000
 6353.00    2.58294   2.67164   -1.000
 6354.00    2.55411   2.64541   -1.000
 6355.00    2.54981   2.63103   -1.000
 6356.00    2.54501   2.62082   -1.000
 6357.00    2.52452   2.60095   -1.000
 6358.00    2.50420   2.57229   -1.000
 6359.00    2.49366   2.54742   -1.000
 6360.00    2.49114   2.53165   -1.000
 6361.00    2.48485   2.52233   -1.000
 6362.00    2.47586   2.52348   -1.000
 6363.00    2.48319   2.54108   -1.000
 6364.00    2.50300   2.57207   -1.000
 6365.00    2.52603   2.60671   -1.000
 6366.00    2.53923   2.64006   -1.000
 6367.00    2.55858   2.66995   -1.000
 6368.00    2.57981   2.68998   -1.000
 6369.00    2.59081   2.69695   -1.000
 6370.00    2.58250   2.69993   -1.000
 6371.00    2.57624   2.70843   -1.000
 6372.00    2.59316   2.72287   -1.000
 6373.00    2.59830   2.73327   -1.000
 6374.00    2.59275   2.73497   -1.000
 6375.00    2.58081   2.73298   -1.000
 6376.00    2.56221   2.72706   -1.000
 6377.00    2.54926   2.71290   -1.000
 6378.00    2.54249   2.69538   -1.000
 6379.00    2.53692   2.68292   -1.000
 6380.00    2.52633   2.67954   -1.000
 6381.00    2.52656   2.68462   -1.000
 6382.00    2.53388   2.69262   -1.000
 6383.00    2.54414   2.69794   -1.000
 6384.00    2.53937   2.70111   -1.000
 6385.00    2.53266   2.70811   -1.000
 6386.00    2.52762   2.71831   -1.000
 6387.00    2.52410   2.72495   -1.000
 6388.00    2.52504   2.72752   -1.000
 6389.00    2.51730   2.72644   -1.000
 6390.00    2.48764   2.71275   -1.000
 6391.00    2.45462   2.67862   -1.000
 6392.00    2.42546   2.63441   -1.000
 6393.00    2.39051   2.60989   -1.000
 6394.00    2.38377   2.62786   -1.000
 6395.00    2.41035   2.67163   -1.000
 6396.00    2.42356   2.70710   -1.000
 6397.00    2.41499   2.70676   -1.000
 6398.00    2.37913   2.66765   -1.000
 6399.00    2.33807   2.61868   -1.000
 6400.00    2.30767   2.60581   -1.000
 6401.00    2.32370   2.64570   -1.000
 6402.00    2.35409   2.70303   -1.000
 6403.00    2.38734   2.74387   -1.000
 6404.00    2.38379   2.75597   -1.000
 6405.00    2.36218   2.74054   -1.000
 6406.00    2.32951   2.71001   -1.000
 6407.00    2.29294   2.68666   -1.000
 6408.00    2.26626   2.68314   -1.000
 6409.00    2.25435   2.68979   -1.000
 6410.00    2.24374   2.68838   -1.000
 6411.00    2.21973   2.67652   -1.000
 6412.00    2.20091   2.67098   -1.000
 6413.00    2.18889   2.68005   -1.000
 6414.00    2.18764   2.69661   -1.000
 6415.00    2.18617   2.71389   -1.000
 6416.00    2.17803   2.72289   -1.000
 6417.00    2.16613   2.71500   -1.000
 6418.00    2.13854   2.68862   -1.000
 6419.00    2.10172   2.65286   -1.000
 6420.00    2.05584   2.63041   -1.000
 6421.00    2.03871   2.64291   -1.000
 6422.00    2.04858   2.68272   -1.000
 6423.00    2.05880   2.72272   -1.000
 6424.00    2.05594   2.74869   -1.000
 6425.00    2.05065   2.76303   -1.000
 6426.00    2.03708   2.77252   -1.000
 6427.00    2.02086   2.77023   -1.000
 6428.00    1.99232   2.74268   -1.000
