###################################################################
## OUTPUT of StarlightChains_v04.for    [Cid@UFSC - 01/Apr/2007] ##
###################################################################

## Some input info
NGC6569_a_1.cxt                          [arq_obs]
Base.BC03.S                              [arq_base]
NGC6569_a_1.msk                          [arq_masks]
StCv04.C11.config                        [arq_config]
  150                                    [N_base]
    0                                    [N_YAV_components = # of components with extra extinction!]
    0                                    [i_FitPowerLaw (1/0 = Yes/No)]
-9.99                                    [alpha_PowerLaw]
CCM                                      [red_law_option]
 1.458241                                [q_norm = A(l_norm)/A(V)]

## (Re)Sampling Parameters
 3359.00                                 [l_ini (A)]
 6428.00                                 [l_fin (A)]
    1.00                                 [dl    (A)]     (OBS: dl_cushion =    50.00 A)

## Normalization info
 4020.00                                 [l_norm (A) - for base]
 4010.00                                 [llow_norm (A) - window for f_obs]
 4060.00                                 [lupp_norm (A) - window for f_obs]
3.450800E-15                             [fobs_norm (in input units)]

## S/N
 4730.00                                 [llow_SN (A) - window for S/N]
 4780.00                                 [lupp_SN (A) - window for S/N]
  49.160                                 [S/N in S/N window]
  30.918                                 [S/N in norm. window]
 207.538                                 [S/N_err in S/N window]
 130.528                                 [S/N_err in norm. window]
  1.0000                                 [fscale_chi2]

## etc...
  2147483598                             [idum_orig]
  3069                                   [NOl_eff]
   794                                   [Nl_eff]
  2275    NSIGMA                         [Ntot_cliped & clip_method]
  2568440                                [Nglobal_steps]
   7                                     [N_chains]
  32                                     [NEX0s_base = N_base in EX0s-fits]
 0   0   1       50   2.0   3.259E+02    [Clip-Bug, RC-Crash & Burn-In warning-flags, n_censored_weights, wei_nsig_threshold & wei_limit]
   100     99.693     99.669      0.024  [idt_all, wdt_TotTime, wdt_UsrTime & wdt_SysTime (sec)]

## Synthesis Results - Best model ##

 2.84591E+00                             [chi2/Nl_eff]
     1.41025                             [adev (%)]

    98.33637                             [sum-of-x (%)]
 2.76016E-14                             [Flux_tot (units of input spectrum!)]
 1.44706E-09                             [Mini_tot (???)]
 7.19328E-10                             [Mcor_tot (???)]

 -11.83                                  [v0_min  (km/s)]
  19.11                                  [vd_min  (km/s)]
 1.5606                                  [AV_min  (mag)]
 0.0000                                  [YAV_min (mag)]

# j     x_j(%)      Mini_j(%)     Mcor_j(%)     age_j(yr)     Z_j      (L/M)_j    YAV?  Mstars   component_j        a/Fe...       SSP_chi2r SSP_adev(%)   SSP_AV   SSP_x(%)
  1      0.8799     2.0916E-03    4.2076E-03    1.000000E+06  0.00010  8.160E-03    0   1.0000   age020_m22            0.0000     4.7095E+03    37.8781   4.0000   109.1059
  2      0.9319     3.7983E-04    7.6410E-04    3.160000E+06  0.00010  4.759E-02    0   1.0000   age045_m22            0.0000     1.4069E+02     5.2463   3.3112    97.4886
  3      7.2168     7.2455E-03    1.3966E-02    5.010000E+06  0.00010  1.932E-02    0   0.9582   age055_m22            0.0000     2.8870E+02    10.5436   3.4930    86.1663
  4      0.1402     2.7262E-04    5.0986E-04    6.610000E+06  0.00010  9.973E-03    0   0.9297   age061_m22            0.0000     4.4222E+03    36.9209   4.0000   111.9743
  5      0.2405     6.0654E-04    1.1018E-03    8.710000E+06  0.00010  7.690E-03    0   0.9030   age067_m22            0.0000     4.3633E+03    36.5800   4.0000   112.4613
  6      0.5325     1.6203E-03    2.9016E-03    1.000000E+07  0.00010  6.375E-03    0   0.8902   age070_m22            0.0000     4.4609E+03    36.7386   4.0000   112.9635
  7      0.0000     0.0000E+00    0.0000E+00    1.445000E+07  0.00010  4.874E-03    0   0.8589   age078_m22            0.0000     3.2665E+03    31.5087   4.0000   113.4908
  8      0.0000     0.0000E+00    0.0000E+00    2.512000E+07  0.00010  4.103E-03    0   0.8174   age090_m22            0.0000     1.3830E+03    20.1171   4.0000   111.8543
  9      0.0000     0.0000E+00    0.0000E+00    4.000000E+07  0.00010  3.654E-03    0   0.7830   age104_m22            0.0000     6.9622E+02    12.2081   4.0000   108.8491
 10      0.0000     0.0000E+00    0.0000E+00    5.500000E+07  0.00010  3.093E-03    0   0.7597   age110_m22            0.0000     5.7127E+02    10.4627   4.0000   107.4599
 11      0.0000     0.0000E+00    0.0000E+00    1.015200E+08  0.00010  2.431E-03    0   0.7138   age116_m22            0.0000     3.7292E+02     9.1802   4.0000    98.5130
 12      0.0000     0.0000E+00    0.0000E+00    1.609000E+08  0.00010  1.319E-03    0   0.6775   age120_m22            0.0000     3.4829E+02     8.8948   3.5314   100.3037
 13      0.0000     0.0000E+00    0.0000E+00    2.861200E+08  0.00010  1.075E-03    0   0.6412   age125_m22            0.0000     6.9999E+02    13.0414   3.6825   101.6955
 14      0.0000     0.0000E+00    0.0000E+00    5.088000E+08  0.00010  7.183E-04    0   0.6083   age130_m22            0.0000     8.1090E+02    14.2092   3.4760   102.7755
 15      0.0000     0.0000E+00    0.0000E+00    9.047900E+08  0.00010  4.524E-04    0   0.5785   age135_m22            0.0000     8.1915E+02    14.4092   3.2764   103.9134
 16      0.0000     0.0000E+00    0.0000E+00    1.278050E+09  0.00010  3.018E-04    0   0.5588   age138_m22            0.0000     4.7794E+02    10.9856   2.6844   104.0404
 17      0.0000     0.0000E+00    0.0000E+00    1.434000E+09  0.00010  2.691E-04    0   0.5532   age139_m22            0.0000     4.1495E+02    10.2562   2.5173   103.8621
 18      0.0000     0.0000E+00    0.0000E+00    2.500000E+09  0.00010  1.582E-04    0   0.5296   age150_m22            0.0000     3.7411E+02     9.8009   2.3857   104.9128
 19      0.0000     0.0000E+00    0.0000E+00    4.250000E+09  0.00010  1.007E-04    0   0.5110   age158_m22            0.0000     2.5537E+02     8.0706   2.2121   103.8147
 20      0.0000     0.0000E+00    0.0000E+00    6.250000E+09  0.00010  6.869E-05    0   0.4985   age166_m22            0.0000     1.5951E+02     6.2143   2.1308   101.6399
 21      0.0000     0.0000E+00    0.0000E+00    7.500000E+09  0.00010  5.873E-05    0   0.4931   age171_m22            0.0000     1.4665E+02     5.9262   2.1102   101.2591
 22      0.0442     1.9124E-02    1.8674E-02    1.000000E+10  0.00010  4.481E-05    0   0.4854   age181_m22            0.0000     1.4326E+02     5.8618   2.0724   100.9078
 23      0.0436     2.4230E-02    2.3353E-02    1.300000E+10  0.00010  3.489E-05    0   0.4791   age193_m22            0.0000     1.3434E+02     5.6594   2.0162   100.3910
 24      0.4769     3.0478E-01    2.9221E-01    1.500000E+10  0.00010  3.035E-05    0   0.4766   age201_m22            0.0000     1.2767E+02     5.5114   1.9755   100.2673
 25      0.0000     0.0000E+00    0.0000E+00    1.800000E+10  0.00010  2.510E-05    0   0.4735   age213_m22            0.0000     1.1216E+02     5.1314   1.9033    99.7907
 26      1.0110     2.3186E-03    4.6643E-03    1.000000E+06  0.00040  8.458E-03    0   1.0000   age020_m32            0.0000     4.8124E+03    38.1656   4.0000   110.1681
 27      0.0000     0.0000E+00    0.0000E+00    3.160000E+06  0.00040  3.973E-02    0   1.0000   age045_m32            0.0000     1.0035E+03    17.5192   4.0000   108.7910
 28      0.2243     2.2481E-04    4.3107E-04    5.010000E+06  0.00040  1.935E-02    0   0.9532   age055_m32            0.0000     1.7657E+03    24.5979   4.0000   107.1909
 29      0.0000     0.0000E+00    0.0000E+00    6.610000E+06  0.00040  1.204E-02    0   0.9243   age061_m32            0.0000     3.4608E+03    32.9361   4.0000   112.0940
 30      0.2743     5.6411E-04    1.0214E-03    8.710000E+06  0.00040  9.433E-03    0   0.9001   age067_m32            0.0000     3.2836E+03    31.9489   4.0000   112.7862
 31      0.2078     5.0051E-04    8.9379E-04    1.000000E+07  0.00040  8.053E-03    0   0.8877   age070_m32            0.0000     3.0689E+03    30.9350   4.0000   112.6396
 32      0.0000     0.0000E+00    0.0000E+00    1.445000E+07  0.00040  7.027E-03    0   0.8578   age078_m32            0.0000     8.3523E+02    16.8367   4.0000   105.4838
 33      0.0000     0.0000E+00    0.0000E+00    2.512000E+07  0.00040  4.707E-03    0   0.8166   age090_m32            0.0000     3.1356E+02     9.4571   4.0000   100.8657
 34      0.0000     0.0000E+00    0.0000E+00    4.000000E+07  0.00040  3.714E-03    0   0.7827   age104_m32            0.0000     2.4198E+02     7.1251   4.0000    98.0607
 35      0.0000     0.0000E+00    0.0000E+00    5.500000E+07  0.00040  2.982E-03    0   0.7593   age110_m32            0.0000     2.6968E+02     7.4971   4.0000    97.3461
 36      0.0000     0.0000E+00    0.0000E+00    1.015200E+08  0.00040  2.188E-03    0   0.7143   age116_m32            0.0000     4.6890E+02    10.4693   3.8123    99.7738
 37      0.0000     0.0000E+00    0.0000E+00    1.609000E+08  0.00040  1.690E-03    0   0.6856   age120_m32            0.0000     6.0114E+02    12.0324   3.6298   101.7656
 38      0.0000     0.0000E+00    0.0000E+00    2.861200E+08  0.00040  1.152E-03    0   0.6509   age125_m32            0.0000     7.2476E+02    13.3846   3.4450   102.5636
 39      0.0000     0.0000E+00    0.0000E+00    5.088000E+08  0.00040  7.331E-04    0   0.6182   age130_m32            0.0000     7.7557E+02    13.9405   3.2942   103.0169
 40      0.0000     0.0000E+00    0.0000E+00    9.047900E+08  0.00040  3.960E-04    0   0.5890   age135_m32            0.0000     5.0194E+02    11.3435   2.7959   102.9481
 41      0.0000     0.0000E+00    0.0000E+00    1.278050E+09  0.00040  2.854E-04    0   0.5687   age138_m32            0.0000     4.2154E+02    10.5131   2.4702   105.3845
 42      0.0000     0.0000E+00    0.0000E+00    1.434000E+09  0.00040  2.531E-04    0   0.5632   age139_m32            0.0000     4.1010E+02    10.3694   2.4044   105.4970
 43      0.0000     0.0000E+00    0.0000E+00    2.500000E+09  0.00040  1.488E-04    0   0.5386   age150_m32            0.0000     3.2109E+02     9.1894   2.1368   104.2214
 44      0.0000     0.0000E+00    0.0000E+00    4.250000E+09  0.00040  9.082E-05    0   0.5199   age158_m32            0.0000     1.5979E+02     6.3222   2.0015   101.9147
 45     20.8564     6.3589E+00    6.4932E+00    6.250000E+09  0.00040  6.362E-05    0   0.5076   age166_m32            0.0000     7.4249E+01     4.0367   1.9262    99.2532
 46     21.9247     8.0407E+00    8.1314E+00    7.500000E+09  0.00040  5.289E-05    0   0.5027   age171_m32            0.0000     6.2252E+01     3.6273   1.8869    98.1115
 47     16.7253     8.1677E+00    8.1300E+00    1.000000E+10  0.00040  3.972E-05    0   0.4948   age181_m32            0.0000     5.5891E+01     3.3839   1.8248    96.8590
 48      4.8467     2.8636E+00    2.8054E+00    1.300000E+10  0.00040  3.283E-05    0   0.4870   age193_m32            0.0000     8.3019E+01     4.4137   1.7969    99.2666
 49      0.0000     0.0000E+00    0.0000E+00    1.500000E+10  0.00040  2.925E-05    0   0.4854   age201_m32            0.0000     1.0678E+02     5.1629   1.7873   100.6697
 50      0.0000     0.0000E+00    0.0000E+00    1.800000E+10  0.00040  2.469E-05    0   0.4819   age213_m32            0.0000     1.1555E+02     5.4480   1.7508   101.1383
 51      1.1125     1.9370E-03    3.8967E-03    1.000000E+06  0.00400  1.114E-02    0   1.0000   age020_m42            0.0000     4.3043E+03    36.2767   4.0000   109.6110
 52      0.0000     0.0000E+00    0.0000E+00    3.160000E+06  0.00400  4.073E-02    0   0.9999   age045_m42            0.0000     3.7455E+02     9.9316   4.0000   102.9189
 53      0.0000     0.0000E+00    0.0000E+00    5.010000E+06  0.00400  2.534E-02    0   0.9488   age055_m42            0.0000     1.3069E+03    20.7072   4.0000   107.2717
 54      0.0000     0.0000E+00    0.0000E+00    6.610000E+06  0.00400  2.583E-02    0   0.9220   age061_m42            0.0000     2.1285E+02     6.8885   4.0000    97.7711
 55      0.0000     0.0000E+00    0.0000E+00    8.710000E+06  0.00400  1.706E-02    0   0.8983   age067_m42            0.0000     1.5651E+02     6.8816   3.8747    93.3378
 56      0.0000     0.0000E+00    0.0000E+00    1.000000E+07  0.00400  1.271E-02    0   0.8862   age070_m42            0.0000     1.9019E+02     8.3211   3.8292    92.3414
 57      0.0000     0.0000E+00    0.0000E+00    1.445000E+07  0.00400  7.666E-03    0   0.8571   age078_m42            0.0000     3.4933E+02    12.0759   4.0000    96.2007
 58      0.0000     0.0000E+00    0.0000E+00    2.512000E+07  0.00400  5.070E-03    0   0.8174   age090_m42            0.0000     1.6496E+02     7.7218   3.7058    93.9107
 59      0.0000     0.0000E+00    0.0000E+00    4.000000E+07  0.00400  3.505E-03    0   0.7851   age104_m42            0.0000     1.2044E+02     6.2318   3.4139    96.6910
 60      0.0000     0.0000E+00    0.0000E+00    5.500000E+07  0.00400  3.059E-03    0   0.7629   age110_m42            0.0000     2.0660E+02     6.5397   3.5410    99.9351
 61      0.0000     0.0000E+00    0.0000E+00    1.015200E+08  0.00400  2.268E-03    0   0.7207   age116_m42            0.0000     5.2200E+02    11.2129   3.5418   102.8490
 62      0.0000     0.0000E+00    0.0000E+00    1.609000E+08  0.00400  1.720E-03    0   0.6930   age120_m42            0.0000     5.7351E+02    11.8471   3.4258   103.7496
 63      0.0000     0.0000E+00    0.0000E+00    2.861200E+08  0.00400  1.079E-03    0   0.6613   age125_m42            0.0000     5.4887E+02    11.7977   3.0634   104.4133
 64      0.0000     0.0000E+00    0.0000E+00    5.088000E+08  0.00400  6.261E-04    0   0.6313   age130_m42            0.0000     6.1958E+02    12.6973   2.8744   107.0118
 65      0.0000     0.0000E+00    0.0000E+00    9.047900E+08  0.00400  3.535E-04    0   0.6024   age135_m42            0.0000     4.1738E+02    10.6808   2.4479   108.2402
 66      0.0000     0.0000E+00    0.0000E+00    1.278050E+09  0.00400  2.677E-04    0   0.5837   age138_m42            0.0000     1.9197E+02     7.9150   1.7407   107.3745
 67      0.0000     0.0000E+00    0.0000E+00    1.434000E+09  0.00400  1.910E-04    0   0.5716   age139_m42            0.0000     2.4006E+02     8.5215   1.9216   107.6327
 68      0.0000     0.0000E+00    0.0000E+00    2.500000E+09  0.00400  9.818E-05    0   0.5463   age150_m42            0.0000     1.1626E+02     6.2390   1.6334   103.5734
 69      0.0272     9.6232E-03    1.0200E-02    4.250000E+09  0.00400  5.491E-05    0   0.5269   age158_m42            0.0000     7.8668E+01     5.1811   1.4900   101.3523
 70      0.0615     3.0930E-02    3.2050E-02    6.250000E+09  0.00400  3.857E-05    0   0.5151   age166_m42            0.0000     9.0490E+01     5.4186   1.3671   100.1103
 71      0.0000     0.0000E+00    0.0000E+00    7.500000E+09  0.00400  3.243E-05    0   0.5110   age171_m42            0.0000     1.0468E+02     5.6963   1.2918    99.6243
 72      0.4291     3.4339E-01    3.4733E-01    1.000000E+10  0.00400  2.424E-05    0   0.5028   age181_m42            0.0000     1.2751E+02     6.1227   1.2159    99.0482
 73      0.9943     1.0242E+00    1.0152E+00    1.300000E+10  0.00400  1.883E-05    0   0.4927   age193_m42            0.0000     1.4527E+02     6.4375   1.1757    98.8200
 74      1.5456     1.7792E+00    1.7606E+00    1.500000E+10  0.00400  1.685E-05    0   0.4919   age201_m42            0.0000     1.3696E+02     6.2591   1.1780    98.8951
 75      0.3423     4.5732E-01    4.4840E-01    1.800000E+10  0.00400  1.452E-05    0   0.4874   age213_m42            0.0000     1.2293E+02     5.9501   1.1885    99.2678
 76      0.0000     0.0000E+00    0.0000E+00    1.000000E+06  0.00800  1.286E-02    0   1.0000   age020_m52            0.0000     4.1550E+03    35.4263   4.0000   111.6275
 77      0.0000     0.0000E+00    0.0000E+00    3.160000E+06  0.00800  3.147E-02    0   0.9966   age045_m52            0.0000     3.5608E+03    33.2170   4.0000   111.9932
 78      0.0000     0.0000E+00    0.0000E+00    5.010000E+06  0.00800  2.664E-02    0   0.9443   age055_m52            0.0000     1.7889E+03    24.1374   4.0000   109.0685
 79      0.0000     0.0000E+00    0.0000E+00    6.610000E+06  0.00800  2.151E-02    0   0.9177   age061_m52            0.0000     1.2734E+02     7.0503   3.4368    94.0225
 80      0.0000     0.0000E+00    0.0000E+00    8.710000E+06  0.00800  1.628E-02    0   0.8948   age067_m52            0.0000     1.5860E+02     7.4274   3.8182    93.9697
 81      0.0000     0.0000E+00    0.0000E+00    1.000000E+07  0.00800  1.215E-02    0   0.8827   age070_m52            0.0000     2.4320E+02     9.7075   4.0000    97.1238
 82      0.0000     0.0000E+00    0.0000E+00    1.445000E+07  0.00800  8.739E-03    0   0.8552   age078_m52            0.0000     2.9371E+02    10.0645   4.0000   100.1423
 83      0.0000     0.0000E+00    0.0000E+00    2.512000E+07  0.00800  5.676E-03    0   0.8162   age090_m52            0.0000     2.0640E+02     7.0188   3.8360    97.5495
 84      0.0000     0.0000E+00    0.0000E+00    4.000000E+07  0.00800  3.939E-03    0   0.7841   age104_m52            0.0000     2.3728E+02     7.0536   3.7095    99.3702
 85      0.0000     0.0000E+00    0.0000E+00    5.500000E+07  0.00800  3.155E-03    0   0.7627   age110_m52            0.0000     2.9594E+02     7.8566   3.7095   100.4377
 86      0.0000     0.0000E+00    0.0000E+00    1.015200E+08  0.00800  2.206E-03    0   0.7226   age116_m52            0.0000     4.3687E+02    10.0847   3.5802   103.0294
 87      0.0000     0.0000E+00    0.0000E+00    1.609000E+08  0.00800  1.596E-03    0   0.6963   age120_m52            0.0000     4.9142E+02    10.9023   3.3829   104.2545
 88      0.0000     0.0000E+00    0.0000E+00    2.861200E+08  0.00800  1.002E-03    0   0.6665   age125_m52            0.0000     6.4576E+02    12.9924   3.1332   106.1118
 89      0.0000     0.0000E+00    0.0000E+00    5.088000E+08  0.00800  5.759E-04    0   0.6377   age130_m52            0.0000     6.8110E+02    13.6787   2.8087   109.6891
 90      0.0000     0.0000E+00    0.0000E+00    9.047900E+08  0.00800  2.972E-04    0   0.6086   age135_m52            0.0000     4.5562E+02    11.3722   2.2601   109.3353
 91      0.0000     0.0000E+00    0.0000E+00    1.278050E+09  0.00800  2.242E-04    0   0.5907   age138_m52            0.0000     2.1675E+02     8.3517   1.5891   110.1989
 92      0.0000     0.0000E+00    0.0000E+00    1.434000E+09  0.00800  1.645E-04    0   0.5787   age139_m52            0.0000     1.9238E+02     7.7730   1.7334   109.4749
 93      0.0000     0.0000E+00    0.0000E+00    2.500000E+09  0.00800  7.723E-05    0   0.5519   age150_m52            0.0000     1.5082E+02     6.9912   1.3867   106.1291
 94      0.0032     1.5039E-03    1.6095E-03    4.250000E+09  0.00800  4.151E-05    0   0.5320   age158_m52            0.0000     1.4419E+02     6.8108   1.3118   103.6731
 95      0.0000     0.0000E+00    0.0000E+00    6.250000E+09  0.00800  3.010E-05    0   0.5197   age166_m52            0.0000     1.8452E+02     7.4225   1.1246   102.3868
 96      0.0000     0.0000E+00    0.0000E+00    7.500000E+09  0.00800  2.467E-05    0   0.5139   age171_m52            0.0000     1.9913E+02     7.6546   1.0857   101.9963
 97      0.0000     0.0000E+00    0.0000E+00    1.000000E+10  0.00800  1.862E-05    0   0.5054   age181_m52            0.0000     2.5507E+02     8.4785   0.9677   101.5478
 98      0.0000     0.0000E+00    0.0000E+00    1.300000E+10  0.00800  1.433E-05    0   0.4988   age193_m52            0.0000     3.1788E+02     9.2656   0.8810   102.1696
 99      0.0000     0.0000E+00    0.0000E+00    1.500000E+10  0.00800  1.244E-05    0   0.4936   age201_m52            0.0000     3.4215E+02     9.5314   0.8545   102.6469
100      0.0000     0.0000E+00    0.0000E+00    1.800000E+10  0.00800  1.070E-05    0   0.4888   age213_m52            0.0000     3.6048E+02     9.7427   0.8226   102.5130
101      0.0000     0.0000E+00    0.0000E+00    1.000000E+06  0.02000  1.989E-02    0   1.0000   age020_m62            0.0000     4.0295E+03    35.1232   4.0000   109.8829
102      0.0000     0.0000E+00    0.0000E+00    3.160000E+06  0.02000  3.772E-02    0   0.9858   age045_m62            0.0000     3.1247E+03    31.6010   4.0000   110.1868
103      0.0000     0.0000E+00    0.0000E+00    5.010000E+06  0.02000  3.227E-02    0   0.9342   age055_m62            0.0000     8.7237E+02    16.7169   4.0000   106.8657
104      0.0000     0.0000E+00    0.0000E+00    6.610000E+06  0.02000  2.387E-02    0   0.9090   age061_m62            0.0000     3.2631E+02    11.4890   4.0000    97.6183
105      0.1589     2.7973E-04    4.9863E-04    8.710000E+06  0.02000  1.102E-02    0   0.8861   age067_m62            0.0000     6.8672E+02    16.1639   3.7332    87.3625
106      0.0000     0.0000E+00    0.0000E+00    1.000000E+07  0.02000  1.011E-02    0   0.8751   age070_m62            0.0000     4.2883E+02    13.1483   3.7871    89.5944
107      0.0000     0.0000E+00    0.0000E+00    1.445000E+07  0.02000  7.331E-03    0   0.8472   age078_m62            0.0000     2.6219E+02    10.5496   3.8397    90.6214
108      0.0000     0.0000E+00    0.0000E+00    2.512000E+07  0.02000  4.206E-03    0   0.8099   age090_m62            0.0000     2.7027E+02    10.8164   3.7465    90.1818
109      0.0000     0.0000E+00    0.0000E+00    4.000000E+07  0.02000  3.373E-03    0   0.7799   age104_m62            0.0000     1.5541E+02     6.3209   3.6364    97.7749
110      0.0000     0.0000E+00    0.0000E+00    5.500000E+07  0.02000  2.747E-03    0   0.7595   age110_m62            0.0000     2.2456E+02     6.8415   3.6135   100.4725
111      0.0000     0.0000E+00    0.0000E+00    1.015200E+08  0.02000  1.878E-03    0   0.7221   age116_m62            0.0000     4.3812E+02    10.0930   3.5396   103.9506
112      0.0000     0.0000E+00    0.0000E+00    1.609000E+08  0.02000  1.378E-03    0   0.6978   age120_m62            0.0000     5.8611E+02    11.9189   3.4213   105.6608
113      0.0000     0.0000E+00    0.0000E+00    2.861200E+08  0.02000  8.869E-04    0   0.6700   age125_m62            0.0000     8.0057E+02    14.2266   3.0930   109.0214
114      0.0000     0.0000E+00    0.0000E+00    5.088000E+08  0.02000  4.834E-04    0   0.6430   age130_m62            0.0000     7.3116E+02    14.0392   2.6785   111.1817
115      0.0000     0.0000E+00    0.0000E+00    9.047900E+08  0.02000  2.312E-04    0   0.6152   age135_m62            0.0000     4.0246E+02    10.7575   2.0391   112.1506
116      0.0000     0.0000E+00    0.0000E+00    1.278050E+09  0.02000  1.387E-04    0   0.5927   age138_m62            0.0000     2.0399E+02     7.8907   1.6261   109.0252
117      0.0000     0.0000E+00    0.0000E+00    1.434000E+09  0.02000  1.168E-04    0   0.5865   age139_m62            0.0000     1.8278E+02     7.5012   1.5978   107.4764
118      0.0000     0.0000E+00    0.0000E+00    2.500000E+09  0.02000  5.505E-05    0   0.5610   age150_m62            0.0000     1.8449E+02     7.5256   1.2246   105.0720
119      0.0000     0.0000E+00    0.0000E+00    4.250000E+09  0.02000  3.070E-05    0   0.5407   age158_m62            0.0000     2.9846E+02     9.1753   0.9491   105.1401
120      0.0000     0.0000E+00    0.0000E+00    6.250000E+09  0.02000  2.104E-05    0   0.5277   age166_m62            0.0000     3.7388E+02    10.0163   0.8249   105.6317
121      0.6089     6.6729E-01    7.0112E-01    7.500000E+09  0.02000  1.770E-05    0   0.5223   age171_m62            0.0000     4.1725E+02    10.5147   0.7430   106.0198
122      0.0000     0.0000E+00    0.0000E+00    1.000000E+10  0.02000  1.297E-05    0   0.5121   age181_m62            0.0000     5.1167E+02    11.4972   0.5937   106.6290
123      0.0000     0.0000E+00    0.0000E+00    1.300000E+10  0.02000  9.691E-06    0   0.5047   age193_m62            0.0000     5.7293E+02    12.0883   0.5152   107.0823
124      1.2711     2.9493E+00    2.9660E+00    1.500000E+10  0.02000  8.360E-06    0   0.4999   age201_m62            0.0000     6.3231E+02    12.6716   0.4508   107.3460
125      0.6229     1.7483E+00    1.7396E+00    1.800000E+10  0.02000  6.911E-06    0   0.4946   age213_m62            0.0000     7.1166E+02    13.4339   0.3864   107.5746
126      0.0000     0.0000E+00    0.0000E+00    1.000000E+06  0.05000  2.651E-02    0   0.9998   age020_m72            0.0000     4.0564E+03    34.8973   4.0000   111.1838
127      0.0000     0.0000E+00    0.0000E+00    3.160000E+06  0.05000  4.817E-02    0   0.9577   age045_m72            0.0000     2.3388E+03    26.9612   4.0000   111.3860
128      0.0000     0.0000E+00    0.0000E+00    5.010000E+06  0.05000  3.101E-02    0   0.9147   age055_m72            0.0000     8.7025E+02    17.8106   4.0000   104.8506
129      0.0000     0.0000E+00    0.0000E+00    6.610000E+06  0.05000  1.472E-02    0   0.8877   age061_m72            0.0000     5.0413E+02    13.5446   3.9712    88.3679
130      0.0000     0.0000E+00    0.0000E+00    8.710000E+06  0.05000  1.050E-02    0   0.8638   age067_m72            0.0000     7.6908E+02    17.2766   4.0000   101.1117
131      0.0000     0.0000E+00    0.0000E+00    1.000000E+07  0.05000  8.954E-03    0   0.8524   age070_m72            0.0000     1.7316E+03    23.7035   4.0000   109.7533
132      0.0000     0.0000E+00    0.0000E+00    1.445000E+07  0.05000  6.392E-03    0   0.8262   age078_m72            0.0000     1.5226E+03    22.1310   4.0000   109.8247
133      0.0000     0.0000E+00    0.0000E+00    2.512000E+07  0.05000  4.207E-03    0   0.7902   age090_m72            0.0000     4.3874E+02    12.0263   4.0000   104.1150
134      0.0000     0.0000E+00    0.0000E+00    4.000000E+07  0.05000  3.198E-03    0   0.7618   age104_m72            0.0000     2.9651E+02     7.9454   3.9054    99.7755
135      0.0000     0.0000E+00    0.0000E+00    5.500000E+07  0.05000  2.593E-03    0   0.7432   age110_m72            0.0000     3.6859E+02     9.1003   3.8196   101.5854
136      0.0000     0.0000E+00    0.0000E+00    1.015200E+08  0.05000  1.716E-03    0   0.7092   age116_m72            0.0000     5.0880E+02    10.8648   3.6488   103.5490
137      0.0000     0.0000E+00    0.0000E+00    1.609000E+08  0.05000  1.218E-03    0   0.6876   age120_m72            0.0000     6.6278E+02    12.6177   3.4153   105.5908
138      0.0000     0.0000E+00    0.0000E+00    2.861200E+08  0.05000  7.047E-04    0   0.6618   age125_m72            0.0000     7.7833E+02    14.2485   2.9092   109.1701
139      0.0000     0.0000E+00    0.0000E+00    5.088000E+08  0.05000  3.590E-04    0   0.6356   age130_m72            0.0000     6.3959E+02    13.2858   2.3378   112.3393
140      0.0000     0.0000E+00    0.0000E+00    9.047900E+08  0.05000  1.484E-04    0   0.6088   age135_m72            0.0000     2.8456E+02     9.6149   1.5645   107.7610
141      0.0000     0.0000E+00    0.0000E+00    1.278050E+09  0.05000  9.435E-05    0   0.5924   age138_m72            0.0000     2.9773E+02     9.7714   1.1698   105.1736
142      0.0000     0.0000E+00    0.0000E+00    1.434000E+09  0.05000  7.827E-05    0   0.5847   age139_m72            0.0000     2.8113E+02     9.4599   1.1752   104.6662
143      0.0000     0.0000E+00    0.0000E+00    2.500000E+09  0.05000  3.759E-05    0   0.5583   age150_m72            0.0000     3.7395E+02    10.2589   0.8491   104.3694
144      0.0000     0.0000E+00    0.0000E+00    4.250000E+09  0.05000  1.842E-05    0   0.5374   age158_m72            0.0000     5.0799E+02    11.2691   0.5326   104.4998
145      0.0000     0.0000E+00    0.0000E+00    6.250000E+09  0.05000  1.207E-05    0   0.5242   age166_m72            0.0000     6.5800E+02    12.5645   0.3096   104.3683
146      0.0000     0.0000E+00    0.0000E+00    7.500000E+09  0.05000  9.993E-06    0   0.5183   age171_m72            0.0000     6.7970E+02    12.7159   0.2669   104.4086
147      0.0000     0.0000E+00    0.0000E+00    1.000000E+10  0.05000  7.291E-06    0   0.5081   age181_m72            0.0000     7.8455E+02    13.6614   0.1568   104.4099
148      5.7901     2.1127E+01    2.1327E+01    1.300000E+10  0.05000  5.316E-06    0   0.5018   age193_m72            0.0000     9.6699E+02    15.2218  -0.0068   104.3293
149      1.7660     7.6175E+00    7.6191E+00    1.500000E+10  0.05000  4.497E-06    0   0.4972   age201_m72            0.0000     1.0592E+03    16.0310  -0.0697   104.5844
150      7.0256     3.6447E+01    3.6103E+01    1.800000E+10  0.05000  3.739E-06    0   0.4924   age213_m72            0.0000     1.1890E+03    17.1457  -0.1584   104.5824


## Synthesis Results - Average & Chains ##

# j      x_j: min, <> & last-chain-values for 1 ...  7 chains
  1      0.8799      0.8546      0.9507      0.8378      0.8207      0.8681      0.9174      0.7581      0.9049
  2      0.9319      0.5562      0.5574      0.8175      0.5223      0.5198      0.5442      0.4630      0.5830
  3      7.2168      6.4255      6.5363      6.3923      6.3486      6.5063      6.2631      6.4196      6.4205
  4      0.1402      0.2143      0.1475      0.0443      0.2278      0.2112      0.2338      0.3471      0.2765
  5      0.2405      0.1990      0.1993      0.2788      0.2357      0.2465      0.0882      0.2925      0.1938
  6      0.5325      0.4789      0.4239      0.4144      0.5115      0.5054      0.4765      0.4641      0.4649
  7      0.0000      0.0108      0.0647      0.0000      0.0000      0.0127      0.0000      0.0000      0.0000
  8      0.0000      0.0385      0.0725      0.0000      0.0000      0.0692      0.0000      0.1164      0.0125
  9      0.0000      0.0113      0.0000      0.0000      0.0777      0.0000      0.0000      0.0000      0.0000
 10      0.0000      0.0139      0.1327      0.0000      0.0000      0.0000      0.0000      0.0000      0.0000
 11      0.0000      0.0140      0.0000      0.0000      0.0000      0.0000      0.0000      0.0000      0.1471
 12      0.0000      0.0086      0.0000      0.0000      0.0000      0.0000      0.0000      0.0000      0.0000
 13      0.0000      0.0092      0.0000      0.0000      0.0404      0.0000      0.0000      0.0000      0.0000
 14      0.0000      0.0047      0.0000      0.0000      0.0000      0.0000      0.0000      0.0000      0.0000
 15      0.0000      0.0064      0.0000      0.0000      0.0000      0.0000      0.0000      0.0000      0.0000
 16      0.0000      0.0152      0.0000      0.0000      0.0000      0.0637      0.0000      0.0065      0.0000
 17      0.0000      0.0202      0.0000      0.0000      0.0000      0.0000      0.0000      0.0000      0.0000
 18      0.0000      0.0232      0.0000      0.0000      0.0000      0.0254      0.0000      0.0000      0.0000
 19      0.0000      0.0524      0.0000      0.0102      0.0254      0.0008      0.0000      0.0000      0.0000
 20      0.0000      0.0787      0.0813      0.1165      0.0000      0.0000      0.0335      0.0084      0.0000
 21      0.0000      0.0430      0.0000      0.1281      0.0681      0.1062      0.0145      0.0000      0.1303
 22      0.0442      0.0819      0.0000      0.0388      0.1832      0.0679      0.0413      0.2272      0.1300
 23      0.0436      0.2601      0.3723      0.2420      0.2880      0.2743      0.0414      0.1835      0.1198
 24      0.4769      0.1607      0.1509      0.0943      0.3275      0.3651      0.1812      0.3213      0.5849
 25      0.0000      0.2975      0.6138      0.4212      0.1112      0.1811      0.0000      0.3627      0.3225
 26      1.0110      1.0995      1.0931      1.1280      1.1685      1.0612      1.1218      1.2931      1.0153
 27      0.0000      0.0150      0.0000      0.0000      0.0455      0.0413      0.0000      0.0000      0.0000
 28      0.2243      0.2197      0.2588      0.2189      0.1659      0.2032      0.2639      0.1349      0.2781
 29      0.0000      0.1188      0.1567      0.0871      0.0000      0.1098      0.2248      0.1130      0.1702
 30      0.2743      0.3404      0.2918      0.3832      0.2774      0.5141      0.3163      0.3245      0.3153
 31      0.2078      0.4169      0.4865      0.4043      0.3535      0.4319      0.4099      0.5156      0.2681
 32      0.0000      0.0110      0.0000      0.0200      0.0000      0.0000      0.0000      0.0000      0.0319
 33      0.0000      0.0128      0.0000      0.0000      0.0000      0.0000      0.0000      0.0000      0.0000
 34      0.0000      0.0141      0.0000      0.0000      0.0534      0.0180      0.1503      0.0000      0.0000
 35      0.0000      0.0185      0.0000      0.0000      0.0187      0.0000      0.0202      0.0000      0.1342
 36      0.0000      0.0040      0.0000      0.0000      0.0000      0.0000      0.0000      0.0000      0.0000
 37      0.0000      0.0045      0.0000      0.0118      0.0000      0.0000      0.0000      0.0310      0.0000
 38      0.0000      0.0056      0.0000      0.0286      0.0000      0.0000      0.0000      0.0000      0.0000
 39      0.0000      0.0058      0.0000      0.0000      0.0000      0.0000      0.0000      0.0000      0.0000
 40      0.0000      0.0128      0.0000      0.0000      0.0000      0.0000      0.0000      0.0000      0.0000
 41      0.0000      0.0160      0.0000      0.0835      0.0000      0.0000      0.0000      0.0000      0.0000
 42      0.0000      0.0139      0.0000      0.0000      0.0379      0.0000      0.0000      0.0000      0.0000
 43      0.0000      0.0454      0.0000      0.0000      0.0000      0.3073      0.0158      0.0000      0.0401
 44      0.0000      0.1066      0.0000      0.0963      0.1176      0.0458      0.2214      0.0000      0.0144
 45     20.8564     19.8118     19.8472     19.9193     19.8676     19.5353     20.2082     19.8112     19.7082
 46     21.9247     18.9072     18.7581     19.4213     19.5351     19.4761     19.0389     19.0260     19.5402
 47     16.7253     15.8466     16.0418     16.2316     17.8326     15.3670     15.7301     16.0292     15.7852
 48      4.8467      6.3033      6.3812      5.7660      5.8704      7.0438      6.6363      6.4584      6.2570
 49      0.0000      0.5933      0.8561      0.5174      0.0000      0.4927      0.1607      0.9742      0.5931
 50      0.0000      0.4649      0.4740      0.3297      0.0077      0.2410      1.3057      0.5943      0.0354
 51      1.1125      0.9577      0.9657      0.9607      0.9280      1.0589      0.7841      0.9684      0.9569
 52      0.0000      0.0212      0.0000      0.2240      0.0000      0.0000      0.0000      0.0000      0.0546
 53      0.0000      0.0239      0.1031      0.0000      0.0838      0.0000      0.0165      0.0115      0.0000
 54      0.0000      0.0191      0.0000      0.0000      0.0743      0.0000      0.0000      0.0000      0.0000
 55      0.0000      0.0160      0.0870      0.0000      0.0000      0.0000      0.0000      0.0000      0.0000
 56      0.0000      0.0161      0.0000      0.0000      0.0125      0.0000      0.0000      0.0748      0.0263
 57      0.0000      0.0154      0.0000      0.0000      0.0000      0.0000      0.0000      0.0281      0.0000
 58      0.0000      0.0160      0.0202      0.0000      0.0000      0.0000      0.0000      0.0000      0.0000
 59      0.0000      0.0094      0.0047      0.0000      0.0000      0.0000      0.0000      0.0000      0.0000
 60      0.0000      0.0080      0.0000      0.0000      0.0029      0.0000      0.0000      0.0000      0.0000
 61      0.0000      0.0070      0.0000      0.0207      0.0000      0.0000      0.0000      0.0000      0.0000
 62      0.0000      0.0092      0.0000      0.0000      0.0000      0.0000      0.0000      0.0000      0.0000
 63      0.0000      0.0067      0.0297      0.0000      0.0000      0.0000      0.0000      0.0003      0.0000
 64      0.0000      0.0095      0.0000      0.0000      0.0000      0.0000      0.0000      0.0000      0.0000
 65      0.0000      0.0128      0.0000      0.0000      0.0000      0.0000      0.0000      0.0358      0.0000
 66      0.0000      0.0322      0.0000      0.0391      0.0000      0.0000      0.0000      0.0000      0.0092
 67      0.0000      0.0226      0.0000      0.0000      0.0553      0.0000      0.0913      0.0666      0.0000
 68      0.0000      0.0762      0.0006      0.0000      0.0965      0.0876      0.1290      0.0000      0.1527
 69      0.0272      0.1199      0.0000      0.0046      0.2158      0.0000      0.0248      0.0904      0.1739
 70      0.0615      0.1690      0.0000      0.1742      0.2755      0.0000      0.0000      0.3083      0.0177
 71      0.0000      0.1231      0.0920      0.0000      0.0000      0.0854      0.1448      0.2147      0.2230
 72      0.4291      0.2000      0.3884      0.1536      0.2074      0.0000      0.2861      0.0810      0.3384
 73      0.9943      1.0145      0.9356      1.0570      0.7853      1.1252      1.1248      0.8868      1.1547
 74      1.5456      1.5154      1.6296      1.4815      1.5755      1.4618      1.5224      1.4626      1.4527
 75      0.3423      0.9683      1.1380      1.0700      0.5862      0.9515      0.8616      0.7475      0.6668
 76      0.0000      0.0369      0.0980      0.0000      0.0079      0.0000      0.0000      0.0310      0.0101
 77      0.0000      0.0248      0.0000      0.1290      0.0000      0.0000      0.0174      0.0000      0.0000
 78      0.0000      0.0222      0.0000      0.0000      0.0553      0.0000      0.0991      0.0000      0.0000
 79      0.0000      0.0130      0.0000      0.0000      0.0460      0.0027      0.0000      0.0000      0.0000
 80      0.0000      0.0254      0.0151      0.1239      0.0307      0.0000      0.0000      0.0014      0.0000
 81      0.0000      0.0161      0.0000      0.0000      0.0000      0.0000      0.0000      0.0368      0.0000
 82      0.0000      0.0164      0.0696      0.0000      0.0014      0.0000      0.1044      0.0000      0.0000
 83      0.0000      0.0068      0.0000      0.0025      0.0000      0.0000      0.0000      0.0000      0.0000
 84      0.0000      0.0056      0.0000      0.0000      0.0000      0.0000      0.0056      0.0024      0.0000
 85      0.0000      0.0051      0.0000      0.0000      0.0000      0.0000      0.0000      0.0000      0.0000
 86      0.0000      0.0069      0.0000      0.0000      0.0000      0.0000      0.0009      0.0000      0.0000
 87      0.0000      0.0063      0.0151      0.0000      0.0000      0.0000      0.0000      0.0000      0.0209
 88      0.0000      0.0085      0.0000      0.0000      0.0000      0.0000      0.0000      0.0000      0.0000
 89      0.0000      0.0063      0.0000      0.0000      0.0000      0.0000      0.0000      0.0000      0.0000
 90      0.0000      0.0098      0.0632      0.0000      0.0022      0.0000      0.0000      0.0000      0.0000
 91      0.0000      0.0158      0.0000      0.0000      0.0000      0.0000      0.0000      0.0000      0.0000
 92      0.0000      0.0235      0.0000      0.0000      0.0000      0.0000      0.0000      0.0187      0.0064
 93      0.0000      0.0738      0.0567      0.0000      0.1055      0.0000      0.1463      0.2338      0.0000
 94      0.0032      0.1427      0.0000      0.1153      0.1844      0.0000      0.0000      0.0000      0.4914
 95      0.0000      0.1181      0.0000      0.5313      0.0000      0.0632      0.0000      0.0704      0.0575
 96      0.0000      0.1184      0.0932      0.0000      0.0000      0.0498      0.1179      0.0000      0.1092
 97      0.0000      0.0834      0.1093      0.0000      0.0818      0.0223      0.0000      0.1283      0.0000
 98      0.0000      0.0410      0.0000      0.0000      0.0000      0.0000      0.0000      0.1064      0.0000
 99      0.0000      0.0615      0.0644      0.0517      0.0175      0.0000      0.2879      0.0371      0.0587
100      0.0000      0.0367      0.0000      0.0597      0.0000      0.1095      0.0000      0.0000      0.0096
101      0.0000      0.0226      0.0000      0.0000      0.0000      0.0000      0.0461      0.0000      0.0000
102      0.0000      0.0345      0.0000      0.0000      0.0519      0.0000      0.1995      0.0000      0.0000
103      0.0000      0.0101      0.0000      0.0036      0.0000      0.0000      0.0303      0.0000      0.0000
104      0.0000      0.0380      0.0864      0.0597      0.0000      0.0000      0.1315      0.0195      0.1176
105      0.1589      0.3493      0.2147      0.3703      0.4705      0.3271      0.2789      0.3730      0.3907
106      0.0000      0.0317      0.0324      0.0000      0.0000      0.0000      0.0036      0.0000      0.0000
107      0.0000      0.0189      0.0000      0.1086      0.0000      0.0000      0.0000      0.0000      0.0000
108      0.0000      0.0151      0.0000      0.0000      0.0000      0.0000      0.0622      0.0248      0.0920
109      0.0000      0.0128      0.0000      0.0000      0.0000      0.0000      0.0000      0.0000      0.0470
110      0.0000      0.0057      0.0000      0.0000      0.0000      0.0000      0.0000      0.0000      0.0000
111      0.0000      0.0037      0.0000      0.0000      0.0000      0.0000      0.0000      0.0080      0.0079
112      0.0000      0.0068      0.0000      0.0000      0.0000      0.0154      0.0000      0.0000      0.0000
113      0.0000      0.0048      0.0000      0.0000      0.0000      0.0000      0.0006      0.0000      0.0000
114      0.0000      0.0058      0.0000      0.0274      0.0000      0.0000      0.0000      0.0000      0.0060
115      0.0000      0.0145      0.0000      0.0000      0.0000      0.0000      0.0000      0.0000      0.0000
116      0.0000      0.0240      0.0000      0.0000      0.0000      0.0000      0.0000      0.0085      0.0002
117      0.0000      0.0432      0.0000      0.0240      0.0000      0.2840      0.0063      0.0000      0.0522
118      0.0000      0.0777      0.0000      0.0000      0.0000      0.0911      0.0000      0.1008      0.0000
119      0.0000      0.0482      0.0000      0.0011      0.0000      0.0000      0.0000      0.1145      0.0315
120      0.0000      0.0876      0.0388      0.2254      0.0000      0.1972      0.1139      0.0000      0.2162
121      0.6089      0.0431      0.0806      0.0366      0.1935      0.0000      0.0000      0.0000      0.1159
122      0.0000      0.0423      0.0000      0.0000      0.0000      0.0000      0.0051      0.1988      0.0000
123      0.0000      0.1122      0.2566      0.0764      0.0000      0.1805      0.0619      0.1069      0.0633
124      1.2711      1.1967      1.1636      1.2565      1.3452      1.1001      1.1444      1.1016      1.1997
125      0.6229      0.7829      0.7925      0.7270      0.8657      0.8021      0.7956      0.7618      0.8447
126      0.0000      0.0214      0.0000      0.0000      0.0000      0.0000      0.0004      0.0000      0.0000
127      0.0000      0.0214      0.0000      0.1229      0.0000      0.0664      0.0290      0.0000      0.0704
128      0.0000      0.0273      0.0000      0.0053      0.1492      0.0000      0.0055      0.0000      0.0000
129      0.0000      0.0521      0.0000      0.0000      0.0513      0.0493      0.0769      0.0000      0.0331
130      0.0000      0.0383      0.0000      0.0668      0.0000      0.1703      0.1133      0.0000      0.0326
131      0.0000      0.0101      0.0000      0.0000      0.0000      0.0000      0.0271      0.0000      0.0969
132      0.0000      0.0135      0.0000      0.0000      0.0632      0.0000      0.0000      0.0140      0.0000
133      0.0000      0.0115      0.0094      0.0163      0.0000      0.0410      0.0000      0.0000      0.0464
134      0.0000      0.0083      0.0020      0.0000      0.0000      0.0000      0.0000      0.0000      0.0000
135      0.0000      0.0041      0.0000      0.0000      0.0000      0.0000      0.0000      0.0069      0.0000
136      0.0000      0.0066      0.0000      0.0000      0.0000      0.0000      0.0000      0.0000      0.0000
137      0.0000      0.0043      0.0000      0.0000      0.0000      0.0000      0.0000      0.0000      0.0030
138      0.0000      0.0030      0.0152      0.0000      0.0000      0.0000      0.0000      0.0000      0.0000
139      0.0000      0.0079      0.0000      0.0189      0.0000      0.0000      0.0000      0.0000      0.0238
140      0.0000      0.0272      0.0000      0.0000      0.0000      0.0376      0.0000      0.0000      0.0000
141      0.0000      0.0585      0.0000      0.0126      0.0969      0.0124      0.0243      0.0000      0.0000
142      0.0000      0.0965      0.3626      0.2077      0.1254      0.3562      0.4384      0.3329      0.0658
143      0.0000      0.0990      0.2136      0.0905      0.0834      0.3233      0.1417      0.1256      0.1359
144      0.0000      0.0791      0.1294      0.1183      0.0456      0.1318      0.0185      0.0000      0.1894
145      0.0000      0.0511      0.0675      0.0944      0.0000      0.0257      0.1862      0.1057      0.0000
146      0.0000      0.0222      0.0042      0.0099      0.0000      0.0073      0.0000      0.0206      0.0000
147      0.0000      0.0269      0.0000      0.0000      0.0000      0.1565      0.0680      0.0000      0.0000
148      5.7901      5.5489      5.5887      5.5520      5.7692      5.5603      5.4368      5.4109      5.5187
149      1.7660      1.7086      1.6572      1.6494      1.6830      1.7281      1.8193      1.6719      1.7215
150      7.0256      6.8805      6.7821      6.8908      6.8462      6.8131      6.7694      6.9714      6.8696

# j      m_j: min, <> & last-chain-values for 1 ...  7 chains
  1  4.2076E-03  4.0892E-03  4.5461E-03  4.0203E-03  3.9341E-03  4.1598E-03  4.4006E-03  3.6380E-03  4.3429E-03
  2  7.6410E-04  4.5635E-04  4.5700E-04  6.7255E-04  4.2930E-04  4.2704E-04  4.4760E-04  3.8101E-04  4.7976E-04
  3  1.3966E-02  1.2442E-02  1.2649E-02  1.2413E-02  1.2316E-02  1.2617E-02  1.2158E-02  1.2468E-02  1.2471E-02
  4  5.0986E-04  7.8013E-04  5.3650E-04  1.6152E-04  8.3078E-04  7.6967E-04  8.5316E-04  1.2673E-03  1.0096E-03
  5  1.1018E-03  9.1213E-04  9.1338E-04  1.2817E-03  1.0827E-03  1.1317E-03  4.0552E-04  1.3450E-03  8.9101E-04
  6  2.9016E-03  2.6108E-03  2.3099E-03  2.2657E-03  2.7939E-03  2.7596E-03  2.6045E-03  2.5379E-03  2.5423E-03
  7  0.0000E+00  7.4250E-05  4.4513E-04  0.0000E+00  0.0000E+00  8.7582E-05  0.0000E+00  0.0000E+00  0.0000E+00
  8  0.0000E+00  2.9962E-04  5.6321E-04  0.0000E+00  0.0000E+00  5.3899E-04  0.0000E+00  9.0842E-04  9.7253E-05
  9  0.0000E+00  9.4172E-05  0.0000E+00  0.0000E+00  6.5159E-04  0.0000E+00  0.0000E+00  0.0000E+00  0.0000E+00
 10  0.0000E+00  1.3365E-04  1.2722E-03  0.0000E+00  0.0000E+00  0.0000E+00  0.0000E+00  0.0000E+00  0.0000E+00
 11  0.0000E+00  1.6005E-04  0.0000E+00  0.0000E+00  0.0000E+00  0.0000E+00  0.0000E+00  0.0000E+00  1.6912E-03
 12  0.0000E+00  1.7197E-04  0.0000E+00  0.0000E+00  0.0000E+00  0.0000E+00  0.0000E+00  0.0000E+00  0.0000E+00
 13  0.0000E+00  2.1501E-04  0.0000E+00  0.0000E+00  9.4245E-04  0.0000E+00  0.0000E+00  0.0000E+00  0.0000E+00
 14  0.0000E+00  1.5475E-04  0.0000E+00  0.0000E+00  0.0000E+00  0.0000E+00  0.0000E+00  0.0000E+00  0.0000E+00
 15  0.0000E+00  3.2187E-04  0.0000E+00  0.0000E+00  0.0000E+00  0.0000E+00  0.0000E+00  0.0000E+00  0.0000E+00
 16  0.0000E+00  1.1012E-03  0.0000E+00  0.0000E+00  0.0000E+00  4.6120E-03  0.0000E+00  4.7411E-04  0.0000E+00
 17  0.0000E+00  1.6248E-03  0.0000E+00  0.0000E+00  0.0000E+00  0.0000E+00  0.0000E+00  0.0000E+00  0.0000E+00
 18  0.0000E+00  3.0314E-03  0.0000E+00  0.0000E+00  0.0000E+00  3.3243E-03  0.0000E+00  0.0000E+00  0.0000E+00
 19  0.0000E+00  1.0384E-02  0.0000E+00  2.0180E-03  5.0389E-03  1.6731E-04  0.0000E+00  0.0000E+00  0.0000E+00
 20  0.0000E+00  2.2289E-02  2.3033E-02  3.3098E-02  0.0000E+00  0.0000E+00  9.5074E-03  2.3905E-03  0.0000E+00
 21  0.0000E+00  1.4111E-02  0.0000E+00  4.2127E-02  2.2364E-02  3.4880E-02  4.7501E-03  0.0000E+00  4.2833E-02
 22  1.8674E-02  3.4620E-02  0.0000E+00  1.6444E-02  7.7606E-02  2.8774E-02  1.7501E-02  9.6368E-02  5.5156E-02
 23  2.3353E-02  1.3943E-01  1.9950E-01  1.3010E-01  1.5466E-01  1.4726E-01  2.2252E-02  9.8702E-02  6.4422E-02
 24  2.9221E-01  9.8546E-02  9.2491E-02  5.8000E-02  2.0117E-01  2.2418E-01  1.1135E-01  1.9760E-01  3.5971E-01
 25  0.0000E+00  2.1915E-01  4.5179E-01  3.1108E-01  8.2026E-02  1.3360E-01  0.0000E+00  2.6793E-01  2.3827E-01
 26  4.6643E-03  5.0755E-03  5.0430E-03  5.2219E-03  5.4037E-03  4.9059E-03  5.1912E-03  5.9873E-03  4.7009E-03
 27  0.0000E+00  1.4752E-05  0.0000E+00  0.0000E+00  4.4835E-05  4.0671E-05  0.0000E+00  0.0000E+00  0.0000E+00
 28  4.3107E-04  4.2264E-04  4.9738E-04  4.2225E-04  3.1962E-04  3.9145E-04  5.0890E-04  2.6032E-04  5.3653E-04
 29  0.0000E+00  3.5615E-04  4.6932E-04  2.6187E-04  0.0000E+00  3.2968E-04  6.7549E-04  3.3971E-04  5.1171E-04
 30  1.0214E-03  1.2680E-03  1.0864E-03  1.4318E-03  1.0352E-03  1.9180E-03  1.1815E-03  1.2127E-03  1.1783E-03
 31  8.9379E-04  1.7943E-03  2.0928E-03  1.7451E-03  1.5243E-03  1.8615E-03  1.7687E-03  2.2256E-03  1.1572E-03
 32  0.0000E+00  5.2204E-05  0.0000E+00  9.5654E-05  0.0000E+00  0.0000E+00  0.0000E+00  0.0000E+00  1.5272E-04
 33  0.0000E+00  8.6680E-05  0.0000E+00  0.0000E+00  0.0000E+00  0.0000E+00  0.0000E+00  0.0000E+00  0.0000E+00
 34  0.0000E+00  1.1603E-04  0.0000E+00  0.0000E+00  4.4048E-04  1.4792E-04  1.2395E-03  0.0000E+00  0.0000E+00
 35  0.0000E+00  1.8383E-04  0.0000E+00  0.0000E+00  1.8601E-04  0.0000E+00  2.0180E-04  0.0000E+00  1.3384E-03
 36  0.0000E+00  5.1362E-05  0.0000E+00  0.0000E+00  0.0000E+00  0.0000E+00  0.0000E+00  0.0000E+00  0.0000E+00
 37  0.0000E+00  7.1142E-05  0.0000E+00  1.8770E-04  0.0000E+00  0.0000E+00  0.0000E+00  4.9192E-04  0.0000E+00
 38  0.0000E+00  1.2330E-04  0.0000E+00  6.3198E-04  0.0000E+00  0.0000E+00  0.0000E+00  0.0000E+00  0.0000E+00
 39  0.0000E+00  1.9239E-04  0.0000E+00  0.0000E+00  0.0000E+00  0.0000E+00  0.0000E+00  0.0000E+00  0.0000E+00
 40  0.0000E+00  7.4287E-04  0.0000E+00  0.0000E+00  0.0000E+00  0.0000E+00  0.0000E+00  0.0000E+00  0.0000E+00
 41  0.0000E+00  1.2486E-03  0.0000E+00  6.5164E-03  0.0000E+00  0.0000E+00  0.0000E+00  0.0000E+00  0.0000E+00
 42  0.0000E+00  1.2104E-03  0.0000E+00  0.0000E+00  3.2977E-03  0.0000E+00  0.0000E+00  0.0000E+00  0.0000E+00
 43  0.0000E+00  6.4121E-03  0.0000E+00  0.0000E+00  0.0000E+00  4.3488E-02  2.2375E-03  0.0000E+00  5.6900E-03
 44  0.0000E+00  2.3830E-02  0.0000E+00  2.1586E-02  2.6331E-02  1.0254E-02  4.9602E-02  0.0000E+00  3.2240E-03
 45  6.4932E+00  6.1716E+00  6.1790E+00  6.2227E+00  6.2001E+00  6.0945E+00  6.3110E+00  6.1900E+00  6.1580E+00
 46  8.1314E+00  7.0163E+00  6.9569E+00  7.2276E+00  7.2624E+00  7.2381E+00  7.0830E+00  7.0816E+00  7.2733E+00
 47  8.1300E+00  7.7073E+00  7.7977E+00  7.9170E+00  8.6889E+00  7.4851E+00  7.6699E+00  7.8196E+00  7.7008E+00
 48  2.8054E+00  3.6507E+00  3.6936E+00  3.3489E+00  3.4061E+00  4.0856E+00  3.8532E+00  3.7518E+00  3.6349E+00
 49  0.0000E+00  3.8440E-01  5.5439E-01  3.3621E-01  0.0000E+00  3.1967E-01  1.0437E-01  6.3308E-01  3.8547E-01
 50  0.0000E+00  3.5430E-01  3.6097E-01  2.5194E-01  5.8582E-03  1.8391E-01  9.9753E-01  4.5423E-01  2.7027E-02
 51  3.8967E-03  3.3565E-03  3.3825E-03  3.3767E-03  3.2582E-03  3.7166E-03  2.7551E-03  3.4044E-03  3.3640E-03
 52  0.0000E+00  2.0329E-05  0.0000E+00  2.1535E-04  0.0000E+00  0.0000E+00  0.0000E+00  0.0000E+00  5.2473E-05
 53  0.0000E+00  3.4899E-05  1.5067E-04  0.0000E+00  1.2279E-04  0.0000E+00  2.4243E-05  1.6883E-05  0.0000E+00
 54  0.0000E+00  2.6556E-05  0.0000E+00  0.0000E+00  1.0374E-04  0.0000E+00  0.0000E+00  0.0000E+00  0.0000E+00
 55  0.0000E+00  3.2888E-05  1.7881E-04  0.0000E+00  0.0000E+00  0.0000E+00  0.0000E+00  0.0000E+00  0.0000E+00
 56  0.0000E+00  4.3875E-05  0.0000E+00  0.0000E+00  3.4044E-05  0.0000E+00  0.0000E+00  2.0422E-04  7.1888E-05
 57  0.0000E+00  6.7030E-05  0.0000E+00  0.0000E+00  0.0000E+00  0.0000E+00  0.0000E+00  1.2308E-04  0.0000E+00
 58  0.0000E+00  1.0091E-04  1.2678E-04  0.0000E+00  0.0000E+00  0.0000E+00  0.0000E+00  0.0000E+00  0.0000E+00
 59  0.0000E+00  8.1971E-05  4.0755E-05  0.0000E+00  0.0000E+00  0.0000E+00  0.0000E+00  0.0000E+00  0.0000E+00
 60  0.0000E+00  7.7982E-05  0.0000E+00  0.0000E+00  2.8548E-05  0.0000E+00  0.0000E+00  0.0000E+00  0.0000E+00
 61  0.0000E+00  8.6719E-05  0.0000E+00  2.5695E-04  0.0000E+00  0.0000E+00  0.0000E+00  0.0000E+00  0.0000E+00
 62  0.0000E+00  1.4510E-04  0.0000E+00  0.0000E+00  0.0000E+00  0.0000E+00  0.0000E+00  0.0000E+00  0.0000E+00
 63  0.0000E+00  1.5979E-04  7.0935E-04  0.0000E+00  0.0000E+00  0.0000E+00  0.0000E+00  6.9722E-06  0.0000E+00
 64  0.0000E+00  3.7431E-04  0.0000E+00  0.0000E+00  0.0000E+00  0.0000E+00  0.0000E+00  0.0000E+00  0.0000E+00
 65  0.0000E+00  8.5441E-04  0.0000E+00  0.0000E+00  0.0000E+00  0.0000E+00  0.0000E+00  2.3914E-03  0.0000E+00
 66  0.0000E+00  2.7404E-03  0.0000E+00  3.3416E-03  0.0000E+00  0.0000E+00  0.0000E+00  0.0000E+00  7.8739E-04
 67  0.0000E+00  2.6402E-03  0.0000E+00  0.0000E+00  6.4758E-03  0.0000E+00  1.0697E-02  7.8014E-03  0.0000E+00
 68  0.0000E+00  1.6553E-02  1.3021E-04  0.0000E+00  2.1005E-02  1.9061E-02  2.8093E-02  0.0000E+00  3.3281E-02
 69  1.0200E-02  4.4914E-02  0.0000E+00  1.7125E-03  8.1010E-02  0.0000E+00  9.3136E-03  3.3972E-02  6.5367E-02
 70  3.2050E-02  8.8117E-02  0.0000E+00  9.1081E-02  1.4389E-01  0.0000E+00  0.0000E+00  1.6124E-01  9.2422E-03
 71  0.0000E+00  7.5716E-02  5.6596E-02  0.0000E+00  0.0000E+00  5.2621E-02  8.9281E-02  1.3245E-01  1.3759E-01
 72  3.4733E-01  1.6200E-01  3.1440E-01  1.2472E-01  1.6827E-01  0.0000E+00  2.3229E-01  6.5761E-02  2.7490E-01
 73  1.0152E+00  1.0364E+00  9.5520E-01  1.0829E+00  8.0372E-01  1.1512E+00  1.1520E+00  9.0869E-01  1.1833E+00
 74  1.7606E+00  1.7272E+00  1.8563E+00  1.6934E+00  1.7989E+00  1.6686E+00  1.7395E+00  1.6721E+00  1.6608E+00
 75  4.4840E-01  1.2691E+00  1.4905E+00  1.4063E+00  7.6963E-01  1.2488E+00  1.1320E+00  9.8260E-01  8.7651E-01
 76  0.0000E+00  1.1210E-04  2.9730E-04  0.0000E+00  2.3941E-05  0.0000E+00  0.0000E+00  9.4473E-05  3.0612E-05
 77  0.0000E+00  3.0689E-05  0.0000E+00  1.5991E-04  0.0000E+00  0.0000E+00  2.1559E-05  0.0000E+00  0.0000E+00
 78  0.0000E+00  3.0685E-05  0.0000E+00  0.0000E+00  7.6636E-05  0.0000E+00  1.3746E-04  0.0000E+00  0.0000E+00
 79  0.0000E+00  2.1703E-05  0.0000E+00  0.0000E+00  7.6810E-05  4.5478E-06  0.0000E+00  0.0000E+00  0.0000E+00
 80  0.0000E+00  5.4577E-05  3.2398E-05  2.6674E-04  6.5952E-05  0.0000E+00  0.0000E+00  3.0338E-06  0.0000E+00
 81  0.0000E+00  4.5529E-05  0.0000E+00  0.0000E+00  0.0000E+00  0.0000E+00  0.0000E+00  1.0476E-04  0.0000E+00
 82  0.0000E+00  6.2736E-05  2.6594E-04  0.0000E+00  5.1781E-06  0.0000E+00  3.9982E-04  0.0000E+00  0.0000E+00
 83  0.0000E+00  3.8120E-05  0.0000E+00  1.4074E-05  0.0000E+00  0.0000E+00  0.0000E+00  0.0000E+00  0.0000E+00
 84  0.0000E+00  4.3237E-05  0.0000E+00  0.0000E+00  0.0000E+00  0.0000E+00  4.3873E-05  1.8636E-05  0.0000E+00
 85  0.0000E+00  4.7850E-05  0.0000E+00  0.0000E+00  0.0000E+00  0.0000E+00  0.0000E+00  0.0000E+00  0.0000E+00
 86  0.0000E+00  8.8399E-05  0.0000E+00  0.0000E+00  0.0000E+00  0.0000E+00  1.1426E-05  0.0000E+00  0.0000E+00
 87  0.0000E+00  1.0732E-04  2.5766E-04  0.0000E+00  0.0000E+00  0.0000E+00  0.0000E+00  0.0000E+00  3.5699E-04
 88  0.0000E+00  2.1959E-04  0.0000E+00  0.0000E+00  0.0000E+00  0.0000E+00  0.0000E+00  0.0000E+00  0.0000E+00
 89  0.0000E+00  2.7428E-04  0.0000E+00  0.0000E+00  0.0000E+00  0.0000E+00  0.0000E+00  0.0000E+00  0.0000E+00
 90  0.0000E+00  7.8556E-04  5.0471E-03  0.0000E+00  1.7353E-04  0.0000E+00  0.0000E+00  0.0000E+00  0.0000E+00
 91  0.0000E+00  1.6242E-03  0.0000E+00  0.0000E+00  0.0000E+00  0.0000E+00  0.0000E+00  0.0000E+00  0.0000E+00
 92  0.0000E+00  3.2237E-03  0.0000E+00  0.0000E+00  0.0000E+00  0.0000E+00  0.0000E+00  2.5760E-03  8.7856E-04
 93  0.0000E+00  2.0588E-02  1.5812E-02  0.0000E+00  2.9488E-02  0.0000E+00  4.0915E-02  6.5426E-02  0.0000E+00
 94  1.6095E-03  7.1406E-02  0.0000E+00  5.7875E-02  9.2455E-02  0.0000E+00  0.0000E+00  0.0000E+00  2.4665E-01
 95  0.0000E+00  7.9616E-02  0.0000E+00  3.5916E-01  0.0000E+00  4.2653E-02  0.0000E+00  4.7601E-02  3.8887E-02
 96  0.0000E+00  9.6304E-02  7.5733E-02  0.0000E+00  0.0000E+00  4.0565E-02  9.6125E-02  0.0000E+00  8.9092E-02
 97  0.0000E+00  8.8332E-02  1.1572E-01  0.0000E+00  8.6884E-02  2.3623E-02  0.0000E+00  1.3635E-01  0.0000E+00
 98  0.0000E+00  5.5675E-02  0.0000E+00  0.0000E+00  0.0000E+00  0.0000E+00  0.0000E+00  1.4507E-01  0.0000E+00
 99  0.0000E+00  9.5233E-02  9.9737E-02  8.0267E-02  2.7212E-02  0.0000E+00  4.4717E-01  5.7623E-02  9.1141E-02
100  0.0000E+00  6.5520E-02  0.0000E+00  1.0684E-01  0.0000E+00  1.9554E-01  0.0000E+00  0.0000E+00  1.7154E-02
101  0.0000E+00  4.4460E-05  0.0000E+00  0.0000E+00  0.0000E+00  0.0000E+00  9.0728E-05  0.0000E+00  0.0000E+00
102  0.0000E+00  3.5200E-05  0.0000E+00  0.0000E+00  5.3069E-05  0.0000E+00  2.0410E-04  0.0000E+00  0.0000E+00
103  0.0000E+00  1.1380E-05  0.0000E+00  4.0982E-06  0.0000E+00  0.0000E+00  3.4293E-05  0.0000E+00  0.0000E+00
104  0.0000E+00  5.6474E-05  1.2842E-04  8.8955E-05  0.0000E+00  0.0000E+00  1.9598E-04  2.9146E-05  1.7544E-04
105  4.9863E-04  1.0965E-03  6.7358E-04  1.1657E-03  1.4797E-03  1.0283E-03  8.7779E-04  1.1746E-03  1.2302E-03
106  0.0000E+00  1.0698E-04  1.0947E-04  0.0000E+00  0.0000E+00  0.0000E+00  1.2268E-05  0.0000E+00  0.0000E+00
107  0.0000E+00  8.5111E-05  0.0000E+00  4.9128E-04  0.0000E+00  0.0000E+00  0.0000E+00  0.0000E+00  0.0000E+00
108  0.0000E+00  1.1341E-04  0.0000E+00  0.0000E+00  0.0000E+00  0.0000E+00  4.6911E-04  1.8681E-04  6.9395E-04
109  0.0000E+00  1.1513E-04  0.0000E+00  0.0000E+00  0.0000E+00  0.0000E+00  0.0000E+00  0.0000E+00  4.2526E-04
110  0.0000E+00  6.1846E-05  0.0000E+00  0.0000E+00  0.0000E+00  0.0000E+00  0.0000E+00  0.0000E+00  0.0000E+00
111  0.0000E+00  5.5992E-05  0.0000E+00  0.0000E+00  0.0000E+00  0.0000E+00  0.0000E+00  1.1981E-04  1.1963E-04
112  0.0000E+00  1.3414E-04  0.0000E+00  0.0000E+00  0.0000E+00  3.0536E-04  0.0000E+00  0.0000E+00  0.0000E+00
113  0.0000E+00  1.4077E-04  0.0000E+00  0.0000E+00  0.0000E+00  0.0000E+00  1.9107E-05  0.0000E+00  0.0000E+00
114  0.0000E+00  3.0076E-04  0.0000E+00  1.4258E-03  0.0000E+00  0.0000E+00  0.0000E+00  0.0000E+00  3.1221E-04
115  0.0000E+00  1.5047E-03  0.0000E+00  0.0000E+00  0.0000E+00  0.0000E+00  0.0000E+00  0.0000E+00  0.0000E+00
116  0.0000E+00  4.0108E-03  0.0000E+00  0.0000E+00  0.0000E+00  0.0000E+00  0.0000E+00  1.4291E-03  2.6069E-05
117  0.0000E+00  8.4751E-03  0.0000E+00  4.7145E-03  0.0000E+00  5.5767E-02  1.2417E-03  0.0000E+00  1.0274E-02
118  0.0000E+00  3.0907E-02  0.0000E+00  0.0000E+00  0.0000E+00  3.6304E-02  0.0000E+00  4.0228E-02  0.0000E+00
119  0.0000E+00  3.3174E-02  0.0000E+00  7.6915E-04  0.0000E+00  0.0000E+00  0.0000E+00  7.8962E-02  2.1706E-02
120  0.0000E+00  8.5790E-02  3.7991E-02  2.2136E-01  0.0000E+00  1.9340E-01  1.1180E-01  0.0000E+00  2.1237E-01
121  7.0112E-01  4.9699E-02  9.2751E-02  4.2341E-02  2.2334E-01  0.0000E+00  0.0000E+00  0.0000E+00  1.3389E-01
122  0.0000E+00  6.5136E-02  0.0000E+00  0.0000E+00  0.0000E+00  0.0000E+00  7.8835E-03  3.0740E-01  0.0000E+00
123  0.0000E+00  2.2812E-01  5.2155E-01  1.5575E-01  0.0000E+00  3.6749E-01  1.2614E-01  2.1810E-01  1.2916E-01
124  2.9660E+00  2.7938E+00  2.7150E+00  2.9417E+00  3.1463E+00  2.5721E+00  2.6786E+00  2.5796E+00  2.8095E+00
125  1.7396E+00  2.1875E+00  2.2131E+00  2.0372E+00  2.4233E+00  2.2445E+00  2.2286E+00  2.1351E+00  2.3675E+00
126  0.0000E+00  3.1554E-05  0.0000E+00  0.0000E+00  0.0000E+00  0.0000E+00  6.3979E-07  0.0000E+00  0.0000E+00
127  0.0000E+00  1.6617E-05  0.0000E+00  9.5660E-05  0.0000E+00  5.1658E-05  2.2603E-05  0.0000E+00  5.4826E-05
128  0.0000E+00  3.1481E-05  0.0000E+00  6.0840E-06  1.7219E-04  0.0000E+00  6.4018E-06  0.0000E+00  0.0000E+00
129  0.0000E+00  1.2261E-04  0.0000E+00  0.0000E+00  1.2095E-04  1.1636E-04  1.8146E-04  0.0000E+00  7.8074E-05
130  0.0000E+00  1.2310E-04  0.0000E+00  2.1526E-04  0.0000E+00  5.4773E-04  3.6493E-04  0.0000E+00  1.0510E-04
131  0.0000E+00  3.7581E-05  0.0000E+00  0.0000E+00  0.0000E+00  0.0000E+00  1.0100E-04  0.0000E+00  3.6143E-04
132  0.0000E+00  6.8344E-05  0.0000E+00  0.0000E+00  3.1935E-04  0.0000E+00  0.0000E+00  7.0946E-05  0.0000E+00
133  0.0000E+00  8.4146E-05  6.8923E-05  1.2000E-04  0.0000E+00  3.0084E-04  0.0000E+00  0.0000E+00  3.4138E-04
134  0.0000E+00  7.6909E-05  1.8436E-05  0.0000E+00  0.0000E+00  0.0000E+00  0.0000E+00  0.0000E+00  0.0000E+00
135  0.0000E+00  4.6131E-05  0.0000E+00  0.0000E+00  0.0000E+00  0.0000E+00  0.0000E+00  7.7999E-05  0.0000E+00
136  0.0000E+00  1.0691E-04  0.0000E+00  0.0000E+00  0.0000E+00  0.0000E+00  0.0000E+00  0.0000E+00  0.0000E+00
137  0.0000E+00  9.5318E-05  0.0000E+00  0.0000E+00  0.0000E+00  0.0000E+00  0.0000E+00  0.0000E+00  6.6191E-05
138  0.0000E+00  1.0970E-04  5.5673E-04  0.0000E+00  0.0000E+00  0.0000E+00  0.0000E+00  0.0000E+00  0.0000E+00
139  0.0000E+00  5.4329E-04  0.0000E+00  1.3111E-03  0.0000E+00  0.0000E+00  0.0000E+00  0.0000E+00  1.6514E-03
140  0.0000E+00  4.3615E-03  0.0000E+00  0.0000E+00  0.0000E+00  6.0352E-03  0.0000E+00  0.0000E+00  0.0000E+00
141  0.0000E+00  1.4337E-02  0.0000E+00  3.0941E-03  2.3803E-02  3.0487E-03  5.9622E-03  0.0000E+00  0.0000E+00
142  0.0000E+00  2.8143E-02  1.0571E-01  6.0742E-02  3.6650E-02  1.0405E-01  1.2819E-01  9.7386E-02  1.9263E-02
143  0.0000E+00  5.7403E-02  1.2379E-01  5.2624E-02  4.8435E-02  1.8778E-01  8.2358E-02  7.3053E-02  7.9071E-02
144  0.0000E+00  9.0061E-02  1.4727E-01  1.3519E-01  5.2075E-02  1.5035E-01  2.1094E-02  0.0000E+00  2.1641E-01
145  0.0000E+00  8.6637E-02  1.1445E-01  1.6056E-01  0.0000E+00  4.3565E-02  3.1657E-01  1.7984E-01  0.0000E+00
146  0.0000E+00  4.5024E-02  8.4049E-03  2.0075E-02  0.0000E+00  1.4837E-02  0.0000E+00  4.1745E-02  0.0000E+00
147  0.0000E+00  7.3252E-02  0.0000E+00  0.0000E+00  0.0000E+00  4.2647E-01  1.8562E-01  0.0000E+00  0.0000E+00
148  2.1327E+01  2.0450E+01  2.0585E+01  2.0520E+01  2.1300E+01  2.0522E+01  2.0088E+01  2.0002E+01  2.0401E+01
149  7.6191E+00  7.3757E+00  7.1495E+00  7.1401E+00  7.2783E+00  7.4708E+00  7.8730E+00  7.2387E+00  7.4539E+00
150  3.6103E+01  3.5377E+01  3.4851E+01  3.5531E+01  3.5265E+01  3.5083E+01  3.4894E+01  3.5953E+01  3.5429E+01

# AV, chi2 & Mass for <> & i_chain = 1 ...  7 solutions
AV       1.5606      1.5641      1.5641      1.5652      1.5634      1.5640      1.5638      1.5660      1.5642
chi2 2.8459E+00  2.8913E+00  2.8787E+00  2.8772E+00  2.8702E+00  2.8812E+00  2.8804E+00  2.8818E+00  2.8805E+00
Mass 7.1933E-10  7.2227E-10  7.2274E-10  7.2128E-10  7.2034E-10  7.2111E-10  7.2018E-10  7.2196E-10  7.2017E-10
 -11.83                                  [v0_min (km/s) before EX0s...]
  19.11                                  [vd_min (km/s) before EX0s...]


## Synthetic spectrum (Best Model) ##l_obs f_obs f_syn wei
 3070    [Nl_obs]
 3359.00    0.00000   0.40885   -2.000
 3360.00    0.06634   0.39205   -1.000
 3361.00    0.23380   0.40321   -1.000
 3362.00    0.26744   0.42844   -1.000
 3363.00    0.28680   0.45973   -1.000
 3364.00    0.28503   0.47849   -1.000
 3365.00    0.24681   0.47362   -1.000
 3366.00    0.25984   0.46392   -1.000
 3367.00    0.27531   0.45665   -1.000
 3368.00    0.32031   0.44730   -1.000
 3369.00    0.28700   0.43834   -1.000
 3370.00    0.27122   0.41747   -1.000
 3371.00    0.32512   0.40371   -1.000
 3372.00    0.29951   0.40782   -1.000
 3373.00    0.27664   0.42838   -1.000
 3374.00    0.28629   0.45496   -1.000
 3375.00    0.28970   0.47986   -1.000
 3376.00    0.32065   0.48913   -1.000
 3377.00    0.34979   0.48233   -1.000
 3378.00    0.35164   0.46713   -1.000
 3379.00    0.32892   0.45752   -1.000
 3380.00    0.33641   0.46041   -1.000
 3381.00    0.35680   0.46804   -1.000
 3382.00    0.30036   0.47471   -1.000
 3383.00    0.31409   0.47930   -1.000
 3384.00    0.33243   0.48369   -1.000
 3385.00    0.35919   0.49070   -1.000
 3386.00    0.39588   0.48566   -1.000
 3387.00    0.37163   0.47279   -1.000
 3388.00    0.36153   0.46470   -1.000
 3389.00    0.36838   0.47289   -1.000
 3390.00    0.34798   0.48522   -1.000
 3391.00    0.31964   0.49204   -1.000
 3392.00    0.30681   0.48364   -1.000
 3393.00    0.35688   0.47538   -1.000
 3394.00    0.39709   0.48146   -1.000
 3395.00    0.38778   0.49384   -1.000
 3396.00    0.37498   0.50834   -1.000
 3397.00    0.39285   0.51913   -1.000
 3398.00    0.39418   0.52865   -1.000
 3399.00    0.41366   0.53186   -1.000
 3400.00    0.43479   0.52795   -1.000
 3401.00    0.44206   0.51824   36.165
 3402.00    0.43542   0.49881   36.869
 3403.00    0.42456   0.48886   38.148
 3404.00    0.41644   0.48299   38.605
 3405.00    0.40928   0.48768   -1.000
 3406.00    0.38300   0.48890   -1.000
 3407.00    0.41799   0.48348   40.503
 3408.00    0.40957   0.47625   40.818
 3409.00    0.39428   0.47917   -1.000
 3410.00    0.42453   0.49113   41.430
 3411.00    0.45459   0.48811   40.863
 3412.00    0.45702   0.47781   39.880
 3413.00    0.44421   0.46392   40.167
 3414.00    0.41252   0.46231   41.656
 3415.00    0.40301   0.47796   -1.000
 3416.00    0.42417   0.49569   41.757
 3417.00    0.44495   0.50889   40.474
 3418.00    0.47241   0.51774   38.669
 3419.00    0.49253   0.52498   36.798
 3420.00    0.49865   0.52990   35.438
 3421.00    0.48574   0.52671   35.287
 3422.00    0.46418   0.50883   35.175
 3423.00    0.46774   0.49108   35.632
 3424.00    0.45818   0.48694   36.624
 3425.00    0.43795   0.49354   36.890
 3426.00    0.45296   0.50197   35.832
 3427.00    0.49741   0.51351   35.109
 3428.00    0.49354   0.53162   47.021
 3429.00    0.50108   0.54737   -1.000
 3430.00    0.49279   0.55041   -1.000
 3431.00    0.49411   0.53169   -1.000
 3432.00    0.49329   0.51036   -1.000
 3433.00    0.50302   0.50267   98.243
 3434.00    0.50331   0.51567   35.060
 3435.00    0.52291   0.53297   46.804
 3436.00    0.51462   0.53362   -1.000
 3437.00    0.50189   0.51946   97.708
 3438.00    0.48063   0.50119   35.329
 3439.00    0.47809   0.48282   37.130
 3440.00    0.46397   0.46598   39.570
 3441.00    0.46501   0.45111   42.301
 3442.00    0.44634   0.44641   43.524
 3443.00    0.42617   0.45121   43.508
 3444.00    0.43644   0.46139   42.867
 3445.00    0.44717   0.47313   40.959
 3446.00    0.46165   0.49280   38.703
 3447.00    0.45995   0.51541   36.792
 3448.00    0.46043   0.53397   -1.000
 3449.00    0.47722   0.54326   -1.000
 3450.00    0.49520   0.53157   -1.000
 3451.00    0.52234   0.51045   -1.000
 3452.00    0.54733   0.49574   -1.000
 3453.00    0.52213   0.49554   -1.000
 3454.00    0.51044   0.50530  325.942
 3455.00    0.50456   0.51569   -1.000
 3456.00    0.50036   0.51708   -1.000
 3457.00    0.49828   0.51124   -1.000
 3458.00    0.53142   0.50175   -1.000
 3459.00    0.55599   0.49214   -1.000
 3460.00    0.53272   0.48079   35.113
 3461.00    0.50874   0.47795   35.391
 3462.00    0.49411   0.49103   46.892
 3463.00    0.50624   0.50415  325.942
 3464.00    0.53763   0.50733   -1.000
 3465.00    0.53042   0.50135   -1.000
 3466.00    0.51792   0.50286   -1.000
 3467.00    0.51019   0.51608  318.540
 3468.00    0.50779   0.53317   -1.000
 3469.00    0.54174   0.54606  302.417
 3470.00    0.53512   0.54918   -1.000
 3471.00    0.51450   0.54013   -1.000
 3472.00    0.53557   0.52668   -1.000
 3473.00    0.54123   0.50380   -1.000
 3474.00    0.54851   0.48407   -1.000
 3475.00    0.54495   0.47488   -1.000
 3476.00    0.51766   0.47913   35.631
 3477.00    0.49682   0.49749   36.381
 3478.00    0.49817   0.51522   47.384
 3479.00    0.52260   0.52737  325.275
 3480.00    0.53558   0.53746  306.860
 3481.00    0.56407   0.53827   -1.000
 3482.00    0.57305   0.53202   -1.000
 3483.00    0.56368   0.52538   -1.000
 3484.00    0.56558   0.52414   -1.000
 3485.00    0.56890   0.53386   -1.000
 3486.00    0.56182   0.54529   -1.000
 3487.00    0.56464   0.54677   -1.000
 3488.00    0.57240   0.53660   -1.000
 3489.00    0.53910   0.51789   -1.000
 3490.00    0.54633   0.50294   -1.000
 3491.00    0.53571   0.50581   -1.000
 3492.00    0.52807   0.51860   -1.000
 3493.00    0.52636   0.52460  325.942
 3494.00    0.51282   0.52339  324.764
 3495.00    0.49306   0.51506   -1.000
 3496.00    0.50305   0.50689  321.570
 3497.00    0.52008   0.51008   -1.000
 3498.00    0.53487   0.51683   -1.000
 3499.00    0.54030   0.52643   -1.000
 3500.00    0.55713   0.52834   -1.000
 3501.00    0.58009   0.52871   -1.000
 3502.00    0.56685   0.53743   -1.000
 3503.00    0.57365   0.54418   -1.000
 3504.00    0.58804   0.54406   -1.000
 3505.00    0.57835   0.53400   -1.000
 3506.00    0.55567   0.52431   -1.000
 3507.00    0.53745   0.51992   -1.000
 3508.00    0.54795   0.51751   -1.000
 3509.00    0.56768   0.51889   -1.000
 3510.00    0.56725   0.51793   -1.000
 3511.00    0.55157   0.51420   -1.000
 3512.00    0.55681   0.50577   -1.000
 3513.00    0.54144   0.49644   -1.000
 3514.00    0.53048   0.49746   -1.000
 3515.00    0.51570   0.51212  321.807
 3516.00    0.53591   0.54005  310.982
 3517.00    0.57019   0.56095  293.859
 3518.00    0.56921   0.56302  279.759
 3519.00    0.54705   0.54481  278.979
 3520.00    0.54697   0.52524   -1.000
 3521.00    0.54177   0.51121   -1.000
 3522.00    0.52135   0.50202   -1.000
 3523.00    0.51580   0.49228   -1.000
 3524.00    0.52257   0.47954   -1.000
 3525.00    0.51017   0.47240   35.293
 3526.00    0.51026   0.48261   36.169
 3527.00    0.53836   0.50090   47.094
 3528.00    0.54092   0.52278   -1.000
 3529.00    0.54738   0.53977  307.022
 3530.00    0.57013   0.54880   -1.000
 3531.00    0.55761   0.55243  291.998
 3532.00    0.52425   0.54549   -1.000
 3533.00    0.54232   0.52822   -1.000
 3534.00    0.57108   0.51934   -1.000
 3535.00    0.58655   0.52238   -1.000
 3536.00    0.59820   0.54117   -1.000
 3537.00    0.59285   0.56192   -1.000
 3538.00    0.58861   0.57334   -1.000
 3539.00    0.60498   0.57817   -1.000
 3540.00    0.60343   0.57446   -1.000
 3541.00    0.60674   0.56834   -1.000
 3542.00    0.59539   0.56767   -1.000
 3543.00    0.57834   0.57543  284.301
 3544.00    0.58946   0.58221  281.767
 3545.00    0.57578   0.58069  278.366
 3546.00    0.56399   0.57404  279.131
 3547.00    0.55753   0.56712  284.720
 3548.00    0.58835   0.56446   -1.000
 3549.00    0.59285   0.56748   -1.000
 3550.00    0.58316   0.57339  289.448
 3551.00    0.57253   0.57716  288.952
 3552.00    0.55436   0.56988   -1.000
 3553.00    0.54987   0.55475  303.414
 3554.00    0.55262   0.54584  311.203
 3555.00    0.55346   0.54901  314.130
 3556.00    0.55230   0.55806  309.987
 3557.00    0.55264   0.56874   -1.000
 3558.00    0.55212   0.57380   -1.000
 3559.00    0.56300   0.57352  311.681
 3560.00    0.54856   0.57430   -1.000
 3561.00    0.53146   0.57718   -1.000
 3562.00    0.54121   0.57499   -1.000
 3563.00    0.55136   0.56111   -1.000
 3564.00    0.55720   0.53846   -1.000
 3565.00    0.52321   0.51674  104.705
 3566.00    0.48597   0.50937   35.685
 3567.00    0.47781   0.51069   36.663
 3568.00    0.48286   0.51128   36.281
 3569.00    0.48900   0.50557   36.446
 3570.00    0.47619   0.49414   37.561
 3571.00    0.46053   0.48924   37.752
 3572.00    0.47400   0.49462   36.416
 3573.00    0.49900   0.50207   45.616
 3574.00    0.51491   0.50961  325.942
 3575.00    0.52365   0.51800  325.942
 3576.00    0.52003   0.52361  325.942
 3577.00    0.52566   0.52432  325.942
 3578.00    0.54228   0.52179   -1.000
 3579.00    0.53146   0.50989  109.786
 3580.00    0.48788   0.49519   37.209
 3581.00    0.47899   0.48358   39.961
 3582.00    0.46074   0.47855   41.652
 3583.00    0.45763   0.48110   41.879
 3584.00    0.45272   0.47902   42.274
 3585.00    0.44813   0.46728   43.436
 3586.00    0.42712   0.45377   44.667
 3587.00    0.42668   0.45113   44.523
 3588.00    0.45046   0.46561   42.214
 3589.00    0.48399   0.49365   40.017
 3590.00    0.48044   0.52045   37.635
 3591.00    0.49408   0.53512   45.214
 3592.00    0.52394   0.53535   -1.000
 3593.00    0.53078   0.53401  311.878
 3594.00    0.52744   0.54079   -1.000
 3595.00    0.54886   0.55639  303.753
 3596.00    0.56192   0.57069  292.649
 3597.00    0.56400   0.57765   -1.000
 3598.00    0.55487   0.58121   -1.000
 3599.00    0.57700   0.58364  265.480
 3600.00    0.57970   0.58075  263.049
 3601.00    0.59496   0.56505   -1.000
 3602.00    0.59243   0.54880   -1.000
 3603.00    0.56118   0.53860   -1.000
 3604.00    0.53440   0.54002  308.903
 3605.00    0.53949   0.54354  313.312
 3606.00    0.55904   0.53973   -1.000
 3607.00    0.56001   0.53094   -1.000
 3608.00    0.52615   0.52163  318.960
 3609.00    0.53411   0.51932   -1.000
 3610.00    0.52980   0.52338  325.942
 3611.00    0.52317   0.53240  325.942
 3612.00    0.52260   0.54339   -1.000
 3613.00    0.52858   0.55351   -1.000
 3614.00    0.56154   0.56599  299.804
 3615.00    0.60030   0.58021   -1.000
 3616.00    0.61047   0.57632   -1.000
 3617.00    0.60137   0.55663   -1.000
 3618.00    0.56037   0.53220   -1.000
 3619.00    0.52800   0.52204  108.027
 3620.00    0.53892   0.53397   44.548
 3621.00    0.55410   0.55564  319.250
 3622.00    0.56133   0.57238  293.506
 3623.00    0.58972   0.58384  279.311
 3624.00    0.59647   0.59442  273.537
 3625.00    0.61842   0.61340  268.468
 3626.00    0.65104   0.63650   -1.000
 3627.00    0.64695   0.65177  248.976
 3628.00    0.63799   0.64034  247.409
 3629.00    0.62167   0.60610   -1.000
 3630.00    0.59775   0.56202   -1.000
 3631.00    0.55359   0.53855   -1.000
 3632.00    0.52886   0.54197   -1.000
 3633.00    0.54312   0.56036   -1.000
 3634.00    0.55998   0.57345   -1.000
 3635.00    0.57865   0.57565  303.919
 3636.00    0.59547   0.57836   -1.000
 3637.00    0.59890   0.59321  283.958
 3638.00    0.61226   0.61074  270.664
 3639.00    0.61694   0.62159  259.257
 3640.00    0.62628   0.62534  252.656
 3641.00    0.62928   0.61882  254.071
 3642.00    0.62783   0.60445   -1.000
 3643.00    0.61569   0.58927   -1.000
 3644.00    0.58337   0.57673  284.486
 3645.00    0.58419   0.56817   -1.000
 3646.00    0.60161   0.56112   -1.000
 3647.00    0.60774   0.55597   -1.000
 3648.00    0.58202   0.55542   -1.000
 3649.00    0.55636   0.55884  303.771
 3650.00    0.55265   0.56805   -1.000
 3651.00    0.59334   0.58138   -1.000
 3652.00    0.62432   0.59956   -1.000
 3653.00    0.64185   0.61313   -1.000
 3654.00    0.62742   0.62590  252.836
 3655.00    0.64575   0.63906  250.003
 3656.00    0.66832   0.65007   -1.000
 3657.00    0.62967   0.65709   -1.000
 3658.00    0.61697   0.65779   -1.000
 3659.00    0.62750   0.65755   -1.000
 3660.00    0.63183   0.65431   -1.000
 3661.00    0.63705   0.64480  240.667
 3662.00    0.63847   0.63272  243.369
 3663.00    0.63366   0.62552  246.352
 3664.00    0.61680   0.62750  250.057
 3665.00    0.63101   0.63392  250.723
 3666.00    0.65053   0.63643   -1.000
 3667.00    0.64212   0.63264  249.781
 3668.00    0.62469   0.62131  254.557
 3669.00    0.61127   0.61087  258.142
 3670.00    0.60355   0.61159  262.684
 3671.00    0.60978   0.62165  258.837
 3672.00    0.64212   0.63412  250.058
 3673.00    0.65145   0.64093  246.095
 3674.00    0.65706   0.63948   -1.000
 3675.00    0.65550   0.63138   -1.000
 3676.00    0.63301   0.61604   -1.000
 3677.00    0.61327   0.59671   -1.000
 3678.00    0.60282   0.58152   -1.000
 3679.00    0.58743   0.57822  271.265
 3680.00    0.59097   0.58377  276.333
 3681.00    0.60797   0.59175   -1.000
 3682.00    0.59568   0.60008  266.411
 3683.00    0.60509   0.60316  259.933
 3684.00    0.61070   0.60049  259.639
 3685.00    0.59312   0.58978  267.137
 3686.00    0.59036   0.57814   -1.000
 3687.00    0.60285   0.57810   -1.000
 3688.00    0.59631   0.59193  290.045
 3689.00    0.62230   0.61629  278.927
 3690.00    0.65319   0.63420   -1.000
 3691.00    0.65271   0.64280  245.255
 3692.00    0.66224   0.63973   -1.000
 3693.00    0.68995   0.63193   -1.000
 3694.00    0.66404   0.62778   -1.000
 3695.00    0.66697   0.62964   -1.000
 3696.00    0.65993   0.63079   -1.000
 3697.00    0.64224   0.63346  247.701
 3698.00    0.64760   0.64631  243.427
 3699.00    0.68900   0.66236   -1.000
 3700.00    0.69928   0.67547   -1.000
 3701.00    0.67226   0.66579  229.170
 3702.00    0.66650   0.63304   -1.000
 3703.00    0.65265   0.58950   -1.000
 3704.00    0.60956   0.55658   -1.000
 3705.00    0.57545   0.54219   -1.000
 3706.00    0.57086   0.54643   -1.000
 3707.00    0.59125   0.55661   -1.000
 3708.00    0.60382   0.56856   -1.000
 3709.00    0.58683   0.57457   -1.000
 3710.00    0.59117   0.57579   -1.000
 3711.00    0.62028   0.58080   -1.000
 3712.00    0.64429   0.59566   -1.000
 3713.00    0.67016   0.62192   -1.000
 3714.00    0.69375   0.64668   -1.000
 3715.00    0.72299   0.66189   -1.000
 3716.00    0.71247   0.66168   -1.000
 3717.00    0.69052   0.64549   -1.000
 3718.00    0.64305   0.61245   -1.000
 3719.00    0.59324   0.56454   -1.000
 3720.00    0.56849   0.50904   -1.000
 3721.00    0.55992   0.48424   -1.000
 3722.00    0.54784   0.49890   44.351
 3723.00    0.57805   0.54229   -1.000
 3724.00    0.61733   0.59249   -1.000
 3725.00    0.64570   0.62368   -1.000
 3726.00    0.67339   0.62927   -1.000
 3727.00    0.67620   0.62800   -1.000
 3728.00    0.63876   0.63049  263.428
 3729.00    0.61860   0.63453   -1.000
 3730.00    0.63698   0.63079  261.109
 3731.00    0.64551   0.60409   -1.000
 3732.00    0.61664   0.54802   -1.000
 3733.00    0.57069   0.49387   -1.000
 3734.00    0.51756   0.45483   35.704
 3735.00    0.51472   0.44768   39.397
 3736.00    0.52321   0.47436   40.049
 3737.00    0.53948   0.52442   37.593
 3738.00    0.58136   0.57411   43.267
 3739.00    0.64735   0.62211   -1.000
 3740.00    0.67400   0.64929   -1.000
 3741.00    0.65676   0.65195  260.547
 3742.00    0.65951   0.63208   -1.000
 3743.00    0.67053   0.60732   -1.000
 3744.00    0.63296   0.58366   -1.000
 3745.00    0.57489   0.56568   -1.000
 3746.00    0.55069   0.54980  325.540
 3747.00    0.54784   0.52374   -1.000
 3748.00    0.52560   0.49619   35.821
 3749.00    0.50372   0.47580   37.733
 3750.00    0.51496   0.48134   47.171
 3751.00    0.54912   0.51706   -1.000
 3752.00    0.60047   0.56868   -1.000
 3753.00    0.66621   0.62194   -1.000
 3754.00    0.71059   0.66093   -1.000
 3755.00    0.72770   0.67398   -1.000
 3756.00    0.71372   0.66219   -1.000
 3757.00    0.66626   0.63217   -1.000
 3758.00    0.62216   0.60651   -1.000
 3759.00    0.61394   0.59950   -1.000
 3760.00    0.61338   0.60772  303.720
 3761.00    0.63663   0.62419   -1.000
 3762.00    0.65826   0.63353   -1.000
 3763.00    0.66014   0.63488   -1.000
 3764.00    0.66128   0.63024   -1.000
 3765.00    0.65026   0.62174   -1.000
 3766.00    0.64620   0.60945   -1.000
 3767.00    0.63332   0.59326   -1.000
 3768.00    0.63777   0.56963   -1.000
 3769.00    0.64413   0.54673   -1.000
 3770.00    0.64072   0.53565   -1.000
 3771.00    0.61925   0.55104   -1.000
 3772.00    0.65729   0.58567   -1.000
 3773.00    0.68022   0.62612   -1.000
 3774.00    0.69086   0.65124   -1.000
 3775.00    0.70250   0.66056   -1.000
 3776.00    0.70123   0.66525   -1.000
 3777.00    0.71528   0.67560   -1.000
 3778.00    0.73316   0.69499   -1.000
 3779.00    0.74885   0.71516   -1.000
 3780.00    0.75420   0.73134   -1.000
 3781.00    0.76422   0.73725   -1.000
 3782.00    0.77448   0.73585   -1.000
 3783.00    0.75665   0.73010   -1.000
 3784.00    0.76873   0.72003   -1.000
 3785.00    0.76367   0.70268   -1.000
 3786.00    0.73812   0.68297   -1.000
 3787.00    0.71163   0.66266   -1.000
 3788.00    0.66687   0.64938   -1.000
 3789.00    0.63830   0.64970  273.743
 3790.00    0.63321   0.65499   -1.000
 3791.00    0.67499   0.65787   -1.000
 3792.00    0.69774   0.65201   -1.000
 3793.00    0.69506   0.63076   -1.000
 3794.00    0.64558   0.60193   -1.000
 3795.00    0.63854   0.56709   -1.000
 3796.00    0.64314   0.53148   -1.000
 3797.00    0.60857   0.49937   -1.000
 3798.00    0.57759   0.48849   -1.000
 3799.00    0.57879   0.51417   -1.000
 3800.00    0.61126   0.57470   -1.000
 3801.00    0.66447   0.63144   -1.000
 3802.00    0.68759   0.67337   -1.000
 3803.00    0.70307   0.69157  251.022
 3804.00    0.72498   0.69669   -1.000
 3805.00    0.72402   0.69291   -1.000
 3806.00    0.68956   0.68643  251.253
 3807.00    0.67813   0.68843  260.018
 3808.00    0.70603   0.70213  262.442
 3809.00    0.72229   0.71995  254.608
 3810.00    0.71131   0.73199   -1.000
 3811.00    0.73566   0.72564  245.063
 3812.00    0.76299   0.70038   -1.000
 3813.00    0.71957   0.67279   -1.000
 3814.00    0.65229   0.65071  282.527
 3815.00    0.64095   0.64558  298.640
 3816.00    0.64161   0.65623   -1.000
 3817.00    0.65959   0.66970  301.064
 3818.00    0.66864   0.66821  292.853
 3819.00    0.63024   0.64741   -1.000
 3820.00    0.61763   0.62979  321.841
 3821.00    0.63860   0.62824   -1.000
 3822.00    0.64879   0.64145   -1.000
 3823.00    0.64672   0.64344  312.445
 3824.00    0.62283   0.62461  320.634
 3825.00    0.57567   0.60479   -1.000
 3826.00    0.58185   0.59230   36.694
 3827.00    0.58647   0.58604   37.244
 3828.00    0.58994   0.58404   36.844
 3829.00    0.58748   0.58007   36.240
 3830.00    0.58311   0.57266   35.858
 3831.00    0.57192   0.55387   36.564
 3832.00    0.56097   0.52265   38.512
 3833.00    0.52010   0.48304   41.260
 3834.00    0.51086   0.45115   42.050
 3835.00    0.48732   0.44321   40.994
 3836.00    0.48738   0.45783   39.472
 3837.00    0.51289   0.48298   38.967
 3838.00    0.49699   0.50828   39.859
 3839.00    0.51527   0.53393   40.482
 3840.00    0.55214   0.55964   39.384
 3841.00    0.59435   0.59381   45.611
 3842.00    0.64392   0.63041   -1.000
 3843.00    0.69784   0.66729   -1.000
 3844.00    0.71600   0.69090   -1.000
 3845.00    0.72098   0.70088   -1.000
 3846.00    0.73098   0.70772   -1.000
 3847.00    0.73952   0.71356   -1.000
 3848.00    0.71676   0.71287  285.079
 3849.00    0.68893   0.70540   -1.000
 3850.00    0.71736   0.69851   -1.000
 3851.00    0.71035   0.70702  305.473
 3852.00    0.69984   0.72334   -1.000
 3853.00    0.70237   0.73397   -1.000
 3854.00    0.68639   0.72825   -1.000
 3855.00    0.67412   0.71433   -1.000
 3856.00    0.67781   0.69933   -1.000
 3857.00    0.68118   0.68312  316.873
 3858.00    0.66436   0.66809  123.166
 3859.00    0.63821   0.66354   35.011
 3860.00    0.61474   0.67192   36.638
 3861.00    0.64150   0.69373   43.442
 3862.00    0.69988   0.71795   -1.000
 3863.00    0.75419   0.73152   -1.000
 3864.00    0.76701   0.72969   -1.000
 3865.00    0.74506   0.72427   -1.000
 3866.00    0.71951   0.72406  284.841
 3867.00    0.72093   0.72772  289.349
 3868.00    0.73023   0.73107  296.198
 3869.00    0.72214   0.72721  308.890
 3870.00    0.67123   0.71278   -1.000
 3871.00    0.63914   0.69704   -1.000
 3872.00    0.64346   0.68333   42.354
 3873.00    0.64611   0.68254   -1.000
 3874.00    0.66906   0.69420   -1.000
 3875.00    0.70782   0.70745  277.571
 3876.00    0.71630   0.70056   -1.000
 3877.00    0.69153   0.68018   -1.000
 3878.00    0.66528   0.66266  306.023
 3879.00    0.65881   0.65890  322.978
 3880.00    0.67297   0.66924  324.478
 3881.00    0.65531   0.67543   -1.000
 3882.00    0.63283   0.67023   -1.000
 3883.00    0.64849   0.66285   -1.000
 3884.00    0.65871   0.64981   -1.000
 3885.00    0.64978   0.61601   -1.000
 3886.00    0.62886   0.57065   -1.000
 3887.00    0.60803   0.52316   -1.000
 3888.00    0.58177   0.50013   -1.000
 3889.00    0.55789   0.51141   -1.000
 3890.00    0.57674   0.55546   -1.000
 3891.00    0.64584   0.61116   -1.000
 3892.00    0.70904   0.65706   -1.000
 3893.00    0.73614   0.67478   -1.000
 3894.00    0.72874   0.67732   -1.000
 3895.00    0.71199   0.68468   -1.000
 3896.00    0.72023   0.69602   -1.000
 3897.00    0.75404   0.70955   -1.000
 3898.00    0.76711   0.71769   -1.000
 3899.00    0.76089   0.71764   -1.000
 3900.00    0.75922   0.72202   -1.000
 3901.00    0.77472   0.72936   -1.000
 3902.00    0.77048   0.72994   -1.000
 3903.00    0.75589   0.72443   -1.000
 3904.00    0.75428   0.71502   -1.000
 3905.00    0.73943   0.71190   -1.000
 3906.00    0.73758   0.71904   -1.000
 3907.00    0.75111   0.74241  249.428
 3908.00    0.78524   0.77130   -1.000
 3909.00    0.83392   0.79506   -1.000
 3910.00    0.84971   0.80540   -1.000
 3911.00    0.83616   0.81087   -1.000
 3912.00    0.84519   0.81281   -1.000
 3913.00    0.83016   0.80916   -1.000
 3914.00    0.78709   0.79766  214.380
 3915.00    0.77165   0.78946   -1.000
 3916.00    0.78038   0.78511  223.741
 3917.00    0.77478   0.77664  226.551
 3918.00    0.77097   0.76293  230.250
 3919.00    0.76501   0.74613   -1.000
 3920.00    0.72874   0.73368  248.539
 3921.00    0.72171   0.72534  259.237
 3922.00    0.71650   0.72707  262.955
 3923.00    0.73861   0.73423  259.932
 3924.00    0.75736   0.73700   -1.000
 3925.00    0.74047   0.73157   -1.000
 3926.00    0.70686   0.70758  275.914
 3927.00    0.66172   0.67217  304.142
 3928.00    0.56909   0.62657   -1.000
 3929.00    0.49087   0.57523   -1.000
 3930.00    0.44010   0.51515   -1.000
 3931.00    0.40541   0.43196   54.597
 3932.00    0.34322   0.35079   64.509
 3933.00    0.30688   0.29807   74.598
 3934.00    0.29422   0.30579   79.525
 3935.00    0.32422   0.36887   -1.000
 3936.00    0.36086   0.45893   -1.000
 3937.00    0.43591   0.53926   -1.000
 3938.00    0.51765   0.61538   -1.000
 3939.00    0.58719   0.66572   -1.000
 3940.00    0.65019   0.69838   -1.000
 3941.00    0.66220   0.71703   -1.000
 3942.00    0.65734   0.71907   -1.000
 3943.00    0.66089   0.71652   -1.000
 3944.00    0.66883   0.72195   -1.000
 3945.00    0.71781   0.73654   -1.000
 3946.00    0.76697   0.75778  252.523
 3947.00    0.77789   0.76982  240.198
 3948.00    0.78060   0.77194  237.949
 3949.00    0.78343   0.77385  234.929
 3950.00    0.78324   0.77689  226.314
 3951.00    0.79473   0.77743   -1.000
 3952.00    0.79527   0.77919   -1.000
 3953.00    0.79231   0.78785  224.039
 3954.00    0.80380   0.79380  219.619
 3955.00    0.81865   0.78868   -1.000
 3956.00    0.80536   0.77569   -1.000
 3957.00    0.78616   0.76435   -1.000
 3958.00    0.80071   0.76243   -1.000
 3959.00    0.78773   0.75567   -1.000
 3960.00    0.75278   0.72672   -1.000
 3961.00    0.70634   0.69244   -1.000
 3962.00    0.65793   0.65697  294.193
 3963.00    0.60955   0.62757   -1.000
 3964.00    0.58715   0.59636  138.350
 3965.00    0.52917   0.53397   37.353
 3966.00    0.44764   0.45276   44.206
 3967.00    0.37854   0.35953   54.525
 3968.00    0.32784   0.29945   65.654
 3969.00    0.31685   0.29648   70.276
 3970.00    0.33913   0.35089   63.625
 3971.00    0.42566   0.43044   52.337
 3972.00    0.51524   0.51928   43.156
 3973.00    0.57614   0.58949   43.982
 3974.00    0.64640   0.64781  314.963
 3975.00    0.70877   0.69277   -1.000
 3976.00    0.74434   0.72895   -1.000
 3977.00    0.77308   0.76136   -1.000
 3978.00    0.80186   0.78861   -1.000
 3979.00    0.83600   0.81082   -1.000
 3980.00    0.86915   0.81861   -1.000
 3981.00    0.86394   0.81883   -1.000
 3982.00    0.84596   0.81938   -1.000
 3983.00    0.85071   0.82344   -1.000
 3984.00    0.87235   0.83615   -1.000
 3985.00    0.87921   0.85124   -1.000
 3986.00    0.88213   0.86415   -1.000
 3987.00    0.89824   0.87726   -1.000
 3988.00    0.91102   0.88702   -1.000
 3989.00    0.91318   0.88711   -1.000
 3990.00    0.93910   0.88686   -1.000
 3991.00    0.95580   0.89327   -1.000
 3992.00    0.95954   0.90511   -1.000
 3993.00    0.96849   0.91404   -1.000
 3994.00    0.95324   0.91272   -1.000
 3995.00    0.92770   0.89897   -1.000
 3996.00    0.90682   0.87994   -1.000
 3997.00    0.89699   0.87094   -1.000
 3998.00    0.91123   0.87594   -1.000
 3999.00    0.92604   0.89509   -1.000
 4000.00    0.94413   0.91442   -1.000
 4001.00    0.96914   0.92962   -1.000
 4002.00    0.99029   0.93305   -1.000
 4003.00    0.98991   0.92402   -1.000
 4004.00    0.94490   0.89969   -1.000
 4005.00    0.90331   0.87804   -1.000
 4006.00    0.90223   0.87791   -1.000
 4007.00    0.94510   0.89924   -1.000
 4008.00    0.97465   0.92667   -1.000
 4009.00    0.99323   0.94223   -1.000
 4010.00    0.99422   0.94899   -1.000
 4011.00    0.99417   0.95322   -1.000
 4012.00    0.98308   0.95432   -1.000
 4013.00    0.96792   0.95643  168.546
 4014.00    0.95139   0.96058  169.088
 4015.00    1.01350   0.96496   -1.000
 4016.00    1.00750   0.96789   -1.000
 4017.00    0.98883   0.96842   -1.000
 4018.00    1.00596   0.97264   -1.000
 4019.00    1.02579   0.97845   -1.000
 4020.00    1.01440   0.98213   -1.000
 4021.00    0.99821   0.97729   -1.000
 4022.00    1.00318   0.97059   -1.000
 4023.00    0.99439   0.96375   -1.000
 4024.00    0.97525   0.95736   -1.000
 4025.00    0.98623   0.95821   -1.000
 4026.00    1.01157   0.97220   -1.000
 4027.00    1.02699   0.99214   -1.000
 4028.00    1.03112   0.99630   -1.000
 4029.00    1.01804   0.97488   -1.000
 4030.00    0.96159   0.93608   -1.000
 4031.00    0.91435   0.90164  179.513
 4032.00    0.91410   0.88580   -1.000
 4033.00    0.96798   0.88845   -1.000
 4034.00    0.97036   0.90620   -1.000
 4035.00    0.97639   0.93902   -1.000
 4036.00    1.00000   0.97829   -1.000
 4037.00    1.06922   1.01135   -1.000
 4038.00    1.09534   1.02403   -1.000
 4039.00    1.06225   1.01830   -1.000
 4040.00    1.01433   1.00370  159.691
 4041.00    1.02031   0.99510   -1.000
 4042.00    1.03157   0.98400   -1.000
 4043.00    1.02101   0.95564   -1.000
 4044.00    0.97188   0.91081   -1.000
 4045.00    0.91138   0.87378   -1.000
 4046.00    0.88369   0.87432  204.326
 4047.00    0.94039   0.91231   -1.000
 4048.00    1.01616   0.96159   -1.000
 4049.00    1.04843   0.99633   -1.000
 4050.00    1.04283   1.00966   -1.000
 4051.00    1.04589   1.01342   -1.000
 4052.00    1.04505   1.00640   -1.000
 4053.00    1.01648   0.99313   -1.000
 4054.00    0.99451   0.98204  170.643
 4055.00    0.99702   0.97298   -1.000
 4056.00    0.99579   0.96731   -1.000
 4057.00    0.99686   0.96399   -1.000
 4058.00    0.99692   0.97007   -1.000
 4059.00    1.00573   0.98542   -1.000
 4060.00    1.03348   0.99469   -1.000
 4061.00    1.03021   0.97925   -1.000
 4062.00    1.00273   0.93851   -1.000
 4063.00    0.94057   0.90619   -1.000
 4064.00    0.93281   0.89447   -1.000
 4065.00    0.94209   0.90484   -1.000
 4066.00    0.96725   0.92822   -1.000
 4067.00    0.98852   0.94832   -1.000
 4068.00    1.02168   0.95846   -1.000
 4069.00    1.01862   0.95839   -1.000
 4070.00    1.01108   0.94224   -1.000
 4071.00    0.98648   0.91838   -1.000
 4072.00    0.97390   0.91246   -1.000
 4073.00    1.00470   0.92755   -1.000
 4074.00    1.00575   0.94203   -1.000
 4075.00    0.96546   0.93351   -1.000
 4076.00    0.92765   0.90669   -1.000
 4077.00    0.88254   0.88674  194.450
 4078.00    0.88354   0.88933  198.090
 4079.00    0.94925   0.92152   -1.000
 4080.00    0.99365   0.96170   -1.000
 4081.00    1.02392   0.98938   -1.000
 4082.00    1.03013   0.99031   -1.000
 4083.00    1.00252   0.97571   -1.000
 4084.00    1.00203   0.96096   -1.000
 4085.00    0.98590   0.96061   -1.000
 4086.00    1.02059   0.97784   -1.000
 4087.00    1.08147   1.00190   -1.000
 4088.00    1.10672   1.02023   -1.000
 4089.00    1.09575   1.02329   -1.000
 4090.00    1.08162   1.01346   -1.000
 4091.00    1.05932   1.00176   -1.000
 4092.00    1.04972   0.99495   -1.000
 4093.00    1.05021   0.98220   -1.000
 4094.00    1.03250   0.96470   -1.000
 4095.00    0.99741   0.93769   -1.000
 4096.00    0.99091   0.90622   -1.000
 4097.00    0.98270   0.88107   -1.000
 4098.00    0.93803   0.84950   -1.000
 4099.00    0.89811   0.80343   -1.000
 4100.00    0.85862   0.74203   -1.000
 4101.00    0.77179   0.69762   -1.000
 4102.00    0.75213   0.69685   -1.000
 4103.00    0.81573   0.75433   -1.000
 4104.00    0.89540   0.82682   -1.000
 4105.00    0.94692   0.88830   -1.000
 4106.00    0.98267   0.92326   -1.000
 4107.00    0.98092   0.94083   -1.000
 4108.00    0.98083   0.94757   -1.000
 4109.00    0.97746   0.94643   -1.000
 4110.00    0.98479   0.94846   -1.000
 4111.00    1.00863   0.95554   -1.000
 4112.00    1.01228   0.96687   -1.000
 4113.00    1.03345   0.98308   -1.000
 4114.00    1.03771   1.00046   -1.000
 4115.00    1.04707   1.01353   -1.000
 4116.00    1.04254   1.01234   -1.000
 4117.00    1.04499   1.00082   -1.000
 4118.00    1.02275   0.98501   -1.000
 4119.00    0.98832   0.97367  174.698
 4120.00    0.99326   0.97566  176.000
 4121.00    1.00935   0.98533   -1.000
 4122.00    1.01377   0.99474   -1.000
 4123.00    1.00467   1.00275  172.160
 4124.00    1.06342   1.01242   -1.000
 4125.00    1.09390   1.02268   -1.000
 4126.00    1.05069   1.02245   -1.000
 4127.00    1.01293   1.01431  169.814
 4128.00    1.01592   1.00557  173.221
 4129.00    1.01571   1.00125  174.502
 4130.00    1.00354   0.99118  175.551
 4131.00    0.98704   0.97237  178.284
 4132.00    1.00072   0.95340   -1.000
 4133.00    0.99183   0.95359   -1.000
 4134.00    0.98969   0.97331   -1.000
 4135.00    0.99778   1.00155  181.544
 4136.00    1.03235   1.02684  172.717
 4137.00    1.06310   1.04614  167.595
 4138.00    1.09766   1.05771   -1.000
 4139.00    1.11793   1.06433   -1.000
 4140.00    1.10133   1.05378   -1.000
 4141.00    1.06823   1.02343   -1.000
 4142.00    1.01822   0.98250   -1.000
 4143.00    0.97357   0.95350   -1.000
 4144.00    0.95677   0.95409  198.472
 4145.00    0.99019   0.98216  189.978
 4146.00    1.02825   1.01289  179.000
 4147.00    1.05345   1.02558   -1.000
 4148.00    1.06755   1.02528   -1.000
 4149.00    1.03345   1.02315  175.844
 4150.00    1.03351   1.02306  180.470
 4151.00    1.02880   1.02385  182.127
 4152.00    1.03622   1.01955  180.722
 4153.00    1.01542   1.01264  180.068
 4154.00    0.98343   1.00582   -1.000
 4155.00    0.99172   1.00459  184.015
 4156.00    1.04075   1.01482   -1.000
 4157.00    1.04644   1.03000  178.683
 4158.00    1.13200   1.04665   -1.000
 4159.00    1.35787   1.06039   -1.000
 4160.00    1.29766   1.06878   -1.000
 4161.00    0.79795   1.07548   -1.000
 4162.00    0.90530   1.08236   -1.000
 4163.00    1.15032   1.08778   -1.000
 4164.00    1.11411   1.08589   -1.000
 4165.00    1.08137   1.07574  170.435
 4166.00    1.06806   1.05812  173.142
 4167.00    1.04798   1.04942  176.945
 4168.00    1.03924   1.04872  179.062
 4169.00    1.05745   1.05225  177.321
 4170.00    1.05135   1.04618  174.824
 4171.00    1.04111   1.01970   -1.000
 4172.00    1.01162   0.99154   -1.000
 4173.00    0.96289   0.98001   -1.000
 4174.00    0.96829   0.99031   -1.000
 4175.00    0.99864   1.01073  190.783
 4176.00    1.03331   1.02094  184.775
 4177.00    1.02588   1.02602  185.009
 4178.00    1.02093   1.03539   -1.000
 4179.00    1.03467   1.04652  184.740
 4180.00    1.05633   1.05504  181.906
 4181.00    1.05465   1.04944  180.446
 4182.00    1.06415   1.04374   -1.000
 4183.00    1.05521   1.05384  178.132
 4184.00    1.03767   1.06562   -1.000
 4185.00    1.03392   1.06525   -1.000
 4186.00    1.02465   1.04902   -1.000
 4187.00    1.02300   1.03233  178.981
 4188.00    1.01514   1.03066  183.191
 4189.00    1.03221   1.04063  180.986
 4190.00    1.05282   1.04955  177.167
 4191.00    1.06808   1.05453  176.033
 4192.00    1.07045   1.06004  173.435
 4193.00    1.08107   1.07020  169.800
 4194.00    1.07074   1.07154  168.520
 4195.00    1.02934   1.05180   -1.000
 4196.00    0.99716   1.02428   -1.000
 4197.00    0.98926   1.00021  188.764
 4198.00    0.97509   0.98589  191.606
 4199.00    0.98920   0.97930  191.582
 4200.00    1.01048   0.98336   -1.000
 4201.00    1.00224   0.99104  186.493
 4202.00    1.00881   0.99757  185.999
 4203.00    1.02523   1.01403  184.541
 4204.00    1.02772   1.03791  181.758
 4205.00    1.03139   1.05953   -1.000
 4206.00    1.06492   1.07483  176.488
 4207.00    1.07110   1.08608  172.152
 4208.00    1.08265   1.08958  169.161
 4209.00    1.08734   1.08686  168.617
 4210.00    1.07069   1.08351  169.248
 4211.00    1.09044   1.08633  168.736
 4212.00    1.09740   1.09254  167.782
 4213.00    1.08419   1.08193  169.414
 4214.00    1.04678   1.05629  175.468
 4215.00    1.01907   1.03829   -1.000
 4216.00    0.99375   1.03688   -1.000
 4217.00    1.01647   1.06028   -1.000
 4218.00    1.06145   1.08831   -1.000
 4219.00    1.09730   1.10634  161.033
 4220.00    1.10117   1.11207  156.998
 4221.00    1.09564   1.10577  155.797
 4222.00    1.07771   1.08149  157.941
 4223.00    1.04657   1.03849  165.243
 4224.00    0.99070   0.97238   -1.000
 4225.00    0.91417   0.91120  196.243
 4226.00    0.84701   0.87599   -1.000
 4227.00    0.85435   0.89525   -1.000
 4228.00    0.93969   0.95720   -1.000
 4229.00    1.02150   1.03377  188.086
 4230.00    1.07918   1.07775  170.283
 4231.00    1.09692   1.08758  162.650
 4232.00    1.08283   1.07991  162.260
 4233.00    1.04820   1.06362  166.215
 4234.00    1.06206   1.04785  170.294
 4235.00    1.03822   1.04573  172.131
 4236.00    1.02811   1.04848   -1.000
 4237.00    1.04723   1.05563  178.798
 4238.00    1.06132   1.06978  176.916
 4239.00    1.04593   1.08350   -1.000
 4240.00    1.04188   1.09976   -1.000
 4241.00    1.06322   1.11945   -1.000
 4242.00    1.08608   1.13705   -1.000
 4243.00    1.09642   1.14995   -1.000
 4244.00    1.11442   1.15355   -1.000
 4245.00    1.12668   1.14773   -1.000
 4246.00    1.09596   1.12305   -1.000
 4247.00    1.03617   1.08862   -1.000
 4248.00    1.02218   1.06155   -1.000
 4249.00    1.03497   1.04603  178.645
 4250.00    1.04223   1.04641  179.926
 4251.00    1.05919   1.06139  179.031
 4252.00    1.08380   1.07454  173.647
 4253.00    1.07124   1.07565  169.448
 4254.00    1.05955   1.06863  171.112
 4255.00    1.06662   1.07515  175.169
 4256.00    1.08064   1.09878  172.013
 4257.00    1.08671   1.11302   -1.000
 4258.00    1.06404   1.09755   -1.000
 4259.00    1.02728   1.06417   -1.000
 4260.00    0.99432   1.04853   -1.000
 4261.00    1.00252   1.06595   -1.000
 4262.00    1.06883   1.10526   -1.000
 4263.00    1.11022   1.14429   -1.000
 4264.00    1.12807   1.16618   -1.000
 4265.00    1.14667   1.16712  155.432
 4266.00    1.15173   1.15915  155.534
 4267.00    1.12049   1.14391   -1.000
 4268.00    1.07966   1.11652   -1.000
 4269.00    1.07267   1.08006  168.996
 4270.00    1.02793   1.03919  176.101
 4271.00    0.97519   1.00665   -1.000
 4272.00    0.95291   0.99416   -1.000
 4273.00    0.96101   1.00258   -1.000
 4274.00    0.97417   1.02397   -1.000
 4275.00    0.99654   1.05293   -1.000
 4276.00    1.06330   1.09558   -1.000
 4277.00    1.10374   1.13534   -1.000
 4278.00    1.09849   1.14972   -1.000
 4279.00    1.07853   1.14008   -1.000
 4280.00    1.05456   1.11641   -1.000
 4281.00    1.05238   1.10371   -1.000
 4282.00    1.05668   1.10545   -1.000
 4283.00    1.06659   1.10877   -1.000
 4284.00    1.06911   1.11028   -1.000
 4285.00    1.03807   1.10459   -1.000
 4286.00    1.01520   1.09108   -1.000
 4287.00    0.99451   1.06906   -1.000
 4288.00    0.96562   1.03902   -1.000
 4289.00    0.92982   1.00817   -1.000
 4290.00    0.92290   0.99946   -1.000
 4291.00    0.95681   1.02018   -1.000
 4292.00    1.00294   1.05206   -1.000
 4293.00    1.03829   1.07148   -1.000
 4294.00    1.03751   1.06924   -1.000
 4295.00    1.02123   1.06167   -1.000
 4296.00    1.01048   1.05156   -1.000
 4297.00    0.98093   1.02372   -1.000
 4298.00    0.92624   0.98438   -1.000
 4299.00    0.86922   0.94509   -1.000
 4300.00    0.81895   0.92225   -1.000
 4301.00    0.81686   0.92128   -1.000
 4302.00    0.84221   0.93369   -1.000
 4303.00    0.86454   0.94707   -1.000
 4304.00    0.89567   0.95878   -1.000
 4305.00    0.90679   0.95571   -1.000
 4306.00    0.88231   0.93583   -1.000
 4307.00    0.85958   0.91185   -1.000
 4308.00    0.82961   0.90029   -1.000
 4309.00    0.81476   0.91293   -1.000
 4310.00    0.86718   0.94124   -1.000
 4311.00    0.90501   0.97308   -1.000
 4312.00    0.92869   1.00366   -1.000
 4313.00    0.98221   1.03582   -1.000
 4314.00    1.02814   1.08114   -1.000
 4315.00    1.06477   1.13567   -1.000
 4316.00    1.15800   1.19423   -1.000
 4317.00    1.21347   1.23172  150.484
 4318.00    1.21168   1.23744   -1.000
 4319.00    1.20924   1.22490  146.510
 4320.00    1.19466   1.20843  149.034
 4321.00    1.16324   1.18409   -1.000
 4322.00    1.10963   1.14470   -1.000
 4323.00    1.04998   1.09247   -1.000
 4324.00    0.99944   1.03826   -1.000
 4325.00    0.96227   1.01640   -1.000
 4326.00    0.98030   1.04466   -1.000
 4327.00    1.07001   1.10733   -1.000
 4328.00    1.15146   1.16576  165.801
 4329.00    1.17372   1.19584   -1.000
 4330.00    1.15510   1.19852   -1.000
 4331.00    1.15271   1.19645   -1.000
 4332.00    1.16755   1.20299   -1.000
 4333.00    1.15845   1.20721   -1.000
 4334.00    1.15918   1.19699   -1.000
 4335.00    1.17103   1.16632  148.482
 4336.00    1.12557   1.10935  151.884
 4337.00    1.06199   1.02691   -1.000
 4338.00    0.99682   0.93087   -1.000
 4339.00    0.89780   0.86451   -1.000
 4340.00    0.84595   0.84433  210.057
 4341.00    0.86638   0.88777   -1.000
 4342.00    0.94976   0.97304   -1.000
 4343.00    1.02260   1.06256   -1.000
 4344.00    1.09218   1.11588   -1.000
 4345.00    1.13486   1.15076  161.393
 4346.00    1.15982   1.17874  157.197
 4347.00    1.17186   1.20333   -1.000
 4348.00    1.18491   1.21975   -1.000
 4349.00    1.16278   1.21118   -1.000
 4350.00    1.12824   1.17475   -1.000
 4351.00    1.08540   1.13187   -1.000
 4352.00    1.03939   1.11275   -1.000
 4353.00    1.08453   1.13197   -1.000
 4354.00    1.14798   1.17250   -1.000
 4355.00    1.16436   1.20697   -1.000
 4356.00    1.19392   1.22288   -1.000
 4357.00    1.22233   1.22687  151.198
 4358.00    1.19238   1.22393   -1.000
 4359.00    1.16295   1.22205   -1.000
 4360.00    1.15286   1.23107   -1.000
 4361.00    1.18871   1.24730   -1.000
 4362.00    1.23910   1.26353   -1.000
 4363.00    1.24077   1.27368   -1.000
 4364.00    1.24709   1.27891   -1.000
 4365.00    1.24507   1.27769   -1.000
 4366.00    1.23378   1.26223   -1.000
 4367.00    1.17994   1.23866   -1.000
 4368.00    1.17279   1.22354   -1.000
 4369.00    1.17559   1.21890   -1.000
 4370.00    1.18726   1.21785   -1.000
 4371.00    1.18702   1.21179   -1.000
 4372.00    1.18303   1.19407  154.129
 4373.00    1.16179   1.16904  156.212
 4374.00    1.12429   1.14237  162.930
 4375.00    1.11584   1.13623   -1.000
 4376.00    1.13665   1.16116   -1.000
 4377.00    1.19792   1.20199  160.329
 4378.00    1.22529   1.22843  152.675
 4379.00    1.19129   1.22805   -1.000
 4380.00    1.19185   1.20223  151.886
 4381.00    1.18574   1.15386   -1.000
 4382.00    1.11210   1.08560   -1.000
 4383.00    1.00941   1.03413   -1.000
 4384.00    0.96525   1.02580   -1.000
 4385.00    1.04251   1.06610   -1.000
 4386.00    1.11576   1.12272  180.835
 4387.00    1.16871   1.16062  164.780
 4388.00    1.13840   1.17230   -1.000
 4389.00    1.13920   1.17397   -1.000
 4390.00    1.14650   1.17747   -1.000
 4391.00    1.16411   1.18563   -1.000
 4392.00    1.19838   1.19667  159.483
 4393.00    1.19931   1.20032  156.275
 4394.00    1.18075   1.19356  157.850
 4395.00    1.16846   1.19749   -1.000
 4396.00    1.18663   1.22045   -1.000
 4397.00    1.22364   1.24279   -1.000
 4398.00    1.23472   1.24364  148.486
 4399.00    1.19302   1.22540   -1.000
 4400.00    1.17157   1.20794   -1.000
 4401.00    1.17768   1.19758   -1.000
 4402.00    1.20560   1.18776  158.642
 4403.00    1.18835   1.16833  156.434
 4404.00    1.13297   1.13843  162.834
 4405.00    1.09501   1.12836   -1.000
 4406.00    1.12416   1.14358   -1.000
 4407.00    1.16803   1.17189  166.208
 4408.00    1.17308   1.19558   -1.000
 4409.00    1.19147   1.22764   -1.000
 4410.00    1.22407   1.26769   -1.000
 4411.00    1.24254   1.29597   -1.000
 4412.00    1.27195   1.29228   -1.000
 4413.00    1.27537   1.26382  143.344
 4414.00    1.20447   1.22045  147.961
 4415.00    1.14884   1.18586   -1.000
 4416.00    1.15741   1.18723   -1.000
 4417.00    1.17985   1.22157   -1.000
 4418.00    1.21109   1.26884   -1.000
 4419.00    1.25075   1.30055   -1.000
 4420.00    1.26930   1.30779   -1.000
 4421.00    1.25027   1.29172   -1.000
 4422.00    1.21299   1.27191   -1.000
 4423.00    1.21256   1.26191   -1.000
 4424.00    1.22750   1.26208   -1.000
 4425.00    1.21771   1.25978   -1.000
 4426.00    1.20677   1.25594   -1.000
 4427.00    1.18874   1.25996   -1.000
 4428.00    1.18942   1.27093   -1.000
 4429.00    1.20340   1.28008   -1.000
 4430.00    1.20369   1.28496   -1.000
 4431.00    1.21482   1.28656   -1.000
 4432.00    1.23198   1.28290   -1.000
 4433.00    1.20868   1.26287   -1.000
 4434.00    1.16259   1.23333   -1.000
 4435.00    1.13235   1.21657   -1.000
 4436.00    1.15391   1.23992   -1.000
 4437.00    1.22483   1.29091   -1.000
 4438.00    1.26548   1.33698   -1.000
 4439.00    1.29361   1.35004   -1.000
 4440.00    1.29011   1.32501   -1.000
 4441.00    1.24228   1.28518   -1.000
 4442.00    1.20700   1.25353   -1.000
 4443.00    1.18204   1.25508   -1.000
 4444.00    1.19938   1.28547   -1.000
 4445.00    1.25708   1.32507   -1.000
 4446.00    1.29431   1.34892   -1.000
 4447.00    1.28787   1.35175   -1.000
 4448.00    1.28921   1.35037   -1.000
 4449.00    1.29468   1.35123   -1.000
 4450.00    1.26448   1.35042   -1.000
 4451.00    1.24528   1.34451   -1.000
 4452.00    1.27125   1.33006   -1.000
 4453.00    1.25857   1.29905   -1.000
 4454.00    1.21403   1.25951   -1.000
 4455.00    1.18006   1.23364   -1.000
 4456.00    1.20063   1.23530   -1.000
 4457.00    1.24254   1.25497  159.127
 4458.00    1.22401   1.26542   -1.000
 4459.00    1.22336   1.26543   -1.000
 4460.00    1.21748   1.26311   -1.000
 4461.00    1.21792   1.26692   -1.000
 4462.00    1.22734   1.28423   -1.000
 4463.00    1.26636   1.31026   -1.000
 4464.00    1.29573   1.33061   -1.000
 4465.00    1.29476   1.33606   -1.000
 4466.00    1.30085   1.32890   -1.000
 4467.00    1.26792   1.31607   -1.000
 4468.00    1.23927   1.30662   -1.000
 4469.00    1.23224   1.30463   -1.000
 4470.00    1.23732   1.31845   -1.000
 4471.00    1.26897   1.34790   -1.000
 4472.00    1.31176   1.37925   -1.000
 4473.00    1.34171   1.40049   -1.000
 4474.00    1.35182   1.40556   -1.000
 4475.00    1.37274   1.40565   -1.000
 4476.00    1.36832   1.40754   -1.000
 4477.00    1.38859   1.41358   -1.000
 4478.00    1.38982   1.40865  134.434
 4479.00    1.34789   1.37795   -1.000
 4480.00    1.30049   1.33801   -1.000
 4481.00    1.27762   1.31601   -1.000
 4482.00    1.29902   1.32493   -1.000
 4483.00    1.31557   1.35906   -1.000
 4484.00    1.35070   1.40388   -1.000
 4485.00    1.39037   1.43400   -1.000
 4486.00    1.40701   1.43950   -1.000
 4487.00    1.38032   1.42223   -1.000
 4488.00    1.33614   1.39479   -1.000
 4489.00    1.29673   1.37336   -1.000
 4490.00    1.30060   1.37430   -1.000
 4491.00    1.33311   1.39319   -1.000
 4492.00    1.34701   1.40370   -1.000
 4493.00    1.35505   1.39154   -1.000
 4494.00    1.33538   1.36855   -1.000
 4495.00    1.30788   1.35896   -1.000
 4496.00    1.30619   1.36849   -1.000
 4497.00    1.32074   1.38871   -1.000
 4498.00    1.35884   1.40656   -1.000
 4499.00    1.38220   1.41109   -1.000
 4500.00    1.36320   1.40228   -1.000
 4501.00    1.35743   1.40141   -1.000
 4502.00    1.37614   1.41907   -1.000
 4503.00    1.40599   1.45424   -1.000
 4504.00    1.42692   1.48058   -1.000
 4505.00    1.41746   1.49151   -1.000
 4506.00    1.40871   1.48308   -1.000
 4507.00    1.40315   1.47018   -1.000
 4508.00    1.41021   1.46707   -1.000
 4509.00    1.43130   1.46943   -1.000
 4510.00    1.43195   1.47436   -1.000
 4511.00    1.42937   1.47131   -1.000
 4512.00    1.41078   1.45769   -1.000
 4513.00    1.39128   1.44383   -1.000
 4514.00    1.39322   1.43598   -1.000
 4515.00    1.39439   1.43661   -1.000
 4516.00    1.40781   1.43809   -1.000
 4517.00    1.39755   1.43507   -1.000
 4518.00    1.38338   1.42847   -1.000
 4519.00    1.37716   1.42992   -1.000
 4520.00    1.40049   1.44394   -1.000
 4521.00    1.40911   1.45395   -1.000
 4522.00    1.36996   1.44920   -1.000
 4523.00    1.34513   1.42910   -1.000
 4524.00    1.35166   1.40970   -1.000
 4525.00    1.35019   1.39421   -1.000
 4526.00    1.32032   1.37077   -1.000
 4527.00    1.28633   1.34155   -1.000
 4528.00    1.26415   1.31832   -1.000
 4529.00    1.27790   1.31292   -1.000
 4530.00    1.30390   1.32504   -1.000
 4531.00    1.32929   1.34258  151.366
 4532.00    1.32604   1.34822   -1.000
 4533.00    1.30371   1.33505   -1.000
 4534.00    1.26656   1.31716   -1.000
 4535.00    1.24999   1.31772   -1.000
 4536.00    1.32518   1.34669   -1.000
 4537.00    1.40574   1.39850  145.580
 4538.00    1.46315   1.44496  137.247
 4539.00    1.43941   1.46205   -1.000
 4540.00    1.41064   1.45376   -1.000
 4541.00    1.42215   1.44216   -1.000
 4542.00    1.41602   1.44089   -1.000
 4543.00    1.40571   1.44500   -1.000
 4544.00    1.38523   1.44392   -1.000
 4545.00    1.38682   1.43439   -1.000
 4546.00    1.38648   1.42640   64.017
 4547.00    1.21154   1.42144   -1.000
 4548.00    0.33356   1.40898   -1.000
 4549.00    0.04010   1.39483   -1.000
 4550.00    0.20055   1.39610   -1.000
 4551.00    0.97649   1.41534   -1.000
 4552.00    0.51907   1.42600   -1.000
 4553.00    0.96882   1.41546   -1.000
 4554.00    1.34643   1.39799   -1.000
 4555.00    1.33498   1.39500   -1.000
 4556.00    1.36493   1.41756   -1.000
 4557.00    1.41986   1.45813   -1.000
 4558.00    1.46255   1.49529   -1.000
 4559.00    1.47103   1.51194   -1.000
 4560.00    1.45651   1.52009   -1.000
 4561.00    1.45606   1.51622   -1.000
 4562.00    1.43391   1.50123   -1.000
 4563.00    1.41910   1.47883   -1.000
 4564.00    1.39262   1.46046   -1.000
 4565.00    1.38514   1.45865   -1.000
 4566.00    1.42455   1.47704   -1.000
 4567.00    1.47541   1.50288   -1.000
 4568.00    1.50485   1.52320  132.443
 4569.00    1.49643   1.51922   -1.000
 4570.00    1.46351   1.49755   -1.000
 4571.00    1.40300   1.47022   -1.000
 4572.00    1.38987   1.46066   -1.000
 4573.00    1.42748   1.48130   -1.000
 4574.00    1.46372   1.50831   -1.000
 4575.00    1.47138   1.52174   -1.000
 4576.00    1.45643   1.51807   -1.000
 4577.00    1.46086   1.50894   -1.000
 4578.00    1.46013   1.49319   -1.000
 4579.00    1.44106   1.46759   -1.000
 4580.00    1.41120   1.44173   -1.000
 4581.00    1.40128   1.43332   -1.000
 4582.00    1.41412   1.43988   -1.000
 4583.00    1.42240   1.45202   -1.000
 4584.00    1.42510   1.45672   -1.000
 4585.00    1.42533   1.45576   -1.000
 4586.00    1.43025   1.45916   -1.000
 4587.00    1.44891   1.47292   -1.000
 4588.00    1.47507   1.49617   -1.000
 4589.00    1.49685   1.51189  132.618
 4590.00    1.48320   1.51372   -1.000
 4591.00    1.44416   1.50288   -1.000
 4592.00    1.39819   1.48268   -1.000
 4593.00    1.40524   1.47237   -1.000
 4594.00    1.42552   1.47279   -1.000
 4595.00    1.42961   1.47785   -1.000
 4596.00    1.43636   1.48491   -1.000
 4597.00    1.46063   1.49350   -1.000
 4598.00    1.48569   1.49743  136.630
 4599.00    1.48060   1.49599  136.386
 4600.00    1.45355   1.48720   -1.000
 4601.00    1.42151   1.47804   -1.000
 4602.00    1.39926   1.47801   -1.000
 4603.00    1.42527   1.48235   -1.000
 4604.00    1.45377   1.48714   -1.000
 4605.00    1.47099   1.49185   -1.000
 4606.00    1.47624   1.49933   -1.000
 4607.00    1.49213   1.51502   -1.000
 4608.00    1.52734   1.53803  131.733
 4609.00    1.54130   1.56417   -1.000
 4610.00    1.54826   1.56985  127.588
 4611.00    1.53304   1.56012   -1.000
 4612.00    1.51188   1.54676   -1.000
 4613.00    1.50374   1.53835   -1.000
 4614.00    1.48090   1.54026   -1.000
 4615.00    1.48256   1.54971   -1.000
 4616.00    1.52074   1.55720   -1.000
 4617.00    1.51703   1.55861   -1.000
 4618.00    1.50594   1.55775   -1.000
 4619.00    1.51208   1.55601   -1.000
 4620.00    1.53523   1.56046   -1.000
 4621.00    1.52348   1.57068   -1.000
 4622.00    1.53405   1.57801   -1.000
 4623.00    1.55854   1.57707  128.293
 4624.00    1.55441   1.56896  128.632
 4625.00    1.53536   1.56102   -1.000
 4626.00    1.50859   1.55286   -1.000
 4627.00    1.51363   1.55192   -1.000
 4628.00    1.49450   1.55515   -1.000
 4629.00    1.47433   1.55775   -1.000
 4630.00    1.47394   1.55978   -1.000
 4631.00    1.52634   1.56551   -1.000
 4632.00    1.54726   1.56920   -1.000
 4633.00    1.53044   1.56404   -1.000
 4634.00    1.52280   1.55267   -1.000
 4635.00    1.51388   1.54607   -1.000
 4636.00    1.49483   1.54133   -1.000
 4637.00    1.49527   1.53184   -1.000
 4638.00    1.48991   1.52020   -1.000
 4639.00    1.46850   1.51321   -1.000
 4640.00    1.48131   1.51832   -1.000
 4641.00    1.52851   1.53548  133.729
 4642.00    1.55546   1.55110  130.438
 4643.00    1.55278   1.55752  128.812
 4644.00    1.54125   1.54345  129.536
 4645.00    1.49570   1.52270   -1.000
 4646.00    1.45972   1.49326   -1.000
 4647.00    1.45082   1.47442   -1.000
 4648.00    1.47455   1.48212  139.878
 4649.00    1.51271   1.50890  137.193
 4650.00    1.51542   1.53813   -1.000
 4651.00    1.51615   1.55520   -1.000
 4652.00    1.51582   1.55982   -1.000
 4653.00    1.50187   1.55522   -1.000
 4654.00    1.49689   1.54227   -1.000
 4655.00    1.48772   1.53071   -1.000
 4656.00    1.48273   1.53219   -1.000
 4657.00    1.49968   1.54850   -1.000
 4658.00    1.53967   1.58340   -1.000
 4659.00    1.59398   1.62088   -1.000
 4660.00    1.62883   1.64283  124.459
 4661.00    1.59303   1.63443   -1.000
 4662.00    1.55488   1.61232   -1.000
 4663.00    1.52522   1.58879   -1.000
 4664.00    1.51474   1.56618   -1.000
 4665.00    1.52833   1.54282  132.090
 4666.00    1.48366   1.51290   -1.000
 4667.00    1.43638   1.47833   -1.000
 4668.00    1.40905   1.46456   -1.000
 4669.00    1.42495   1.48092   -1.000
 4670.00    1.45199   1.51757   -1.000
 4671.00    1.51152   1.55086   -1.000
 4672.00    1.53316   1.56846   -1.000
 4673.00    1.53268   1.56614   -1.000
 4674.00    1.51977   1.56644   -1.000
 4675.00    1.54067   1.57466   -1.000
 4676.00    1.58037   1.58699  129.202
 4677.00    1.58080   1.59085  127.305
 4678.00    1.56925   1.57547  128.164
 4679.00    1.52790   1.55448   -1.000
 4680.00    1.51238   1.53573   -1.000
 4681.00    1.50219   1.52510   -1.000
 4682.00    1.50338   1.52710   -1.000
 4683.00    1.53606   1.54167  135.051
 4684.00    1.54545   1.55904  131.571
 4685.00    1.55122   1.56598  130.002
 4686.00    1.56513   1.56605  130.570
 4687.00    1.55471   1.56230  130.607
 4688.00    1.54967   1.56084  131.385
 4689.00    1.54690   1.56401  131.342
 4690.00    1.55502   1.56628  131.379
 4691.00    1.55082   1.56298  132.375
 4692.00    1.54215   1.56391   -1.000
 4693.00    1.58291   1.57272  130.863
 4694.00    1.61271   1.58424   -1.000
 4695.00    1.60981   1.59327  125.957
 4696.00    1.61201   1.59783  124.476
 4697.00    1.60585   1.58841  125.294
 4698.00    1.57028   1.56675  129.116
 4699.00    1.55404   1.54418  132.981
 4700.00    1.56411   1.53372   -1.000
 4701.00    1.56375   1.52732   -1.000
 4702.00    1.54617   1.51896   -1.000
 4703.00    1.52618   1.51505  136.723
 4704.00    1.54759   1.52555  137.255
 4705.00    1.57003   1.54357   -1.000
 4706.00    1.56399   1.55138  132.588
 4707.00    1.52988   1.54126  134.701
 4708.00    1.50746   1.52596  137.434
 4709.00    1.51856   1.52573  138.629
 4710.00    1.53397   1.54185  137.710
 4711.00    1.55628   1.56236  133.448
 4712.00    1.59413   1.57414  129.854
 4713.00    1.57788   1.57125  128.757
 4714.00    1.56919   1.56045  130.169
 4715.00    1.57133   1.56000  132.676
 4716.00    1.56077   1.57522  132.470
 4717.00    1.59048   1.60090  129.678
 4718.00    1.62391   1.62249  127.222
 4719.00    1.59517   1.63491   -1.000
 4720.00    1.61957   1.64223  126.116
 4721.00    1.61753   1.64229   -1.000
 4722.00    1.59408   1.63676   -1.000
 4723.00    1.60341   1.63432   -1.000
 4724.00    1.61362   1.64126   -1.000
 4725.00    1.60826   1.64372   -1.000
 4726.00    1.57846   1.63255   -1.000
 4727.00    1.53331   1.60330   -1.000
 4728.00    1.51781   1.56524   -1.000
 4729.00    1.51277   1.54853   -1.000
 4730.00    1.52674   1.54757   -1.000
 4731.00    1.54987   1.55767  134.750
 4732.00    1.56542   1.57600  133.705
 4733.00    1.56436   1.59354   -1.000
 4734.00    1.56587   1.60257   -1.000
 4735.00    1.56007   1.60494   -1.000
 4736.00    1.57826   1.60121   -1.000
 4737.00    1.60249   1.60047  131.051
 4738.00    1.59908   1.60688  131.110
 4739.00    1.59544   1.61783  129.313
 4740.00    1.59497   1.62285   -1.000
 4741.00    1.58171   1.61832   -1.000
 4742.00    1.57841   1.61796   -1.000
 4743.00    1.58835   1.62549   -1.000
 4744.00    1.60722   1.63244   -1.000
 4745.00    1.60118   1.63892   -1.000
 4746.00    1.60794   1.64394   -1.000
 4747.00    1.63703   1.65550  127.280
 4748.00    1.65233   1.66679  125.979
 4749.00    1.64507   1.67203   -1.000
 4750.00    1.63269   1.67738   -1.000
 4751.00    1.61136   1.67883   -1.000
 4752.00    1.60942   1.67059   -1.000
 4753.00    1.61943   1.65617   -1.000
 4754.00    1.60189   1.64216   -1.000
 4755.00    1.59101   1.63933   -1.000
 4756.00    1.61579   1.64275   -1.000
 4757.00    1.61769   1.64851   -1.000
 4758.00    1.58753   1.65313   -1.000
 4759.00    1.58840   1.65538   -1.000
 4760.00    1.59701   1.65392   -1.000
 4761.00    1.57146   1.64439   -1.000
 4762.00    1.53453   1.62593   -1.000
 4763.00    1.51795   1.60452   -1.000
 4764.00    1.50143   1.58793   -1.000
 4765.00    1.52663   1.58144   -1.000
 4766.00    1.55083   1.58249   -1.000
 4767.00    1.57975   1.59410  136.476
 4768.00    1.58546   1.61698   -1.000
 4769.00    1.58371   1.64547   -1.000
 4770.00    1.60360   1.65931   -1.000
 4771.00    1.58114   1.65631   -1.000
 4772.00    1.58974   1.64464   -1.000
 4773.00    1.58433   1.64478   -1.000
 4774.00    1.60892   1.66307   -1.000
 4775.00    1.62323   1.67958   -1.000
 4776.00    1.60848   1.68564   -1.000
 4777.00    1.62887   1.68384   -1.000
 4778.00    1.62846   1.68108   -1.000
 4779.00    1.62169   1.67518   -1.000
 4780.00    1.58530   1.66760   -1.000
 4781.00    1.58672   1.65978   -1.000
 4782.00    1.60339   1.65112   -1.000
 4783.00    1.57783   1.63801   -1.000
 4784.00    1.57678   1.63043   -1.000
 4785.00    1.58222   1.63099   -1.000
 4786.00    1.58683   1.63306   -1.000
 4787.00    1.56735   1.63272   -1.000
 4788.00    1.58476   1.63533   -1.000
 4789.00    1.58309   1.63928   -1.000
 4790.00    1.59270   1.64577   -1.000
 4791.00    1.59673   1.66045   -1.000
 4792.00    1.63167   1.68329   -1.000
 4793.00    1.64510   1.70958   -1.000
 4794.00    1.66939   1.73330   -1.000
 4795.00    1.67502   1.74895   -1.000
 4796.00    1.68672   1.74724   -1.000
 4797.00    1.65081   1.73176   -1.000
 4798.00    1.60565   1.70683   -1.000
 4799.00    1.61378   1.68986   -1.000
 4800.00    1.63094   1.68819   -1.000
 4801.00    1.64146   1.70615   -1.000
 4802.00    1.65854   1.73017   -1.000
 4803.00    1.67937   1.74686   -1.000
 4804.00    1.65072   1.73343   -1.000
 4805.00    1.60406   1.71027   -1.000
 4806.00    1.60365   1.69497   -1.000
 4807.00    1.61526   1.68711   -1.000
 4808.00    1.61449   1.68668   -1.000
 4809.00    1.61127   1.69712   -1.000
 4810.00    1.62365   1.70830   -1.000
 4811.00    1.64595   1.71469   -1.000
 4812.00    1.65135   1.71970   -1.000
 4813.00    1.65744   1.72370   -1.000
 4814.00    1.67618   1.72967   -1.000
 4815.00    1.68419   1.73777   -1.000
 4816.00    1.68688   1.74680   -1.000
 4817.00    1.69111   1.75561   -1.000
 4818.00    1.69792   1.76195   -1.000
 4819.00    1.67761   1.76506   -1.000
 4820.00    1.65801   1.76556   -1.000
 4821.00    1.66891   1.75648   -1.000
 4822.00    1.64096   1.73289   -1.000
 4823.00    1.63537   1.70159   -1.000
 4824.00    1.62992   1.68104   -1.000
 4825.00    1.65234   1.68732   -1.000
 4826.00    1.67587   1.70883   -1.000
 4827.00    1.65892   1.72510   -1.000
 4828.00    1.65157   1.72125   -1.000
 4829.00    1.65652   1.71087   -1.000
 4830.00    1.65589   1.70424   -1.000
 4831.00    1.63288   1.69820   -1.000
 4832.00    1.63042   1.68962   -1.000
 4833.00    1.65638   1.69298   -1.000
 4834.00    1.66686   1.70628   -1.000
 4835.00    1.67720   1.72418   -1.000
 4836.00    1.67245   1.73265   -1.000
 4837.00    1.66171   1.73252   -1.000
 4838.00    1.65009   1.72584   -1.000
 4839.00    1.62909   1.71242   -1.000
 4840.00    1.64003   1.70201   -1.000
 4841.00    1.63890   1.69922   -1.000
 4842.00    1.64329   1.69871   -1.000
 4843.00    1.62983   1.69623   -1.000
 4844.00    1.64304   1.69836   -1.000
 4845.00    1.69447   1.71139  128.408
 4846.00    1.70658   1.72927   -1.000
 4847.00    1.68445   1.73041   -1.000
 4848.00    1.63594   1.71778   -1.000
 4849.00    1.62637   1.70651   -1.000
 4850.00    1.63812   1.70786   -1.000
 4851.00    1.64947   1.71119   -1.000
 4852.00    1.65476   1.70915   -1.000
 4853.00    1.65258   1.69675   -1.000
 4854.00    1.62777   1.66784   -1.000
 4855.00    1.57802   1.63137   -1.000
 4856.00    1.56533   1.60598   -1.000
 4857.00    1.58373   1.59790  137.351
 4858.00    1.54973   1.57308   -1.000
 4859.00    1.44063   1.49187   -1.000
 4860.00    1.29138   1.34966   -1.000
 4861.00    1.19720   1.23470   -1.000
 4862.00    1.23237   1.22656  178.326
 4863.00    1.33773   1.33522  166.782
 4864.00    1.45498   1.46680  151.767
 4865.00    1.52082   1.55715   -1.000
 4866.00    1.55554   1.60715   -1.000
 4867.00    1.59606   1.63804   -1.000
 4868.00    1.61477   1.66120   -1.000
 4869.00    1.61155   1.66727   -1.000
 4870.00    1.59118   1.64504   -1.000
 4871.00    1.56518   1.60162   -1.000
 4872.00    1.53372   1.57727   -1.000
 4873.00    1.57263   1.59835   -1.000
 4874.00    1.61747   1.64605   -1.000
 4875.00    1.62807   1.68483   -1.000
 4876.00    1.61868   1.70033   -1.000
 4877.00    1.61888   1.70719   -1.000
 4878.00    1.64420   1.71834   -1.000
 4879.00    1.65740   1.73504   -1.000
 4880.00    1.64977   1.75067   -1.000
 4881.00    1.63949   1.74881   -1.000
 4882.00    1.62309   1.73231   -1.000
 4883.00    1.61914   1.72583   -1.000
 4884.00    1.63748   1.72316   -1.000
 4885.00    1.63801   1.71174   -1.000
 4886.00    1.63195   1.69853   -1.000
 4887.00    1.63581   1.69439   -1.000
 4888.00    1.64077   1.69645   -1.000
 4889.00    1.63288   1.68694   -1.000
 4890.00    1.57775   1.66121   -1.000
 4891.00    1.55337   1.63542   -1.000
 4892.00    1.61059   1.64754   -1.000
 4893.00    1.65894   1.70671   -1.000
 4894.00    1.73766   1.77502   -1.000
 4895.00    1.78573   1.83025   -1.000
 4896.00    1.78413   1.85242   -1.000
 4897.00    1.79427   1.85765   -1.000
 4898.00    1.77839   1.85011   -1.000
 4899.00    1.75123   1.83082   -1.000
 4900.00    1.70524   1.80702   -1.000
 4901.00    1.70187   1.79501   -1.000
 4902.00    1.70483   1.78948   -1.000
 4903.00    1.68208   1.77918   -1.000
 4904.00    1.69429   1.77517   -1.000
 4905.00    1.73342   1.79690   -1.000
 4906.00    1.76316   1.82850   -1.000
 4907.00    1.76906   1.83926   -1.000
 4908.00    1.75195   1.82219   -1.000
 4909.00    1.71545   1.79386   -1.000
 4910.00    1.69538   1.76700   -1.000
 4911.00    1.70624   1.75641   -1.000
 4912.00    1.74333   1.76940   -1.000
 4913.00    1.74941   1.79104   -1.000
 4914.00    1.74071   1.81274   -1.000
 4915.00    1.75762   1.83003   -1.000
 4916.00    1.76972   1.83267   -1.000
 4917.00    1.72549   1.80619   -1.000
 4918.00    1.65092   1.74245   -1.000
 4919.00    1.57519   1.66038   -1.000
 4920.00    1.54525   1.60520   -1.000
 4921.00    1.59760   1.60197  145.083
 4922.00    1.65910   1.65078  140.289
 4923.00    1.69545   1.70027  135.170
 4924.00    1.69213   1.72781   -1.000
 4925.00    1.69245   1.74079   -1.000
 4926.00    1.73521   1.76899   -1.000
 4927.00    1.78343   1.80745   -1.000
 4928.00    1.80344   1.84103   -1.000
 4929.00    1.81542   1.86810   -1.000
 4930.00    1.82290   1.87965   -1.000
 4931.00    1.81750   1.87272   -1.000
 4932.00    1.78410   1.84298   -1.000
 4933.00    1.69879   1.79863   -1.000
 4934.00    1.66612   1.76438   -1.000
 4935.00    1.70255   1.76632   -1.000
 4936.00    1.73923   1.78160   -1.000
 4937.00    1.69619   1.76806   -1.000
 4938.00    1.65824   1.72760   -1.000
 4939.00    1.64983   1.70332   -1.000
 4940.00    1.69395   1.72250   -1.000
 4941.00    1.75791   1.77550  131.689
 4942.00    1.79476   1.82690   -1.000
 4943.00    1.82003   1.85891   -1.000
 4944.00    1.79319   1.86848   -1.000
 4945.00    1.78405   1.86394   -1.000
 4946.00    1.79923   1.85606   -1.000
 4947.00    1.80638   1.85891   -1.000
 4948.00    1.80914   1.87537   -1.000
 4949.00    1.83115   1.89321   -1.000
 4950.00    1.84258   1.90215   -1.000
 4951.00    1.82871   1.90340   -1.000
 4952.00    1.81394   1.89786   -1.000
 4953.00    1.79746   1.88483   -1.000
 4954.00    1.79011   1.86577   -1.000
 4955.00    1.75215   1.82502   -1.000
 4956.00    1.68043   1.75384   -1.000
 4957.00    1.61471   1.67229   -1.000
 4958.00    1.59549   1.63404   -1.000
 4959.00    1.67454   1.68027  138.997
 4960.00    1.75995   1.76343  130.996
 4961.00    1.78762   1.82203   -1.000
 4962.00    1.78242   1.84073   -1.000
 4963.00    1.76816   1.83838   -1.000
 4964.00    1.75441   1.82414   -1.000
 4965.00    1.72594   1.79664   -1.000
 4966.00    1.70657   1.77202   -1.000
 4967.00    1.72128   1.76287   -1.000
 4968.00    1.73167   1.76599   -1.000
 4969.00    1.72068   1.77715   -1.000
 4970.00    1.73344   1.79870   -1.000
 4971.00    1.75695   1.82146   -1.000
 4972.00    1.78634   1.84212   -1.000
 4973.00    1.79761   1.85561   -1.000
 4974.00    1.78941   1.86099   -1.000
 4975.00    1.79413   1.85953   -1.000
 4976.00    1.79003   1.85285   -1.000
 4977.00    1.77339   1.83782   -1.000
 4978.00    1.77363   1.81834   -1.000
 4979.00    1.77560   1.80224   -1.000
 4980.00    1.72246   1.78282   -1.000
 4981.00    1.67468   1.74715   -1.000
 4982.00    1.62242   1.69765   -1.000
 4983.00    1.61272   1.66281   -1.000
 4984.00    1.62699   1.66357   -1.000
 4985.00    1.67382   1.69952   -1.000
 4986.00    1.70458   1.74393   -1.000
 4987.00    1.74185   1.79042   -1.000
 4988.00    1.76288   1.81987   -1.000
 4989.00    1.75428   1.81953   -1.000
 4990.00    1.72778   1.80010   -1.000
 4991.00    1.72880   1.78613   -1.000
 4992.00    1.74780   1.78976   -1.000
 4993.00    1.76314   1.80193   -1.000
 4994.00    1.76125   1.81053   -1.000
 4995.00    1.76149   1.81875   -1.000
 4996.00    1.77782   1.82974   -1.000
 4997.00    1.77437   1.83480   -1.000
 4998.00    1.75384   1.81755   -1.000
 4999.00    1.72764   1.77907   -1.000
 5000.00    1.69621   1.73840   -1.000
 5001.00    1.68699   1.72374   -1.000
 5002.00    1.70489   1.73305   -1.000
 5003.00    1.72179   1.74693   -1.000
 5004.00    1.72589   1.74740   -1.000
 5005.00    1.70672   1.72198  136.946
 5006.00    1.67712   1.68822  140.441
 5007.00    1.69700   1.68340  141.274
 5008.00    1.75207   1.71954   -1.000
 5009.00    1.76946   1.76324  133.656
 5010.00    1.75095   1.78080   -1.000
 5011.00    1.72599   1.76720   -1.000
 5012.00    1.67045   1.72930   -1.000
 5013.00    1.63231   1.68893   -1.000
 5014.00    1.63165   1.66596   -1.000
 5015.00    1.67485   1.67386  145.797
 5016.00    1.68552   1.69815  142.594
 5017.00    1.69602   1.71545  139.601
 5018.00    1.68779   1.72146   -1.000
 5019.00    1.71711   1.73163  138.999
 5020.00    1.73534   1.75166  137.440
 5021.00    1.73032   1.76005   -1.000
 5022.00    1.72149   1.75618   -1.000
 5023.00    1.73876   1.75580  137.195
 5024.00    1.75218   1.77657   -1.000
 5025.00    1.77263   1.80294   -1.000
 5026.00    1.77433   1.81295   -1.000
 5027.00    1.76002   1.80136   -1.000
 5028.00    1.75881   1.79092   -1.000
 5029.00    1.77946   1.79927  134.132
 5030.00    1.80252   1.82145  131.617
 5031.00    1.82914   1.84888  129.728
 5032.00    1.84520   1.87347   -1.000
 5033.00    1.83259   1.88777   -1.000
 5034.00    1.81617   1.87447   -1.000
 5035.00    1.78120   1.83671   -1.000
 5036.00    1.74574   1.79607   -1.000
 5037.00    1.75078   1.78053   -1.000
 5038.00    1.73753   1.77772   -1.000
 5039.00    1.67769   1.74871   -1.000
 5040.00    1.62615   1.69098   -1.000
 5041.00    1.61439   1.64985   -1.000
 5042.00    1.66119   1.66684  151.605
 5043.00    1.75310   1.73628  144.390
 5044.00    1.82318   1.81225  135.463
 5045.00    1.86915   1.87606  129.884
 5046.00    1.88146   1.90642   -1.000
 5047.00    1.84284   1.90467   -1.000
 5048.00    1.84581   1.86903  125.889
 5049.00    1.26824   1.81894   -1.000
 5050.00    0.23977   1.77697   -1.000
 5051.00    0.01174   1.76574   -1.000
 5052.00    0.48886   1.78317   -1.000
 5053.00    1.61005   1.81726   -1.000
 5054.00    1.87138   1.85629  129.796
 5055.00    1.89475   1.88190  127.414
 5056.00    1.87267   1.89262  126.181
 5057.00    1.88138   1.89931  125.759
 5058.00    1.88179   1.90616   -1.000
 5059.00    1.89312   1.91608  126.215
 5060.00    1.87124   1.92634   -1.000
 5061.00    1.88893   1.93517   -1.000
 5062.00    1.88880   1.93376   -1.000
 5063.00    1.84828   1.90611   -1.000
 5064.00    1.78480   1.85786   -1.000
 5065.00    1.75256   1.81525   -1.000
 5066.00    1.77375   1.80370   -1.000
 5067.00    1.79603   1.81458  135.403
 5068.00    1.81598   1.82286  133.349
 5069.00    1.82901   1.83019  132.894
 5070.00    1.86311   1.84106  132.269
 5071.00    1.85190   1.84723  131.398
 5072.00    1.83893   1.83998  132.426
 5073.00    1.83942   1.83559  133.481
 5074.00    1.84835   1.84261  131.886
 5075.00    1.84833   1.84848  130.838
 5076.00    1.84719   1.84847  130.648
 5077.00    1.84250   1.84024  130.544
 5078.00    1.80750   1.81576  131.789
 5079.00    1.74327   1.77169   -1.000
 5080.00    1.69552   1.73990   -1.000
 5081.00    1.70752   1.73865   -1.000
 5082.00    1.76353   1.75544  141.631
 5083.00    1.79264   1.77160  138.597
 5084.00    1.79973   1.79310  136.714
 5085.00    1.83247   1.82420  134.143
 5086.00    1.87203   1.85474  131.836
 5087.00    1.88407   1.86980  130.868
 5088.00    1.87273   1.87431  130.675
 5089.00    1.86898   1.87846  130.026
 5090.00    1.87229   1.88459  129.089
 5091.00    1.87924   1.89265  128.372
 5092.00    1.90838   1.90779  127.707
 5093.00    1.93680   1.92547  126.246
 5094.00    1.92674   1.93208  125.103
 5095.00    1.89699   1.91683  126.200
 5096.00    1.89200   1.87963  128.817
 5097.00    1.86677   1.84601  131.604
 5098.00    1.81474   1.81811  134.791
 5099.00    1.80139   1.80211  137.630
 5100.00    1.81965   1.81263  138.123
 5101.00    1.86341   1.84530  134.803
 5102.00    1.90031   1.87131   -1.000
 5103.00    1.89297   1.87814  129.688
 5104.00    1.85426   1.87128  130.414
 5105.00    1.84206   1.85933  132.122
 5106.00    1.82987   1.83996  133.798
 5107.00    1.79624   1.81385  135.437
 5108.00    1.78315   1.79776  137.138
 5109.00    1.80102   1.79735  136.973
 5110.00    1.82243   1.80749  136.104
 5111.00    1.85438   1.82783   -1.000
 5112.00    1.86841   1.85450  133.203
 5113.00    1.88115   1.87636  131.563
 5114.00    1.88513   1.89497  129.959
 5115.00    1.89803   1.91294  128.777
 5116.00    1.92178   1.92875  128.078
 5117.00    1.93183   1.94203  126.739
 5118.00    1.92958   1.94945  125.671
 5119.00    1.92937   1.94338  126.011
 5120.00    1.91307   1.92259  127.637
 5121.00    1.89532   1.89627  129.560
 5122.00    1.85766   1.86355  131.697
 5123.00    1.81326   1.82746  135.067
 5124.00    1.79489   1.80247  139.142
 5125.00    1.81253   1.79516  140.189
 5126.00    1.83053   1.80230   -1.000
 5127.00    1.82190   1.80935  138.290
 5128.00    1.80481   1.81002  137.467
 5129.00    1.81424   1.81064  137.642
 5130.00    1.84928   1.81925   -1.000
 5131.00    1.87986   1.84210   -1.000
 5132.00    1.89506   1.87041   -1.000
 5133.00    1.89733   1.88875  132.345
 5134.00    1.90457   1.89925  131.089
 5135.00    1.92493   1.90597  129.931
 5136.00    1.91646   1.90413  129.577
 5137.00    1.86739   1.88346  131.852
 5138.00    1.83158   1.84862  135.059
 5139.00    1.83046   1.82488  137.245
 5140.00    1.83151   1.82594  137.481
 5141.00    1.81609   1.83794  136.273
 5142.00    1.81366   1.84161   -1.000
 5143.00    1.81085   1.84026   -1.000
 5144.00    1.83606   1.84847  138.717
 5145.00    1.85145   1.85902  136.404
 5146.00    1.85080   1.85189  135.882
 5147.00    1.84802   1.83838  137.119
 5148.00    1.85147   1.84039  137.486
 5149.00    1.88653   1.84985   -1.000
 5150.00    1.85798   1.84673  135.050
 5151.00    1.81625   1.82851  136.666
 5152.00    1.81142   1.81048  139.157
 5153.00    1.80362   1.80751  140.118
 5154.00    1.82356   1.81344  139.445
 5155.00    1.87878   1.83849   -1.000
 5156.00    1.93837   1.88223   -1.000
 5157.00    1.97570   1.92669   -1.000
 5158.00    1.98936   1.95116   -1.000
 5159.00    1.98739   1.96054   -1.000
 5160.00    1.97358   1.96036  126.491
 5161.00    1.97218   1.95129  126.905
 5162.00    1.95437   1.93164  127.629
 5163.00    1.93479   1.90634   -1.000
 5164.00    1.91064   1.86898   -1.000
 5165.00    1.80852   1.79877  135.977
 5166.00    1.65093   1.67890   -1.000
 5167.00    1.53032   1.55828   -1.000
 5168.00    1.51144   1.50995  173.572
 5169.00    1.60204   1.54928   -1.000
 5170.00    1.66445   1.60563   -1.000
 5171.00    1.61114   1.59621  158.378
 5172.00    1.51796   1.53052  168.269
 5173.00    1.51422   1.50825  179.811
 5174.00    1.65091   1.58230   -1.000
 5175.00    1.79322   1.70605   -1.000
 5176.00    1.85159   1.80366   -1.000
 5177.00    1.87562   1.84374   -1.000
 5178.00    1.89786   1.85816   -1.000
 5179.00    1.90154   1.85463   -1.000
 5180.00    1.85621   1.82855   -1.000
 5181.00    1.77163   1.76155  140.037
 5182.00    1.62333   1.65198   -1.000
 5183.00    1.50960   1.54303   -1.000
 5184.00    1.51731   1.51417  180.752
 5185.00    1.65521   1.59999   -1.000
 5186.00    1.81161   1.73778   -1.000
 5187.00    1.89429   1.82943   -1.000
 5188.00    1.89544   1.87260  135.753
 5189.00    1.89683   1.88397  134.491
 5190.00    1.89663   1.87989  133.923
 5191.00    1.85141   1.84634  135.312
 5192.00    1.78618   1.80046  139.552
 5193.00    1.80118   1.77663   -1.000
 5194.00    1.83658   1.79513   -1.000
 5195.00    1.85109   1.82617   -1.000
 5196.00    1.87521   1.85441  137.976
 5197.00    1.92814   1.88658   -1.000
 5198.00    1.92706   1.91905  133.242
 5199.00    1.93801   1.94043  130.964
 5200.00    1.95025   1.95018  129.861
 5201.00    1.94848   1.94535  129.710
 5202.00    1.92042   1.92055  130.728
 5203.00    1.87800   1.87808  133.071
 5204.00    1.83490   1.81731  136.109
 5205.00    1.79477   1.74967   -1.000
 5206.00    1.75988   1.71315   -1.000
 5207.00    1.77218   1.70109   -1.000
 5208.00    1.77596   1.69864   -1.000
 5209.00    1.78947   1.70327   -1.000
 5210.00    1.82965   1.74559   -1.000
 5211.00    1.90288   1.82386   -1.000
 5212.00    1.99794   1.90911   -1.000
 5213.00    2.04945   1.96431   -1.000
 5214.00    2.02245   1.97429   -1.000
 5215.00    1.97898   1.94714   -1.000
 5216.00    1.96451   1.91925   -1.000
 5217.00    1.95970   1.91953   -1.000
 5218.00    1.98991   1.95396   -1.000
 5219.00    2.02786   1.99724   -1.000
 5220.00    2.04935   2.02862  126.728
 5221.00    2.06598   2.04192  125.729
 5222.00    2.04066   2.03698  125.213
 5223.00    2.00997   2.00690  126.775
 5224.00    1.95576   1.94906  130.597
 5225.00    1.86677   1.87111  135.965
 5226.00    1.80767   1.79937  142.334
 5227.00    1.82045   1.77119   -1.000
 5228.00    1.90255   1.81856   -1.000
 5229.00    1.99678   1.91266   -1.000
 5230.00    2.04245   1.98259   -1.000
 5231.00    2.04344   1.99796   -1.000
 5232.00    2.01224   1.96916   -1.000
 5233.00    1.98299   1.92947   -1.000
 5234.00    1.96584   1.91641   -1.000
 5235.00    1.98832   1.95083   -1.000
 5236.00    2.04580   2.00432   -1.000
 5237.00    2.06003   2.05068  125.892
 5238.00    2.06538   2.06982  124.430
 5239.00    2.07306   2.06716  124.284
 5240.00    2.06567   2.05958  124.669
 5241.00    2.07856   2.05190   -1.000
 5242.00    2.07647   2.04927   -1.000
 5243.00    2.07961   2.05509   -1.000
 5244.00    2.06910   2.06581  123.665
 5245.00    2.06311   2.06091  123.465
 5246.00    2.03279   2.02677  125.867
 5247.00    1.97393   1.98079  129.791
 5248.00    1.97977   1.95271   -1.000
 5249.00    1.97419   1.95263  133.272
 5250.00    1.93376   1.95244  133.514
 5251.00    1.93578   1.95173  134.356
 5252.00    1.98066   1.96572  133.766
 5253.00    2.00518   1.98258  131.938
 5254.00    2.02326   1.98889   -1.000
 5255.00    2.03678   1.99289   -1.000
 5256.00    2.06487   2.01304   -1.000
 5257.00    2.10543   2.05500   -1.000
 5258.00    2.12611   2.09349   -1.000
 5259.00    2.11201   2.10111  122.131
 5260.00    2.06442   2.07595  123.212
 5261.00    2.00626   2.02040  126.534
 5262.00    1.93436   1.95141  131.856
 5263.00    1.87922   1.88077  138.130
 5264.00    1.85357   1.82668   -1.000
 5265.00    1.84024   1.79680   -1.000
 5266.00    1.86597   1.79545   -1.000
 5267.00    1.91697   1.81016   -1.000
 5268.00    1.89168   1.80557   -1.000
 5269.00    1.80734   1.75044   -1.000
 5270.00    1.80141   1.70856   -1.000
 5271.00    1.89167   1.75054   -1.000
 5272.00    1.99661   1.85425   -1.000
 5273.00    2.02578   1.94467   -1.000
 5274.00    2.04011   1.96875   -1.000
 5275.00    2.02414   1.97682   -1.000
 5276.00    2.03897   1.99526   -1.000
 5277.00    2.10734   2.03698   -1.000
 5278.00    2.15387   2.08755   -1.000
 5279.00    2.15973   2.10642   -1.000
 5280.00    2.12160   2.08394   -1.000
 5281.00    2.06821   2.03848   -1.000
 5282.00    2.02345   1.99340   -1.000
 5283.00    2.00786   1.96519   -1.000
 5284.00    2.05716   1.98015   -1.000
 5285.00    2.12131   2.03799   -1.000
 5286.00    2.17067   2.10508   -1.000
 5287.00    2.16123   2.15044  121.639
 5288.00    2.16072   2.15856  120.616
 5289.00    2.16684   2.15507  121.212
 5290.00    2.16613   2.15432  121.224
 5291.00    2.18136   2.15334   -1.000
 5292.00    2.19358   2.14969   -1.000
 5293.00    2.16678   2.14529  120.934
 5294.00    2.14828   2.13681  122.069
 5295.00    2.11811   2.11273  123.676
 5296.00    2.06284   2.06061  126.977
 5297.00    2.01071   1.99247  131.824
 5298.00    1.99949   1.95921   -1.000
 5299.00    2.03977   1.97140   -1.000
 5300.00    2.07532   2.01315   -1.000
 5301.00    2.07692   2.04375   -1.000
 5302.00    2.09176   2.06469   -1.000
 5303.00    2.13549   2.09544   -1.000
 5304.00    2.18279   2.13882   -1.000
 5305.00    2.21546   2.17059   -1.000
 5306.00    2.20212   2.17312   -1.000
 5307.00    2.18056   2.15650   -1.000
 5308.00    2.17555   2.15008   -1.000
 5309.00    2.18195   2.16029  121.913
 5310.00    2.20873   2.17735   -1.000
 5311.00    2.20369   2.18367  119.850
 5312.00    2.18708   2.17691  119.936
 5313.00    2.18839   2.16777  120.596
 5314.00    2.18808   2.15498   -1.000
 5315.00    2.17900   2.14082   -1.000
 5316.00    2.14099   2.12506  123.191
 5317.00    2.13513   2.11704  124.291
 5318.00    2.15514   2.12357   -1.000
 5319.00    2.18545   2.13392   -1.000
 5320.00    2.18057   2.14085   -1.000
 5321.00    2.17399   2.13677   -1.000
 5322.00    2.14538   2.11677   -1.000
 5323.00    2.11622   2.08157   -1.000
 5324.00    2.09260   2.04812   -1.000
 5325.00    2.08973   2.03187   -1.000
 5326.00    2.07711   2.00185   -1.000
 5327.00    1.98257   1.92771   -1.000
 5328.00    1.88339   1.84371   -1.000
 5329.00    1.92714   1.82894   -1.000
 5330.00    2.07254   1.91448   -1.000
 5331.00    2.12496   2.02554   -1.000
 5332.00    2.13700   2.07981   -1.000
 5333.00    2.16024   2.10323   -1.000
 5334.00    2.17498   2.12502   -1.000
 5335.00    2.18442   2.14588   -1.000
 5336.00    2.18082   2.15647   -1.000
 5337.00    2.16934   2.14879  123.665
 5338.00    2.16425   2.12624   -1.000
 5339.00    2.14306   2.08603   -1.000
 5340.00    2.09704   2.03829   -1.000
 5341.00    2.07870   2.01551   -1.000
 5342.00    2.12551   2.04489   -1.000
 5343.00    2.17066   2.09400   -1.000
 5344.00    2.17657   2.11748   -1.000
 5345.00    2.16911   2.11565   -1.000
 5346.00    2.15578   2.10096   -1.000
 5347.00    2.13581   2.08578   -1.000
 5348.00    2.11297   2.07297   -1.000
 5349.00    2.12340   2.06485   -1.000
 5350.00    2.15609   2.07936   -1.000
 5351.00    2.18306   2.11904   -1.000
 5352.00    2.21027   2.15912   -1.000
 5353.00    2.20599   2.18774  121.726
 5354.00    2.21640   2.20050  121.294
 5355.00    2.24519   2.21928   -1.000
 5356.00    2.26199   2.23727   -1.000
 5357.00    2.27781   2.24685   -1.000
 5358.00    2.27426   2.24805   -1.000
 5359.00    2.26384   2.24319  118.174
 5360.00    2.25708   2.22891   -1.000
 5361.00    2.22512   2.20763  119.948
 5362.00    2.19615   2.18529  121.944
 5363.00    2.18392   2.16706  123.747
 5364.00    2.18097   2.14815   -1.000
 5365.00    2.16518   2.13218   -1.000
 5366.00    2.14793   2.12769  126.137
 5367.00    2.17114   2.13015   -1.000
 5368.00    2.16644   2.12330   -1.000
 5369.00    2.11856   2.08469   -1.000
 5370.00    2.07388   2.01826   -1.000
 5371.00    2.07343   1.96914   -1.000
 5372.00    2.12222   1.97635   -1.000
 5373.00    2.19825   2.05092   -1.000
 5374.00    2.24188   2.13801   -1.000
 5375.00    2.25262   2.19542   -1.000
 5376.00    2.26624   2.20639   -1.000
 5377.00    2.26646   2.20275   -1.000
 5378.00    2.27428   2.20909   -1.000
 5379.00    2.26238   2.21672   -1.000
 5380.00    2.24510   2.21334   -1.000
 5381.00    2.21303   2.19662  122.263
 5382.00    2.19464   2.17447  123.472
 5383.00    2.18614   2.16191   -1.000
 5384.00    2.19048   2.16029   -1.000
 5385.00    2.23826   2.17609   -1.000
 5386.00    2.25594   2.19952   -1.000
 5387.00    2.23133   2.21027  121.888
 5388.00    2.21833   2.19941  122.410
 5389.00    2.20297   2.17246   -1.000
 5390.00    2.19122   2.14333   -1.000
 5391.00    2.18483   2.12421   -1.000
 5392.00    2.16866   2.11677   -1.000
 5393.00    2.17194   2.11239   -1.000
 5394.00    2.16352   2.10690   -1.000
 5395.00    2.13104   2.08942   -1.000
 5396.00    2.09989   2.05415   -1.000
 5397.00    2.10345   2.01939   -1.000
 5398.00    2.16114   2.02827   -1.000
 5399.00    2.21292   2.08220   -1.000
 5400.00    2.22523   2.13211   -1.000
 5401.00    2.21556   2.15973   -1.000
 5402.00    2.20979   2.15957   -1.000
 5403.00    2.17067   2.12788   -1.000
 5404.00    2.12315   2.06133   -1.000
 5405.00    2.08665   1.99519   -1.000
 5406.00    2.08729   1.96705   -1.000
 5407.00    2.10909   2.00456   -1.000
 5408.00    2.13858   2.05035   -1.000
 5409.00    2.13296   2.06298   -1.000
 5410.00    2.13654   2.05799   -1.000
 5411.00    2.16056   2.07818   -1.000
 5412.00    2.21973   2.12781   -1.000
 5413.00    2.24313   2.17081   -1.000
 5414.00    2.23775   2.18469   -1.000
 5415.00    2.23366   2.19033   -1.000
 5416.00    2.25860   2.20590   -1.000
 5417.00    2.27006   2.22662   -1.000
 5418.00    2.27750   2.23684   -1.000
 5419.00    2.26059   2.23015   -1.000
 5420.00    2.23572   2.21922  123.637
 5421.00    2.24440   2.20997   -1.000
 5422.00    2.25710   2.20506   -1.000
 5423.00    2.23535   2.19565   -1.000
 5424.00    2.21873   2.18011   -1.000
 5425.00    2.24366   2.18426   -1.000
 5426.00    2.26197   2.21578   -1.000
 5427.00    2.27720   2.23690   -1.000
 5428.00    2.24901   2.20887   -1.000
 5429.00    2.17635   2.14214   -1.000
 5430.00    2.17311   2.09372   -1.000
 5431.00    2.22486   2.10140   -1.000
 5432.00    2.21815   2.12599   -1.000
 5433.00    2.17066   2.12288   -1.000
 5434.00    2.17431   2.09116   -1.000
 5435.00    2.17729   2.07435   -1.000
 5436.00    2.18082   2.10097   -1.000
 5437.00    2.22686   2.15530   -1.000
 5438.00    2.26575   2.21310   -1.000
 5439.00    2.29870   2.25269   -1.000
 5440.00    2.33316   2.27988   -1.000
 5441.00    2.34402   2.29490   -1.000
 5442.00    2.31238   2.30313  119.699
 5443.00    2.28828   2.29778  119.688
 5444.00    2.26174   2.26265  120.896
 5445.00    2.19397   2.18884  124.042
 5446.00    2.11091   2.10561  129.106
 5447.00    2.07975   2.05370   -1.000
 5448.00    2.13571   2.07246   -1.000
 5449.00    2.21223   2.13218   -1.000
 5450.00    2.24928   2.18820   -1.000
 5451.00    2.25466   2.20791   -1.000
 5452.00    2.23825   2.20052   -1.000
 5453.00    2.20171   2.17322   -1.000
 5454.00    2.14944   2.12340   -1.000
 5455.00    2.10046   2.06525   -1.000
 5456.00    2.12853   2.05152   -1.000
 5457.00    2.22133   2.09971   -1.000
 5458.00    2.27533   2.17398   -1.000
 5459.00    2.26262   2.22142   -1.000
 5460.00    2.24515   2.22364  123.411
 5461.00    2.25268   2.20075   -1.000
 5462.00    2.24542   2.16927   -1.000
 5463.00    2.21203   2.15230   -1.000
 5464.00    2.22552   2.15701   -1.000
 5465.00    2.23827   2.17822   -1.000
 5466.00    2.24361   2.20234   -1.000
 5467.00    2.26218   2.21918   -1.000
 5468.00    2.27612   2.22687   -1.000
 5469.00    2.26939   2.22646   -1.000
 5470.00    2.26582   2.21686   -1.000
 5471.00    2.26633   2.20276   -1.000
 5472.00    2.24689   2.19427   -1.000
 5473.00    2.22269   2.18642   -1.000
 5474.00    2.20407   2.16797   -1.000
 5475.00    2.18346   2.13571   -1.000
 5476.00    2.15047   2.09888   -1.000
 5477.00    2.14379   2.08356   -1.000
 5478.00    2.19810   2.11621   -1.000
 5479.00    2.25138   2.16985   -1.000
 5480.00    2.24692   2.18695   -1.000
 5481.00    2.22027   2.16971   -1.000
 5482.00    2.20858   2.15465   -1.000
 5483.00    2.23674   2.17125   -1.000
 5484.00    2.28049   2.21407   -1.000
 5485.00    2.28991   2.24355   -1.000
 5486.00    2.28063   2.24796   -1.000
 5487.00    2.25266   2.22657   -1.000
 5488.00    2.23715   2.20347   -1.000
 5489.00    2.24387   2.19775   -1.000
 5490.00    2.24496   2.21113   -1.000
 5491.00    2.26898   2.22863   -1.000
 5492.00    2.27553   2.23839   -1.000
 5493.00    2.29749   2.23963   -1.000
 5494.00    2.30584   2.23625   -1.000
 5495.00    2.28987   2.22821   -1.000
 5496.00    2.27206   2.21294   -1.000
 5497.00    2.23369   2.19582   -1.000
 5498.00    2.24561   2.19436   -1.000
 5499.00    2.27927   2.21129   -1.000
 5500.00    2.27965   2.21754   -1.000
 5501.00    2.25218   2.19832   -1.000
 5502.00    2.22872   2.17712   -1.000
 5503.00    2.25875   2.17680   -1.000
 5504.00    2.27268   2.18972   -1.000
 5505.00    2.25869   2.18243   -1.000
 5506.00    2.23416   2.15727   -1.000
 5507.00    2.22573   2.15021   -1.000
 5508.00    2.25070   2.17622   -1.000
 5509.00    2.28427   2.21294   -1.000
 5510.00    2.27032   2.22422   -1.000
 5511.00    2.23839   2.19938   -1.000
 5512.00    2.22247   2.16350   -1.000
 5513.00    2.21023   2.13482   -1.000
 5514.00    2.20927   2.13164   -1.000
 5515.00    2.23837   2.14744   -1.000
 5516.00    2.28295   2.17395   -1.000
 5517.00    2.32244   2.20893   -1.000
 5518.00    2.35186   2.24723   -1.000
 5519.00    2.36411   2.27371   -1.000
 5520.00    2.36517   2.28500   -1.000
 5521.00    2.35911   2.28108   -1.000
 5522.00    2.35810   2.27920   -1.000
 5523.00    2.36566   2.28254   -1.000
 5524.00    2.35429   2.28240   -1.000
 5525.00    2.31147   2.26856   -1.000
 5526.00    2.26287   2.23088   -1.000
 5527.00    2.21493   2.18190   -1.000
 5528.00    2.19789   2.14763   -1.000
 5529.00    2.22247   2.15543   -1.000
 5530.00    2.28327   2.20511   -1.000
 5531.00    2.30904   2.24847   -1.000
 5532.00    2.31776   2.26330   -1.000
 5533.00    2.30533   2.25370   -1.000
 5534.00    2.28614   2.24174   -1.000
 5535.00    2.29310   2.23601   -1.000
 5536.00    2.30661   2.23992   -1.000
 5537.00    2.32464   2.24816   -1.000
 5538.00    2.33679   2.25864   -1.000
 5539.00    2.32928   2.27296   -1.000
 5540.00    2.35921   2.29086   -1.000
 5541.00    2.37603   2.30243   -1.000
 5542.00    2.35981   2.29929   -1.000
 5543.00    2.33694   2.28491   -1.000
 5544.00    2.32343   2.27273   -1.000
 5545.00    2.32982   2.27120   -1.000
 5546.00    2.32094   2.27480   -1.000
 5547.00    2.33317   2.28179   -1.000
 5548.00    2.35047   2.30020   -1.000
 5549.00    2.37667   2.32461   -1.000
 5550.00    2.39651   2.33420   -1.000
 5551.00    2.39180   2.33192   -1.000
 5552.00    2.37407   2.32098   -1.000
 5553.00    2.34790   2.30827   -1.000
 5554.00    2.34832   2.29618   -1.000
 5555.00    2.35460   2.29191   -1.000
 5556.00    2.35354   2.29112   -1.000
 5557.00    2.36329   2.29147   -1.000
 5558.00    2.37345   2.29235   -1.000
 5559.00    2.37888   2.29650   -1.000
 5560.00    2.36363   2.30011   -1.000
 5561.00    2.35084   2.29526   -1.000
 5562.00    2.35627   2.28181   -1.000
 5563.00    2.34331   2.27091   -1.000
 5564.00    2.31717   2.26744   -1.000
 5565.00    2.32337   2.26463   -1.000
 5566.00    2.32929   2.25648   -1.000
 5567.00    2.29952   2.25163   -1.000
 5568.00    2.30299   2.24999   -1.000
 5569.00    2.31088   2.24833   -1.000
 5570.00    2.31832   2.25135   -1.000
 5571.00    2.31634   2.25420   -1.000
 5572.00    2.31581   2.24720   -1.000
 5573.00    2.31047   2.24298   -1.000
 5574.00    2.35530   2.25068   -1.000
 5575.00    2.45920   2.27119   -1.000
 5576.00    2.56663   2.28711   -1.000
 5577.00    2.56939   2.29533   -1.000
 5578.00    2.30450   2.30727  121.648
 5579.00    1.93274   2.32054   -1.000
 5580.00    1.63121   2.32211   -1.000
 5581.00    1.79012   2.31335   -1.000
 5582.00    2.16871   2.30403   -1.000
 5583.00    2.34550   2.29594   -1.000
 5584.00    2.37733   2.29073   -1.000
 5585.00    2.34329   2.26480   -1.000
 5586.00    2.28132   2.21627   -1.000
 5587.00    2.23009   2.16385   -1.000
 5588.00    2.19714   2.13080   -1.000
 5589.00    2.22054   2.13599   -1.000
 5590.00    2.26925   2.16469   -1.000
 5591.00    2.29382   2.20346   -1.000
 5592.00    2.30858   2.22857   -1.000
 5593.00    2.29408   2.23634   -1.000
 5594.00    2.30589   2.24115   -1.000
 5595.00    2.32087   2.26012   -1.000
 5596.00    2.34307   2.28428   -1.000
 5597.00    2.33971   2.28395   -1.000
 5598.00    2.29702   2.25006   -1.000
 5599.00    2.26945   2.22042   -1.000
 5600.00    2.27069   2.20272   -1.000
 5601.00    2.27118   2.19245   -1.000
 5602.00    2.27284   2.18981   -1.000
 5603.00    2.28845   2.20746   -1.000
 5604.00    2.31976   2.24990   -1.000
 5605.00    2.37073   2.30418   -1.000
 5606.00    2.41071   2.34039   -1.000
 5607.00    2.41700   2.35925   -1.000
 5608.00    2.41046   2.36318   -1.000
 5609.00    2.40326   2.36150   -1.000
 5610.00    2.40672   2.36357   -1.000
 5611.00    2.42598   2.37176   -1.000
 5612.00    2.43478   2.37285   -1.000
 5613.00    2.40380   2.34729   -1.000
 5614.00    2.33054   2.28817   -1.000
 5615.00    2.26113   2.21897   -1.000
 5616.00    2.26691   2.19747   -1.000
 5617.00    2.32109   2.22560   -1.000
 5618.00    2.36195   2.26601   -1.000
 5619.00    2.36661   2.28971   -1.000
 5620.00    2.38042   2.29871   -1.000
 5621.00    2.40487   2.31108   -1.000
 5622.00    2.39699   2.32149   -1.000
 5623.00    2.37232   2.30522   -1.000
 5624.00    2.34288   2.27153   -1.000
 5625.00    2.34753   2.25008   -1.000
 5626.00    2.35119   2.25953   -1.000
 5627.00    2.37223   2.29080   -1.000
 5628.00    2.38817   2.31333   -1.000
 5629.00    2.41691   2.32933   -1.000
 5630.00    2.43118   2.34004   -1.000
 5631.00    2.42943   2.34669   -1.000
 5632.00    2.41770   2.34880   -1.000
 5633.00    2.41833   2.34500   -1.000
 5634.00    2.41755   2.34059   -1.000
 5635.00    2.40898   2.32944   -1.000
 5636.00    2.38986   2.31128   -1.000
 5637.00    2.37923   2.29932   -1.000
 5638.00    2.37649   2.29753   -1.000
 5639.00    2.36266   2.30101   -1.000
 5640.00    2.36899   2.29914   -1.000
 5641.00    2.37428   2.29071   -1.000
 5642.00    2.38023   2.28747   -1.000
 5643.00    2.38199   2.29617   -1.000
 5644.00    2.37908   2.30735   -1.000
 5645.00    2.38472   2.31451   -1.000
 5646.00    2.40112   2.32136   -1.000
 5647.00    2.40676   2.32428   -1.000
 5648.00    2.41068   2.32486   -1.000
 5649.00    2.42929   2.32400   -1.000
 5650.00    2.42449   2.32860   -1.000
 5651.00    2.43195   2.34460   -1.000
 5652.00    2.46094   2.35830   -1.000
 5653.00    2.44808   2.36181   -1.000
 5654.00    2.41428   2.35234   -1.000
 5655.00    2.39973   2.33841   -1.000
 5656.00    2.38687   2.31714   -1.000
 5657.00    2.33281   2.27685   -1.000
 5658.00    2.27886   2.23422   -1.000
 5659.00    2.29958   2.22641   -1.000
 5660.00    2.35067   2.25169   -1.000
 5661.00    2.36418   2.27929   -1.000
 5662.00    2.37050   2.28185   -1.000
 5663.00    2.35804   2.28678   -1.000
 5664.00    2.36816   2.31443   -1.000
 5665.00    2.39277   2.34108   -1.000
 5666.00    2.38604   2.34604   -1.000
 5667.00    2.39299   2.32917   -1.000
 5668.00    2.37311   2.31311   -1.000
 5669.00    2.38420   2.31191   -1.000
 5670.00    2.40548   2.31814   -1.000
 5671.00    2.41142   2.32985   -1.000
 5672.00    2.41544   2.34781   -1.000
 5673.00    2.45032   2.36769   -1.000
 5674.00    2.46029   2.37771   -1.000
 5675.00    2.44157   2.38072   -1.000
 5676.00    2.44685   2.38344   -1.000
 5677.00    2.46056   2.38951   -1.000
 5678.00    2.45843   2.39181   -1.000
 5679.00    2.45232   2.38470   -1.000
 5680.00    2.45876   2.36979   -1.000
 5681.00    2.43601   2.35138   -1.000
 5682.00    2.39966   2.32861   -1.000
 5683.00    2.38886   2.31454   -1.000
 5684.00    2.40321   2.32210   -1.000
 5685.00    2.44277   2.34138   -1.000
 5686.00    2.41784   2.34369   -1.000
 5687.00    2.37955   2.32880   -1.000
 5688.00    2.39814   2.31457   -1.000
 5689.00    2.41628   2.31704   -1.000
 5690.00    2.44090   2.33984   -1.000
 5691.00    2.44857   2.36895   -1.000
 5692.00    2.46957   2.39522   -1.000
 5693.00    2.49901   2.40458   -1.000
 5694.00    2.49853   2.40258   -1.000
 5695.00    2.49510   2.39734   -1.000
 5696.00    2.49464   2.39083   -1.000
 5697.00    2.48540   2.37987   -1.000
 5698.00    2.46079   2.36347   -1.000
 5699.00    2.42421   2.34511   -1.000
 5700.00    2.38940   2.33283   -1.000
 5701.00    2.36195   2.32084   -1.000
 5702.00    2.36907   2.31526   -1.000
 5703.00    2.39378   2.32817   -1.000
 5704.00    2.40316   2.34631   -1.000
 5705.00    2.40746   2.35122   -1.000
 5706.00    2.38001   2.33550   -1.000
 5707.00    2.34679   2.30578   -1.000
 5708.00    2.32477   2.27880   -1.000
 5709.00    2.30393   2.25691   -1.000
 5710.00    2.32239   2.25177   -1.000
 5711.00    2.33782   2.26291   -1.000
 5712.00    2.37224   2.28807   -1.000
 5713.00    2.42697   2.32491   -1.000
 5714.00    2.45612   2.36287   -1.000
 5715.00    2.46401   2.38148   -1.000
 5716.00    2.46781   2.39326   -1.000
 5717.00    2.46837   2.39995   -1.000
 5718.00    2.47389   2.40547   -1.000
 5719.00    2.49256   2.41313   -1.000
 5720.00    2.49763   2.42448   -1.000
 5721.00    2.51215   2.43737   -1.000
 5722.00    2.51520   2.44614   -1.000
 5723.00    2.51588   2.45288   -1.000
 5724.00    2.50018   2.45349   -1.000
 5725.00    2.50816   2.44015   -1.000
 5726.00    2.48993   2.41134   -1.000
 5727.00    2.46267   2.39152   -1.000
 5728.00    2.48542   2.38995   -1.000
 5729.00    2.50154   2.40415   -1.000
 5730.00    2.47923   2.41505   -1.000
 5731.00    2.47786   2.41200   -1.000
 5732.00    2.47991   2.41025   -1.000
 5733.00    2.51063   2.42281   -1.000
 5734.00    2.51592   2.44499   -1.000
 5735.00    2.51050   2.45415   -1.000
 5736.00    2.51255   2.44915   -1.000
 5737.00    2.51153   2.44270   -1.000
 5738.00    2.51041   2.43648   -1.000
 5739.00    2.50572   2.43814   -1.000
 5740.00    2.50624   2.44138   -1.000
 5741.00    2.49897   2.44219   -1.000
 5742.00    2.48329   2.43765   -1.000
 5743.00    2.49475   2.43728   -1.000
 5744.00    2.52400   2.44926   -1.000
 5745.00    2.53928   2.46587   -1.000
 5746.00    2.53431   2.46868   -1.000
 5747.00    2.51819   2.45355   -1.000
 5748.00    2.50702   2.43652   -1.000
 5749.00    2.51498   2.44336   -1.000
 5750.00    2.52074   2.45824   -1.000
 5751.00    2.49999   2.45991   -1.000
 5752.00    2.48212   2.43705   -1.000
 5753.00    2.47918   2.40246   -1.000
 5754.00    2.47878   2.39304   -1.000
 5755.00    2.49642   2.41669   -1.000
 5756.00    2.52818   2.45571   -1.000
 5757.00    2.54756   2.48628   -1.000
 5758.00    2.54187   2.49595   -1.000
 5759.00    2.53050   2.48159   -1.000
 5760.00    2.50472   2.44815   -1.000
 5761.00    2.48536   2.41457   -1.000
 5762.00    2.47481   2.39128   -1.000
 5763.00    2.48204   2.39886   -1.000
 5764.00    2.50974   2.43505   -1.000
 5765.00    2.52583   2.47600   -1.000
 5766.00    2.53092   2.49151   -1.000
 5767.00    2.53797   2.49610   -1.000
 5768.00    2.55897   2.49612   -1.000
 5769.00    2.53955   2.49248   -1.000
 5770.00    2.53280   2.48496   -1.000
 5771.00    2.50690   2.47877   -1.000
 5772.00    2.50130   2.47200   -1.000
 5773.00    2.48487   2.46567  123.920
 5774.00    2.46894   2.45775  124.270
 5775.00    2.48099   2.45057   -1.000
 5776.00    2.49501   2.45248   -1.000
 5777.00    2.50589   2.45839   -1.000
 5778.00    2.47501   2.45584  123.438
 5779.00    2.42441   2.43793  123.790
 5780.00    2.35290   2.40494   -1.000
 5781.00    2.28906   2.37023   -1.000
 5782.00    2.30322   2.35081   -1.000
 5783.00    2.37530   2.35234  129.977
 5784.00    2.42468   2.35736   -1.000
 5785.00    2.44287   2.35996   -1.000
 5786.00    2.45868   2.37277   -1.000
 5787.00    2.49227   2.40012   -1.000
 5788.00    2.51183   2.42423   -1.000
 5789.00    2.51741   2.43926   -1.000
 5790.00    2.50829   2.43824   -1.000
 5791.00    2.50569   2.43328   -1.000
 5792.00    2.51673   2.44392   -1.000
 5793.00    2.54222   2.47161   -1.000
 5794.00    2.54673   2.50356   -1.000
 5795.00    2.53703   2.51623  122.353
 5796.00    2.51026   2.50892  122.206
 5797.00    2.47027   2.48625  122.869
 5798.00    2.47691   2.47402  123.663
 5799.00    2.51927   2.48907   -1.000
 5800.00    2.55256   2.51892   -1.000
 5801.00    2.58227   2.54550   -1.000
 5802.00    2.59999   2.54929   -1.000
 5803.00    2.58703   2.53364   -1.000
 5804.00    2.57107   2.51095   -1.000
 5805.00    2.56775   2.49950   -1.000
 5806.00    2.56186   2.50018   -1.000
 5807.00    2.56121   2.50873   -1.000
 5808.00    2.56713   2.51743   -1.000
 5809.00    2.55886   2.52164   -1.000
 5810.00    2.56141   2.52524   -1.000
 5811.00    2.58285   2.52625   -1.000
 5812.00    2.58517   2.52282   -1.000
 5813.00    2.58334   2.51478   -1.000
 5814.00    2.56543   2.50008   -1.000
 5815.00    2.56365   2.48069   -1.000
 5816.00    2.56690   2.46955   -1.000
 5817.00    2.57475   2.48225   -1.000
 5818.00    2.58073   2.51020   -1.000
 5819.00    2.57693   2.52909   -1.000
 5820.00    2.57734   2.53625   -1.000
 5821.00    2.58288   2.53591   -1.000
 5822.00    2.58211   2.53162   -1.000
 5823.00    2.58043   2.52440   -1.000
 5824.00    2.59345   2.52272   -1.000
 5825.00    2.61030   2.52487   -1.000
 5826.00    2.62342   2.53190   -1.000
 5827.00    2.60622   2.53807   -1.000
 5828.00    2.61644   2.54348   -1.000
 5829.00    2.62268   2.54894   -1.000
 5830.00    2.62495   2.55117   -1.000
 5831.00    2.62880   2.54971   -1.000
 5832.00    2.61103   2.54683   -1.000
 5833.00    2.61761   2.54024   -1.000
 5834.00    2.61569   2.53090   -1.000
 5835.00    2.59664   2.52364   -1.000
 5836.00    2.57540   2.52768   -1.000
 5837.00    2.60134   2.53209   -1.000
 5838.00    2.61219   2.53162   -1.000
 5839.00    2.60754   2.53436   -1.000
 5840.00    2.61172   2.54406   -1.000
 5841.00    2.63029   2.55632   -1.000
 5842.00    2.61795   2.56592   -1.000
 5843.00    2.61036   2.56158   -1.000
 5844.00    2.62595   2.55017   -1.000
 5845.00    2.61175   2.53618   -1.000
 5846.00    2.57158   2.52321   -1.000
 5847.00    2.57035   2.51071   -1.000
 5848.00    2.57895   2.50509   -1.000
 5849.00    2.56731   2.50327   -1.000
 5850.00    2.56043   2.50123   -1.000
 5851.00    2.56214   2.48860   -1.000
 5852.00    2.52431   2.46445   -1.000
 5853.00    2.49594   2.44902   -1.000
 5854.00    2.51049   2.44843   -1.000
 5855.00    2.51240   2.44983   -1.000
 5856.00    2.50231   2.43033   -1.000
 5857.00    2.48028   2.39634   -1.000
 5858.00    2.48178   2.38430   -1.000
 5859.00    2.51736   2.40473   -1.000
 5860.00    2.55954   2.44086   -1.000
 5861.00    2.56570   2.46365   -1.000
 5862.00    2.55504   2.46893   -1.000
 5863.00    2.56747   2.46907   -1.000
 5864.00    2.56990   2.46840   -1.000
 5865.00    2.55894   2.46397   -1.000
 5866.00    2.54492   2.45273   -1.000
 5867.00    2.53010   2.44740   -1.000
 5868.00    2.55172   2.46375   -1.000
 5869.00    2.58567   2.49074   -1.000
 5870.00    2.59374   2.50704   -1.000
 5871.00    2.59018   2.51048   -1.000
 5872.00    2.61360   2.50255   -1.000
 5873.00    2.62295   2.49476   -1.000
 5874.00    2.59328   2.49031   -1.000
 5875.00    2.57731   2.48961   -1.000
 5876.00    2.58287   2.48715   -1.000
 5877.00    2.58077   2.47706   -1.000
 5878.00    2.57253   2.45981   -1.000
 5879.00    2.56521   2.44029   -1.000
 5880.00    2.55128   2.42793   -1.000
 5881.00    2.55845   2.42489   -1.000
 5882.00    2.55478   2.42996   -1.000
 5883.00    2.53580   2.42827   -1.000
 5884.00    2.54231   2.41700   -1.000
 5885.00    2.53464   2.40384   -1.000
 5886.00    2.49402   2.37891   -1.000
 5887.00    2.37054   2.30944   -1.000
 5888.00    2.20320   2.17086   -1.000
 5889.00    1.92228   2.01043   -1.000
 5890.00    1.50693   1.93212   -1.000
 5891.00    1.29884   1.97758   -1.000
 5892.00    1.43210   2.08332   -1.000
 5893.00    1.81609   2.15020   -1.000
 5894.00    2.06111   2.12335   -1.000
 5895.00    2.00786   2.04923   -1.000
 5896.00    1.82250   2.00971   -1.000
 5897.00    1.71656   2.07043   -1.000
 5898.00    1.85223   2.17841   -1.000
 5899.00    2.11945   2.25837   -1.000
 5900.00    2.36564   2.31889   -1.000
 5901.00    2.50199   2.36500   -1.000
 5902.00    2.53409   2.39658   -1.000
 5903.00    2.54753   2.41771   -1.000
 5904.00    2.55027   2.42491   -1.000
 5905.00    2.55561   2.42624   -1.000
 5906.00    2.57006   2.42804   -1.000
 5907.00    2.56462   2.43409   -1.000
 5908.00    2.55542   2.44562   -1.000
 5909.00    2.55829   2.45534   -1.000
 5910.00    2.56496   2.46327   -1.000
 5911.00    2.56014   2.46424   -1.000
 5912.00    2.53874   2.45433   -1.000
 5913.00    2.52196   2.43119   -1.000
 5914.00    2.51907   2.40697   -1.000
 5915.00    2.51261   2.39385   -1.000
 5916.00    2.50019   2.39942   -1.000
 5917.00    2.51246   2.41597   -1.000
 5918.00    2.54616   2.43607   -1.000
 5919.00    2.56285   2.45059   -1.000
 5920.00    2.55037   2.45694   -1.000
 5921.00    2.54065   2.45588   -1.000
 5922.00    2.54549   2.45096   -1.000
 5923.00    2.55482   2.44884   -1.000
 5924.00    2.57202   2.45667   -1.000
 5925.00    2.58385   2.47112   -1.000
 5926.00    2.57664   2.48217   -1.000
 5927.00    2.57316   2.48478   -1.000
 5928.00    2.55556   2.47338   -1.000
 5929.00    2.53275   2.45798   -1.000
 5930.00    2.53709   2.45243   -1.000
 5931.00    2.55726   2.46407   -1.000
 5932.00    2.56932   2.47861   -1.000
 5933.00    2.57543   2.47813   -1.000
 5934.00    2.56878   2.46705   -1.000
 5935.00    2.55869   2.46089   -1.000
 5936.00    2.56099   2.47002   -1.000
 5937.00    2.57645   2.48656   -1.000
 5938.00    2.57859   2.49555   -1.000
 5939.00    2.58569   2.49302   -1.000
 5940.00    2.57535   2.47774   -1.000
 5941.00    2.56175   2.46075   -1.000
 5942.00    2.55386   2.45376   -1.000
 5943.00    2.57090   2.46512   -1.000
 5944.00    2.60173   2.48765   -1.000
 5945.00    2.61460   2.50157   -1.000
 5946.00    2.60587   2.50471   -1.000
 5947.00    2.57633   2.49539   -1.000
 5948.00    2.54498   2.47861   -1.000
 5949.00    2.54261   2.46856   -1.000
 5950.00    2.55795   2.47471   -1.000
 5951.00    2.56428   2.47799   -1.000
 5952.00    2.56520   2.47436   -1.000
 5953.00    2.55998   2.47059   -1.000
 5954.00    2.57126   2.47394   -1.000
 5955.00    2.54855   2.47261   -1.000
 5956.00    2.52225   2.46220   -1.000
 5957.00    2.53869   2.45471   -1.000
 5958.00    2.56350   2.46217   -1.000
 5959.00    2.59226   2.48486   -1.000
 5960.00    2.60538   2.50746   -1.000
 5961.00    2.59945   2.52454   -1.000
 5962.00    2.60322   2.52857   -1.000
 5963.00    2.59601   2.52447   -1.000
 5964.00    2.59312   2.51494   -1.000
 5965.00    2.59632   2.50340   -1.000
 5966.00    2.60537   2.49807   -1.000
 5967.00    2.62182   2.50781   -1.000
 5968.00    2.61743   2.52245   -1.000
 5969.00    2.62540   2.53096   -1.000
 5970.00    2.64028   2.53749   -1.000
 5971.00    2.63044   2.54303   -1.000
 5972.00    2.61650   2.54165   -1.000
 5973.00    2.59349   2.53567   -1.000
 5974.00    2.58082   2.52757   -1.000
 5975.00    2.58341   2.51079   -1.000
 5976.00    2.57795   2.49238   -1.000
 5977.00    2.55314   2.48293   -1.000
 5978.00    2.53501   2.48318   -1.000
 5979.00    2.56131   2.49769   -1.000
 5980.00    2.58330   2.51433   -1.000
 5981.00    2.60137   2.52217   -1.000
 5982.00    2.59721   2.51090   -1.000
 5983.00    2.55612   2.48582   -1.000
 5984.00    2.53325   2.46865   -1.000
 5985.00    2.54714   2.47218   -1.000
 5986.00    2.56146   2.49515   -1.000
 5987.00    2.57257   2.51483   -1.000
 5988.00    2.59202   2.52612   -1.000
 5989.00    2.60645   2.53315   -1.000
 5990.00    2.61041   2.53388   -1.000
 5991.00    2.61095   2.53399   -1.000
 5992.00    2.62444   2.54437   -1.000
 5993.00    2.63926   2.56655   -1.000
 5994.00    2.62849   2.58221   -1.000
 5995.00    2.61650   2.57928   -1.000
 5996.00    2.62380   2.55949   -1.000
 5997.00    2.61632   2.53957   -1.000
 5998.00    2.61530   2.53302   -1.000
 5999.00    2.61419   2.53667   -1.000
 6000.00    2.60055   2.53937   -1.000
 6001.00    2.60696   2.53792   -1.000
 6002.00    2.61764   2.53181   -1.000
 6003.00    2.61156   2.52760   -1.000
 6004.00    2.58440   2.53324   -1.000
 6005.00    2.58694   2.53575   -1.000
 6006.00    2.57674   2.51847   -1.000
 6007.00    2.54542   2.49282   -1.000
 6008.00    2.54990   2.48575   -1.000
 6009.00    2.58242   2.50674   -1.000
 6010.00    2.59678   2.53898   -1.000
 6011.00    2.60897   2.54891   -1.000
 6012.00    2.58903   2.53942   -1.000
 6013.00    2.57342   2.52928   -1.000
 6014.00    2.59528   2.52795   -1.000
 6015.00    2.58747   2.53467   -1.000
 6016.00    2.58858   2.53079   -1.000
 6017.00    2.60416   2.52223   -1.000
 6018.00    2.61441   2.52169   -1.000
 6019.00    2.59838   2.51979   -1.000
 6020.00    2.58358   2.51581   -1.000
 6021.00    2.58533   2.51791   -1.000
 6022.00    2.60079   2.52461   -1.000
 6023.00    2.60637   2.53178   -1.000
 6024.00    2.61989   2.54224   -1.000
 6025.00    2.64064   2.55689   -1.000
 6026.00    2.64227   2.57135   -1.000
 6027.00    2.61884   2.58169   -1.000
 6028.00    2.62576   2.59247   -1.000
 6029.00    2.65151   2.60189   -1.000
 6030.00    2.65606   2.60313   -1.000
 6031.00    2.65870   2.60341   -1.000
 6032.00    2.66624   2.60745   -1.000
 6033.00    2.67665   2.61578   -1.000
 6034.00    2.67167   2.62612   -1.000
 6035.00    2.66595   2.63005   -1.000
 6036.00    2.67725   2.62778   -1.000
 6037.00    2.68016   2.62103   -1.000
 6038.00    2.65794   2.61194   -1.000
 6039.00    2.63971   2.60208   -1.000
 6040.00    2.64464   2.59589   -1.000
 6041.00    2.66578   2.59864   -1.000
 6042.00    2.68106   2.60268   -1.000
 6043.00    2.66591   2.61069   -1.000
 6044.00    2.65968   2.62915   -1.000
 6045.00    2.67075   2.64424   -1.000
 6046.00    2.67045   2.65148  123.372
 6047.00    2.67497   2.65322   -1.000
 6048.00    2.68160   2.65331   -1.000
 6049.00    2.67216   2.65206  123.328
 6050.00    2.68434   2.65259   -1.000
 6051.00    2.68935   2.65017   -1.000
 6052.00    2.67421   2.64003   -1.000
 6053.00    2.66130   2.62796   -1.000
 6054.00    2.66178   2.61825   -1.000
 6055.00    2.67397   2.60702   -1.000
 6056.00    2.65942   2.59633   -1.000
 6057.00    2.65891   2.59432   -1.000
 6058.00    2.65900   2.60018   -1.000
 6059.00    2.64813   2.61356   -1.000
 6060.00    2.64341   2.62780  124.929
 6061.00    2.65171   2.62811   -1.000
 6062.00    2.65544   2.61194   -1.000
 6063.00    2.61728   2.58086   -1.000
 6064.00    2.59882   2.55254   -1.000
 6065.00    2.59200   2.53932   -1.000
 6066.00    2.60360   2.56019   -1.000
 6067.00    2.25618   2.60239   -1.000
 6068.00    1.41728   2.63853   -1.000
 6069.00    2.21246   2.65698   -1.000
 6070.00    2.70613   2.66633   -1.000
 6071.00    2.69182   2.67149   -1.000
 6072.00    2.68458   2.67481  120.487
 6073.00    2.35625   2.67492   -1.000
 6074.00    1.20877   2.67193   -1.000
 6075.00    1.90563   2.66593   -1.000
 6076.00    2.60869   2.65424   -1.000
 6077.00    2.67528   2.63827   -1.000
 6078.00    2.64660   2.62310   -1.000
 6079.00    2.63708   2.61285   -1.000
 6080.00    2.63202   2.60598   -1.000
 6081.00    2.63791   2.59606   -1.000
 6082.00    2.63547   2.58790   -1.000
 6083.00    2.65287   2.59397   -1.000
 6084.00    2.63951   2.60324   -1.000
 6085.00    2.63270   2.60855   -1.000
 6086.00    2.65075   2.61593   -1.000
 6087.00    2.65612   2.62524   -1.000
 6088.00    2.65117   2.62636   -1.000
 6089.00    2.64154   2.61486   -1.000
 6090.00    2.61136   2.59743  127.791
 6091.00    2.62474   2.58888   -1.000
 6092.00    2.65184   2.59476   -1.000
 6093.00    2.67544   2.60935   -1.000
 6094.00    2.70284   2.62862   -1.000
 6095.00    2.70143   2.64104   -1.000
 6096.00    2.68171   2.64582   -1.000
 6097.00    2.67413   2.64769   -1.000
 6098.00    2.66751   2.65400  125.966
 6099.00    2.65603   2.65687  126.088
 6100.00    2.64328   2.63653  126.102
 6101.00    2.60260   2.58812  127.369
 6102.00    2.54361   2.52999  130.283
 6103.00    2.54803   2.51433   -1.000
 6104.00    2.61189   2.54939   -1.000
 6105.00    2.65230   2.59043   -1.000
 6106.00    2.63793   2.61781  127.689
 6107.00    2.63624   2.63021  127.022
 6108.00    2.64515   2.63998  127.391
 6109.00    2.64837   2.65037  127.752
 6110.00    2.65541   2.65097  127.752
 6111.00    2.66988   2.64480   -1.000
 6112.00    2.68182   2.64906   -1.000
 6113.00    2.69134   2.66217   -1.000
 6114.00    2.69856   2.67247   -1.000
 6115.00    2.68927   2.67055  125.924
 6116.00    2.67055   2.66008  126.293
 6117.00    2.66051   2.65857  127.093
 6118.00    2.65857   2.64518  127.387
 6119.00    2.63051   2.60313   -1.000
 6120.00    2.59453   2.55500   -1.000
 6121.00    2.57602   2.50616   -1.000
 6122.00    2.56205   2.49418   -1.000
 6123.00    2.58144   2.53224   -1.000
 6124.00    2.62578   2.57902   -1.000
 6125.00    2.63522   2.60784   -1.000
 6126.00    2.62062   2.61521  129.018
 6127.00    2.63036   2.61468  129.678
 6128.00    2.64755   2.61700   -1.000
 6129.00    2.66612   2.63683   -1.000
 6130.00    2.68436   2.66431  128.467
 6131.00    2.68622   2.68341  127.260
 6132.00    2.68477   2.68799  126.835
 6133.00    2.64897   2.67006  127.017
 6134.00    2.58534   2.62318   -1.000
 6135.00    2.54447   2.54423  130.704
 6136.00    2.50491   2.46936   -1.000
 6137.00    2.50577   2.45285   -1.000
 6138.00    2.54554   2.50693   -1.000
 6139.00    2.58346   2.56757  136.001
 6140.00    2.60852   2.59947  132.136
 6141.00    2.59859   2.59782  130.281
 6142.00    2.60012   2.60753  130.277
 6143.00    2.64439   2.63932  130.530
 6144.00    2.70229   2.66558   -1.000
 6145.00    2.70207   2.67520   -1.000
 6146.00    2.68107   2.67048  127.488
 6147.00    2.66133   2.65495  127.977
 6148.00    2.63786   2.62972  128.770
 6149.00    2.62225   2.61106  129.688
 6150.00    2.60782   2.60621  130.479
 6151.00    2.60758   2.61821  130.615
 6152.00    2.62731   2.63466  130.200
 6153.00    2.63359   2.63734  129.352
 6154.00    2.60960   2.62536  129.054
 6155.00    2.60337   2.61085  129.955
 6156.00    2.60781   2.60360  130.731
 6157.00    2.58071   2.59605  130.909
 6158.00    2.54567   2.58017   -1.000
 6159.00    2.51608   2.54178   -1.000
 6160.00    2.46428   2.46806  134.986
 6161.00    2.41545   2.38383   -1.000
 6162.00    2.39532   2.32770   -1.000
 6163.00    2.41798   2.34060   -1.000
 6164.00    2.44787   2.39510   -1.000
 6165.00    2.47952   2.44861   -1.000
 6166.00    2.48107   2.48252  137.011
 6167.00    2.47025   2.49371   -1.000
 6168.00    2.45887   2.47266  136.432
 6169.00    2.43899   2.44181  137.987
 6170.00    2.44969   2.44290  139.492
 6171.00    2.46762   2.47856  138.876
 6172.00    2.49525   2.51878   -1.000
 6173.00    2.52869   2.53601  134.332
 6174.00    2.54680   2.54376  134.135
 6175.00    2.52916   2.55052   -1.000
 6176.00    2.53917   2.55328  134.032
 6177.00    2.53884   2.56049   -1.000
 6178.00    2.55285   2.57143  133.413
 6179.00    2.56478   2.57895  132.800
 6180.00    2.58186   2.58353  132.281
 6181.00    2.58360   2.59332  131.855
 6182.00    2.57620   2.60065   -1.000
 6183.00    2.58541   2.59980  130.888
 6184.00    2.59539   2.59242  131.057
 6185.00    2.59031   2.57796  131.500
 6186.00    2.55434   2.55355  132.454
 6187.00    2.51368   2.53242  133.857
 6188.00    2.50293   2.51582  135.264
 6189.00    2.50179   2.49115  136.565
 6190.00    2.47133   2.45514  137.603
 6191.00    2.43809   2.42862  139.265
 6192.00    2.45964   2.44651  140.343
 6193.00    2.50209   2.49221  139.172
 6194.00    2.52283   2.53344  135.965
 6195.00    2.54390   2.55934  133.506
 6196.00    2.56436   2.57682  132.488
 6197.00    2.56519   2.57685  132.216
 6198.00    2.53799   2.55652  132.908
 6199.00    2.51260   2.53186  134.371
 6200.00    2.51025   2.53328   -1.000
 6201.00    2.53404   2.55625   -1.000
 6202.00    2.55719   2.57834   -1.000
 6203.00    2.55119   2.59488   -1.000
 6204.00    2.52598   2.60164   -1.000
 6205.00    2.54423   2.60586   -1.000
 6206.00    2.58135   2.61013   -1.000
 6207.00    2.59417   2.61481  131.925
 6208.00    2.59538   2.61656   -1.000
 6209.00    2.58910   2.60882  132.450
 6210.00    2.57319   2.59403  132.914
 6211.00    2.54999   2.57328   -1.000
 6212.00    2.51487   2.54182   -1.000
 6213.00    2.47939   2.50181   -1.000
 6214.00    2.46925   2.47559  138.378
 6215.00    2.48142   2.46589  139.920
 6216.00    2.50070   2.47134   -1.000
 6217.00    2.51176   2.47947   -1.000
 6218.00    2.50903   2.48235   -1.000
 6219.00    2.49734   2.47666  138.825
 6220.00    2.48393   2.47753  138.630
 6221.00    2.49736   2.48849  137.639
 6222.00    2.53638   2.49525   -1.000
 6223.00    2.55349   2.49397   -1.000
 6224.00    2.53551   2.49805   -1.000
 6225.00    2.53354   2.50575   -1.000
 6226.00    2.55187   2.51360   -1.000
 6227.00    2.52486   2.51289  136.848
 6228.00    2.50043   2.49187  137.481
 6229.00    2.48391   2.45046   -1.000
 6230.00    2.46324   2.40823   -1.000
 6231.00    2.46446   2.40098   -1.000
 6232.00    2.47686   2.42754   -1.000
 6233.00    2.51130   2.47184   -1.000
 6234.00    2.54365   2.51526   -1.000
 6235.00    2.54576   2.54285  136.392
 6236.00    2.52433   2.54319  135.482
 6237.00    2.51518   2.52691  136.150
 6238.00    2.48976   2.50342  137.485
 6239.00    2.46364   2.48239   -1.000
 6240.00    2.47181   2.47010  140.358
 6241.00    2.48715   2.46745  141.115
 6242.00    2.48648   2.46145  141.154
 6243.00    2.46622   2.44907  141.971
 6244.00    2.47415   2.44313   -1.000
 6245.00    2.49242   2.44792   -1.000
 6246.00    2.49990   2.46658   -1.000
 6247.00    2.52440   2.50096   -1.000
 6248.00    2.54912   2.52856  139.199
 6249.00    2.53699   2.54063  137.677
 6250.00    2.52748   2.53229  137.299
 6251.00    2.50165   2.50312  138.336
 6252.00    2.47532   2.46756  140.694
 6253.00    2.46148   2.45252  142.634
 6254.00    2.46097   2.45385  143.730
 6255.00    2.45851   2.45595  144.225
 6256.00    2.44901   2.44491  144.242
 6257.00    2.43879   2.42438  145.273
 6258.00    2.41566   2.42334  146.619
 6259.00    2.41349   2.44505   -1.000
 6260.00    2.45014   2.47945   -1.000
 6261.00    2.49068   2.51739   -1.000
 6262.00    2.53316   2.55055  140.242
 6263.00    2.56139   2.56631  138.124
 6264.00    2.55746   2.56305  137.137
 6265.00    2.55480   2.55441  137.914
 6266.00    2.55326   2.55360  138.916
 6267.00    2.54185   2.55923  138.594
 6268.00    2.54459   2.55919  137.616
 6269.00    2.53505   2.55653   -1.000
 6270.00    2.54563   2.55939  138.496
 6271.00    2.54569   2.56842   -1.000
 6272.00    2.55461   2.57273  138.051
 6273.00    2.56416   2.56597  137.690
 6274.00    2.55134   2.54715  137.916
 6275.00    2.54672   2.52433  138.809
 6276.00    2.53837   2.50319   -1.000
 6277.00    2.51493   2.48630   -1.000
 6278.00    2.45114   2.47614   -1.000
 6279.00    2.39256   2.46923   -1.000
 6280.00    2.37179   2.47086   -1.000
 6281.00    2.37689   2.48618   -1.000
 6282.00    2.39732   2.51549   -1.000
 6283.00    2.40967   2.54946   -1.000
 6284.00    2.39660   2.57443   -1.000
 6285.00    2.40874   2.59092   -1.000
 6286.00    2.46544   2.60636   -1.000
 6287.00    2.51569   2.61965   -1.000
 6288.00    2.52804   2.62778   -1.000
 6289.00    2.54776   2.62082   -1.000
 6290.00    2.54638   2.60671   -1.000
 6291.00    2.52754   2.59158   -1.000
 6292.00    2.53421   2.58107   -1.000
 6293.00    2.54137   2.57278   -1.000
 6294.00    2.55335   2.56831  139.861
 6295.00    2.53675   2.55503  140.089
 6296.00    2.51772   2.53270  141.000
 6297.00    2.49486   2.52334   -1.000
 6298.00    2.49470   2.53365   -1.000
 6299.00    2.50845   2.54558   -1.000
 6300.00    2.48392   2.54805   -1.000
 6301.00    2.43810   2.53935   -1.000
 6302.00    2.44326   2.54028   -1.000
 6303.00    2.47880   2.55629   -1.000
 6304.00    2.51665   2.57379   -1.000
 6305.00    2.55897   2.58777   -1.000
 6306.00    2.58823   2.60562  138.891
 6307.00    2.58770   2.62829   -1.000
 6308.00    2.59159   2.64555   -1.000
 6309.00    2.59208   2.64716   -1.000
 6310.00    2.58490   2.63865   -1.000
 6311.00    2.58191   2.62886   -1.000
 6312.00    2.58089   2.62084   -1.000
 6313.00    2.57922   2.61503   -1.000
 6314.00    2.56938   2.60414   -1.000
 6315.00    2.57697   2.59423  139.677
 6316.00    2.57157   2.58791  140.395
 6317.00    2.56446   2.57761  140.405
 6318.00    2.56681   2.57191  140.264
 6319.00    2.57567   2.58777  140.387
 6320.00    2.58056   2.61566   -1.000
 6321.00    2.59209   2.63210   -1.000
 6322.00    2.60001   2.64229   -1.000
 6323.00    2.59833   2.65649   -1.000
 6324.00    2.60832   2.67101   -1.000
 6325.00    2.63118   2.67651   -1.000
 6326.00    2.65498   2.67763   -1.000
 6327.00    2.66394   2.67970  134.657
 6328.00    2.66778   2.68320  134.126
 6329.00    2.67085   2.68666  134.050
 6330.00    2.66532   2.68835  134.180
 6331.00    2.67153   2.69862   -1.000
 6332.00    2.67233   2.71103   -1.000
 6333.00    2.64301   2.70133   -1.000
 6334.00    2.61297   2.67012   -1.000
 6335.00    2.59716   2.63289   -1.000
 6336.00    2.61453   2.61837  136.689
 6337.00    2.67355   2.63331   -1.000
 6338.00    2.70144   2.65581   -1.000
 6339.00    2.68162   2.68017  135.488
 6340.00    2.68028   2.69852  134.016
 6341.00    2.70138   2.70359  133.166
 6342.00    2.70583   2.69149  132.539
 6343.00    2.69626   2.66906   -1.000
 6344.00    2.68721   2.65250   -1.000
 6345.00    2.67494   2.66324  133.891
 6346.00    2.68660   2.68656  133.619
 6347.00    2.70373   2.70943  132.966
 6348.00    2.72309   2.72737  132.072
 6349.00    2.72735   2.74025  131.463
 6350.00    2.71445   2.74475   -1.000
 6351.00    2.70711   2.74107   -1.000
 6352.00    2.69585   2.72972   -1.000
 6353.00    2.68497   2.71069   -1.000
 6354.00    2.67774   2.68830  132.275
 6355.00    2.67111   2.67800  133.579
 6356.00    2.65898   2.67349  134.857
 6357.00    2.64131   2.65894  135.172
 6358.00    2.62391   2.63569  135.452
 6359.00    2.62489   2.61918  136.735
 6360.00    2.64309   2.61072   -1.000
 6361.00    2.65466   2.60363   -1.000
 6362.00    2.65358   2.60270   -1.000
 6363.00    2.64292   2.61373   -1.000
 6364.00    2.66390   2.63473   -1.000
 6365.00    2.69081   2.65836   -1.000
 6366.00    2.69031   2.68102  134.520
 6367.00    2.69181   2.70298  133.767
 6368.00    2.71233   2.72230  132.952
 6369.00    2.74358   2.72655  132.069
 6370.00    2.74238   2.72718  131.593
 6371.00    2.73389   2.73124  131.596
 6372.00    2.75769   2.74041  131.297
 6373.00    2.77150   2.75113   -1.000
 6374.00    2.75967   2.75462  130.907
 6375.00    2.74471   2.75360  131.097
 6376.00    2.73221   2.75166  131.325
 6377.00    2.71727   2.73978  131.768
 6378.00    2.69269   2.71937   -1.000
 6379.00    2.66714   2.70601   -1.000
 6380.00    2.67927   2.69970  133.869
 6381.00    2.69930   2.70161  134.052
 6382.00    2.71656   2.70790  134.257
 6383.00    2.74000   2.71519   -1.000
 6384.00    2.72499   2.71924  134.015
 6385.00    2.69573   2.72394   -1.000
 6386.00    2.69244   2.73156   -1.000
 6387.00    2.69635   2.73558   -1.000
 6388.00    2.69466   2.73637   -1.000
 6389.00    2.67832   2.73652   -1.000
 6390.00    2.66024   2.73019   -1.000
 6391.00    2.64526   2.70658   -1.000
 6392.00    2.62003   2.67104   -1.000
 6393.00    2.59317   2.64834   -1.000
 6394.00    2.58796   2.66326   -1.000
 6395.00    2.61361   2.70502   -1.000
 6396.00    2.64645   2.73597   -1.000
 6397.00    2.64307   2.74249   -1.000
 6398.00    2.59196   2.71413   -1.000
 6399.00    2.54200   2.67348   -1.000
 6400.00    2.52466   2.65449   -1.000
 6401.00    2.54769   2.68236   -1.000
 6402.00    2.58272   2.73242   -1.000
 6403.00    2.59741   2.76682   -1.000
 6404.00    2.58863   2.78207   -1.000
 6405.00    2.56327   2.77466   -1.000
 6406.00    2.53367   2.75250   -1.000
 6407.00    2.51422   2.72971   -1.000
 6408.00    2.50675   2.72541   -1.000
 6409.00    2.50086   2.73397   -1.000
 6410.00    2.47626   2.73392   -1.000
 6411.00    2.44042   2.72179   -1.000
 6412.00    2.42867   2.71392   -1.000
 6413.00    2.43062   2.72118   -1.000
 6414.00    2.42384   2.73605   -1.000
 6415.00    2.42124   2.75166   -1.000
 6416.00    2.42183   2.76015   -1.000
 6417.00    2.39839   2.75460   -1.000
 6418.00    2.35486   2.73576   -1.000
 6419.00    2.30769   2.70521   -1.000
 6420.00    2.26653   2.68257   -1.000
 6421.00    2.26555   2.68714   -1.000
 6422.00    2.28518   2.72145   -1.000
 6423.00    2.29083   2.75684   -1.000
 6424.00    2.27863   2.78101   -1.000
 6425.00    2.25137   2.79455   -1.000
 6426.00    2.24071   2.80336   -1.000
 6427.00    2.23841   2.80453   -1.000
 6428.00    2.21698   2.78394   -1.000
