###################################################################
## OUTPUT of StarlightChains_v04.for    [Cid@UFSC - 01/Apr/2007] ##
###################################################################

## Some input info
NGC6235_a_1.cxt                          [arq_obs]
Base.BC03.S                              [arq_base]
NGC6235_a_1.msk                          [arq_masks]
StCv04.C11.config                        [arq_config]
  150                                    [N_base]
    0                                    [N_YAV_components = # of components with extra extinction!]
    0                                    [i_FitPowerLaw (1/0 = Yes/No)]
-9.99                                    [alpha_PowerLaw]
CCM                                      [red_law_option]
 1.458241                                [q_norm = A(l_norm)/A(V)]

## (Re)Sampling Parameters
 3359.00                                 [l_ini (A)]
 6428.00                                 [l_fin (A)]
    1.00                                 [dl    (A)]     (OBS: dl_cushion =    50.00 A)

## Normalization info
 4020.00                                 [l_norm (A) - for base]
 4010.00                                 [llow_norm (A) - window for f_obs]
 4060.00                                 [lupp_norm (A) - window for f_obs]
2.685576E-15                             [fobs_norm (in input units)]

## S/N
 4730.00                                 [llow_SN (A) - window for S/N]
 4780.00                                 [lupp_SN (A) - window for S/N]
  64.240                                 [S/N in S/N window]
  49.525                                 [S/N in norm. window]
 131.570                                 [S/N_err in S/N window]
 101.432                                 [S/N_err in norm. window]
  1.0000                                 [fscale_chi2]

## etc...
  2147483624                             [idum_orig]
  3066                                   [NOl_eff]
  1589                                   [Nl_eff]
  1477    NSIGMA                         [Ntot_cliped & clip_method]
  1851150                                [Nglobal_steps]
   7                                     [N_chains]
  27                                     [NEX0s_base = N_base in EX0s-fits]
 0   0   1      144   2.0   2.368E+02    [Clip-Bug, RC-Crash & Burn-In warning-flags, n_censored_weights, wei_nsig_threshold & wei_limit]
    67     67.148     67.145      0.004  [idt_all, wdt_TotTime, wdt_UsrTime & wdt_SysTime (sec)]

## Synthesis Results - Best model ##

 2.38129E+00                             [chi2/Nl_eff]
     1.42322                             [adev (%)]

    97.54226                             [sum-of-x (%)]
 9.92793E-15                             [Flux_tot (units of input spectrum!)]
 3.33035E-10                             [Mini_tot (???)]
 1.64347E-10                             [Mcor_tot (???)]

 -13.60                                  [v0_min  (km/s)]
 106.01                                  [vd_min  (km/s)]
 0.9920                                  [AV_min  (mag)]
 0.0000                                  [YAV_min (mag)]

# j     x_j(%)      Mini_j(%)     Mcor_j(%)     age_j(yr)     Z_j      (L/M)_j    YAV?  Mstars   component_j        a/Fe...       SSP_chi2r SSP_adev(%)   SSP_AV   SSP_x(%)
  1      0.0000     0.0000E+00    0.0000E+00    1.000000E+06  0.00010  8.160E-03    0   1.0000   age020_m22            0.0000     2.7704E+02    13.7555   4.0000    89.4703
  2      2.8479     1.8289E-03    3.7060E-03    3.160000E+06  0.00010  4.759E-02    0   1.0000   age045_m22            0.0000     3.0037E+01     4.6191   2.5145    95.6495
  3      0.0000     0.0000E+00    0.0000E+00    5.010000E+06  0.00010  1.932E-02    0   0.9582   age055_m22            0.0000     1.5130E+02    10.5908   2.6830    86.5037
  4      0.0000     0.0000E+00    0.0000E+00    6.610000E+06  0.00010  9.973E-03    0   0.9297   age061_m22            0.0000     2.5336E+02    13.0925   4.0000    91.7116
  5      0.0000     0.0000E+00    0.0000E+00    8.710000E+06  0.00010  7.690E-03    0   0.9030   age067_m22            0.0000     2.4234E+02    12.8136   4.0000    91.9499
  6      0.0000     0.0000E+00    0.0000E+00    1.000000E+07  0.00010  6.375E-03    0   0.8902   age070_m22            0.0000     2.4355E+02    12.7895   4.0000    92.4370
  7      0.0000     0.0000E+00    0.0000E+00    1.445000E+07  0.00010  4.874E-03    0   0.8589   age078_m22            0.0000     1.4297E+02    10.1881   4.0000    90.6882
  8      0.0000     0.0000E+00    0.0000E+00    2.512000E+07  0.00010  4.103E-03    0   0.8174   age090_m22            0.0000     6.2448E+01     7.0464   3.8507    90.0735
  9      0.0000     0.0000E+00    0.0000E+00    4.000000E+07  0.00010  3.654E-03    0   0.7830   age104_m22            0.0000     4.3129E+01     5.1672   3.6090    93.2727
 10      0.0000     0.0000E+00    0.0000E+00    5.500000E+07  0.00010  3.093E-03    0   0.7597   age110_m22            0.0000     3.8772E+01     4.5470   3.5314    94.1218
 11      0.5581     7.0161E-03    1.0148E-02    1.015200E+08  0.00010  2.431E-03    0   0.7138   age116_m22            0.0000     4.0802E+01     4.1972   3.2084    96.3962
 12      0.0000     0.0000E+00    0.0000E+00    1.609000E+08  0.00010  1.319E-03    0   0.6775   age120_m22            0.0000     3.7772E+01     3.8772   2.7406    98.3912
 13      0.0000     0.0000E+00    0.0000E+00    2.861200E+08  0.00010  1.075E-03    0   0.6412   age125_m22            0.0000     8.7756E+01     5.6191   2.8804    99.5540
 14      0.0000     0.0000E+00    0.0000E+00    5.088000E+08  0.00010  7.183E-04    0   0.6083   age130_m22            0.0000     1.0955E+02     6.4332   2.6748   100.4382
 15      0.0000     0.0000E+00    0.0000E+00    9.047900E+08  0.00010  4.524E-04    0   0.5785   age135_m22            0.0000     1.1100E+02     6.5658   2.4803   101.4301
 16      0.0000     0.0000E+00    0.0000E+00    1.278050E+09  0.00010  3.018E-04    0   0.5588   age138_m22            0.0000     4.9981E+01     4.4260   1.9098   100.8620
 17      0.0000     0.0000E+00    0.0000E+00    1.434000E+09  0.00010  2.691E-04    0   0.5532   age139_m22            0.0000     3.9960E+01     4.0062   1.7472   100.4959
 18      0.0000     0.0000E+00    0.0000E+00    2.500000E+09  0.00010  1.582E-04    0   0.5296   age150_m22            0.0000     3.3592E+01     3.7265   1.6151   101.8027
 19      0.0032     9.6444E-04    9.9867E-04    4.250000E+09  0.00010  1.007E-04    0   0.5110   age158_m22            0.0000     1.7647E+01     2.7951   1.4406   100.7868
 20      0.0027     1.2061E-03    1.2184E-03    6.250000E+09  0.00010  6.869E-05    0   0.4985   age166_m22            0.0000     8.9481E+00     2.1148   1.3575    98.7594
 21      0.2602     1.3541E-01    1.3531E-01    7.500000E+09  0.00010  5.873E-05    0   0.4931   age171_m22            0.0000     8.9106E+00     2.1517   1.3356    98.5308
 22      0.0000     0.0000E+00    0.0000E+00    1.000000E+10  0.00010  4.481E-05    0   0.4854   age181_m22            0.0000     8.3253E+00     2.0964   1.2980    98.1488
 23      0.0082     7.1747E-03    6.9656E-03    1.300000E+10  0.00010  3.489E-05    0   0.4791   age193_m22            0.0000     7.2226E+00     1.9777   1.2424    97.5704
 24      1.0564     1.0638E+00    1.0274E+00    1.500000E+10  0.00010  3.035E-05    0   0.4766   age201_m22            0.0000     6.6735E+00     1.9236   1.2026    97.4066
 25      7.4339     9.0515E+00    8.6850E+00    1.800000E+10  0.00010  2.510E-05    0   0.4735   age213_m22            0.0000     5.7858E+00     1.8519   1.1306    96.9095
 26      0.0000     0.0000E+00    0.0000E+00    1.000000E+06  0.00040  8.458E-03    0   1.0000   age020_m32            0.0000     2.8190E+02    13.7799   4.0000    90.5825
 27      0.0000     0.0000E+00    0.0000E+00    3.160000E+06  0.00040  3.973E-02    0   1.0000   age045_m32            0.0000     6.9823E+01     7.4259   3.7406    90.2770
 28      0.0000     0.0000E+00    0.0000E+00    5.010000E+06  0.00040  1.935E-02    0   0.9532   age055_m32            0.0000     1.3454E+02    10.2075   3.9018    86.2497
 29      0.0000     0.0000E+00    0.0000E+00    6.610000E+06  0.00040  1.204E-02    0   0.9243   age061_m32            0.0000     1.7666E+02    11.2011   4.0000    90.1245
 30      0.0000     0.0000E+00    0.0000E+00    8.710000E+06  0.00040  9.433E-03    0   0.9001   age067_m32            0.0000     1.5781E+02    10.6623   4.0000    90.2871
 31      0.0000     0.0000E+00    0.0000E+00    1.000000E+07  0.00040  8.053E-03    0   0.8877   age070_m32            0.0000     1.4409E+02    10.2772   4.0000    89.7985
 32      0.0000     0.0000E+00    0.0000E+00    1.445000E+07  0.00040  7.027E-03    0   0.8578   age078_m32            0.0000     8.5680E+01     8.2482   3.6730    89.7716
 33      0.0000     0.0000E+00    0.0000E+00    2.512000E+07  0.00040  4.707E-03    0   0.8166   age090_m32            0.0000     5.5413E+01     6.5689   3.4139    92.7429
 34      0.0000     0.0000E+00    0.0000E+00    4.000000E+07  0.00040  3.714E-03    0   0.7827   age104_m32            0.0000     3.9669E+01     5.0535   3.2527    94.9040
 35      0.0000     0.0000E+00    0.0000E+00    5.500000E+07  0.00040  2.982E-03    0   0.7593   age110_m32            0.0000     3.7151E+01     4.5905   3.2107    95.5129
 36      0.0000     0.0000E+00    0.0000E+00    1.015200E+08  0.00040  2.188E-03    0   0.7143   age116_m32            0.0000     4.8754E+01     4.2662   3.0137    97.7550
 37      0.0000     0.0000E+00    0.0000E+00    1.609000E+08  0.00040  1.690E-03    0   0.6856   age120_m32            0.0000     6.6859E+01     4.8866   2.8329    99.5778
 38      0.0000     0.0000E+00    0.0000E+00    2.861200E+08  0.00040  1.152E-03    0   0.6509   age125_m32            0.0000     9.1708E+01     5.8083   2.6429   100.3335
 39      0.0000     0.0000E+00    0.0000E+00    5.088000E+08  0.00040  7.331E-04    0   0.6182   age130_m32            0.0000     1.0138E+02     6.2284   2.4967   100.5183
 40      0.0000     0.0000E+00    0.0000E+00    9.047900E+08  0.00040  3.960E-04    0   0.5890   age135_m32            0.0000     5.4601E+01     4.7135   2.0171    99.6811
 41      0.0000     0.0000E+00    0.0000E+00    1.278050E+09  0.00040  2.854E-04    0   0.5687   age138_m32            0.0000     3.9548E+01     4.0492   1.6946   102.3670
 42      0.0000     0.0000E+00    0.0000E+00    1.434000E+09  0.00040  2.531E-04    0   0.5632   age139_m32            0.0000     3.7714E+01     3.9546   1.6306   102.4134
 43      4.6893     9.6312E-01    1.0512E+00    2.500000E+09  0.00040  1.488E-04    0   0.5386   age150_m32            0.0000     2.4015E+01     3.2116   1.3652   100.8706
 44     16.8467     5.6690E+00    5.9725E+00    4.250000E+09  0.00040  9.082E-05    0   0.5199   age158_m32            0.0000     6.8570E+00     1.8510   1.2319    98.5869
 45     19.6841     9.4558E+00    9.7263E+00    6.250000E+09  0.00040  6.362E-05    0   0.5076   age166_m32            0.0000     5.5937E+00     1.9548   1.1506    96.3943
 46      8.9940     5.1970E+00    5.2941E+00    7.500000E+09  0.00040  5.289E-05    0   0.5027   age171_m32            0.0000     6.0808E+00     2.0491   1.1114    95.2236
 47      0.0040     3.0494E-03    3.0575E-03    1.000000E+10  0.00040  3.972E-05    0   0.4948   age181_m32            0.0000     6.4444E+00     2.0994   1.0518    93.8073
 48      0.0055     5.1283E-03    5.0610E-03    1.300000E+10  0.00040  3.283E-05    0   0.4870   age193_m32            0.0000     3.5406E+00     1.6069   1.0278    95.9380
 49      5.0542     5.2808E+00    5.1943E+00    1.500000E+10  0.00040  2.925E-05    0   0.4854   age201_m32            0.0000     3.6216E+00     1.5668   1.0205    97.1918
 50     22.7798     2.8197E+01    2.7535E+01    1.800000E+10  0.00040  2.469E-05    0   0.4819   age213_m32            0.0000     3.8622E+00     1.5995   0.9852    97.5557
 51      0.0000     0.0000E+00    0.0000E+00    1.000000E+06  0.00400  1.114E-02    0   1.0000   age020_m42            0.0000     2.3769E+02    12.8127   4.0000    89.3253
 52      0.0000     0.0000E+00    0.0000E+00    3.160000E+06  0.00400  4.073E-02    0   0.9999   age045_m42            0.0000     4.6070E+01     6.0216   3.4738    91.9618
 53      0.0000     0.0000E+00    0.0000E+00    5.010000E+06  0.00400  2.534E-02    0   0.9488   age055_m42            0.0000     9.1620E+01     8.5481   3.8159    87.5284
 54      0.0000     0.0000E+00    0.0000E+00    6.610000E+06  0.00400  2.583E-02    0   0.9220   age061_m42            0.0000     3.9565E+01     5.4153   3.3030    92.6160
 55      0.0000     0.0000E+00    0.0000E+00    8.710000E+06  0.00400  1.706E-02    0   0.8983   age067_m42            0.0000     5.9003E+01     6.8607   3.0817    92.2148
 56      0.9617     2.3125E-03    4.1528E-03    1.000000E+07  0.00400  1.271E-02    0   0.8862   age070_m42            0.0000     8.5024E+01     8.2797   3.0386    91.6394
 57      0.0000     0.0000E+00    0.0000E+00    1.445000E+07  0.00400  7.666E-03    0   0.8571   age078_m42            0.0000     1.0355E+02     9.0381   3.4199    88.9242
 58      0.0000     0.0000E+00    0.0000E+00    2.512000E+07  0.00400  5.070E-03    0   0.8174   age090_m42            0.0000     7.0813E+01     7.6901   2.9151    93.0924
 59      0.0000     0.0000E+00    0.0000E+00    4.000000E+07  0.00400  3.505E-03    0   0.7851   age104_m42            0.0000     4.2262E+01     6.0193   2.6342    94.9643
 60      0.0000     0.0000E+00    0.0000E+00    5.500000E+07  0.00400  3.059E-03    0   0.7629   age110_m42            0.0000     2.2527E+01     3.5214   2.7635    97.3483
 61      0.0000     0.0000E+00    0.0000E+00    1.015200E+08  0.00400  2.268E-03    0   0.7207   age116_m42            0.0000     5.4668E+01     4.3089   2.7530   100.1016
 62      0.0000     0.0000E+00    0.0000E+00    1.609000E+08  0.00400  1.720E-03    0   0.6930   age120_m42            0.0000     6.2941E+01     4.7414   2.6283   101.1013
 63      0.0000     0.0000E+00    0.0000E+00    2.861200E+08  0.00400  1.079E-03    0   0.6613   age125_m42            0.0000     6.5485E+01     4.8231   2.2765   101.4220
 64      0.0000     0.0000E+00    0.0000E+00    5.088000E+08  0.00400  6.261E-04    0   0.6313   age130_m42            0.0000     7.5349E+01     5.3182   2.0865   104.1382
 65      0.0000     0.0000E+00    0.0000E+00    9.047900E+08  0.00400  3.535E-04    0   0.6024   age135_m42            0.0000     4.2496E+01     4.1790   1.6740   104.6699
 66      0.0000     0.0000E+00    0.0000E+00    1.278050E+09  0.00400  2.677E-04    0   0.5837   age138_m42            0.0000     2.8198E+01     3.8411   1.0025   101.4380
 67      0.0000     0.0000E+00    0.0000E+00    1.434000E+09  0.00400  1.910E-04    0   0.5716   age139_m42            0.0000     2.6746E+01     3.6525   1.1724   102.2922
 68      0.0000     0.0000E+00    0.0000E+00    2.500000E+09  0.00400  9.818E-05    0   0.5463   age150_m42            0.0000     2.4434E+01     3.5964   0.8878    97.8912
 69      0.0000     0.0000E+00    0.0000E+00    4.250000E+09  0.00400  5.491E-05    0   0.5269   age158_m42            0.0000     2.9581E+01     3.8579   0.7453    95.6691
 70      0.0000     0.0000E+00    0.0000E+00    6.250000E+09  0.00400  3.857E-05    0   0.5151   age166_m42            0.0000     4.2665E+01     4.4680   0.6267    94.1182
 71      0.0000     0.0000E+00    0.0000E+00    7.500000E+09  0.00400  3.243E-05    0   0.5110   age171_m42            0.0000     5.2290E+01     4.8482   0.5558    93.3410
 72      0.0000     0.0000E+00    0.0000E+00    1.000000E+10  0.00400  2.424E-05    0   0.5028   age181_m42            0.0000     6.5802E+01     5.3444   0.4836    92.4948
 73      0.0000     0.0000E+00    0.0000E+00    1.300000E+10  0.00400  1.883E-05    0   0.4927   age193_m42            0.0000     7.6255E+01     5.7211   0.4457    92.1073
 74      0.0000     0.0000E+00    0.0000E+00    1.500000E+10  0.00400  1.685E-05    0   0.4919   age201_m42            0.0000     7.3486E+01     5.6377   0.4474    92.2088
 75      0.0000     0.0000E+00    0.0000E+00    1.800000E+10  0.00400  1.452E-05    0   0.4874   age213_m42            0.0000     6.8350E+01     5.4797   0.4578    92.6024
 76      0.0000     0.0000E+00    0.0000E+00    1.000000E+06  0.00800  1.286E-02    0   1.0000   age020_m52            0.0000     2.1461E+02    12.2127   4.0000    90.5849
 77      0.0000     0.0000E+00    0.0000E+00    3.160000E+06  0.00800  3.147E-02    0   0.9966   age045_m52            0.0000     1.7684E+02    11.2696   4.0000    90.0411
 78      0.0000     0.0000E+00    0.0000E+00    5.010000E+06  0.00800  2.664E-02    0   0.9443   age055_m52            0.0000     1.0655E+02     9.1409   3.9260    86.7663
 79      0.0000     0.0000E+00    0.0000E+00    6.610000E+06  0.00800  2.151E-02    0   0.9177   age061_m52            0.0000     6.2873E+01     7.1758   2.6489    92.7966
 80      0.0000     4.8677E-08    8.8263E-08    8.710000E+06  0.00800  1.628E-02    0   0.8948   age067_m52            0.0000     6.6696E+01     7.3970   3.0280    92.9622
 81      0.0000     0.0000E+00    0.0000E+00    1.000000E+07  0.00800  1.215E-02    0   0.8827   age070_m52            0.0000     8.2038E+01     8.1691   3.3555    91.4192
 82      0.0000     0.0000E+00    0.0000E+00    1.445000E+07  0.00800  8.739E-03    0   0.8552   age078_m52            0.0000     6.9994E+01     7.4537   3.4153    92.1345
 83      0.0000     0.0000E+00    0.0000E+00    2.512000E+07  0.00800  5.676E-03    0   0.8162   age090_m52            0.0000     4.9695E+01     5.8896   3.0539    95.8467
 84      0.0000     0.0000E+00    0.0000E+00    4.000000E+07  0.00800  3.939E-03    0   0.7841   age104_m52            0.0000     3.6207E+01     4.6041   2.9284    97.2445
 85      0.0000     0.0000E+00    0.0000E+00    5.500000E+07  0.00800  3.155E-03    0   0.7627   age110_m52            0.0000     3.4286E+01     3.9486   2.9252    98.1792
 86      0.0000     0.0000E+00    0.0000E+00    1.015200E+08  0.00800  2.206E-03    0   0.7226   age116_m52            0.0000     4.4148E+01     3.8863   2.7909   100.5472
 87      0.0000     0.0000E+00    0.0000E+00    1.609000E+08  0.00800  1.596E-03    0   0.6963   age120_m52            0.0000     5.3446E+01     4.2590   2.5935   101.6396
 88      0.0000     0.0000E+00    0.0000E+00    2.861200E+08  0.00800  1.002E-03    0   0.6665   age125_m52            0.0000     8.4863E+01     5.7485   2.3488   102.8287
 89      0.0000     0.0000E+00    0.0000E+00    5.088000E+08  0.00800  5.759E-04    0   0.6377   age130_m52            0.0000     9.7046E+01     6.4856   2.0317   105.6262
 90      0.0000     0.0000E+00    0.0000E+00    9.047900E+08  0.00800  2.972E-04    0   0.6086   age135_m52            0.0000     6.7606E+01     5.5841   1.5083   103.7869
 91      0.0000     0.0000E+00    0.0000E+00    1.278050E+09  0.00800  2.242E-04    0   0.5907   age138_m52            0.0000     4.8576E+01     4.8485   0.8664   103.0537
 92      0.0000     0.0000E+00    0.0000E+00    1.434000E+09  0.00800  1.645E-04    0   0.5787   age139_m52            0.0000     3.8797E+01     4.4041   1.0011   102.8892
 93      0.0000     0.0000E+00    0.0000E+00    2.500000E+09  0.00800  7.723E-05    0   0.5519   age150_m52            0.0000     5.0291E+01     4.8931   0.6535    99.4089
 94      0.0000     0.0000E+00    0.0000E+00    4.250000E+09  0.00800  4.151E-05    0   0.5320   age158_m52            0.0000     5.4257E+01     5.0344   0.5761    97.1493
 95      0.0000     0.0000E+00    0.0000E+00    6.250000E+09  0.00800  3.010E-05    0   0.5197   age166_m52            0.0000     7.7979E+01     5.8585   0.3949    95.3939
 96      0.0000     0.0000E+00    0.0000E+00    7.500000E+09  0.00800  2.467E-05    0   0.5139   age171_m52            0.0000     8.4875E+01     6.0672   0.3584    94.8643
 97      0.0000     0.0000E+00    0.0000E+00    1.000000E+10  0.00800  1.862E-05    0   0.5054   age181_m52            0.0000     1.0787E+02     6.7316   0.2470    93.9461
 98      0.0000     0.0000E+00    0.0000E+00    1.300000E+10  0.00800  1.433E-05    0   0.4988   age193_m52            0.0000     1.3387E+02     7.4279   0.1665    94.0812
 99      0.0000     0.0000E+00    0.0000E+00    1.500000E+10  0.00800  1.244E-05    0   0.4936   age201_m52            0.0000     1.4426E+02     7.6839   0.1420    94.3707
100      0.0000     0.0000E+00    0.0000E+00    1.800000E+10  0.00800  1.070E-05    0   0.4888   age213_m52            0.0000     1.5221E+02     7.8815   0.1126    94.0691
101      0.0000     0.0000E+00    0.0000E+00    1.000000E+06  0.02000  1.989E-02    0   1.0000   age020_m62            0.0000     2.1615E+02    12.1841   4.0000    89.2922
102      0.0000     0.0000E+00    0.0000E+00    3.160000E+06  0.02000  3.772E-02    0   0.9858   age045_m62            0.0000     1.6344E+02    10.8950   4.0000    88.0426
103      0.0000     0.0000E+00    0.0000E+00    5.010000E+06  0.02000  3.227E-02    0   0.9342   age055_m62            0.0000     6.8970E+01     7.4129   3.6967    89.8626
104      0.0000     0.0000E+00    0.0000E+00    6.610000E+06  0.02000  2.387E-02    0   0.9090   age061_m62            0.0000     1.0222E+02     9.0080   3.4057    90.6139
105      0.0000     0.0000E+00    0.0000E+00    8.710000E+06  0.02000  1.102E-02    0   0.8861   age067_m62            0.0000     2.9160E+02    14.9037   2.9394    88.8786
106      0.0000     0.0000E+00    0.0000E+00    1.000000E+07  0.02000  1.011E-02    0   0.8751   age070_m62            0.0000     1.9490E+02    12.3018   2.9907    90.3952
107      0.0000     1.7826E-08    3.0603E-08    1.445000E+07  0.02000  7.331E-03    0   0.8472   age078_m62            0.0000     1.3104E+02    10.1931   3.0386    90.8966
108      0.0000     0.0000E+00    0.0000E+00    2.512000E+07  0.02000  4.206E-03    0   0.8099   age090_m62            0.0000     1.3682E+02    10.4608   2.9526    90.3180
109      0.0000     0.0000E+00    0.0000E+00    4.000000E+07  0.02000  3.373E-03    0   0.7799   age104_m62            0.0000     4.4038E+01     5.7905   2.8521    96.3539
110      0.0000     0.0000E+00    0.0000E+00    5.500000E+07  0.02000  2.747E-03    0   0.7595   age110_m62            0.0000     3.4249E+01     4.3428   2.8315    98.5039
111      0.0000     0.0000E+00    0.0000E+00    1.015200E+08  0.02000  1.878E-03    0   0.7221   age116_m62            0.0000     5.1977E+01     4.1007   2.7561   101.4605
112      0.0000     0.0000E+00    0.0000E+00    1.609000E+08  0.02000  1.378E-03    0   0.6978   age120_m62            0.0000     7.4378E+01     4.9117   2.6356   102.9545
113      0.0000     0.0000E+00    0.0000E+00    2.861200E+08  0.02000  8.869E-04    0   0.6700   age125_m62            0.0000     1.1658E+02     6.5228   2.3081   105.8058
114      0.0000     0.0000E+00    0.0000E+00    5.088000E+08  0.02000  4.834E-04    0   0.6430   age130_m62            0.0000     1.0912E+02     6.8156   1.9106   106.6973
115      0.0000     0.0000E+00    0.0000E+00    9.047900E+08  0.02000  2.312E-04    0   0.6152   age135_m62            0.0000     5.8979E+01     5.3498   1.3031   105.8630
116      0.0000     0.0000E+00    0.0000E+00    1.278050E+09  0.02000  1.387E-04    0   0.5927   age138_m62            0.0000     4.1794E+01     4.6255   0.8962   102.1785
117      0.0000     0.0000E+00    0.0000E+00    1.434000E+09  0.02000  1.168E-04    0   0.5865   age139_m62            0.0000     4.1870E+01     4.6238   0.8660   100.7261
118      0.0000     0.0000E+00    0.0000E+00    2.500000E+09  0.02000  5.505E-05    0   0.5610   age150_m62            0.0000     7.0370E+01     5.7343   0.5031    97.5228
119      0.0000     0.0000E+00    0.0000E+00    4.250000E+09  0.02000  3.070E-05    0   0.5407   age158_m62            0.0000     1.2207E+02     7.2461   0.2447    96.3126
120      0.0000     0.0000E+00    0.0000E+00    6.250000E+09  0.02000  2.104E-05    0   0.5277   age166_m62            0.0000     1.5319E+02     7.9934   0.1284    96.1920
121      0.0000     0.0000E+00    0.0000E+00    7.500000E+09  0.02000  1.770E-05    0   0.5223   age171_m62            0.0000     1.7046E+02     8.3875   0.0517    96.1793
122      0.0000     0.0000E+00    0.0000E+00    1.000000E+10  0.02000  1.297E-05    0   0.5121   age181_m62            0.0000     2.0787E+02     9.1731  -0.0856    95.9503
123      0.5017     1.5823E+00    1.6182E+00    1.300000E+10  0.02000  9.691E-06    0   0.5047   age193_m62            0.0000     2.3378E+02     9.6698  -0.1553    95.8246
124      0.0020     7.4495E-03    7.5463E-03    1.500000E+10  0.02000  8.360E-06    0   0.4999   age201_m62            0.0000     2.5646E+02    10.1060  -0.2130    95.6286
125      1.0660     4.7140E+00    4.7247E+00    1.800000E+10  0.02000  6.911E-06    0   0.4946   age213_m62            0.0000     2.8524E+02    10.6542  -0.2686    95.2938
126      0.0000     0.0000E+00    0.0000E+00    1.000000E+06  0.05000  2.651E-02    0   0.9998   age020_m72            0.0000     2.1177E+02    12.0642   4.0000    90.2791
127      0.0000     0.0000E+00    0.0000E+00    3.160000E+06  0.05000  4.817E-02    0   0.9577   age045_m72            0.0000     1.1784E+02     9.4620   4.0000    87.4329
128      0.0000     0.0000E+00    0.0000E+00    5.010000E+06  0.05000  3.101E-02    0   0.9147   age055_m72            0.0000     1.0854E+02     9.1047   3.6737    89.3164
129      0.0000     0.0000E+00    0.0000E+00    6.610000E+06  0.05000  1.472E-02    0   0.8877   age061_m72            0.0000     2.3459E+02    12.9881   3.1580    89.5307
130      0.0000     0.0000E+00    0.0000E+00    8.710000E+06  0.05000  1.050E-02    0   0.8638   age067_m72            0.0000     1.5090E+02    10.4795   3.5898    88.9787
131      0.0000     0.0000E+00    0.0000E+00    1.000000E+07  0.05000  8.954E-03    0   0.8524   age070_m72            0.0000     1.0853E+02     9.0162   3.9032    88.0271
132      0.0000     0.0000E+00    0.0000E+00    1.445000E+07  0.05000  6.392E-03    0   0.8262   age078_m72            0.0000     9.2078E+01     8.3489   3.8652    88.6984
133      0.0000     0.0000E+00    0.0000E+00    2.512000E+07  0.05000  4.207E-03    0   0.7902   age090_m72            0.0000     5.6961E+01     6.6294   3.5204    92.2989
134      0.0000     0.0000E+00    0.0000E+00    4.000000E+07  0.05000  3.198E-03    0   0.7618   age104_m72            0.0000     3.9273E+01     3.9627   3.1025    97.8356
135      0.0000     0.0000E+00    0.0000E+00    5.500000E+07  0.05000  2.593E-03    0   0.7432   age110_m72            0.0000     4.6539E+01     4.0020   3.0221    99.3610
136      0.0000     0.0000E+00    0.0000E+00    1.015200E+08  0.05000  1.716E-03    0   0.7092   age116_m72            0.0000     6.5676E+01     4.5477   2.8507   101.2690
137      0.0000     0.0000E+00    0.0000E+00    1.609000E+08  0.05000  1.218E-03    0   0.6876   age120_m72            0.0000     8.8721E+01     5.4254   2.6209   102.8831
138      0.0000     0.0000E+00    0.0000E+00    2.861200E+08  0.05000  7.047E-04    0   0.6618   age125_m72            0.0000     1.1403E+02     6.7610   2.1294   105.1847
139      0.0000     0.0000E+00    0.0000E+00    5.088000E+08  0.05000  3.590E-04    0   0.6356   age130_m72            0.0000     9.6936E+01     6.5852   1.5891   106.3671
140      0.0000     0.0000E+00    0.0000E+00    9.047900E+08  0.05000  1.484E-04    0   0.6088   age135_m72            0.0000     6.5735E+01     5.7324   0.8390   100.3147
141      0.0000     0.0000E+00    0.0000E+00    1.278050E+09  0.05000  9.435E-05    0   0.5924   age138_m72            0.0000     1.0193E+02     6.8498   0.4555    96.7791
142      0.0000     0.0000E+00    0.0000E+00    1.434000E+09  0.05000  7.827E-05    0   0.5847   age139_m72            0.0000     1.0041E+02     6.7234   0.4562    96.5269
143      0.0000     0.0000E+00    0.0000E+00    2.500000E+09  0.05000  3.759E-05    0   0.5583   age150_m72            0.0000     1.4984E+02     7.9455   0.1400    95.4543
144      0.0000     0.0000E+00    0.0000E+00    4.250000E+09  0.05000  1.842E-05    0   0.5374   age158_m72            0.0000     2.0870E+02     9.1097  -0.1624    94.4037
145      0.2402     6.0810E-01    6.4595E-01    6.250000E+09  0.05000  1.207E-05    0   0.5242   age166_m72            0.0000     2.6755E+02    10.2378  -0.3641    92.9608
146      0.8247     2.5223E+00    2.6491E+00    7.500000E+09  0.05000  9.993E-06    0   0.5183   age171_m72            0.0000     2.7708E+02    10.4175  -0.4028    92.7420
147      0.0000     0.0000E+00    0.0000E+00    1.000000E+10  0.05000  7.291E-06    0   0.5081   age181_m72            0.0000     3.1863E+02    11.2449  -0.4927    91.6587
148      0.4747     2.7290E+00    2.7750E+00    1.300000E+10  0.05000  5.316E-06    0   0.5018   age193_m72            0.0000     3.8457E+02    12.4930  -0.6293    90.1267
149      2.6945     1.8312E+01    1.8450E+01    1.500000E+10  0.05000  4.497E-06    0   0.4972   age201_m72            0.0000     4.1688E+02    13.0958  -0.6781    89.6302
150      0.5485     4.4830E+00    4.4731E+00    1.800000E+10  0.05000  3.739E-06    0   0.4924   age213_m72            0.0000     4.5894E+02    13.8487  -0.7515    88.8342


## Synthesis Results - Average & Chains ##

# j      x_j: min, <> & last-chain-values for 1 ...  7 chains
  1      0.0000      0.0165      0.0089      0.0000      0.0000      0.0000      0.0000      0.0000      0.0000
  2      2.8479      0.2090      0.2920      0.1115      0.7856      0.0481      0.1644      0.2657      0.2192
  3      0.0000      0.0834      0.0000      0.0000      0.1395      0.0000      0.0000      0.0000      0.2415
  4      0.0000      0.0171      0.0486      0.0000      0.0000      0.0000      0.0325      0.0000      0.0000
  5      0.0000      0.0201      0.0000      0.0000      0.0004      0.0000      0.0000      0.0000      0.0893
  6      0.0000      0.0172      0.0000      0.0089      0.0124      0.0516      0.0000      0.0133      0.0000
  7      0.0000      0.0575      0.1210      0.0000      0.1077      0.0932      0.0000      0.0000      0.0000
  8      0.0000      0.0348      0.1428      0.0000      0.0000      0.0000      0.0293      0.1503      0.0336
  9      0.0000      0.0601      0.1365      0.0000      0.0000      0.1155      0.0000      0.1058      0.2606
 10      0.0000      0.0384      0.0000      0.0000      0.0000      0.0000      0.0000      0.0224      0.0000
 11      0.5581      0.1010      0.0706      0.0000      0.2158      0.0716      0.4221      0.0305      0.0000
 12      0.0000      0.0327      0.0000      0.0000      0.0000      0.0000      0.0000      0.0000      0.0000
 13      0.0000      0.0175      0.0019      0.0000      0.0000      0.0119      0.0000      0.0000      0.0613
 14      0.0000      0.0141      0.0000      0.0000      0.0000      0.0000      0.0581      0.0000      0.0804
 15      0.0000      0.0155      0.0000      0.0000      0.0000      0.0638      0.0000      0.0000      0.0000
 16      0.0000      0.0257      0.0000      0.0000      0.0000      0.0000      0.0000      0.1170      0.0000
 17      0.0000      0.0336      0.0000      0.0000      0.0000      0.0560      0.0000      0.0000      0.0000
 18      0.0000      0.0718      0.0000      0.4501      0.0000      0.0000      0.0000      0.0000      0.0000
 19      0.0032      0.1371      0.0330      0.2457      0.6334      0.1906      0.0000      0.0000      0.2174
 20      0.0027      0.1266      0.2339      0.0090      0.2676      0.1318      0.0516      0.1719      0.0927
 21      0.2602      1.1842      1.5441      0.8321      1.4574      0.9341      1.3428      1.3301      0.9091
 22      0.0000      0.3735      0.6962      1.0091      0.1604      0.5881      0.6076      0.0000      0.8950
 23      0.0082      0.4408      0.4651      0.3842      0.5472      0.5259      1.0692      0.4377      0.0000
 24      1.0564      2.8749      3.2196      2.9133      2.2853      2.7672      3.2323      2.9221      3.6841
 25      7.4339      7.5759      6.9678      7.5473      7.1695      8.0431      7.3020      8.3102      7.7650
 26      0.0000      0.0115      0.0000      0.0692      0.0078      0.0000      0.0003      0.0000      0.0000
 27      0.0000      0.0452      0.0000      0.0324      0.0009      0.0000      0.1335      0.0720      0.0000
 28      0.0000      0.0640      0.0369      0.0285      0.0980      0.0000      0.0000      0.1451      0.1309
 29      0.0000      0.0144      0.0164      0.0000      0.0000      0.1475      0.0588      0.0000      0.0000
 30      0.0000      0.0522      0.0353      0.1736      0.0029      0.0000      0.0109      0.0000      0.1138
 31      0.0000      0.0202      0.0000      0.0000      0.0000      0.0000      0.0000      0.0000      0.0000
 32      0.0000      0.0521      0.0247      0.1652      0.0000      0.0000      0.1303      0.0000      0.0000
 33      0.0000      0.0694      0.0000      0.0671      0.0000      0.0608      0.3540      0.2599      0.0000
 34      0.0000      0.0430      0.0848      0.0000      0.0000      0.1245      0.0000      0.0284      0.0000
 35      0.0000      0.0576      0.0494      0.0000      0.0571      0.0000      0.0000      0.0095      0.1488
 36      0.0000      0.0438      0.0000      0.1624      0.0000      0.1137      0.0000      0.0000      0.2668
 37      0.0000      0.0623      0.0774      0.0000      0.0589      0.0000      0.0000      0.0000      0.1981
 38      0.0000      0.0230      0.0000      0.1116      0.0000      0.0473      0.0000      0.0000      0.0000
 39      0.0000      0.0137      0.0000      0.0000      0.0140      0.0000      0.0000      0.0000      0.0000
 40      0.0000      0.0114      0.0000      0.0000      0.0000      0.0000      0.0000      0.0000      0.0000
 41      0.0000      0.0423      0.0555      0.0000      0.0000      0.0000      0.0895      0.0000      0.0000
 42      0.0000      0.0309      0.0000      0.0000      0.0697      0.0000      0.0000      0.1728      0.0000
 43      4.6893      3.4074      3.6736      3.4542      4.2006      4.0058      3.7958      3.6439      3.5557
 44     16.8467     13.4672     13.2228     13.8084     12.0244     13.9330     13.8720     13.0381     13.5154
 45     19.6841     15.9011     16.1811     16.2421     16.0156     15.8899     16.7367     15.9840     15.6494
 46      8.9940      7.9685      8.0462      7.7921      7.8251      8.3132      6.5682      8.1017      7.8865
 47      0.0040      0.2279      0.0217      0.8141      0.6857      0.1957      0.0000      0.0000      0.0000
 48      0.0055      2.4228      2.1792      2.8922      2.2153      1.8403      1.2988      2.6281      2.4029
 49      5.0542      8.4140      8.7854      6.8577      9.4191      8.1714      8.1897      7.9060      8.0254
 50     22.7798     22.6372     22.4284     22.7494     22.8169     22.1487     23.3339     22.9812     22.6490
 51      0.0000      0.0229      0.0000      0.1238      0.0000      0.0000      0.0000      0.0000      0.0364
 52      0.0000      0.0437      0.0963      0.0000      0.0000      0.0000      0.0000      0.0017      0.0000
 53      0.0000      0.0350      0.0815      0.0353      0.0000      0.0000      0.0499      0.0989      0.0037
 54      0.0000      0.0854      0.1566      0.1804      0.0000      0.3021      0.1184      0.0318      0.0000
 55      0.0000      0.0340      0.0000      0.1293      0.0000      0.0000      0.0000      0.2537      0.0000
 56      0.9617      0.1108      0.2171      0.1198      0.2507      0.3602      0.0000      0.1242      0.0417
 57      0.0000      0.0164      0.0000      0.0238      0.0000      0.0177      0.0904      0.0000      0.0000
 58      0.0000      0.0351      0.0000      0.1403      0.0000      0.0000      0.0980      0.0000      0.0000
 59      0.0000      0.0158      0.1113      0.0028      0.0000      0.0000      0.1054      0.0000      0.0088
 60      0.0000      0.0249      0.0000      0.0000      0.0000      0.0000      0.0000      0.0000      0.0190
 61      0.0000      0.0187      0.0000      0.0000      0.1069      0.0000      0.0000      0.0000      0.0000
 62      0.0000      0.0192      0.0000      0.0000      0.0000      0.0000      0.0258      0.0000      0.0000
 63      0.0000      0.0146      0.0425      0.0000      0.0000      0.0000      0.0000      0.1196      0.0000
 64      0.0000      0.0269      0.0039      0.0000      0.0000      0.0000      0.0000      0.0000      0.0000
 65      0.0000      0.0252      0.0000      0.0000      0.0000      0.0000      0.0000      0.0000      0.3448
 66      0.0000      0.0137      0.0000      0.0000      0.0000      0.0000      0.0000      0.0000      0.0000
 67      0.0000      0.0241      0.0076      0.0000      0.0000      0.0000      0.0000      0.0000      0.0000
 68      0.0000      0.0197      0.0057      0.0861      0.0000      0.0000      0.0000      0.0000      0.0000
 69      0.0000      0.0155      0.0000      0.0000      0.0000      0.0000      0.0052      0.0000      0.0534
 70      0.0000      0.0104      0.0000      0.0000      0.0000      0.0435      0.0000      0.0000      0.1400
 71      0.0000      0.0170      0.0000      0.0000      0.0000      0.0000      0.0000      0.0000      0.0000
 72      0.0000      0.0101      0.0970      0.0000      0.0000      0.0000      0.0000      0.0000      0.0000
 73      0.0000      0.0076      0.0000      0.0000      0.0000      0.0000      0.0000      0.0000      0.0000
 74      0.0000      0.0126      0.0633      0.0070      0.0000      0.0000      0.0000      0.0000      0.0000
 75      0.0000      0.0096      0.0000      0.0000      0.0000      0.0634      0.0000      0.0000      0.0000
 76      0.0000      0.0083      0.0000      0.0000      0.0000      0.0000      0.0000      0.0000      0.0000
 77      0.0000      0.0169      0.0000      0.0000      0.0552      0.0000      0.1232      0.0000      0.0040
 78      0.0000      0.0159      0.0000      0.1040      0.0775      0.0369      0.0000      0.0000      0.0000
 79      0.0000      0.0129      0.0000      0.0000      0.0000      0.0000      0.0000      0.0213      0.0000
 80      0.0000      0.0444      0.0000      0.0194      0.2022      0.2241      0.0815      0.0656      0.0000
 81      0.0000      0.0300      0.0099      0.0049      0.0000      0.1037      0.0000      0.1131      0.0000
 82      0.0000      0.0324      0.0000      0.0000      0.0000      0.0000      0.0000      0.0000      0.0000
 83      0.0000      0.0389      0.0000      0.0000      0.0170      0.0867      0.0000      0.0000      0.0000
 84      0.0000      0.0344      0.0398      0.0133      0.1251      0.0683      0.0004      0.0000      0.0000
 85      0.0000      0.0352      0.1003      0.0110      0.0000      0.0000      0.1369      0.1983      0.0000
 86      0.0000      0.0285      0.0000      0.0000      0.0554      0.0000      0.0097      0.0000      0.2408
 87      0.0000      0.0148      0.0000      0.0000      0.0000      0.0330      0.0000      0.0000      0.0000
 88      0.0000      0.0093      0.0000      0.0000      0.0000      0.0000      0.0000      0.0140      0.0000
 89      0.0000      0.0093      0.0000      0.0000      0.0000      0.0000      0.0000      0.0097      0.0109
 90      0.0000      0.0043      0.0000      0.0000      0.0000      0.0000      0.0000      0.0000      0.0000
 91      0.0000      0.0060      0.0000      0.0000      0.0000      0.0000      0.0104      0.0000      0.0000
 92      0.0000      0.0051      0.0000      0.0000      0.0000      0.0000      0.0000      0.0000      0.0000
 93      0.0000      0.0088      0.0000      0.0000      0.0000      0.0000      0.0000      0.0000      0.0000
 94      0.0000      0.0109      0.0000      0.0000      0.0000      0.2756      0.0369      0.0000      0.0000
 95      0.0000      0.0113      0.0006      0.0000      0.0000      0.0473      0.0000      0.0000      0.0000
 96      0.0000      0.0114      0.0000      0.0000      0.0000      0.0198      0.0000      0.0000      0.0000
 97      0.0000      0.0069      0.0000      0.0000      0.0000      0.0000      0.0000      0.0000      0.0000
 98      0.0000      0.0090      0.0000      0.0000      0.0303      0.0000      0.0000      0.0000      0.0331
 99      0.0000      0.0086      0.0000      0.0000      0.0000      0.0000      0.0000      0.0000      0.0000
100      0.0000      0.0036      0.0000      0.0000      0.0000      0.0598      0.0387      0.0000      0.0000
101      0.0000      0.0059      0.0000      0.0000      0.0000      0.0000      0.0000      0.0135      0.0003
102      0.0000      0.0161      0.0000      0.0000      0.0000      0.0000      0.0000      0.0163      0.0428
103      0.0000      0.0311      0.1764      0.0000      0.0000      0.0000      0.0657      0.0000      0.0000
104      0.0000      0.0381      0.1268      0.0000      0.0000      0.1510      0.0000      0.0000      0.0570
105      0.0000      0.1428      0.1214      0.1213      0.1933      0.1062      0.3504      0.1999      0.2825
106      0.0000      0.0467      0.0014      0.0369      0.0000      0.0000      0.0000      0.0378      0.1399
107      0.0000      0.0504      0.0641      0.0612      0.2414      0.0294      0.0660      0.1573      0.0000
108      0.0000      0.0093      0.0000      0.0000      0.0000      0.0000      0.0000      0.0000      0.0000
109      0.0000      0.0140      0.0797      0.0000      0.0000      0.0000      0.0069      0.0000      0.0000
110      0.0000      0.0127      0.0000      0.0000      0.1666      0.0000      0.0000      0.0000      0.0000
111      0.0000      0.0144      0.0000      0.1441      0.0000      0.0000      0.0008      0.0000      0.0000
112      0.0000      0.0108      0.0000      0.0000      0.0000      0.0044      0.0000      0.0000      0.0000
113      0.0000      0.0096      0.0000      0.0000      0.0000      0.0000      0.0000      0.0000      0.0000
114      0.0000      0.0060      0.0000      0.0184      0.0000      0.0000      0.0000      0.0066      0.0000
115      0.0000      0.0055      0.0000      0.1726      0.0000      0.0000      0.0000      0.0000      0.0000
116      0.0000      0.0076      0.0000      0.0000      0.0000      0.0000      0.0513      0.0000      0.0000
117      0.0000      0.0079      0.0000      0.0000      0.0000      0.0000      0.0000      0.0000      0.0000
118      0.0000      0.0061      0.0000      0.0000      0.0000      0.0000      0.0000      0.0000      0.0602
119      0.0000      0.0090      0.0000      0.0000      0.0000      0.0000      0.0000      0.0000      0.0000
120      0.0000      0.0120      0.0000      0.0000      0.0000      0.0000      0.0000      0.0057      0.0000
121      0.0000      0.0089      0.0000      0.0000      0.0000      0.0000      0.0000      0.0000      0.0000
122      0.0000      0.0106      0.0000      0.0000      0.0000      0.0000      0.0000      0.0000      0.0000
123      0.5017      1.1995      1.1841      0.8895      0.9699      0.9800      1.2006      0.9500      0.9935
124      0.0020      0.5630      0.5699      0.5508      0.6708      0.2361      0.4453      0.5331      0.5372
125      1.0660      1.4194      1.3705      1.4079      1.0801      1.4338      1.3912      1.4823      1.3080
126      0.0000      0.0083      0.0000      0.0000      0.0000      0.0019      0.0000      0.0000      0.0143
127      0.0000      0.0123      0.0000      0.0725      0.0000      0.0000      0.0000      0.0863      0.0000
128      0.0000      0.0181      0.0000      0.0000      0.0000      0.0000      0.0985      0.0000      0.0000
129      0.0000      0.0162      0.0000      0.0137      0.0051      0.0600      0.0000      0.0000      0.0112
130      0.0000      0.0056      0.0000      0.0659      0.0000      0.0000      0.0000      0.0000      0.0549
131      0.0000      0.0108      0.0000      0.0000      0.0000      0.0000      0.0000      0.0000      0.0000
132      0.0000      0.0104      0.0000      0.0000      0.0000      0.0000      0.0000      0.0000      0.0000
133      0.0000      0.0103      0.0000      0.0000      0.0000      0.0000      0.0000      0.0000      0.0000
134      0.0000      0.0146      0.0000      0.0000      0.0000      0.0000      0.0000      0.0000      0.0000
135      0.0000      0.0208      0.0000      0.0000      0.0000      0.0848      0.0000      0.0000      0.0000
136      0.0000      0.0195      0.0416      0.0439      0.0000      0.0000      0.0000      0.1538      0.0474
137      0.0000      0.0081      0.0000      0.0000      0.0000      0.0000      0.0000      0.0000      0.0000
138      0.0000      0.0133      0.0000      0.0000      0.0000      0.0000      0.0000      0.0176      0.0000
139      0.0000      0.0035      0.0000      0.0000      0.0000      0.0000      0.0000      0.0000      0.0000
140      0.0000      0.0062      0.0000      0.0000      0.0000      0.0000      0.0000      0.0000      0.0000
141      0.0000      0.0050      0.0000      0.0000      0.0000      0.0000      0.0000      0.0000      0.0000
142      0.0000      0.0069      0.0530      0.0000      0.0000      0.0000      0.0000      0.0000      0.0000
143      0.0000      0.0048      0.0000      0.0000      0.0000      0.0000      0.0000      0.0000      0.0000
144      0.0000      0.0126      0.0000      0.0000      0.0000      0.0000      0.0000      0.0178      0.0768
145      0.2402      0.2953      0.0000      0.3056      0.4675      0.3324      0.2629      0.3382      0.2820
146      0.8247      0.7518      0.7681      0.7789      0.6874      0.7438      0.8055      0.7458      0.7158
147      0.0000      0.1722      0.2174      0.0866      0.1967      0.1947      0.2070      0.0000      0.1462
148      0.4747      0.4021      0.4813      0.3488      0.3214      0.4602      0.4261      0.3717      0.4659
149      2.6945      2.0241      2.0381      2.0650      1.9561      2.0526      2.1040      2.1489      2.1578
150      0.5485      0.3164      0.3596      0.4218      0.4102      0.2734      0.3181      0.3584      0.1743

# j      m_j: min, <> & last-chain-values for 1 ...  7 chains
  1  0.0000E+00  1.1933E-04  6.4595E-05  0.0000E+00  0.0000E+00  0.0000E+00  0.0000E+00  0.0000E+00  0.0000E+00
  2  3.7060E-03  2.5928E-04  3.6234E-04  1.3959E-04  9.9036E-04  6.0589E-05  2.0371E-04  3.2942E-04  2.7504E-04
  3  0.0000E+00  2.4428E-04  0.0000E+00  0.0000E+00  4.1515E-04  0.0000E+00  0.0000E+00  0.0000E+00  7.1529E-04
  4  0.0000E+00  9.4029E-05  2.6773E-04  0.0000E+00  0.0000E+00  0.0000E+00  1.7885E-04  0.0000E+00  0.0000E+00
  5  0.0000E+00  1.3906E-04  0.0000E+00  0.0000E+00  3.0130E-06  0.0000E+00  0.0000E+00  0.0000E+00  6.2590E-04
  6  0.0000E+00  1.4177E-04  0.0000E+00  7.3802E-05  1.0363E-04  4.3210E-04  0.0000E+00  1.0935E-04  0.0000E+00
  7  0.0000E+00  5.9843E-04  1.2591E-03  0.0000E+00  1.1385E-03  9.8519E-04  0.0000E+00  0.0000E+00  0.0000E+00
  8  0.0000E+00  4.0966E-04  1.6796E-03  0.0000E+00  0.0000E+00  0.0000E+00  3.4444E-04  1.7671E-03  3.9919E-04
  9  0.0000E+00  7.6070E-04  1.7274E-03  0.0000E+00  0.0000E+00  1.4846E-03  0.0000E+00  1.3384E-03  3.3344E-03
 10  0.0000E+00  5.5731E-04  0.0000E+00  0.0000E+00  0.0000E+00  0.0000E+00  0.0000E+00  3.2518E-04  0.0000E+00
 11  1.0148E-02  1.7519E-03  1.2245E-03  0.0000E+00  3.8020E-03  1.2611E-03  7.3098E-03  5.2840E-04  0.0000E+00
 12  0.0000E+00  9.9278E-04  0.0000E+00  0.0000E+00  0.0000E+00  0.0000E+00  0.0000E+00  0.0000E+00  0.0000E+00
 13  0.0000E+00  6.1701E-04  6.7624E-05  0.0000E+00  0.0000E+00  4.2419E-04  0.0000E+00  0.0000E+00  2.1824E-03
 14  0.0000E+00  7.0473E-04  0.0000E+00  0.0000E+00  0.0000E+00  0.0000E+00  2.9010E-03  0.0000E+00  4.0676E-03
 15  0.0000E+00  1.1691E-03  0.0000E+00  0.0000E+00  0.0000E+00  4.8952E-03  0.0000E+00  0.0000E+00  0.0000E+00
 16  0.0000E+00  2.8138E-03  0.0000E+00  0.0000E+00  0.0000E+00  0.0000E+00  0.0000E+00  1.2786E-02  0.0000E+00
 17  0.0000E+00  4.0825E-03  0.0000E+00  0.0000E+00  0.0000E+00  6.8991E-03  0.0000E+00  0.0000E+00  0.0000E+00
 18  0.0000E+00  1.4186E-02  0.0000E+00  8.9793E-02  0.0000E+00  0.0000E+00  0.0000E+00  0.0000E+00  0.0000E+00
 19  9.9867E-04  4.1073E-02  9.8883E-03  7.4284E-02  1.9285E-01  5.8007E-02  0.0000E+00  0.0000E+00  6.5884E-02
 20  1.2184E-03  5.4265E-02  1.0024E-01  3.9083E-03  1.1653E-01  5.7361E-02  2.2092E-02  7.3618E-02  4.0180E-02
 21  1.3531E-01  5.8712E-01  7.6567E-01  4.1630E-01  7.3410E-01  4.7027E-01  6.6501E-01  6.5900E-01  4.5585E-01
 22  0.0000E+00  2.3892E-01  4.4541E-01  6.5137E-01  1.0425E-01  3.8199E-01  3.8821E-01  0.0000E+00  5.7896E-01
 23  6.9656E-03  3.5740E-01  3.7717E-01  3.1437E-01  4.5082E-01  4.3299E-01  8.6604E-01  3.5471E-01  0.0000E+00
 24  1.0274E+00  2.6659E+00  2.9859E+00  2.7260E+00  2.1530E+00  2.6056E+00  2.9940E+00  2.7079E+00  3.4550E+00
 25  8.6850E+00  8.4395E+00  7.7630E+00  8.4836E+00  8.1142E+00  9.0981E+00  8.1250E+00  9.2512E+00  8.7480E+00
 26  0.0000E+00  7.9957E-05  0.0000E+00  4.8753E-04  5.5645E-05  0.0000E+00  2.4031E-06  0.0000E+00  0.0000E+00
 27  0.0000E+00  6.7145E-05  0.0000E+00  4.8556E-05  1.3917E-06  0.0000E+00  1.9824E-04  1.0698E-04  0.0000E+00
 28  0.0000E+00  1.8605E-04  1.0742E-04  8.3593E-05  2.8961E-04  0.0000E+00  0.0000E+00  4.2177E-04  3.8495E-04
 29  0.0000E+00  6.5122E-05  7.4518E-05  0.0000E+00  0.0000E+00  6.7909E-04  2.6619E-04  0.0000E+00  0.0000E+00
 30  0.0000E+00  2.9436E-04  1.9913E-04  9.8729E-04  1.6655E-05  0.0000E+00  6.1584E-05  0.0000E+00  6.4875E-04
 31  0.0000E+00  1.3168E-04  0.0000E+00  0.0000E+00  0.0000E+00  0.0000E+00  0.0000E+00  0.0000E+00  0.0000E+00
 32  0.0000E+00  3.7521E-04  1.7815E-04  1.2013E-03  0.0000E+00  0.0000E+00  9.3839E-04  0.0000E+00  0.0000E+00
 33  0.0000E+00  7.1116E-04  0.0000E+00  6.9389E-04  0.0000E+00  6.3223E-04  3.6228E-03  2.6609E-03  0.0000E+00
 34  0.0000E+00  5.3514E-04  1.0555E-03  0.0000E+00  0.0000E+00  1.5730E-03  0.0000E+00  3.5313E-04  0.0000E+00
 35  0.0000E+00  8.6632E-04  7.4237E-04  0.0000E+00  8.7259E-04  0.0000E+00  0.0000E+00  1.4312E-04  2.2621E-03
 36  0.0000E+00  8.4406E-04  0.0000E+00  3.1583E-03  0.0000E+00  2.2254E-03  0.0000E+00  0.0000E+00  5.2018E-03
 37  0.0000E+00  1.4926E-03  1.8546E-03  0.0000E+00  1.4346E-03  0.0000E+00  0.0000E+00  0.0000E+00  4.7989E-03
 38  0.0000E+00  7.6577E-04  0.0000E+00  3.7577E-03  0.0000E+00  1.6011E-03  0.0000E+00  0.0000E+00  0.0000E+00
 39  0.0000E+00  6.8185E-04  0.0000E+00  0.0000E+00  7.0654E-04  0.0000E+00  0.0000E+00  0.0000E+00  0.0000E+00
 40  0.0000E+00  1.0009E-03  0.0000E+00  0.0000E+00  0.0000E+00  0.0000E+00  0.0000E+00  0.0000E+00  0.0000E+00
 41  0.0000E+00  4.9771E-03  6.5309E-03  0.0000E+00  0.0000E+00  0.0000E+00  1.0524E-02  0.0000E+00  0.0000E+00
 42  0.0000E+00  4.0602E-03  0.0000E+00  0.0000E+00  9.3037E-03  0.0000E+00  0.0000E+00  2.2688E-02  0.0000E+00
 43  1.0512E+00  7.2831E-01  7.8532E-01  7.4500E-01  9.1219E-01  8.6942E-01  8.1041E-01  7.7835E-01  7.6861E-01
 44  5.9725E+00  4.5525E+00  4.4704E+00  4.7101E+00  4.1297E+00  4.7826E+00  4.6840E+00  4.4045E+00  4.6205E+00
 45  9.7263E+00  7.4918E+00  7.6247E+00  7.7217E+00  7.6662E+00  7.6020E+00  7.8766E+00  7.5259E+00  7.4567E+00
 46  5.2941E+00  4.4724E+00  4.5166E+00  4.4130E+00  4.4620E+00  4.7379E+00  3.6823E+00  4.5442E+00  4.4765E+00
 47  3.0575E-03  1.6762E-01  1.5995E-02  6.0427E-01  5.1247E-01  1.4616E-01  0.0000E+00  0.0000E+00  0.0000E+00
 48  5.0610E-03  2.1223E+00  1.9092E+00  2.5564E+00  1.9715E+00  1.6369E+00  1.1365E+00  2.3006E+00  2.1287E+00
 49  5.1943E+00  8.2454E+00  8.6104E+00  6.7810E+00  9.3776E+00  8.1311E+00  8.0164E+00  7.7424E+00  7.9535E+00
 50  2.7535E+01  2.6091E+01  2.5854E+01  2.6458E+01  2.6718E+01  2.5922E+01  2.6864E+01  2.6470E+01  2.6400E+01
 51  0.0000E+00  1.2152E-04  0.0000E+00  6.6217E-04  0.0000E+00  0.0000E+00  0.0000E+00  0.0000E+00  1.9539E-04
 52  0.0000E+00  6.3368E-05  1.3959E-04  0.0000E+00  0.0000E+00  0.0000E+00  0.0000E+00  2.4921E-06  0.0000E+00
 53  0.0000E+00  7.7390E-05  1.8022E-04  7.8691E-05  0.0000E+00  0.0000E+00  1.1011E-04  2.1863E-04  8.3076E-06
 54  0.0000E+00  1.8006E-04  3.3019E-04  3.8367E-04  0.0000E+00  6.4650E-04  2.4933E-04  6.6883E-05  0.0000E+00
 55  0.0000E+00  1.0567E-04  0.0000E+00  4.0572E-04  0.0000E+00  0.0000E+00  0.0000E+00  7.8838E-04  0.0000E+00
 56  4.1528E-03  4.5639E-04  8.9389E-04  4.9766E-04  1.0486E-03  1.5059E-03  0.0000E+00  5.1112E-04  1.7374E-04
 57  0.0000E+00  1.0831E-04  0.0000E+00  1.5857E-04  0.0000E+00  1.1864E-04  5.9599E-04  0.0000E+00  0.0000E+00
 58  0.0000E+00  3.3429E-04  0.0000E+00  1.3474E-03  0.0000E+00  0.0000E+00  9.3240E-04  0.0000E+00  0.0000E+00
 59  0.0000E+00  2.0895E-04  1.4719E-03  3.8022E-05  0.0000E+00  0.0000E+00  1.3928E-03  0.0000E+00  1.1835E-04
 60  0.0000E+00  3.6710E-04  0.0000E+00  0.0000E+00  0.0000E+00  0.0000E+00  0.0000E+00  0.0000E+00  2.8287E-04
 61  0.0000E+00  3.5095E-04  0.0000E+00  0.0000E+00  2.0382E-03  0.0000E+00  0.0000E+00  0.0000E+00  0.0000E+00
 62  0.0000E+00  4.5761E-04  0.0000E+00  0.0000E+00  0.0000E+00  0.0000E+00  6.1401E-04  0.0000E+00  0.0000E+00
 63  0.0000E+00  5.2691E-04  1.5385E-03  0.0000E+00  0.0000E+00  0.0000E+00  0.0000E+00  4.3262E-03  0.0000E+00
 64  0.0000E+00  1.6003E-03  2.3281E-04  0.0000E+00  0.0000E+00  0.0000E+00  0.0000E+00  0.0000E+00  0.0000E+00
 65  0.0000E+00  2.5380E-03  0.0000E+00  0.0000E+00  0.0000E+00  0.0000E+00  0.0000E+00  0.0000E+00  3.5085E-02
 66  0.0000E+00  1.7591E-03  0.0000E+00  0.0000E+00  0.0000E+00  0.0000E+00  0.0000E+00  0.0000E+00  0.0000E+00
 67  0.0000E+00  4.2657E-03  1.3513E-03  0.0000E+00  0.0000E+00  0.0000E+00  0.0000E+00  0.0000E+00  0.0000E+00
 68  0.0000E+00  6.4858E-03  1.8589E-03  2.8546E-02  0.0000E+00  0.0000E+00  0.0000E+00  0.0000E+00  0.0000E+00
 69  0.0000E+00  8.7987E-03  0.0000E+00  0.0000E+00  0.0000E+00  0.0000E+00  2.9275E-03  0.0000E+00  3.0616E-02
 70  0.0000E+00  8.2242E-03  0.0000E+00  0.0000E+00  0.0000E+00  3.4845E-02  0.0000E+00  0.0000E+00  1.1169E-01
 71  0.0000E+00  1.5843E-02  0.0000E+00  0.0000E+00  0.0000E+00  0.0000E+00  0.0000E+00  0.0000E+00  0.0000E+00
 72  0.0000E+00  1.2390E-02  1.1885E-01  0.0000E+00  0.0000E+00  0.0000E+00  0.0000E+00  0.0000E+00  0.0000E+00
 73  0.0000E+00  1.1780E-02  0.0000E+00  0.0000E+00  0.0000E+00  0.0000E+00  0.0000E+00  0.0000E+00  0.0000E+00
 74  0.0000E+00  2.1696E-02  1.0920E-01  1.2235E-02  0.0000E+00  0.0000E+00  0.0000E+00  0.0000E+00  0.0000E+00
 75  0.0000E+00  1.9047E-02  0.0000E+00  0.0000E+00  0.0000E+00  1.2769E-01  0.0000E+00  0.0000E+00  0.0000E+00
 76  0.0000E+00  3.7996E-05  0.0000E+00  0.0000E+00  0.0000E+00  0.0000E+00  0.0000E+00  0.0000E+00  0.0000E+00
 77  0.0000E+00  3.1689E-05  0.0000E+00  0.0000E+00  1.0482E-04  0.0000E+00  2.3015E-04  0.0000E+00  7.6092E-06
 78  0.0000E+00  3.3380E-05  0.0000E+00  2.1961E-04  1.6486E-04  7.8377E-05  0.0000E+00  0.0000E+00  0.0000E+00
 79  0.0000E+00  3.2421E-05  0.0000E+00  0.0000E+00  0.0000E+00  0.0000E+00  0.0000E+00  5.3692E-05  0.0000E+00
 80  8.8263E-08  1.4420E-04  0.0000E+00  6.3424E-05  6.6684E-04  7.3848E-04  2.6418E-04  2.1290E-04  0.0000E+00
 81  0.0000E+00  1.2853E-04  4.2589E-05  2.1340E-05  0.0000E+00  4.5176E-04  0.0000E+00  4.8506E-04  0.0000E+00
 82  0.0000E+00  1.8698E-04  0.0000E+00  0.0000E+00  0.0000E+00  0.0000E+00  0.0000E+00  0.0000E+00  0.0000E+00
 83  0.0000E+00  3.3066E-04  0.0000E+00  0.0000E+00  1.4673E-04  7.4736E-04  0.0000E+00  0.0000E+00  0.0000E+00
 84  0.0000E+00  4.0468E-04  4.6757E-04  1.5826E-04  1.4939E-03  8.1479E-04  4.5569E-06  0.0000E+00  0.0000E+00
 85  0.0000E+00  5.0258E-04  1.4326E-03  1.5818E-04  0.0000E+00  0.0000E+00  1.9524E-03  2.8286E-03  0.0000E+00
 86  0.0000E+00  5.5056E-04  0.0000E+00  0.0000E+00  1.0897E-03  0.0000E+00  1.8706E-04  0.0000E+00  4.7099E-03
 87  0.0000E+00  3.8041E-04  0.0000E+00  0.0000E+00  0.0000E+00  8.6382E-04  0.0000E+00  0.0000E+00  0.0000E+00
 88  0.0000E+00  3.6476E-04  0.0000E+00  0.0000E+00  0.0000E+00  0.0000E+00  0.0000E+00  5.4860E-04  0.0000E+00
 89  0.0000E+00  6.0521E-04  0.0000E+00  0.0000E+00  0.0000E+00  0.0000E+00  0.0000E+00  6.3171E-04  7.2093E-04
 90  0.0000E+00  5.2248E-04  0.0000E+00  0.0000E+00  0.0000E+00  0.0000E+00  0.0000E+00  0.0000E+00  0.0000E+00
 91  0.0000E+00  9.3811E-04  0.0000E+00  0.0000E+00  0.0000E+00  0.0000E+00  1.6224E-03  0.0000E+00  0.0000E+00
 92  0.0000E+00  1.0594E-03  0.0000E+00  0.0000E+00  0.0000E+00  0.0000E+00  0.0000E+00  0.0000E+00  0.0000E+00
 93  0.0000E+00  3.7106E-03  0.0000E+00  0.0000E+00  0.0000E+00  0.0000E+00  0.0000E+00  0.0000E+00  0.0000E+00
 94  0.0000E+00  8.2144E-03  0.0000E+00  0.0000E+00  0.0000E+00  2.1179E-01  2.7882E-02  0.0000E+00  0.0000E+00
 95  0.0000E+00  1.1513E-02  6.2615E-04  0.0000E+00  0.0000E+00  4.8978E-02  0.0000E+00  0.0000E+00  0.0000E+00
 96  0.0000E+00  1.4022E-02  0.0000E+00  0.0000E+00  0.0000E+00  2.4757E-02  0.0000E+00  0.0000E+00  0.0000E+00
 97  0.0000E+00  1.1069E-02  0.0000E+00  0.0000E+00  0.0000E+00  0.0000E+00  0.0000E+00  0.0000E+00  0.0000E+00
 98  0.0000E+00  1.8456E-02  0.0000E+00  0.0000E+00  6.3278E-02  0.0000E+00  0.0000E+00  0.0000E+00  6.8890E-02
 99  0.0000E+00  2.0259E-02  0.0000E+00  0.0000E+00  0.0000E+00  0.0000E+00  0.0000E+00  0.0000E+00  0.0000E+00
100  0.0000E+00  9.8077E-03  0.0000E+00  0.0000E+00  0.0000E+00  1.6385E-01  1.0421E-01  0.0000E+00  0.0000E+00
101  0.0000E+00  1.7459E-05  0.0000E+00  0.0000E+00  0.0000E+00  0.0000E+00  0.0000E+00  4.0118E-05  9.9988E-07
102  0.0000E+00  2.4895E-05  0.0000E+00  0.0000E+00  0.0000E+00  0.0000E+00  0.0000E+00  2.5100E-05  6.6744E-05
103  0.0000E+00  5.3221E-05  3.0157E-04  0.0000E+00  0.0000E+00  0.0000E+00  1.1218E-04  0.0000E+00  0.0000E+00
104  0.0000E+00  8.5788E-05  2.8521E-04  0.0000E+00  0.0000E+00  3.4476E-04  0.0000E+00  0.0000E+00  1.2963E-04
105  0.0000E+00  6.7825E-04  5.7664E-04  5.8136E-04  9.3244E-04  5.1225E-04  1.6620E-03  9.4832E-04  1.3563E-03
106  0.0000E+00  2.3884E-04  7.1825E-06  1.9037E-04  0.0000E+00  0.0000E+00  0.0000E+00  1.9318E-04  7.2327E-04
107  3.0603E-08  3.4393E-04  4.3779E-04  4.2163E-04  1.6738E-03  2.0405E-04  4.5022E-04  1.0727E-03  0.0000E+00
108  0.0000E+00  1.0614E-04  0.0000E+00  0.0000E+00  0.0000E+00  0.0000E+00  0.0000E+00  0.0000E+00  0.0000E+00
109  0.0000E+00  1.9135E-04  1.0883E-03  0.0000E+00  0.0000E+00  0.0000E+00  9.4121E-05  0.0000E+00  0.0000E+00
110  0.0000E+00  2.0789E-04  0.0000E+00  0.0000E+00  2.7639E-03  0.0000E+00  0.0000E+00  0.0000E+00  0.0000E+00
111  0.0000E+00  3.2722E-04  0.0000E+00  3.3007E-03  0.0000E+00  0.0000E+00  1.7970E-05  0.0000E+00  0.0000E+00
112  0.0000E+00  3.2416E-04  0.0000E+00  0.0000E+00  0.0000E+00  1.3221E-04  0.0000E+00  0.0000E+00  0.0000E+00
113  0.0000E+00  4.2826E-04  0.0000E+00  0.0000E+00  0.0000E+00  0.0000E+00  0.0000E+00  0.0000E+00  0.0000E+00
114  0.0000E+00  4.7155E-04  0.0000E+00  1.4623E-03  0.0000E+00  0.0000E+00  0.0000E+00  5.1512E-04  0.0000E+00
115  0.0000E+00  8.6577E-04  0.0000E+00  2.7369E-02  0.0000E+00  0.0000E+00  0.0000E+00  0.0000E+00  0.0000E+00
116  0.0000E+00  1.9072E-03  0.0000E+00  0.0000E+00  0.0000E+00  0.0000E+00  1.2921E-02  0.0000E+00  0.0000E+00
117  0.0000E+00  2.3307E-03  0.0000E+00  0.0000E+00  0.0000E+00  0.0000E+00  0.0000E+00  0.0000E+00  0.0000E+00
118  0.0000E+00  3.6746E-03  0.0000E+00  0.0000E+00  0.0000E+00  0.0000E+00  0.0000E+00  0.0000E+00  3.6638E-02
119  0.0000E+00  9.3737E-03  0.0000E+00  0.0000E+00  0.0000E+00  0.0000E+00  0.0000E+00  0.0000E+00  0.0000E+00
120  0.0000E+00  1.7832E-02  0.0000E+00  0.0000E+00  0.0000E+00  0.0000E+00  0.0000E+00  8.4878E-03  0.0000E+00
121  0.0000E+00  1.5495E-02  0.0000E+00  0.0000E+00  0.0000E+00  0.0000E+00  0.0000E+00  0.0000E+00  0.0000E+00
122  0.0000E+00  2.4693E-02  0.0000E+00  0.0000E+00  0.0000E+00  0.0000E+00  0.0000E+00  0.0000E+00  0.0000E+00
123  1.6182E+00  3.6890E+00  3.6421E+00  2.7604E+00  3.0304E+00  3.0603E+00  3.6880E+00  2.9195E+00  3.0899E+00
124  7.5463E-03  1.9880E+00  2.0126E+00  1.9627E+00  2.4063E+00  8.4641E-01  1.5705E+00  1.8810E+00  1.9184E+00
125  4.7247E+00  5.9985E+00  5.7928E+00  6.0040E+00  4.6377E+00  6.1527E+00  5.8726E+00  6.2604E+00  5.5905E+00
126  0.0000E+00  1.8417E-05  0.0000E+00  0.0000E+00  0.0000E+00  4.3983E-06  0.0000E+00  0.0000E+00  3.2243E-05
127  0.0000E+00  1.4439E-05  0.0000E+00  8.5874E-05  0.0000E+00  0.0000E+00  0.0000E+00  1.0119E-04  0.0000E+00
128  0.0000E+00  3.1573E-05  0.0000E+00  0.0000E+00  0.0000E+00  0.0000E+00  1.7130E-04  0.0000E+00  0.0000E+00
129  0.0000E+00  5.7697E-05  0.0000E+00  4.9285E-05  1.8276E-05  2.1709E-04  0.0000E+00  0.0000E+00  4.0173E-05
130  0.0000E+00  2.7304E-05  0.0000E+00  3.2312E-04  0.0000E+00  0.0000E+00  0.0000E+00  0.0000E+00  2.6978E-04
131  0.0000E+00  6.0501E-05  0.0000E+00  0.0000E+00  0.0000E+00  0.0000E+00  0.0000E+00  0.0000E+00  0.0000E+00
132  0.0000E+00  7.9727E-05  0.0000E+00  0.0000E+00  0.0000E+00  0.0000E+00  0.0000E+00  0.0000E+00  0.0000E+00
133  0.0000E+00  1.1448E-04  0.0000E+00  0.0000E+00  0.0000E+00  0.0000E+00  0.0000E+00  0.0000E+00  0.0000E+00
134  0.0000E+00  2.0522E-04  0.0000E+00  0.0000E+00  0.0000E+00  0.0000E+00  0.0000E+00  0.0000E+00  0.0000E+00
135  0.0000E+00  3.5155E-04  0.0000E+00  0.0000E+00  0.0000E+00  1.4567E-03  0.0000E+00  0.0000E+00  0.0000E+00
136  0.0000E+00  4.7697E-04  1.0150E-03  1.0811E-03  0.0000E+00  0.0000E+00  0.0000E+00  3.7520E-03  1.1709E-03
137  0.0000E+00  2.6869E-04  0.0000E+00  0.0000E+00  0.0000E+00  0.0000E+00  0.0000E+00  0.0000E+00  0.0000E+00
138  0.0000E+00  7.3956E-04  0.0000E+00  0.0000E+00  0.0000E+00  0.0000E+00  0.0000E+00  9.7526E-04  0.0000E+00
139  0.0000E+00  3.7030E-04  0.0000E+00  0.0000E+00  0.0000E+00  0.0000E+00  0.0000E+00  0.0000E+00  0.0000E+00
140  0.0000E+00  1.4940E-03  0.0000E+00  0.0000E+00  0.0000E+00  0.0000E+00  0.0000E+00  0.0000E+00  0.0000E+00
141  0.0000E+00  1.8611E-03  0.0000E+00  0.0000E+00  0.0000E+00  0.0000E+00  0.0000E+00  0.0000E+00  0.0000E+00
142  0.0000E+00  3.0414E-03  2.3366E-02  0.0000E+00  0.0000E+00  0.0000E+00  0.0000E+00  0.0000E+00  0.0000E+00
143  0.0000E+00  4.1691E-03  0.0000E+00  0.0000E+00  0.0000E+00  0.0000E+00  0.0000E+00  0.0000E+00  0.0000E+00
144  0.0000E+00  2.1675E-02  0.0000E+00  0.0000E+00  0.0000E+00  0.0000E+00  0.0000E+00  3.0631E-02  1.3381E-01
145  6.4595E-01  7.5736E-01  0.0000E+00  7.9090E-01  1.2182E+00  8.6569E-01  6.7342E-01  8.6683E-01  7.3131E-01
146  2.6491E+00  2.3027E+00  2.3528E+00  2.4072E+00  2.1390E+00  2.3133E+00  2.4643E+00  2.2827E+00  2.2171E+00
147  0.0000E+00  7.0859E-01  8.9491E-01  3.5951E-01  8.2249E-01  8.1347E-01  8.5103E-01  0.0000E+00  6.0859E-01
148  2.7750E+00  2.2414E+00  2.6833E+00  1.9620E+00  1.8200E+00  2.6051E+00  2.3725E+00  2.0705E+00  2.6264E+00
149  1.8450E+01  1.3215E+01  1.3308E+01  1.3604E+01  1.2975E+01  1.3608E+01  1.3722E+01  1.4021E+01  1.4247E+01
150  4.4731E+00  2.4608E+00  2.7967E+00  3.3095E+00  3.2408E+00  2.1590E+00  2.4710E+00  2.7854E+00  1.3705E+00

# AV, chi2 & Mass for <> & i_chain = 1 ...  7 solutions
AV       0.9920      0.9652      0.9685      0.9722      0.9750      0.9735      0.9710      0.9725      0.9745
chi2 2.3813E+00  2.4809E+00  2.4614E+00  2.4616E+00  2.4492E+00  2.4543E+00  2.4573E+00  2.4525E+00  2.4566E+00
Mass 1.6435E-10  1.6626E-10  1.6699E-10  1.6633E-10  1.6581E-10  1.6557E-10  1.6776E-10  1.6802E-10  1.6647E-10
 -13.60                                  [v0_min (km/s) before EX0s...]
 106.01                                  [vd_min (km/s) before EX0s...]


## Synthetic spectrum (Best Model) ##l_obs f_obs f_syn wei
 3070    [Nl_obs]
 3359.00    0.24479   0.36541   -1.000
 3360.00    0.29363   0.35544   -1.000
 3361.00    0.29228   0.36311   -1.000
 3362.00    0.19751   0.38324   -1.000
 3363.00    0.30149   0.40532   -1.000
 3364.00    0.31738   0.41942   -1.000
 3365.00    0.29300   0.42260   -1.000
 3366.00    0.27068   0.41894   -1.000
 3367.00    0.24880   0.41257   -1.000
 3368.00    0.19615   0.40376   -1.000
 3369.00    0.24385   0.39133   -1.000
 3370.00    0.22425   0.37747   -1.000
 3371.00    0.22340   0.36907   -1.000
 3372.00    0.26774   0.37217   -1.000
 3373.00    0.27101   0.38652   -1.000
 3374.00    0.22504   0.40618   -1.000
 3375.00    0.28987   0.42320   -1.000
 3376.00    0.35013   0.43155   -1.000
 3377.00    0.33076   0.43035   -1.000
 3378.00    0.32662   0.42421   -1.000
 3379.00    0.31362   0.41974   -1.000
 3380.00    0.25673   0.42036   -1.000
 3381.00    0.35950   0.42473   -1.000
 3382.00    0.31477   0.42985   -1.000
 3383.00    0.24375   0.43411   -1.000
 3384.00    0.30677   0.43693   -1.000
 3385.00    0.43269   0.43661   36.914
 3386.00    0.41504   0.43164   37.203
 3387.00    0.31119   0.42476   -1.000
 3388.00    0.41788   0.42195   35.760
 3389.00    0.42045   0.42613   34.993
 3390.00    0.39955   0.43370   35.428
 3391.00    0.39157   0.43829   35.772
 3392.00    0.37489   0.43769   35.929
 3393.00    0.32236   0.43620   -1.000
 3394.00    0.39161   0.43920   33.225
 3395.00    0.38646   0.44779   31.371
 3396.00    0.37624   0.45930   30.472
 3397.00    0.45601   0.47030   29.522
 3398.00    0.39636   0.47806   28.424
 3399.00    0.36508   0.48040   -1.000
 3400.00    0.37854   0.47601   28.359
 3401.00    0.41863   0.46555   29.612
 3402.00    0.41945   0.45278   29.903
 3403.00    0.39405   0.44287   30.434
 3404.00    0.41714   0.43874   30.990
 3405.00    0.48679   0.43904   31.485
 3406.00    0.40035   0.43967   31.630
 3407.00    0.38980   0.43820   32.140
 3408.00    0.45322   0.43641   32.299
 3409.00    0.42113   0.43704   32.071
 3410.00    0.43639   0.43872   31.097
 3411.00    0.38266   0.43718   30.906
 3412.00    0.42250   0.43139   32.268
 3413.00    0.44173   0.42587   32.827
 3414.00    0.33993   0.42677   32.720
 3415.00    0.35571   0.43568   31.873
 3416.00    0.34486   0.44844   30.486
 3417.00    0.40038   0.46029   29.037
 3418.00    0.47711   0.46947   27.602
 3419.00    0.47255   0.47575   27.512
 3420.00    0.45973   0.47761   27.329
 3421.00    0.41863   0.47246   27.521
 3422.00    0.41622   0.46106   28.340
 3423.00    0.46237   0.44957   28.936
 3424.00    0.41061   0.44461   28.081
 3425.00    0.47156   0.44776   27.359
 3426.00    0.45321   0.45680   27.924
 3427.00    0.47662   0.46934  236.845
 3428.00    0.36971   0.48262   -1.000
 3429.00    0.47669   0.49172  236.845
 3430.00    0.45176   0.49137   -1.000
 3431.00    0.48590   0.48174  211.834
 3432.00    0.42355   0.47077   27.334
 3433.00    0.42602   0.46761   27.907
 3434.00    0.39364   0.47371   -1.000
 3435.00    0.35039   0.48158   -1.000
 3436.00    0.39569   0.48252   27.181
 3437.00    0.46206   0.47428   28.481
 3438.00    0.43163   0.46037   30.221
 3439.00    0.36899   0.44482   32.605
 3440.00    0.40884   0.43006   33.862
 3441.00    0.45557   0.41834   33.897
 3442.00    0.47394   0.41237   33.708
 3443.00    0.45960   0.41372   32.336
 3444.00    0.40579   0.42230   30.557
 3445.00    0.39164   0.43716   28.886
 3446.00    0.38806   0.45621   28.803
 3447.00    0.42404   0.47522   -1.000
 3448.00    0.43223   0.48863   -1.000
 3449.00    0.46625   0.49180   -1.000
 3450.00    0.50273   0.48431   -1.000
 3451.00    0.53170   0.47172   -1.000
 3452.00    0.47510   0.46198   -1.000
 3453.00    0.49119   0.45959   -1.000
 3454.00    0.46528   0.46328  236.845
 3455.00    0.44493   0.46826   -1.000
 3456.00    0.53485   0.47011   -1.000
 3457.00    0.47522   0.46722  197.839
 3458.00    0.44105   0.46049   27.238
 3459.00    0.46292   0.45221   27.589
 3460.00    0.47552   0.44581   28.374
 3461.00    0.43953   0.44484  236.845
 3462.00    0.41568   0.44948   -1.000
 3463.00    0.50495   0.45564   -1.000
 3464.00    0.52389   0.45939   -1.000
 3465.00    0.51325   0.46136   -1.000
 3466.00    0.51796   0.46577   -1.000
 3467.00    0.48755   0.47489   -1.000
 3468.00    0.54304   0.48636   -1.000
 3469.00    0.55839   0.49548   -1.000
 3470.00    0.48914   0.49843  232.607
 3471.00    0.46913   0.49347   -1.000
 3472.00    0.50065   0.48101   -1.000
 3473.00    0.53938   0.46442   -1.000
 3474.00    0.45011   0.45011   27.493
 3475.00    0.40377   0.44425   28.466
 3476.00    0.43453   0.44907   28.959
 3477.00    0.45844   0.46166  236.845
 3478.00    0.41606   0.47621   -1.000
 3479.00    0.40191   0.48822   -1.000
 3480.00    0.49082   0.49554  232.087
 3481.00    0.42778   0.49750   -1.000
 3482.00    0.50826   0.49544   -1.000
 3483.00    0.49753   0.49276  236.845
 3484.00    0.49229   0.49280  232.822
 3485.00    0.48784   0.49609  225.436
 3486.00    0.46542   0.49923   -1.000
 3487.00    0.56526   0.49774   -1.000
 3488.00    0.57079   0.49032   -1.000
 3489.00    0.49982   0.48038   -1.000
 3490.00    0.51043   0.47380   -1.000
 3491.00    0.49750   0.47385   -1.000
 3492.00    0.49673   0.47791   -1.000
 3493.00    0.50014   0.48042   -1.000
 3494.00    0.46644   0.47848  236.845
 3495.00    0.48056   0.47381  236.845
 3496.00    0.50565   0.47049   -1.000
 3497.00    0.43020   0.47100   -1.000
 3498.00    0.45417   0.47436   -1.000
 3499.00    0.46797   0.47810  217.437
 3500.00    0.51391   0.48102   -1.000
 3501.00    0.53134   0.48410   -1.000
 3502.00    0.53614   0.48799   -1.000
 3503.00    0.51794   0.49080   -1.000
 3504.00    0.46379   0.48990   -1.000
 3505.00    0.54874   0.48499   -1.000
 3506.00    0.55977   0.47861   -1.000
 3507.00    0.49953   0.47394   -1.000
 3508.00    0.49240   0.47254   -1.000
 3509.00    0.55570   0.47339   -1.000
 3510.00    0.55448   0.47361   -1.000
 3511.00    0.53614   0.47090   -1.000
 3512.00    0.52502   0.46589   -1.000
 3513.00    0.50862   0.46251   -1.000
 3514.00    0.51765   0.46564   -1.000
 3515.00    0.55564   0.47716   -1.000
 3516.00    0.53033   0.49316   -1.000
 3517.00    0.52211   0.50527   -1.000
 3518.00    0.52023   0.50683   -1.000
 3519.00    0.51549   0.49825   -1.000
 3520.00    0.49832   0.48557   -1.000
 3521.00    0.50374   0.47395   -1.000
 3522.00    0.52306   0.46416   -1.000
 3523.00    0.48340   0.45501   27.267
 3524.00    0.47746   0.44753   28.189
 3525.00    0.48044   0.44558   29.522
 3526.00    0.49061   0.45184   -1.000
 3527.00    0.48937   0.46483   -1.000
 3528.00    0.50713   0.48026   -1.000
 3529.00    0.52639   0.49378   -1.000
 3530.00    0.48021   0.50215   -1.000
 3531.00    0.53529   0.50299   -1.000
 3532.00    0.58457   0.49582   -1.000
 3533.00    0.51744   0.48483   -1.000
 3534.00    0.56821   0.47807   -1.000
 3535.00    0.56189   0.48168   -1.000
 3536.00    0.54105   0.49500   -1.000
 3537.00    0.51471   0.51125  216.318
 3538.00    0.46798   0.52342   -1.000
 3539.00    0.47301   0.52882   -1.000
 3540.00    0.46222   0.52905   -1.000
 3541.00    0.43545   0.52799   -1.000
 3542.00    0.51657   0.52913  219.959
 3543.00    0.50520   0.53253   -1.000
 3544.00    0.48770   0.53514   -1.000
 3545.00    0.51050   0.53448   -1.000
 3546.00    0.48542   0.53112   -1.000
 3547.00    0.47454   0.52759   -1.000
 3548.00    0.50266   0.52635   -1.000
 3549.00    0.48907   0.52817   -1.000
 3550.00    0.44268   0.53118   -1.000
 3551.00    0.49017   0.53157   -1.000
 3552.00    0.50491   0.52682   -1.000
 3553.00    0.47581   0.51903   -1.000
 3554.00    0.49159   0.51370   -1.000
 3555.00    0.48575   0.51462   -1.000
 3556.00    0.47844   0.52097   -1.000
 3557.00    0.46083   0.52893   -1.000
 3558.00    0.49223   0.53504   -1.000
 3559.00    0.51670   0.53817   -1.000
 3560.00    0.50134   0.53881   -1.000
 3561.00    0.51745   0.53670   -1.000
 3562.00    0.54762   0.53006   -1.000
 3563.00    0.50970   0.51773  161.233
 3564.00    0.47470   0.50175   27.566
 3565.00    0.46725   0.48709   28.598
 3566.00    0.46306   0.47804   28.264
 3567.00    0.45440   0.47455   28.187
 3568.00    0.51125   0.47277   29.135
 3569.00    0.45063   0.46923   29.559
 3570.00    0.47106   0.46413   28.585
 3571.00    0.45215   0.46058   29.268
 3572.00    0.46557   0.46095  236.845
 3573.00    0.45475   0.46511  236.845
 3574.00    0.41908   0.47170   -1.000
 3575.00    0.46753   0.47906  236.845
 3576.00    0.50117   0.48532   -1.000
 3577.00    0.53156   0.48851   -1.000
 3578.00    0.51349   0.48694   28.569
 3579.00    0.52803   0.48015   30.810
 3580.00    0.50865   0.47015   32.381
 3581.00    0.41573   0.46060   32.569
 3582.00    0.47505   0.45407   32.753
 3583.00    0.50705   0.44969   33.611
 3584.00    0.47309   0.44418   34.678
 3585.00    0.42150   0.43629   34.980
 3586.00    0.38741   0.42963   33.176
 3587.00    0.42289   0.43016   31.419
 3588.00    0.42486   0.44092   29.792
 3589.00    0.44238   0.45892   29.324
 3590.00    0.47984   0.47710  236.845
 3591.00    0.48816   0.48970  236.845
 3592.00    0.49097   0.49605  236.845
 3593.00    0.46385   0.50011   -1.000
 3594.00    0.48625   0.50620   -1.000
 3595.00    0.50348   0.51520  218.880
 3596.00    0.51509   0.52455  212.588
 3597.00    0.56189   0.53134   -1.000
 3598.00    0.58073   0.53428   -1.000
 3599.00    0.58178   0.53287   -1.000
 3600.00    0.61251   0.52674   -1.000
 3601.00    0.59577   0.51722   -1.000
 3602.00    0.57299   0.50818   -1.000
 3603.00    0.58783   0.50334   -1.000
 3604.00    0.54965   0.50288   -1.000
 3605.00    0.51619   0.50330   -1.000
 3606.00    0.54221   0.50112   -1.000
 3607.00    0.53527   0.49614   -1.000
 3608.00    0.50675   0.49102   -1.000
 3609.00    0.48188   0.48870  236.845
 3610.00    0.51165   0.49046   -1.000
 3611.00    0.52229   0.49595   -1.000
 3612.00    0.55137   0.50412   -1.000
 3613.00    0.51927   0.51402  229.411
 3614.00    0.48671   0.52388   -1.000
 3615.00    0.52818   0.52970  223.838
 3616.00    0.53828   0.52736  236.845
 3617.00    0.53707   0.51736   -1.000
 3618.00    0.51917   0.50591   29.314
 3619.00    0.53244   0.50070   -1.000
 3620.00    0.49364   0.50498  230.582
 3621.00    0.52690   0.51573  218.195
 3622.00    0.55189   0.52801   -1.000
 3623.00    0.57473   0.53982   -1.000
 3624.00    0.60503   0.55251   -1.000
 3625.00    0.58323   0.56713  194.202
 3626.00    0.57457   0.58058  191.987
 3627.00    0.56696   0.58585   -1.000
 3628.00    0.52796   0.57715   -1.000
 3629.00    0.52890   0.55599   -1.000
 3630.00    0.52825   0.53196  236.845
 3631.00    0.48360   0.51659   -1.000
 3632.00    0.44232   0.51479   -1.000
 3633.00    0.48870   0.52221   -1.000
 3634.00    0.47364   0.53110   -1.000
 3635.00    0.51424   0.53798   -1.000
 3636.00    0.47016   0.54478   -1.000
 3637.00    0.51783   0.55360   -1.000
 3638.00    0.58965   0.56294   -1.000
 3639.00    0.56922   0.56925  196.989
 3640.00    0.53941   0.57001   -1.000
 3641.00    0.54875   0.56497   -1.000
 3642.00    0.52200   0.55609   -1.000
 3643.00    0.50979   0.54635   -1.000
 3644.00    0.50742   0.53787   -1.000
 3645.00    0.51831   0.53127   -1.000
 3646.00    0.55620   0.52649   -1.000
 3647.00    0.52584   0.52367  236.845
 3648.00    0.55783   0.52321   -1.000
 3649.00    0.57808   0.52561   -1.000
 3650.00    0.55377   0.53148   -1.000
 3651.00    0.53023   0.54103  201.853
 3652.00    0.60270   0.55331   -1.000
 3653.00    0.57531   0.56651  194.652
 3654.00    0.53192   0.57906   -1.000
 3655.00    0.55613   0.58984   -1.000
 3656.00    0.58436   0.59766   -1.000
 3657.00    0.60717   0.60171  186.577
 3658.00    0.65060   0.60210   -1.000
 3659.00    0.58352   0.59958   -1.000
 3660.00    0.56068   0.59474   -1.000
 3661.00    0.62703   0.58836   -1.000
 3662.00    0.67360   0.58236   -1.000
 3663.00    0.62273   0.57922   -1.000
 3664.00    0.62201   0.57980   -1.000
 3665.00    0.61165   0.58220   -1.000
 3666.00    0.60629   0.58325   -1.000
 3667.00    0.58563   0.58095  200.231
 3668.00    0.62857   0.57605   -1.000
 3669.00    0.60384   0.57175   -1.000
 3670.00    0.52228   0.57132   -1.000
 3671.00    0.58358   0.57532  191.604
 3672.00    0.60198   0.58107   -1.000
 3673.00    0.55278   0.58469   -1.000
 3674.00    0.54037   0.58346   -1.000
 3675.00    0.58049   0.57677  198.176
 3676.00    0.62918   0.56601   -1.000
 3677.00    0.59914   0.55444   -1.000
 3678.00    0.55221   0.54612  215.148
 3679.00    0.58524   0.54347   -1.000
 3680.00    0.59569   0.54558   -1.000
 3681.00    0.60558   0.54952   -1.000
 3682.00    0.60731   0.55267   -1.000
 3683.00    0.59098   0.55355   -1.000
 3684.00    0.56722   0.55181   -1.000
 3685.00    0.58991   0.54854   -1.000
 3686.00    0.56297   0.54687   -1.000
 3687.00    0.55456   0.55049  218.997
 3688.00    0.54296   0.56032   -1.000
 3689.00    0.59018   0.57307   -1.000
 3690.00    0.61041   0.58372   -1.000
 3691.00    0.59867   0.58950  188.660
 3692.00    0.63229   0.59107   -1.000
 3693.00    0.62269   0.59075   -1.000
 3694.00    0.59960   0.59018  194.891
 3695.00    0.59947   0.58961  193.061
 3696.00    0.60763   0.58977  190.226
 3697.00    0.61666   0.59319   -1.000
 3698.00    0.61027   0.60172  179.653
 3699.00    0.59618   0.61232   -1.000
 3700.00    0.58817   0.61706   -1.000
 3701.00    0.59745   0.60836  191.431
 3702.00    0.59985   0.58574  209.940
 3703.00    0.58464   0.55721   -1.000
 3704.00    0.56654   0.53396   -1.000
 3705.00    0.54610   0.52312   -1.000
 3706.00    0.52951   0.52455  230.672
 3707.00    0.52739   0.53257  227.746
 3708.00    0.56042   0.54012   -1.000
 3709.00    0.57855   0.54305   -1.000
 3710.00    0.59002   0.54279   -1.000
 3711.00    0.59649   0.54525   -1.000
 3712.00    0.54793   0.55604  180.371
 3713.00    0.61030   0.57562   -1.000
 3714.00    0.64905   0.59841   -1.000
 3715.00    0.64541   0.61627   -1.000
 3716.00    0.64765   0.62225   -1.000
 3717.00    0.64964   0.61221   -1.000
 3718.00    0.62384   0.58550   -1.000
 3719.00    0.56594   0.54713  133.418
 3720.00    0.49717   0.50952   30.823
 3721.00    0.48607   0.48834  236.845
 3722.00    0.50956   0.49297   -1.000
 3723.00    0.54185   0.52005   -1.000
 3724.00    0.57087   0.55622   -1.000
 3725.00    0.62595   0.58734   -1.000
 3726.00    0.62496   0.60683   -1.000
 3727.00    0.61534   0.61640  205.832
 3728.00    0.60874   0.61987  202.979
 3729.00    0.61748   0.61709  206.036
 3730.00    0.55877   0.60304   -1.000
 3731.00    0.52611   0.57301   -1.000
 3732.00    0.55570   0.52991   27.476
 3733.00    0.53631   0.48591   30.550
 3734.00    0.44402   0.45640   31.335
 3735.00    0.40042   0.45182   29.559
 3736.00    0.39918   0.47325   30.356
 3737.00    0.48925   0.51287   -1.000
 3738.00    0.52403   0.55869   -1.000
 3739.00    0.59865   0.59901  202.865
 3740.00    0.65513   0.62506   -1.000
 3741.00    0.65740   0.63315   -1.000
 3742.00    0.66180   0.62567   -1.000
 3743.00    0.61962   0.60867   -1.000
 3744.00    0.59624   0.58762   -1.000
 3745.00    0.57399   0.56469  127.815
 3746.00    0.53903   0.53932   27.715
 3747.00    0.50761   0.51153   29.338
 3748.00    0.47187   0.48569   33.287
 3749.00    0.43281   0.47075   -1.000
 3750.00    0.46346   0.47577  230.334
 3751.00    0.48074   0.50317   -1.000
 3752.00    0.51884   0.54586   -1.000
 3753.00    0.61484   0.59090   -1.000
 3754.00    0.65278   0.62608   -1.000
 3755.00    0.67417   0.64436   -1.000
 3756.00    0.67584   0.64538   -1.000
 3757.00    0.64205   0.63506  236.845
 3758.00    0.59676   0.62287   -1.000
 3759.00    0.62315   0.61681  222.929
 3760.00    0.62065   0.61929  213.506
 3761.00    0.63661   0.62685  209.520
 3762.00    0.66404   0.63348   -1.000
 3763.00    0.64348   0.63489  206.432
 3764.00    0.64205   0.62987   -1.000
 3765.00    0.66487   0.61866   -1.000
 3766.00    0.67304   0.60123   -1.000
 3767.00    0.61127   0.57777   -1.000
 3768.00    0.58928   0.55121   -1.000
 3769.00    0.58855   0.52885   -1.000
 3770.00    0.58052   0.51998   -1.000
 3771.00    0.56706   0.53010   -1.000
 3772.00    0.57924   0.55633   -1.000
 3773.00    0.59022   0.58887  187.998
 3774.00    0.65777   0.61785   -1.000
 3775.00    0.70272   0.63962   -1.000
 3776.00    0.68002   0.65715   -1.000
 3777.00    0.72725   0.67524   -1.000
 3778.00    0.73216   0.69559   -1.000
 3779.00    0.72392   0.71581  173.627
 3780.00    0.73930   0.73171  172.528
 3781.00    0.75663   0.74035  171.637
 3782.00    0.75079   0.74140  172.285
 3783.00    0.75747   0.73635   -1.000
 3784.00    0.79407   0.72678   -1.000
 3785.00    0.77024   0.71392   -1.000
 3786.00    0.74299   0.69947   -1.000
 3787.00    0.72535   0.68603   -1.000
 3788.00    0.68188   0.67623  212.307
 3789.00    0.68978   0.67069   -1.000
 3790.00    0.69563   0.66690   -1.000
 3791.00    0.70133   0.66024   -1.000
 3792.00    0.70870   0.64640   -1.000
 3793.00    0.68854   0.62331   -1.000
 3794.00    0.67372   0.59179   -1.000
 3795.00    0.63731   0.55538   -1.000
 3796.00    0.59612   0.52062   -1.000
 3797.00    0.56427   0.49699   -1.000
 3798.00    0.52218   0.49448   -1.000
 3799.00    0.51318   0.51752  220.261
 3800.00    0.57161   0.56023  203.795
 3801.00    0.61620   0.60883  195.643
 3802.00    0.65482   0.65006  191.855
 3803.00    0.70309   0.67756   -1.000
 3804.00    0.71221   0.69229   -1.000
 3805.00    0.73274   0.69928   -1.000
 3806.00    0.72449   0.70464   -1.000
 3807.00    0.69244   0.71291   -1.000
 3808.00    0.71144   0.72499  191.660
 3809.00    0.72707   0.73735  190.482
 3810.00    0.73106   0.74381  195.282
 3811.00    0.76302   0.73965   -1.000
 3812.00    0.76206   0.72566   -1.000
 3813.00    0.72813   0.70833   -1.000
 3814.00    0.68044   0.69578   -1.000
 3815.00    0.65244   0.69255   -1.000
 3816.00    0.65905   0.69670   -1.000
 3817.00    0.69634   0.70124  233.550
 3818.00    0.73812   0.69957   -1.000
 3819.00    0.74773   0.69120   -1.000
 3820.00    0.68521   0.68171  236.845
 3821.00    0.63233   0.67617   -1.000
 3822.00    0.65224   0.67327   -1.000
 3823.00    0.68496   0.66715  119.640
 3824.00    0.67607   0.65474   28.524
 3825.00    0.66206   0.63869   29.000
 3826.00    0.63344   0.62353   28.699
 3827.00    0.58854   0.61111   28.229
 3828.00    0.57107   0.60021   27.887
 3829.00    0.57435   0.58794   28.390
 3830.00    0.64344   0.57074   29.854
 3831.00    0.60021   0.54588   32.064
 3832.00    0.52594   0.51381   32.760
 3833.00    0.48769   0.48010   31.972
 3834.00    0.45653   0.45397   30.752
 3835.00    0.44918   0.44333   30.294
 3836.00    0.46613   0.45037   30.984
 3837.00    0.51769   0.47146   31.534
 3838.00    0.50313   0.50076   30.740
 3839.00    0.50049   0.53386   33.785
 3840.00    0.54754   0.56895   -1.000
 3841.00    0.64112   0.60534   -1.000
 3842.00    0.66975   0.64126   -1.000
 3843.00    0.64581   0.67348   -1.000
 3844.00    0.70618   0.69916  220.471
 3845.00    0.72620   0.71786  220.424
 3846.00    0.74346   0.73090   -1.000
 3847.00    0.73139   0.73913  227.674
 3848.00    0.73396   0.74285  235.911
 3849.00    0.71529   0.74407   -1.000
 3850.00    0.70328   0.74697   -1.000
 3851.00    0.73264   0.75439   -1.000
 3852.00    0.71789   0.76442   -1.000
 3853.00    0.75613   0.77156   -1.000
 3854.00    0.77329   0.77142  236.845
 3855.00    0.73403   0.76382   -1.000
 3856.00    0.71707   0.75191   -1.000
 3857.00    0.77835   0.73974   27.184
 3858.00    0.75452   0.73121   28.539
 3859.00    0.69200   0.72974   32.513
 3860.00    0.70715   0.73662   -1.000
 3861.00    0.73514   0.74946  223.146
 3862.00    0.74621   0.76299   -1.000
 3863.00    0.76226   0.77244  217.317
 3864.00    0.78466   0.77665  221.563
 3865.00    0.78123   0.77800  225.038
 3866.00    0.79746   0.77933   -1.000
 3867.00    0.79184   0.78083  236.845
 3868.00    0.75279   0.77980   -1.000
 3869.00    0.73742   0.77327   -1.000
 3870.00    0.75069   0.76094   31.882
 3871.00    0.72168   0.74606   -1.000
 3872.00    0.67913   0.73379   -1.000
 3873.00    0.70457   0.72772   -1.000
 3874.00    0.74491   0.72696   -1.000
 3875.00    0.76569   0.72632   -1.000
 3876.00    0.76737   0.72076   -1.000
 3877.00    0.72895   0.71022   -1.000
 3878.00    0.68777   0.69950  236.845
 3879.00    0.67965   0.69306  236.845
 3880.00    0.68514   0.69033  236.845
 3881.00    0.67403   0.68664  236.845
 3882.00    0.68742   0.67750  226.999
 3883.00    0.68207   0.66064   -1.000
 3884.00    0.64162   0.63483  222.177
 3885.00    0.64253   0.60006   -1.000
 3886.00    0.63589   0.56028   -1.000
 3887.00    0.59149   0.52490   -1.000
 3888.00    0.54997   0.50553   -1.000
 3889.00    0.53728   0.50969   -1.000
 3890.00    0.57117   0.53586   -1.000
 3891.00    0.62862   0.57389   -1.000
 3892.00    0.64677   0.61116   -1.000
 3893.00    0.67579   0.63988   -1.000
 3894.00    0.68517   0.66005   -1.000
 3895.00    0.69801   0.67604   -1.000
 3896.00    0.73123   0.69107   -1.000
 3897.00    0.75354   0.70503   -1.000
 3898.00    0.78623   0.71658   -1.000
 3899.00    0.74870   0.72558   -1.000
 3900.00    0.70967   0.73294   -1.000
 3901.00    0.73814   0.73870  181.265
 3902.00    0.77834   0.74163   -1.000
 3903.00    0.78976   0.74146   -1.000
 3904.00    0.78342   0.74074   -1.000
 3905.00    0.78332   0.74388   -1.000
 3906.00    0.75129   0.75436  182.325
 3907.00    0.77873   0.77209  171.398
 3908.00    0.80789   0.79300  167.933
 3909.00    0.79449   0.81147  166.457
 3910.00    0.83995   0.82366  164.969
 3911.00    0.85140   0.82879   -1.000
 3912.00    0.84909   0.82811   -1.000
 3913.00    0.83964   0.82355  170.403
 3914.00    0.79019   0.81749   -1.000
 3915.00    0.78618   0.81195   -1.000
 3916.00    0.79964   0.80714  179.151
 3917.00    0.83178   0.80152   -1.000
 3918.00    0.81409   0.79418   -1.000
 3919.00    0.80430   0.78633   -1.000
 3920.00    0.79472   0.78025  204.656
 3921.00    0.79278   0.77738   -1.000
 3922.00    0.77026   0.77730  199.480
 3923.00    0.80538   0.77739   -1.000
 3924.00    0.80811   0.77334   -1.000
 3925.00    0.77445   0.76073   -1.000
 3926.00    0.73266   0.73702  110.285
 3927.00    0.74569   0.70195   30.917
 3928.00    0.67350   0.65623   36.246
 3929.00    0.62274   0.59979   42.480
 3930.00    0.56642   0.53296   50.200
 3931.00    0.46863   0.46115   58.056
 3932.00    0.40163   0.39800   61.889
 3933.00    0.37003   0.36228   58.056
 3934.00    0.34654   0.36722   49.813
 3935.00    0.40786   0.41227   41.099
 3936.00    0.46922   0.48332   33.908
 3937.00    0.52831   0.56128   35.133
 3938.00    0.60419   0.63096   -1.000
 3939.00    0.65684   0.68489   -1.000
 3940.00    0.70830   0.72150  232.523
 3941.00    0.71991   0.74331   -1.000
 3942.00    0.76337   0.75495  228.556
 3943.00    0.77909   0.76204   -1.000
 3944.00    0.76711   0.76958  196.445
 3945.00    0.79423   0.77933  186.921
 3946.00    0.82334   0.78914   -1.000
 3947.00    0.84111   0.79568   -1.000
 3948.00    0.85450   0.79765   -1.000
 3949.00    0.81679   0.79654   -1.000
 3950.00    0.83216   0.79480   -1.000
 3951.00    0.86131   0.79420   -1.000
 3952.00    0.82499   0.79538   -1.000
 3953.00    0.81758   0.79734   -1.000
 3954.00    0.83952   0.79749   -1.000
 3955.00    0.85712   0.79367   -1.000
 3956.00    0.85819   0.78644   -1.000
 3957.00    0.80845   0.77775   -1.000
 3958.00    0.80924   0.76756   -1.000
 3959.00    0.80999   0.75282   -1.000
 3960.00    0.81040   0.73045   -1.000
 3961.00    0.76441   0.70059   -1.000
 3962.00    0.70080   0.66525   -1.000
 3963.00    0.66396   0.62381   29.141
 3964.00    0.58520   0.57223   34.516
 3965.00    0.53599   0.50738   42.573
 3966.00    0.45258   0.43354   51.181
 3967.00    0.37743   0.36533   54.615
 3968.00    0.32992   0.32158   49.326
 3969.00    0.30292   0.31632   40.569
 3970.00    0.31620   0.35042   33.461
 3971.00    0.37267   0.41246   34.958
 3972.00    0.45751   0.48552   -1.000
 3973.00    0.52608   0.55592   -1.000
 3974.00    0.60799   0.61661  196.313
 3975.00    0.68483   0.66665   -1.000
 3976.00    0.74249   0.70755   -1.000
 3977.00    0.78141   0.74105   -1.000
 3978.00    0.78586   0.76774  154.924
 3979.00    0.80085   0.78718  153.784
 3980.00    0.82847   0.79966   -1.000
 3981.00    0.84872   0.80746   -1.000
 3982.00    0.88793   0.81444   -1.000
 3983.00    0.87841   0.82351   -1.000
 3984.00    0.88302   0.83520   -1.000
 3985.00    0.89979   0.84828   -1.000
 3986.00    0.90694   0.86093   -1.000
 3987.00    0.90666   0.87167   -1.000
 3988.00    0.93373   0.87969   -1.000
 3989.00    0.93314   0.88533   -1.000
 3990.00    0.92293   0.89029   -1.000
 3991.00    0.94907   0.89623   -1.000
 3992.00    0.95511   0.90263   -1.000
 3993.00    0.96415   0.90664   -1.000
 3994.00    0.96730   0.90539   -1.000
 3995.00    0.93962   0.89868   -1.000
 3996.00    0.93218   0.89025   -1.000
 3997.00    0.91928   0.88564   -1.000
 3998.00    0.94619   0.88843   -1.000
 3999.00    0.96943   0.89754   -1.000
 4000.00    0.98423   0.90849   -1.000
 4001.00    0.97500   0.91619   -1.000
 4002.00    0.96608   0.91754   -1.000
 4003.00    0.97814   0.91241   -1.000
 4004.00    0.95941   0.90420   -1.000
 4005.00    0.93739   0.89868   -1.000
 4006.00    0.93149   0.90072   -1.000
 4007.00    0.94852   0.91057   -1.000
 4008.00    0.96471   0.92388   -1.000
 4009.00    0.97751   0.93549   -1.000
 4010.00    0.93945   0.94272  130.271
 4011.00    1.01263   0.94617   -1.000
 4012.00    1.00000   0.94778   -1.000
 4013.00    0.97762   0.94937  130.330
 4014.00    0.98137   0.95198   -1.000
 4015.00    0.98892   0.95553   -1.000
 4016.00    1.00532   0.95943   -1.000
 4017.00    1.02489   0.96328   -1.000
 4018.00    1.03842   0.96687   -1.000
 4019.00    1.00756   0.96955   -1.000
 4020.00    1.01318   0.97012   -1.000
 4021.00    1.01860   0.96804   -1.000
 4022.00    1.00810   0.96416   -1.000
 4023.00    0.98586   0.96071  133.145
 4024.00    0.99871   0.96012   -1.000
 4025.00    0.99571   0.96357   -1.000
 4026.00    0.99275   0.96954  123.463
 4027.00    1.01485   0.97354   -1.000
 4028.00    0.98280   0.97059  131.537
 4029.00    0.98402   0.95905  139.984
 4030.00    0.97552   0.94257   -1.000
 4031.00    0.97365   0.92771   -1.000
 4032.00    0.97710   0.92037   -1.000
 4033.00    0.99692   0.92307   -1.000
 4034.00    0.98664   0.93520   -1.000
 4035.00    1.00605   0.95382   -1.000
 4036.00    1.01084   0.97406   -1.000
 4037.00    1.00060   0.99025  121.688
 4038.00    1.03140   0.99854   -1.000
 4039.00    1.02929   0.99862   -1.000
 4040.00    1.03338   0.99305   -1.000
 4041.00    1.01349   0.98368   -1.000
 4042.00    1.00296   0.97003   -1.000
 4043.00    0.96870   0.95151  151.018
 4044.00    0.96333   0.93157   -1.000
 4045.00    0.92834   0.91839  149.520
 4046.00    0.92798   0.91925  136.003
 4047.00    0.97139   0.93443   -1.000
 4048.00    1.02843   0.95643   -1.000
 4049.00    1.04796   0.97562   -1.000
 4050.00    1.03900   0.98659   -1.000
 4051.00    1.04270   0.98907   -1.000
 4052.00    1.02782   0.98589   -1.000
 4053.00    1.01242   0.98003   -1.000
 4054.00    0.99094   0.97409  135.746
 4055.00    0.99159   0.96977  136.774
 4056.00    1.00876   0.96799   -1.000
 4057.00    0.98948   0.96948  135.050
 4058.00    0.96543   0.97368  130.550
 4059.00    0.96652   0.97748  129.088
 4060.00    1.00231   0.97566  133.002
 4061.00    1.00305   0.96489   -1.000
 4062.00    1.01084   0.94780   -1.000
 4063.00    0.98591   0.93152   -1.000
 4064.00    0.97322   0.92291   -1.000
 4065.00    0.94758   0.92339  136.302
 4066.00    0.98031   0.92963   -1.000
 4067.00    1.00995   0.93659   -1.000
 4068.00    0.98511   0.93988   -1.000
 4069.00    0.98394   0.93733   -1.000
 4070.00    1.00159   0.93006   -1.000
 4071.00    0.99243   0.92201   -1.000
 4072.00    0.97857   0.91744   -1.000
 4073.00    0.95158   0.91684   -1.000
 4074.00    0.94548   0.91565   -1.000
 4075.00    0.95155   0.90953   -1.000
 4076.00    0.95902   0.89947   -1.000
 4077.00    0.95212   0.89208   -1.000
 4078.00    0.92233   0.89404   -1.000
 4079.00    0.96420   0.90612   -1.000
 4080.00    1.00548   0.92273   -1.000
 4081.00    0.98289   0.93561   -1.000
 4082.00    0.97342   0.94012   -1.000
 4083.00    1.00116   0.93733   -1.000
 4084.00    0.98899   0.93262   -1.000
 4085.00    1.00529   0.93128   -1.000
 4086.00    1.00266   0.93527   -1.000
 4087.00    1.00332   0.94245   -1.000
 4088.00    1.02275   0.94843   -1.000
 4089.00    1.00740   0.94994   -1.000
 4090.00    1.01317   0.94616   -1.000
 4091.00    0.98519   0.93806   -1.000
 4092.00    0.95670   0.92662   -1.000
 4093.00    0.96259   0.91181   -1.000
 4094.00    0.94368   0.89315   -1.000
 4095.00    0.90874   0.87071   -1.000
 4096.00    0.91328   0.84412   -1.000
 4097.00    0.89175   0.81223   -1.000
 4098.00    0.85641   0.77338   -1.000
 4099.00    0.81103   0.72895   -1.000
 4100.00    0.75751   0.68710   -1.000
 4101.00    0.70981   0.66177   -1.000
 4102.00    0.70439   0.66454   -1.000
 4103.00    0.71930   0.69552  142.616
 4104.00    0.76583   0.74305  135.835
 4105.00    0.80617   0.79082  132.597
 4106.00    0.85279   0.82870   -1.000
 4107.00    0.90867   0.85422   -1.000
 4108.00    0.92234   0.87068   -1.000
 4109.00    0.91222   0.88239   -1.000
 4110.00    0.92261   0.89294   -1.000
 4111.00    0.91866   0.90454  132.658
 4112.00    0.94386   0.91772  130.456
 4113.00    0.96984   0.93171   -1.000
 4114.00    0.98640   0.94423   -1.000
 4115.00    1.01500   0.95260   -1.000
 4116.00    1.01322   0.95502   -1.000
 4117.00    1.02954   0.95200   -1.000
 4118.00    0.99446   0.94687   -1.000
 4119.00    0.93977   0.94360  135.061
 4120.00    0.93849   0.94448  134.046
 4121.00    0.97926   0.94931   -1.000
 4122.00    0.98980   0.95615   -1.000
 4123.00    0.98694   0.96327  130.202
 4124.00    0.96828   0.96940  130.352
 4125.00    1.00078   0.97353   -1.000
 4126.00    0.99823   0.97491  134.913
 4127.00    0.96825   0.97360  135.872
 4128.00    0.96849   0.97036  136.797
 4129.00    1.00786   0.96548   -1.000
 4130.00    0.99653   0.95892   -1.000
 4131.00    0.94054   0.95206  147.207
 4132.00    0.93832   0.94851  146.146
 4133.00    0.94987   0.95168  140.511
 4134.00    0.95595   0.96230  133.964
 4135.00    1.00766   0.97750   -1.000
 4136.00    1.02831   0.99329   -1.000
 4137.00    1.03406   1.00672  126.560
 4138.00    1.07284   1.01540   -1.000
 4139.00    1.09959   1.01695   -1.000
 4140.00    1.05398   1.00986   -1.000
 4141.00    1.00683   0.99533  149.459
 4142.00    0.99105   0.97899  153.781
 4143.00    0.93666   0.96807   -1.000
 4144.00    0.95636   0.96719  138.742
 4145.00    1.00125   0.97501  134.594
 4146.00    1.02634   0.98581   -1.000
 4147.00    1.00738   0.99430  137.269
 4148.00    1.01054   0.99857  140.633
 4149.00    1.02513   1.00002  141.613
 4150.00    1.00341   0.99986  140.557
 4151.00    0.98696   0.99816  140.292
 4152.00    0.98838   0.99488  141.928
 4153.00    0.97321   0.99098   -1.000
 4154.00    1.04111   0.98879   -1.000
 4155.00    1.26115   0.99018   -1.000
 4156.00    1.22393   0.99572   -1.000
 4157.00    0.68383   1.00409   -1.000
 4158.00    0.82371   1.01291   -1.000
 4159.00    1.09323   1.02044   -1.000
 4160.00    1.03635   1.02604  130.321
 4161.00    1.02020   1.03036  129.523
 4162.00    0.99853   1.03406   -1.000
 4163.00    0.96787   1.03687   -1.000
 4164.00    0.99924   1.03752   -1.000
 4165.00    1.01768   1.03515   -1.000
 4166.00    1.00074   1.03060   -1.000
 4167.00    0.99338   1.02544   -1.000
 4168.00    0.98194   1.02062   -1.000
 4169.00    0.99581   1.01400   -1.000
 4170.00    0.99933   1.00343  148.112
 4171.00    0.97116   0.98970   -1.000
 4172.00    0.92175   0.97715   -1.000
 4173.00    0.90801   0.97166   -1.000
 4174.00    0.93762   0.97460   -1.000
 4175.00    0.99047   0.98272  144.094
 4176.00    0.97355   0.99156   -1.000
 4177.00    0.96856   0.99839   -1.000
 4178.00    0.97989   1.00408   -1.000
 4179.00    1.00436   1.00904  140.453
 4180.00    1.02576   1.01261  140.178
 4181.00    1.03959   1.01487  138.264
 4182.00    1.00387   1.01635  135.524
 4183.00    0.97846   1.01819   -1.000
 4184.00    1.02060   1.01937  135.230
 4185.00    1.01372   1.01754  139.793
 4186.00    0.98523   1.01312   -1.000
 4187.00    0.97934   1.00879   -1.000
 4188.00    0.97730   1.00734   -1.000
 4189.00    0.98828   1.00929   -1.000
 4190.00    0.99286   1.01293   -1.000
 4191.00    1.00227   1.01691  131.919
 4192.00    1.00584   1.02045  131.682
 4193.00    1.00605   1.02192  136.539
 4194.00    1.01493   1.01905  143.178
 4195.00    1.01625   1.01033  147.236
 4196.00    0.99152   0.99708  149.147
 4197.00    0.99109   0.98341  148.863
 4198.00    0.96573   0.97322  146.955
 4199.00    0.94569   0.96836   -1.000
 4200.00    0.94433   0.96827   -1.000
 4201.00    0.96854   0.97192  143.293
 4202.00    0.98488   0.97833  141.321
 4203.00    0.96735   0.98710   -1.000
 4204.00    0.97343   0.99771   -1.000
 4205.00    0.97177   1.00841   -1.000
 4206.00    0.98576   1.01753   -1.000
 4207.00    1.02257   1.02419  131.310
 4208.00    1.01064   1.02846   -1.000
 4209.00    0.99832   1.03099   -1.000
 4210.00    1.00349   1.03303   -1.000
 4211.00    0.99765   1.03439   -1.000
 4212.00    1.00100   1.03288   -1.000
 4213.00    0.99977   1.02700   -1.000
 4214.00    1.00905   1.01758  144.528
 4215.00    1.02864   1.00977  138.082
 4216.00    1.01511   1.00865  129.893
 4217.00    1.02891   1.01493  124.819
 4218.00    1.04192   1.02562  122.004
 4219.00    1.03646   1.03530  121.424
 4220.00    1.04845   1.03951  123.670
 4221.00    1.07094   1.03520   -1.000
 4222.00    1.04014   1.01990  140.174
 4223.00    1.01625   0.99395  155.549
 4224.00    0.98631   0.96218  174.593
 4225.00    0.92346   0.93455   -1.000
 4226.00    0.89436   0.92283   -1.000
 4227.00    0.89661   0.93291   -1.000
 4228.00    0.93223   0.96091   -1.000
 4229.00    0.98323   0.99395  126.470
 4230.00    1.02701   1.01945  126.734
 4231.00    1.02380   1.03029  129.870
 4232.00    1.01743   1.02856  132.712
 4233.00    1.00816   1.02120  134.452
 4234.00    0.98673   1.01404   -1.000
 4235.00    0.99794   1.01063  138.962
 4236.00    1.01075   1.01212  137.157
 4237.00    1.01220   1.01707  134.222
 4238.00    1.00856   1.02465  132.167
 4239.00    1.00248   1.03435   -1.000
 4240.00    1.02850   1.04486  128.425
 4241.00    1.06197   1.05476  127.428
 4242.00    1.05447   1.06186  125.022
 4243.00    1.05092   1.06438  123.483
 4244.00    1.07307   1.06105  126.166
 4245.00    1.05217   1.05183  131.915
 4246.00    1.00672   1.03837   -1.000
 4247.00    0.98682   1.02361   -1.000
 4248.00    1.00067   1.01175  139.990
 4249.00    0.98399   1.00609   -1.000
 4250.00    0.96438   1.00718   -1.000
 4251.00    0.97023   1.01274   -1.000
 4252.00    0.99342   1.01929   -1.000
 4253.00    1.00088   1.02403   -1.000
 4254.00    0.99810   1.02754   -1.000
 4255.00    0.99730   1.03118   -1.000
 4256.00    0.98831   1.03418   -1.000
 4257.00    1.00006   1.03381   -1.000
 4258.00    1.01910   1.02847  141.969
 4259.00    1.01658   1.02160  142.831
 4260.00    0.99291   1.01957   -1.000
 4261.00    0.99293   1.02639   -1.000
 4262.00    0.99863   1.04045   -1.000
 4263.00    1.01958   1.05557   -1.000
 4264.00    1.05025   1.06614  121.396
 4265.00    1.05641   1.06938  124.070
 4266.00    1.06397   1.06526  128.193
 4267.00    1.05214   1.05506  132.375
 4268.00    1.04796   1.03928  138.567
 4269.00    1.02940   1.01963  147.754
 4270.00    0.97372   0.99983   -1.000
 4271.00    0.93449   0.98452   -1.000
 4272.00    0.92062   0.97798   -1.000
 4273.00    0.94234   0.98139   -1.000
 4274.00    0.97115   0.99360   -1.000
 4275.00    0.99602   1.01180  130.045
 4276.00    1.01284   1.03130  125.856
 4277.00    1.02771   1.04691  127.654
 4278.00    1.04369   1.05409  133.254
 4279.00    1.04052   1.05198  136.566
 4280.00    1.00999   1.04480   -1.000
 4281.00    0.99611   1.03749   -1.000
 4282.00    1.01356   1.03336   -1.000
 4283.00    1.01099   1.03151   -1.000
 4284.00    0.98703   1.02873   -1.000
 4285.00    0.97648   1.02210   -1.000
 4286.00    0.97877   1.01016   -1.000
 4287.00    0.97532   0.99392   -1.000
 4288.00    0.94496   0.97714   -1.000
 4289.00    0.92046   0.96521   -1.000
 4290.00    0.91295   0.96212   -1.000
 4291.00    0.91248   0.96785   -1.000
 4292.00    0.96595   0.97738  138.293
 4293.00    0.99797   0.98486  140.025
 4294.00    0.98618   0.98669  142.649
 4295.00    0.97796   0.98159  147.127
 4296.00    0.95847   0.96979  156.325
 4297.00    0.93892   0.95147  169.644
 4298.00    0.91139   0.92888   -1.000
 4299.00    0.88819   0.90749   -1.000
 4300.00    0.84670   0.89240   -1.000
 4301.00    0.82511   0.88649   -1.000
 4302.00    0.85053   0.88866   -1.000
 4303.00    0.85761   0.89457   -1.000
 4304.00    0.85493   0.89876   -1.000
 4305.00    0.84942   0.89797   -1.000
 4306.00    0.84981   0.89221   -1.000
 4307.00    0.83217   0.88579   -1.000
 4308.00    0.82464   0.88395   -1.000
 4309.00    0.83629   0.88946   -1.000
 4310.00    0.83693   0.90164   -1.000
 4311.00    0.86009   0.91752   -1.000
 4312.00    0.90121   0.93603   -1.000
 4313.00    0.93779   0.95787   -1.000
 4314.00    0.98598   0.98490  124.049
 4315.00    1.03126   1.01613  116.339
 4316.00    1.06973   1.04604  113.687
 4317.00    1.12059   1.06849   -1.000
 4318.00    1.14356   1.07882   -1.000
 4319.00    1.12144   1.07748   -1.000
 4320.00    1.09318   1.06697  124.280
 4321.00    1.04895   1.04960  131.432
 4322.00    1.01257   1.02693  141.969
 4323.00    0.98362   1.00235   -1.000
 4324.00    0.94395   0.98272   -1.000
 4325.00    0.94103   0.97517   -1.000
 4326.00    0.96070   0.98280   -1.000
 4327.00    0.99903   1.00131  120.304
 4328.00    1.02642   1.02114  119.137
 4329.00    1.03028   1.03510  119.386
 4330.00    1.02849   1.04090  118.205
 4331.00    1.03327   1.04058  116.342
 4332.00    1.04436   1.03581  115.492
 4333.00    1.04552   1.02517  115.986
 4334.00    1.03575   1.00503   -1.000
 4335.00    1.01753   0.97213   -1.000
 4336.00    0.97605   0.92521   -1.000
 4337.00    0.92064   0.86832   -1.000
 4338.00    0.86166   0.81168   -1.000
 4339.00    0.81233   0.76993   -1.000
 4340.00    0.77057   0.75709  148.365
 4341.00    0.75361   0.77723   -1.000
 4342.00    0.79783   0.82288   -1.000
 4343.00    0.86773   0.87856  124.881
 4344.00    0.94147   0.93041  121.915
 4345.00    0.99943   0.97124   -1.000
 4346.00    1.00722   1.00135  118.689
 4347.00    1.02750   1.02140  117.435
 4348.00    1.02291   1.03091  119.814
 4349.00    0.99482   1.02968   -1.000
 4350.00    0.99577   1.02098   -1.000
 4351.00    0.98844   1.01229   -1.000
 4352.00    0.98654   1.01171   -1.000
 4353.00    1.01630   1.02215  122.618
 4354.00    1.04682   1.04021  119.323
 4355.00    1.05997   1.05871  117.716
 4356.00    1.07134   1.07213  118.697
 4357.00    1.08878   1.07920  121.049
 4358.00    1.09773   1.08263  121.209
 4359.00    1.09240   1.08602  118.242
 4360.00    1.08460   1.09176  115.326
 4361.00    1.08944   1.09985  114.422
 4362.00    1.12603   1.10811  113.713
 4363.00    1.11422   1.11417  112.778
 4364.00    1.11125   1.11617  113.905
 4365.00    1.10613   1.11341  117.831
 4366.00    1.09181   1.10670  121.197
 4367.00    1.08810   1.09823  121.550
 4368.00    1.06263   1.09041   -1.000
 4369.00    1.06961   1.08453  119.883
 4370.00    1.07197   1.07920  120.237
 4371.00    1.06924   1.07217  122.715
 4372.00    1.04740   1.06221  127.896
 4373.00    1.03807   1.05105  131.313
 4374.00    1.02259   1.04359   -1.000
 4375.00    1.00949   1.04466   -1.000
 4376.00    1.03746   1.05541  118.398
 4377.00    1.05474   1.07074  117.413
 4378.00    1.06646   1.08251  118.701
 4379.00    1.09717   1.08346  122.032
 4380.00    1.08667   1.07088  130.454
 4381.00    1.05674   1.04737  145.520
 4382.00    1.04446   1.02041  157.059
 4383.00    0.99814   0.99981  152.228
 4384.00    0.97107   0.99387   -1.000
 4385.00    0.99037   1.00327  127.381
 4386.00    1.02829   1.02172  125.004
 4387.00    1.06245   1.04063  125.692
 4388.00    1.07338   1.05417  126.795
 4389.00    1.05818   1.06211  126.165
 4390.00    1.05764   1.06662  123.448
 4391.00    1.06636   1.06935  121.872
 4392.00    1.07089   1.07030  123.509
 4393.00    1.09493   1.06952  125.259
 4394.00    1.09234   1.06899  122.778
 4395.00    1.07909   1.07112  117.626
 4396.00    1.08666   1.07634  116.021
 4397.00    1.09275   1.08156  118.789
 4398.00    1.09247   1.08293  123.041
 4399.00    1.08644   1.07996  124.892
 4400.00    1.06429   1.07485  122.912
 4401.00    1.04378   1.06987   -1.000
 4402.00    1.05229   1.06509  128.489
 4403.00    1.05712   1.05994  133.971
 4404.00    1.04491   1.05563  132.772
 4405.00    1.02038   1.05466   -1.000
 4406.00    1.02538   1.05890   -1.000
 4407.00    1.06684   1.06817  125.003
 4408.00    1.07318   1.08116  119.833
 4409.00    1.06839   1.09607   -1.000
 4410.00    1.09558   1.11003  112.077
 4411.00    1.10037   1.11843  112.355
 4412.00    1.10361   1.11745  116.783
 4413.00    1.11824   1.10695  122.872
 4414.00    1.08841   1.09207  125.381
 4415.00    1.06089   1.08051   -1.000
 4416.00    1.06294   1.07861  118.355
 4417.00    1.06842   1.08790   -1.000
 4418.00    1.07197   1.10365   -1.000
 4419.00    1.07742   1.11886   -1.000
 4420.00    1.10148   1.12771   -1.000
 4421.00    1.12117   1.12948  117.691
 4422.00    1.10235   1.12657   -1.000
 4423.00    1.08179   1.12242   -1.000
 4424.00    1.08589   1.11886   -1.000
 4425.00    1.08285   1.11652   -1.000
 4426.00    1.07412   1.11614   -1.000
 4427.00    1.07935   1.11830   -1.000
 4428.00    1.07544   1.12256   -1.000
 4429.00    1.07996   1.12724   -1.000
 4430.00    1.08867   1.13016   -1.000
 4431.00    1.08773   1.12958   -1.000
 4432.00    1.10256   1.12465   -1.000
 4433.00    1.10359   1.11657  126.083
 4434.00    1.08150   1.10944   -1.000
 4435.00    1.06772   1.10917   -1.000
 4436.00    1.07506   1.11849   -1.000
 4437.00    1.10732   1.13429   -1.000
 4438.00    1.14420   1.14811  110.209
 4439.00    1.14269   1.15206  114.532
 4440.00    1.13002   1.14435  119.916
 4441.00    1.13780   1.12992  123.296
 4442.00    1.12729   1.11788  121.651
 4443.00    1.09902   1.11484  116.641
 4444.00    1.06976   1.12230   -1.000
 4445.00    1.09488   1.13551   -1.000
 4446.00    1.13458   1.14840  111.607
 4447.00    1.14106   1.15711  112.190
 4448.00    1.15138   1.16115  113.444
 4449.00    1.16407   1.16202  113.840
 4450.00    1.13465   1.16045   -1.000
 4451.00    1.15311   1.15611  115.532
 4452.00    1.14480   1.14800  120.368
 4453.00    1.09806   1.13655   -1.000
 4454.00    1.08476   1.12470   -1.000
 4455.00    1.07815   1.11679   -1.000
 4456.00    1.09129   1.11532   -1.000
 4457.00    1.10011   1.11858   -1.000
 4458.00    1.07813   1.12308   -1.000
 4459.00    1.08056   1.12628   -1.000
 4460.00    1.08839   1.12895   -1.000
 4461.00    1.08239   1.13299   -1.000
 4462.00    1.10527   1.13925   -1.000
 4463.00    1.11800   1.14640   -1.000
 4464.00    1.15796   1.15147  114.814
 4465.00    1.15104   1.15216  115.346
 4466.00    1.13600   1.14838  117.057
 4467.00    1.13042   1.14283  118.804
 4468.00    1.12389   1.13951  118.568
 4469.00    1.12777   1.14209  116.029
 4470.00    1.14016   1.15154  112.147
 4471.00    1.15854   1.16567  108.559
 4472.00    1.17502   1.18029  106.392
 4473.00    1.19275   1.19145  105.982
 4474.00    1.20919   1.19797  105.810
 4475.00    1.22347   1.20049  104.940
 4476.00    1.20768   1.20031  104.914
 4477.00    1.19726   1.19674  107.000
 4478.00    1.20791   1.18841  111.452
 4479.00    1.19825   1.17585  115.878
 4480.00    1.18377   1.16319  117.364
 4481.00    1.18242   1.15687  114.461
 4482.00    1.16476   1.16099  109.660
 4483.00    1.15664   1.17432  106.214
 4484.00    1.16974   1.19103  104.914
 4485.00    1.19606   1.20398  105.997
 4486.00    1.20727   1.20872  109.130
 4487.00    1.18829   1.20543  112.804
 4488.00    1.17360   1.19823   -1.000
 4489.00    1.16154   1.19237   -1.000
 4490.00    1.14439   1.19093   -1.000
 4491.00    1.16178   1.19261   -1.000
 4492.00    1.17912   1.19377  111.160
 4493.00    1.17844   1.19201  114.288
 4494.00    1.17103   1.18844  115.310
 4495.00    1.17005   1.18623  112.849
 4496.00    1.18790   1.18712  109.108
 4497.00    1.20709   1.19013  106.806
 4498.00    1.20128   1.19263  106.682
 4499.00    1.20161   1.19325  107.796
 4500.00    1.21492   1.19353  107.061
 4501.00    1.20531   1.19676  103.790
 4502.00    1.21313   1.20508  100.836
 4503.00    1.23305   1.21650  100.053
 4504.00    1.22965   1.22677  101.354
 4505.00    1.22182   1.23218  103.094
 4506.00    1.23416   1.23262  103.703
 4507.00    1.25036   1.23062  103.413
 4508.00    1.25585   1.22893  102.608
 4509.00    1.25690   1.22849  102.494
 4510.00    1.25035   1.22812  103.876
 4511.00    1.24131   1.22652  105.916
 4512.00    1.23356   1.22326  107.333
 4513.00    1.20840   1.21924  107.491
 4514.00    1.20094   1.21556  107.079
 4515.00    1.20394   1.21254  107.548
 4516.00    1.19404   1.20998  108.668
 4517.00    1.20205   1.20753  108.316
 4518.00    1.20801   1.20566  106.253
 4519.00    1.20530   1.20491  105.061
 4520.00    1.21638   1.20489  106.308
 4521.00    1.22793   1.20403  108.795
 4522.00    1.21754   1.20078  110.499
 4523.00    1.18523   1.19524  111.736
 4524.00    1.15577   1.18816   -1.000
 4525.00    1.16744   1.18000  117.722
 4526.00    1.16612   1.17070  120.309
 4527.00    1.13614   1.16118   -1.000
 4528.00    1.11305   1.15370   -1.000
 4529.00    1.11534   1.14993   -1.000
 4530.00    1.12993   1.14929   -1.000
 4531.00    1.14448   1.14881  116.536
 4532.00    1.16196   1.14613  120.246
 4533.00    1.15647   1.14220  122.175
 4534.00    1.15819   1.14148  118.201
 4535.00    1.14603   1.14859  111.162
 4536.00    1.13440   1.16441   -1.000
 4537.00    1.16213   1.18480  104.754
 4538.00    1.23034   1.20336  106.508
 4539.00    1.22663   1.21538  108.114
 4540.00    1.19965   1.22017  107.623
 4541.00    1.20021   1.22028  106.960
 4542.00    1.20976   1.21853  120.915
 4543.00    0.86596   1.21605   -1.000
 4544.00    0.20152   1.21258   -1.000
 4545.00    0.05113   1.20757   -1.000
 4546.00    0.51085   1.20068   -1.000
 4547.00    0.96839   1.19209   -1.000
 4548.00    0.59666   1.18335   -1.000
 4549.00    0.95946   1.17745   -1.000
 4550.00    1.20294   1.17659  111.508
 4551.00    1.18215   1.17931  112.615
 4552.00    1.17946   1.18183  114.144
 4553.00    1.16847   1.18189  114.077
 4554.00    1.18157   1.18171  111.273
 4555.00    1.18481   1.18566  106.943
 4556.00    1.18930   1.19596  103.574
 4557.00    1.20871   1.21067  102.780
 4558.00    1.21998   1.22527  103.194
 4559.00    1.22996   1.23582  103.143
 4560.00    1.22502   1.24026  104.104
 4561.00    1.21996   1.23871  106.699
 4562.00    1.21783   1.23282  109.046
 4563.00    1.21161   1.22613  109.669
 4564.00    1.22325   1.22260  107.715
 4565.00    1.22087   1.22455  104.872
 4566.00    1.21530   1.23084  102.772
 4567.00    1.23348   1.23758  102.652
 4568.00    1.25410   1.24031  104.444
 4569.00    1.24554   1.23715  107.202
 4570.00    1.21278   1.22980  108.602
 4571.00    1.19841   1.22313   -1.000
 4572.00    1.21478   1.22164  104.029
 4573.00    1.23896   1.22603  103.221
 4574.00    1.24252   1.23305  103.501
 4575.00    1.23496   1.23796  104.042
 4576.00    1.22812   1.23822  105.115
 4577.00    1.21241   1.23367  107.497
 4578.00    1.21138   1.22560  110.390
 4579.00    1.22530   1.21583  111.602
 4580.00    1.21240   1.20680  110.688
 4581.00    1.19099   1.20061  109.375
 4582.00    1.17534   1.19818   -1.000
 4583.00    1.17707   1.19898  109.559
 4584.00    1.19402   1.20212  109.377
 4585.00    1.18763   1.20699  107.227
 4586.00    1.20228   1.21322  104.577
 4587.00    1.22588   1.22001  103.199
 4588.00    1.23307   1.22603  103.782
 4589.00    1.21831   1.22992  105.534
 4590.00    1.21291   1.23092  107.475
 4591.00    1.20586   1.22950   -1.000
 4592.00    1.18211   1.22746   -1.000
 4593.00    1.18358   1.22672   -1.000
 4594.00    1.20944   1.22845  106.719
 4595.00    1.23473   1.23207  106.479
 4596.00    1.23167   1.23594  106.250
 4597.00    1.22109   1.23823  106.481
 4598.00    1.22799   1.23793  107.475
 4599.00    1.23321   1.23509  108.174
 4600.00    1.23748   1.23102  107.863
 4601.00    1.22304   1.22760  106.637
 4602.00    1.19324   1.22643   -1.000
 4603.00    1.21301   1.22796  106.076
 4604.00    1.22845   1.23152  105.485
 4605.00    1.24063   1.23620  103.915
 4606.00    1.26959   1.24170  101.754
 4607.00    1.26084   1.24793   99.966
 4608.00    1.25098   1.25438   99.481
 4609.00    1.23413   1.25929  100.360
 4610.00    1.23951   1.26134  101.672
 4611.00    1.23995   1.26049  102.600
 4612.00    1.25514   1.25831  102.769
 4613.00    1.28297   1.25654  102.051
 4614.00    1.27370   1.25587  101.330
 4615.00    1.25521   1.25596  101.385
 4616.00    1.25493   1.25614  102.136
 4617.00    1.25428   1.25621  102.548
 4618.00    1.26540   1.25672  102.054
 4619.00    1.25894   1.25858  100.777
 4620.00    1.24831   1.26200   99.793
 4621.00    1.26372   1.26597   99.937
 4622.00    1.26297   1.26868  100.175
 4623.00    1.26070   1.26882  100.668
 4624.00    1.26523   1.26667  101.345
 4625.00    1.26276   1.26351  101.442
 4626.00    1.26364   1.26092  101.670
 4627.00    1.26113   1.25952  102.176
 4628.00    1.25819   1.25948  102.074
 4629.00    1.23805   1.26064  101.256
 4630.00    1.23973   1.26265  100.728
 4631.00    1.25677   1.26464  101.664
 4632.00    1.25912   1.26555  103.042
 4633.00    1.25380   1.26478  103.654
 4634.00    1.24910   1.26283  103.901
 4635.00    1.24955   1.26046  105.005
 4636.00    1.24294   1.25814  106.022
 4637.00    1.25001   1.25625  106.177
 4638.00    1.26151   1.25553  105.311
 4639.00    1.25109   1.25694  103.125
 4640.00    1.24772   1.26070  101.032
 4641.00    1.26209   1.26541  100.435
 4642.00    1.26329   1.26886  101.517
 4643.00    1.24247   1.26869   -1.000
 4644.00    1.23841   1.26438   -1.000
 4645.00    1.24445   1.25695  108.738
 4646.00    1.23168   1.24956  108.097
 4647.00    1.22745   1.24562  105.833
 4648.00    1.23828   1.24709  103.767
 4649.00    1.26023   1.25289  102.903
 4650.00    1.27088   1.25975  102.753
 4651.00    1.26342   1.26439  103.138
 4652.00    1.24895   1.26542  104.912
 4653.00    1.22855   1.26336   -1.000
 4654.00    1.23349   1.26033   -1.000
 4655.00    1.24363   1.25904  105.089
 4656.00    1.26501   1.26180  101.353
 4657.00    1.26423   1.26959   98.127
 4658.00    1.26175   1.28084   96.870
 4659.00    1.26311   1.29198   -1.000
 4660.00    1.28171   1.29884   99.156
 4661.00    1.27991   1.29929  101.441
 4662.00    1.27049   1.29385  102.675
 4663.00    1.27574   1.28458  103.459
 4664.00    1.26290   1.27304  106.369
 4665.00    1.24921   1.26015  111.010
 4666.00    1.23840   1.24720  113.713
 4667.00    1.22906   1.23721  112.097
 4668.00    1.22343   1.23352  107.980
 4669.00    1.22670   1.23752  104.101
 4670.00    1.23615   1.24711  102.282
 4671.00    1.25358   1.25818  102.046
 4672.00    1.27793   1.26724  102.069
 4673.00    1.28745   1.27349  101.426
 4674.00    1.29874   1.27772   99.968
 4675.00    1.29346   1.28064   99.312
 4676.00    1.27525   1.28153  100.596
 4677.00    1.26946   1.27909  102.768
 4678.00    1.26317   1.27336  104.650
 4679.00    1.23932   1.26587   -1.000
 4680.00    1.22960   1.25931   -1.000
 4681.00    1.24138   1.25589  104.042
 4682.00    1.24468   1.25652  101.910
 4683.00    1.25551   1.26045  101.346
 4684.00    1.27507   1.26544  101.621
 4685.00    1.27601   1.26944  101.881
 4686.00    1.27130   1.27144  102.237
 4687.00    1.27435   1.27185  102.221
 4688.00    1.27223   1.27156  102.547
 4689.00    1.26084   1.27118  103.089
 4690.00    1.25799   1.27096  102.653
 4691.00    1.26898   1.27123  101.245
 4692.00    1.26828   1.27240   99.394
 4693.00    1.27395   1.27451   97.562
 4694.00    1.30314   1.27689   97.101
 4695.00    1.31549   1.27828   -1.000
 4696.00    1.29611   1.27720  101.649
 4697.00    1.26933   1.27298  103.911
 4698.00    1.25165   1.26620  104.153
 4699.00    1.25189   1.25857  103.944
 4700.00    1.26846   1.25150  105.251
 4701.00    1.26700   1.24590  106.585
 4702.00    1.24783   1.24232  105.949
 4703.00    1.23686   1.24155  104.041
 4704.00    1.24212   1.24333  103.822
 4705.00    1.25765   1.24594  105.666
 4706.00    1.25005   1.24713  107.334
 4707.00    1.22670   1.24634  107.624
 4708.00    1.21767   1.24545   -1.000
 4709.00    1.23941   1.24695  102.718
 4710.00    1.25278   1.25152  100.705
 4711.00    1.25407   1.25733  100.632
 4712.00    1.25309   1.26177  102.084
 4713.00    1.27158   1.26384  103.205
 4714.00    1.29286   1.26503  102.218
 4715.00    1.28996   1.26768  100.142
 4716.00    1.28376   1.27302   98.799
 4717.00    1.30096   1.28008   98.351
 4718.00    1.31515   1.28697   98.015
 4719.00    1.32611   1.29216   -1.000
 4720.00    1.31798   1.29524   99.018
 4721.00    1.29672   1.29678   99.144
 4722.00    1.28649   1.29765   98.294
 4723.00    1.27866   1.29850   97.750
 4724.00    1.27904   1.29869   98.925
 4725.00    1.29390   1.29682  102.020
 4726.00    1.28466   1.29173  105.262
 4727.00    1.25527   1.28369   -1.000
 4728.00    1.23019   1.27507   -1.000
 4729.00    1.24491   1.26841  104.540
 4730.00    1.27222   1.26549  103.530
 4731.00    1.28286   1.26654  102.420
 4732.00    1.29472   1.27035  101.682
 4733.00    1.28952   1.27492  101.120
 4734.00    1.27849   1.27846  101.292
 4735.00    1.29564   1.28014  102.016
 4736.00    1.29807   1.28060  101.452
 4737.00    1.27903   1.28105  100.693
 4738.00    1.28309   1.28225  101.033
 4739.00    1.28696   1.28403  101.437
 4740.00    1.29339   1.28595  101.125
 4741.00    1.31282   1.28804  100.145
 4742.00    1.31306   1.29086   99.623
 4743.00    1.31110   1.29457   99.822
 4744.00    1.31907   1.29896   99.526
 4745.00    1.32345   1.30373   98.630
 4746.00    1.32077   1.30883   97.979
 4747.00    1.32765   1.31425   97.963
 4748.00    1.33638   1.31930   98.086
 4749.00    1.31638   1.32339   98.441
 4750.00    1.29205   1.32583   -1.000
 4751.00    1.28937   1.32624   -1.000
 4752.00    1.28677   1.32454   -1.000
 4753.00    1.28280   1.32140   -1.000
 4754.00    1.29283   1.31824  101.481
 4755.00    1.29113   1.31629  102.063
 4756.00    1.27905   1.31593   -1.000
 4757.00    1.28976   1.31657   -1.000
 4758.00    1.30687   1.31696  101.607
 4759.00    1.30410   1.31592  102.249
 4760.00    1.28595   1.31256   -1.000
 4761.00    1.27580   1.30677   -1.000
 4762.00    1.26473   1.29958   -1.000
 4763.00    1.24889   1.29296   -1.000
 4764.00    1.25135   1.28899   -1.000
 4765.00    1.26168   1.28898   -1.000
 4766.00    1.27212   1.29303  103.641
 4767.00    1.29843   1.30016  101.673
 4768.00    1.31031   1.30861  101.017
 4769.00    1.31326   1.31607  101.555
 4770.00    1.32064   1.32084  102.459
 4771.00    1.31899   1.32276  102.402
 4772.00    1.31777   1.32349  100.674
 4773.00    1.31437   1.32511   99.160
 4774.00    1.30940   1.32825   98.880
 4775.00    1.31413   1.33176   99.080
 4776.00    1.32720   1.33402   99.542
 4777.00    1.32221   1.33417  100.424
 4778.00    1.29745   1.33237   -1.000
 4779.00    1.28493   1.32945   -1.000
 4780.00    1.29404   1.32629   -1.000
 4781.00    1.30584   1.32347  102.761
 4782.00    1.30722   1.32090  103.200
 4783.00    1.29358   1.31839   -1.000
 4784.00    1.30855   1.31591  103.986
 4785.00    1.31564   1.31361  104.846
 4786.00    1.30278   1.31181  105.106
 4787.00    1.29959   1.31105  104.785
 4788.00    1.29235   1.31190  104.195
 4789.00    1.28647   1.31494   -1.000
 4790.00    1.28606   1.32048   -1.000
 4791.00    1.31431   1.32850   99.977
 4792.00    1.32759   1.33788   97.967
 4793.00    1.32921   1.34710   96.918
 4794.00    1.35780   1.35411   97.223
 4795.00    1.34937   1.35736   98.704
 4796.00    1.32286   1.35651   -1.000
 4797.00    1.32195   1.35250   -1.000
 4798.00    1.31881   1.34787   -1.000
 4799.00    1.33013   1.34520  100.912
 4800.00    1.34990   1.34615   99.107
 4801.00    1.33510   1.34961   98.437
 4802.00    1.31577   1.35302   -1.000
 4803.00    1.32258   1.35318   -1.000
 4804.00    1.32761   1.34969  101.634
 4805.00    1.31561   1.34448   -1.000
 4806.00    1.31226   1.34048   -1.000
 4807.00    1.32324   1.33945  101.577
 4808.00    1.33729   1.34134  100.894
 4809.00    1.34342   1.34472  100.053
 4810.00    1.33102   1.34835   99.439
 4811.00    1.33077   1.35182   99.130
 4812.00    1.33915   1.35528   98.977
 4813.00    1.34285   1.35908   98.676
 4814.00    1.34807   1.36297   98.191
 4815.00    1.34248   1.36659   97.567
 4816.00    1.33887   1.36957   -1.000
 4817.00    1.35379   1.37162   96.843
 4818.00    1.36274   1.37231   96.838
 4819.00    1.35392   1.37114   97.243
 4820.00    1.33873   1.36745   -1.000
 4821.00    1.32704   1.36095   -1.000
 4822.00    1.33500   1.35240  102.173
 4823.00    1.32739   1.34400  101.140
 4824.00    1.30440   1.33854   -1.000
 4825.00    1.30071   1.33732   -1.000
 4826.00    1.31563   1.33915   99.634
 4827.00    1.32289   1.34130  100.574
 4828.00    1.32333   1.34183  100.871
 4829.00    1.31262   1.34049   -1.000
 4830.00    1.29321   1.33846   -1.000
 4831.00    1.29735   1.33669   -1.000
 4832.00    1.31967   1.33620   99.624
 4833.00    1.34092   1.33697   98.766
 4834.00    1.32439   1.33883   98.681
 4835.00    1.31296   1.34068   -1.000
 4836.00    1.32088   1.34153   99.909
 4837.00    1.31592   1.34088   -1.000
 4838.00    1.31524   1.33875  102.505
 4839.00    1.31778   1.33582  102.378
 4840.00    1.31940   1.33301  102.011
 4841.00    1.32318   1.33081  101.369
 4842.00    1.32518   1.32926  100.481
 4843.00    1.32742   1.32858   99.189
 4844.00    1.32598   1.32871   98.115
 4845.00    1.32160   1.32934   98.828
 4846.00    1.33018   1.32915  100.665
 4847.00    1.33082   1.32700  101.425
 4848.00    1.32730   1.32305  100.687
 4849.00    1.31074   1.31846   99.797
 4850.00    1.28797   1.31381   -1.000
 4851.00    1.28498   1.30836  100.714
 4852.00    1.27939   1.30019  102.606
 4853.00    1.27547   1.28773  105.674
 4854.00    1.26998   1.27071  107.112
 4855.00    1.24867   1.24993  106.368
 4856.00    1.22293   1.22519  107.161
 4857.00    1.20207   1.19193  113.140
 4858.00    1.17470   1.14606  124.783
 4859.00    1.12375   1.08712   -1.000
 4860.00    1.05268   1.02912  134.501
 4861.00    0.97332   0.99196   -1.000
 4862.00    0.93356   0.99277   -1.000
 4863.00    0.98904   1.03068   -1.000
 4864.00    1.10040   1.08961  106.328
 4865.00    1.17348   1.14972  104.734
 4866.00    1.20046   1.19813  104.055
 4867.00    1.21550   1.23154  104.270
 4868.00    1.22880   1.25128  106.191
 4869.00    1.23331   1.25962   -1.000
 4870.00    1.21735   1.25989   -1.000
 4871.00    1.18989   1.25747   -1.000
 4872.00    1.20904   1.25841   -1.000
 4873.00    1.25109   1.26598  104.012
 4874.00    1.27490   1.27866  103.345
 4875.00    1.28096   1.29248  102.893
 4876.00    1.27528   1.30435   -1.000
 4877.00    1.27313   1.31401   -1.000
 4878.00    1.28373   1.32272   -1.000
 4879.00    1.29265   1.33077   -1.000
 4880.00    1.29839   1.33709   -1.000
 4881.00    1.30078   1.33971   -1.000
 4882.00    1.29827   1.33900   -1.000
 4883.00    1.29885   1.33641   -1.000
 4884.00    1.28971   1.33374   -1.000
 4885.00    1.28429   1.33178   -1.000
 4886.00    1.28736   1.33005   -1.000
 4887.00    1.28703   1.32769   -1.000
 4888.00    1.28089   1.32349   -1.000
 4889.00    1.26781   1.31809   -1.000
 4890.00    1.25521   1.31388   -1.000
 4891.00    1.24767   1.31516   -1.000
 4892.00    1.27216   1.32523   -1.000
 4893.00    1.32890   1.34282   95.141
 4894.00    1.35200   1.36371   94.025
 4895.00    1.37141   1.38209   93.921
 4896.00    1.39002   1.39436   95.030
 4897.00    1.37397   1.39946   97.236
 4898.00    1.35493   1.39841   -1.000
 4899.00    1.34637   1.39331   -1.000
 4900.00    1.35001   1.38664   -1.000
 4901.00    1.34735   1.38059   -1.000
 4902.00    1.33719   1.37650   -1.000
 4903.00    1.34063   1.37548   -1.000
 4904.00    1.34597   1.37799   -1.000
 4905.00    1.35219   1.38323   -1.000
 4906.00    1.34912   1.38816   -1.000
 4907.00    1.33488   1.38949   -1.000
 4908.00    1.32555   1.38616   -1.000
 4909.00    1.31075   1.37960   -1.000
 4910.00    1.30387   1.37333   -1.000
 4911.00    1.31912   1.37041   -1.000
 4912.00    1.33419   1.37204   -1.000
 4913.00    1.33294   1.37686   -1.000
 4914.00    1.33289   1.38195   -1.000
 4915.00    1.33005   1.38308   -1.000
 4916.00    1.32249   1.37688   -1.000
 4917.00    1.31664   1.36163   -1.000
 4918.00    1.29082   1.33985   -1.000
 4919.00    1.26278   1.31764   -1.000
 4920.00    1.24592   1.30200   -1.000
 4921.00    1.25540   1.29735   -1.000
 4922.00    1.28371   1.30263  103.597
 4923.00    1.30474   1.31388  102.917
 4924.00    1.30864   1.32759  100.881
 4925.00    1.30402   1.34264   -1.000
 4926.00    1.32762   1.35886   -1.000
 4927.00    1.36716   1.37501   96.520
 4928.00    1.37242   1.38904   95.902
 4929.00    1.35049   1.39826   -1.000
 4930.00    1.34798   1.40065   -1.000
 4931.00    1.36220   1.39550   -1.000
 4932.00    1.36274   1.38442  103.045
 4933.00    1.33355   1.37120   -1.000
 4934.00    1.30293   1.36050   -1.000
 4935.00    1.29409   1.35399   -1.000
 4936.00    1.29281   1.34998   -1.000
 4937.00    1.31426   1.34614   -1.000
 4938.00    1.33119   1.34290  104.276
 4939.00    1.32709   1.34385  100.771
 4940.00    1.32808   1.35174   98.227
 4941.00    1.35128   1.36609   96.895
 4942.00    1.37227   1.38232   96.502
 4943.00    1.37360   1.39580   96.900
 4944.00    1.37546   1.40397   97.365
 4945.00    1.37864   1.40752   97.018
 4946.00    1.36979   1.40913   -1.000
 4947.00    1.35295   1.41115   -1.000
 4948.00    1.35660   1.41448   -1.000
 4949.00    1.37389   1.41806   -1.000
 4950.00    1.38957   1.42041   95.571
 4951.00    1.39322   1.42033   96.458
 4952.00    1.38206   1.41679   -1.000
 4953.00    1.37376   1.40886   -1.000
 4954.00    1.35994   1.39496   -1.000
 4955.00    1.33266   1.37509   -1.000
 4956.00    1.31019   1.35280   -1.000
 4957.00    1.30371   1.33547   -1.000
 4958.00    1.31393   1.33105  100.042
 4959.00    1.34283   1.34086   97.983
 4960.00    1.36521   1.35975   97.882
 4961.00    1.37735   1.37882   98.524
 4962.00    1.36448   1.39150   -1.000
 4963.00    1.34934   1.39567   -1.000
 4964.00    1.36497   1.39285   -1.000
 4965.00    1.36794   1.38629  103.582
 4966.00    1.36008   1.37971  103.418
 4967.00    1.34801   1.37576   -1.000
 4968.00    1.34583   1.37567   -1.000
 4969.00    1.36132   1.37939  100.832
 4970.00    1.36267   1.38584   99.686
 4971.00    1.36603   1.39326   -1.000
 4972.00    1.37197   1.40008   -1.000
 4973.00    1.35801   1.40486   -1.000
 4974.00    1.35169   1.40672   -1.000
 4975.00    1.36247   1.40564   -1.000
 4976.00    1.37135   1.40196   -1.000
 4977.00    1.37292   1.39599  103.175
 4978.00    1.36486   1.38811  104.536
 4979.00    1.34046   1.37779   -1.000
 4980.00    1.32199   1.36447   -1.000
 4981.00    1.30904   1.34940   -1.000
 4982.00    1.28353   1.33553   -1.000
 4983.00    1.27645   1.32738   -1.000
 4984.00    1.29586   1.32800   -1.000
 4985.00    1.31874   1.33693  102.269
 4986.00    1.33202   1.35087  101.084
 4987.00    1.33867   1.36495  101.930
 4988.00    1.34811   1.37445  103.229
 4989.00    1.36293   1.37774  103.765
 4990.00    1.36532   1.37637  103.292
 4991.00    1.35425   1.37385  102.603
 4992.00    1.33662   1.37340   -1.000
 4993.00    1.32429   1.37578   -1.000
 4994.00    1.34195   1.38017   -1.000
 4995.00    1.35799   1.38442  101.630
 4996.00    1.35130   1.38606   -1.000
 4997.00    1.35225   1.38300   -1.000
 4998.00    1.34580   1.37515   -1.000
 4999.00    1.32099   1.36438   -1.000
 5000.00    1.31117   1.35489   -1.000
 5001.00    1.31167   1.34927   -1.000
 5002.00    1.30555   1.34714   -1.000
 5003.00    1.29030   1.34577   -1.000
 5004.00    1.29704   1.34212   -1.000
 5005.00    1.31786   1.33651  108.547
 5006.00    1.31644   1.33225  105.490
 5007.00    1.29481   1.33326   -1.000
 5008.00    1.28306   1.33909   -1.000
 5009.00    1.29572   1.34570   -1.000
 5010.00    1.30684   1.34819   -1.000
 5011.00    1.31712   1.34386   -1.000
 5012.00    1.30417   1.33482   -1.000
 5013.00    1.28275   1.32526   -1.000
 5014.00    1.28624   1.31945   -1.000
 5015.00    1.28712   1.31846   -1.000
 5016.00    1.28416   1.32080   -1.000
 5017.00    1.29378   1.32441   -1.000
 5018.00    1.30280   1.32863   -1.000
 5019.00    1.30959   1.33449   -1.000
 5020.00    1.32279   1.34157  106.670
 5021.00    1.33171   1.34920  106.458
 5022.00    1.33196   1.35669   -1.000
 5023.00    1.33942   1.36403  104.648
 5024.00    1.33594   1.37106   -1.000
 5025.00    1.34004   1.37689   -1.000
 5026.00    1.37359   1.38050  104.835
 5027.00    1.38687   1.38228  103.310
 5028.00    1.38248   1.38402  101.595
 5029.00    1.38056   1.38731  100.045
 5030.00    1.37780   1.39260   98.664
 5031.00    1.37158   1.39859   98.216
 5032.00    1.36818   1.40280   -1.000
 5033.00    1.37900   1.40258  103.624
 5034.00    1.38523   1.39714  106.511
 5035.00    1.36172   1.38760   -1.000
 5036.00    1.32807   1.37657   -1.000
 5037.00    1.32060   1.36521   -1.000
 5038.00    1.32313   1.35262   -1.000
 5039.00    1.31234   1.33901   -1.000
 5040.00    1.28695   1.32707   -1.000
 5041.00    1.27097   1.32273   -1.000
 5042.00    1.28958   1.33014   -1.000
 5043.00    1.35754   1.34828   99.808
 5044.00    1.17091   1.37174   -1.000
 5045.00    0.46356   1.39283   -1.000
 5046.00   -0.01102   1.40550    0.000
 5047.00    0.09192   1.40725   -1.000
 5048.00    0.61461   1.39946   -1.000
 5049.00    1.17736   1.38707   -1.000
 5050.00    1.34044   1.37610   -1.000
 5051.00    1.32633   1.37165   -1.000
 5052.00    1.32485   1.37560   -1.000
 5053.00    1.36138   1.38647   98.590
 5054.00    1.39063   1.40009   97.998
 5055.00    1.39492   1.41251   97.958
 5056.00    1.40568   1.42174   98.148
 5057.00    1.41460   1.42758   98.212
 5058.00    1.42294   1.43133   97.828
 5059.00    1.42819   1.43383   97.537
 5060.00    1.41469   1.43497   98.281
 5061.00    1.40287   1.43362   -1.000
 5062.00    1.40520   1.42815  103.771
 5063.00    1.39937   1.41850  106.150
 5064.00    1.37039   1.40663   -1.000
 5065.00    1.35986   1.39622   -1.000
 5066.00    1.36338   1.38995   -1.000
 5067.00    1.36532   1.38811  103.148
 5068.00    1.36609   1.38949  102.550
 5069.00    1.36685   1.39223  102.683
 5070.00    1.37359   1.39470  103.536
 5071.00    1.38794   1.39583  103.211
 5072.00    1.38846   1.39561  102.152
 5073.00    1.37560   1.39475  101.722
 5074.00    1.37372   1.39350  101.628
 5075.00    1.37545   1.39158  102.129
 5076.00    1.37050   1.38769  104.529
 5077.00    1.35871   1.38058  108.962
 5078.00    1.35211   1.37055  112.061
 5079.00    1.34259   1.36026  111.265
 5080.00    1.31634   1.35354   -1.000
 5081.00    1.31117   1.35242   -1.000
 5082.00    1.33396   1.35674  105.234
 5083.00    1.34017   1.36527  103.332
 5084.00    1.36136   1.37627  102.132
 5085.00    1.38777   1.38766  101.745
 5086.00    1.38316   1.39774  101.411
 5087.00    1.39303   1.40549  100.768
 5088.00    1.40696   1.41104  100.130
 5089.00    1.40654   1.41548   99.599
 5090.00    1.39806   1.41969   98.731
 5091.00    1.47250   1.42423   -1.000
 5092.00    1.64434   1.42868   -1.000
 5093.00    1.57167   1.43132   -1.000
 5094.00    1.41932   1.43053  101.523
 5095.00    1.39529   1.42497   -1.000
 5096.00    1.37516   1.41537   -1.000
 5097.00    1.38163   1.40438  107.389
 5098.00    1.36688   1.39529   -1.000
 5099.00    1.35045   1.39167   -1.000
 5100.00    1.36362   1.39416   -1.000
 5101.00    1.38887   1.40048  101.226
 5102.00    1.40010   1.40698  102.263
 5103.00    1.39802   1.41027  103.600
 5104.00    1.39343   1.40875  104.886
 5105.00    1.37748   1.40270   -1.000
 5106.00    1.36138   1.39356   -1.000
 5107.00    1.35170   1.38462   -1.000
 5108.00    1.34265   1.37879   -1.000
 5109.00    1.34216   1.37793   -1.000
 5110.00    1.35948   1.38271  102.889
 5111.00    1.37854   1.39214  101.637
 5112.00    1.39456   1.40379  100.578
 5113.00    1.40447   1.41546   99.883
 5114.00    1.41533   1.42565   99.062
 5115.00    1.42043   1.43372   98.126
 5116.00    1.41991   1.43970   97.931
 5117.00    1.41692   1.44322   98.800
 5118.00    1.40658   1.44357   -1.000
 5119.00    1.40865   1.43999   -1.000
 5120.00    1.39727   1.43228   -1.000
 5121.00    1.37983   1.42121   -1.000
 5122.00    1.38324   1.40843   -1.000
 5123.00    1.36800   1.39646   -1.000
 5124.00    1.34689   1.38755   -1.000
 5125.00    1.34796   1.38260   -1.000
 5126.00    1.35564   1.38082   -1.000
 5127.00    1.37014   1.38102  107.074
 5128.00    1.37600   1.38271  106.231
 5129.00    1.36812   1.38600  104.570
 5130.00    1.37799   1.39148  103.307
 5131.00    1.39152   1.39872  102.405
 5132.00    1.38969   1.40635  101.466
 5133.00    1.37963   1.41282   -1.000
 5134.00    1.38061   1.41654   -1.000
 5135.00    1.38775   1.41636   -1.000
 5136.00    1.38708   1.41193  106.173
 5137.00    1.38175   1.40404  106.967
 5138.00    1.35469   1.39536   -1.000
 5139.00    1.33458   1.38874   -1.000
 5140.00    1.32770   1.38581   -1.000
 5141.00    1.33475   1.38618   -1.000
 5142.00    1.33377   1.38864   -1.000
 5143.00    1.32937   1.39241   -1.000
 5144.00    1.34292   1.39654   -1.000
 5145.00    1.36420   1.39965   -1.000
 5146.00    1.37508   1.40119   -1.000
 5147.00    1.36757   1.40118   -1.000
 5148.00    1.36650   1.39954   -1.000
 5149.00    1.37226   1.39640   -1.000
 5150.00    1.37063   1.39204  108.800
 5151.00    1.35803   1.38746   -1.000
 5152.00    1.35689   1.38511   -1.000
 5153.00    1.37509   1.38651  104.809
 5154.00    1.38313   1.39274  102.127
 5155.00    1.36761   1.40347   -1.000
 5156.00    1.38028   1.41653   -1.000
 5157.00    1.42485   1.42902   98.433
 5158.00    1.42752   1.43858   98.633
 5159.00    1.41317   1.44370   -1.000
 5160.00    1.41466   1.44380   -1.000
 5161.00    1.40687   1.43874   -1.000
 5162.00    1.39601   1.42800   -1.000
 5163.00    1.38845   1.40971  110.939
 5164.00    1.37934   1.38155  121.629
 5165.00    1.35018   1.34379  131.892
 5166.00    1.28980   1.30150  133.900
 5167.00    1.22722   1.26544   -1.000
 5168.00    1.19835   1.24339   -1.000
 5169.00    1.22810   1.23607  127.701
 5170.00    1.26757   1.23678   -1.000
 5171.00    1.25861   1.23902  136.979
 5172.00    1.24292   1.24507  125.375
 5173.00    1.25220   1.26074  113.549
 5174.00    1.29312   1.28927  107.261
 5175.00    1.34329   1.32598  104.982
 5176.00    1.39070   1.36120  104.418
 5177.00    1.41490   1.38702  104.955
 5178.00    1.41363   1.39855  107.551
 5179.00    1.41421   1.39468  113.685
 5180.00    1.41540   1.37633   -1.000
 5181.00    1.40697   1.34576   -1.000
 5182.00    1.34966   1.31147   -1.000
 5183.00    1.27560   1.28568  124.973
 5184.00    1.25627   1.28002   -1.000
 5185.00    1.30830   1.29659  106.753
 5186.00    1.35741   1.32585  104.956
 5187.00    1.37481   1.35629  104.373
 5188.00    1.38051   1.37808  104.865
 5189.00    1.36995   1.38767  107.326
 5190.00    1.38027   1.38681  110.547
 5191.00    1.39176   1.37996  111.283
 5192.00    1.36981   1.37273  109.701
 5193.00    1.35141   1.36974  107.946
 5194.00    1.34653   1.37245   -1.000
 5195.00    1.37772   1.38031  104.462
 5196.00    1.40231   1.39159  102.538
 5197.00    1.41062   1.40358  101.341
 5198.00    1.43311   1.41429  100.967
 5199.00    1.43580   1.42185  101.428
 5200.00    1.41182   1.42434  102.877
 5201.00    1.40304   1.42000  105.064
 5202.00    1.40349   1.40845  108.019
 5203.00    1.38859   1.39089  111.407
 5204.00    1.37805   1.37043  113.034
 5205.00    1.35951   1.35178  113.480
 5206.00    1.33980   1.33860  114.144
 5207.00    1.33785   1.33274  113.419
 5208.00    1.34969   1.33482  110.460
 5209.00    1.37276   1.34536  106.292
 5210.00    1.38920   1.36370  102.061
 5211.00    1.40273   1.38581   99.204
 5212.00    1.42162   1.40688   99.079
 5213.00    1.44341   1.42159  101.010
 5214.00    1.44510   1.42764  102.744
 5215.00    1.41860   1.42778  102.694
 5216.00    1.40799   1.42712  100.954
 5217.00    1.41063   1.43058   99.130
 5218.00    1.41156   1.43902   98.093
 5219.00    1.43642   1.45007   97.575
 5220.00    1.46178   1.45960   98.187
 5221.00    1.45248   1.46355  100.540
 5222.00    1.45803   1.45897  104.311
 5223.00    1.45984   1.44497  109.010
 5224.00    1.42678   1.42329  112.892
 5225.00    1.39196   1.39917  112.591
 5226.00    1.36029   1.38056  107.649
 5227.00    1.34489   1.37487   -1.000
 5228.00    1.36063   1.38308   99.830
 5229.00    1.40866   1.39954   99.096
 5230.00    1.43932   1.41542  100.289
 5231.00    1.43239   1.42449  102.238
 5232.00    1.43056   1.42616  102.806
 5233.00    1.43363   1.42514  101.213
 5234.00    1.42622   1.42784   98.776
 5235.00    1.42430   1.43639   97.179
 5236.00    1.44968   1.44930   96.731
 5237.00    1.48335   1.46251   96.911
 5238.00    1.49555   1.47228   96.936
 5239.00    1.48670   1.47776   96.503
 5240.00    1.48181   1.47974   96.361
 5241.00    1.49462   1.47993   96.317
 5242.00    1.48817   1.47960   96.136
 5243.00    1.47458   1.47872   97.255
 5244.00    1.48273   1.47622   99.942
 5245.00    1.48912   1.47057  102.620
 5246.00    1.45893   1.46160  103.680
 5247.00    1.43537   1.45133  103.842
 5248.00    1.44849   1.44243  104.329
 5249.00    1.44641   1.43629  104.294
 5250.00    1.42825   1.43375  103.174
 5251.00    1.42200   1.43487  101.971
 5252.00    1.42067   1.43813  101.606
 5253.00    1.42843   1.44264  101.187
 5254.00    1.46122   1.44852   99.414
 5255.00    1.49109   1.45593   -1.000
 5256.00    1.48893   1.46508   95.282
 5257.00    1.48852   1.47386   95.559
 5258.00    1.48794   1.47875   97.563
 5259.00    1.46806   1.47651  101.193
 5260.00    1.45455   1.46502  105.858
 5261.00    1.44564   1.44531  110.077
 5262.00    1.41735   1.42126  112.901
 5263.00    1.36747   1.39725   -1.000
 5264.00    1.33635   1.37752   -1.000
 5265.00    1.33953   1.36374  110.701
 5266.00    1.34811   1.35482  111.434
 5267.00    1.35749   1.34802  115.270
 5268.00    1.35273   1.34072  115.876
 5269.00    1.33744   1.33601  110.568
 5270.00    1.33405   1.33949  105.012
 5271.00    1.34720   1.35377  102.707
 5272.00    1.38665   1.37583  102.436
 5273.00    1.43469   1.39910   -1.000
 5274.00    1.45770   1.41961   -1.000
 5275.00    1.45082   1.43590   98.043
 5276.00    1.44963   1.44970   95.609
 5277.00    1.47130   1.46252   95.345
 5278.00    1.47921   1.47212   97.060
 5279.00    1.46199   1.47557   99.572
 5280.00    1.46130   1.47190  101.690
 5281.00    1.46970   1.46346  102.677
 5282.00    1.48140   1.45484  101.510
 5283.00    1.43554   1.45175   98.716
 5284.00    1.41625   1.45714   -1.000
 5285.00    1.46130   1.47013   94.038
 5286.00    1.50628   1.48644   94.152
 5287.00    1.51434   1.50105   94.360
 5288.00    1.51153   1.51154   93.988
 5289.00    1.52522   1.51708   93.644
 5290.00    1.52898   1.51854   93.929
 5291.00    1.53296   1.51752   94.716
 5292.00    1.51907   1.51457   95.851
 5293.00    1.49771   1.50927   97.970
 5294.00    1.49409   1.50075  101.371
 5295.00    1.48349   1.48846  104.570
 5296.00    1.47251   1.47393  105.144
 5297.00    1.46020   1.46092  103.104
 5298.00    1.45909   1.45335  100.879
 5299.00    1.46872   1.45327   99.807
 5300.00    1.47118   1.45934   98.826
 5301.00    1.48249   1.46930   96.657
 5302.00    1.49050   1.48113   94.541
 5303.00    1.50341   1.49278   93.777
 5304.00    1.52098   1.50287   94.311
 5305.00    1.53533   1.50997   95.201
 5306.00    1.53835   1.51387   95.098
 5307.00    1.53966   1.51578   94.193
 5308.00    1.53759   1.51721   93.442
 5309.00    1.51773   1.51933   93.297
 5310.00    1.52964   1.52149   93.686
 5311.00    1.54847   1.52239   94.147
 5312.00    1.53555   1.52116   94.728
 5313.00    1.52237   1.51714   95.585
 5314.00    1.51963   1.51105   96.478
 5315.00    1.51752   1.50444   96.802
 5316.00    1.51972   1.49918   96.327
 5317.00    1.51260   1.49718   95.787
 5318.00    1.50575   1.49806   95.877
 5319.00    1.50899   1.49991   96.459
 5320.00    1.50518   1.50020   97.440
 5321.00    1.50214   1.49673   98.964
 5322.00    1.49116   1.48861  100.192
 5323.00    1.45959   1.47647  100.472
 5324.00    1.43074   1.46182  102.197
 5325.00    1.45282   1.44461  107.499
 5326.00    1.47412   1.42506   -1.000
 5327.00    1.43899   1.40716   -1.000
 5328.00    1.40346   1.39731  104.588
 5329.00    1.39828   1.40170  100.165
 5330.00    1.43319   1.41897   98.426
 5331.00    1.47975   1.44214   -1.000
 5332.00    1.50367   1.46493   -1.000
 5333.00    1.50450   1.48235   95.769
 5334.00    1.49801   1.49274   96.043
 5335.00    1.49311   1.49735   96.692
 5336.00    1.48142   1.49716   97.598
 5337.00    1.48119   1.49279   99.589
 5338.00    1.48972   1.48507  101.656
 5339.00    1.48432   1.47607  101.705
 5340.00    1.46900   1.46920   99.533
 5341.00    1.46044   1.46796   97.384
 5342.00    1.46967   1.47216   96.799
 5343.00    1.50338   1.47866   97.257
 5344.00    1.53111   1.48426   -1.000
 5345.00    1.49608   1.48636   98.435
 5346.00    1.47833   1.48488   99.180
 5347.00    1.48756   1.48215   99.659
 5348.00    1.49429   1.48036   98.705
 5349.00    1.49741   1.48200   96.620
 5350.00    1.50053   1.48812   95.038
 5351.00    1.51717   1.49727   94.463
 5352.00    1.54094   1.50787   -1.000
 5353.00    1.56261   1.51796   -1.000
 5354.00    1.55751   1.52680   -1.000
 5355.00    1.55879   1.53411   91.786
 5356.00    1.56342   1.53941   91.929
 5357.00    1.54445   1.54260   92.199
 5358.00    1.54552   1.54330   93.032
 5359.00    1.55443   1.54106   94.458
 5360.00    1.54289   1.53610   95.928
 5361.00    1.53651   1.52896   96.845
 5362.00    1.53189   1.52070   97.427
 5363.00    1.50504   1.51237   98.005
 5364.00    1.49709   1.50498   98.005
 5365.00    1.47963   1.49910   97.874
 5366.00    1.46780   1.49385   98.542
 5367.00    1.48570   1.48738  100.536
 5368.00    1.49670   1.47787  103.456
 5369.00    1.48827   1.46574  104.747
 5370.00    1.46576   1.45462  102.188
 5371.00    1.46718   1.45009   97.675
 5372.00    1.46691   1.45631   94.563
 5373.00    1.49047   1.47155   93.383
 5374.00    1.52432   1.49104   -1.000
 5375.00    1.55329   1.50878   -1.000
 5376.00    1.57428   1.52126   -1.000
 5377.00    1.56604   1.52823   -1.000
 5378.00    1.55899   1.53043   -1.000
 5379.00    1.55120   1.52926   95.843
 5380.00    1.53913   1.52576   96.469
 5381.00    1.53248   1.52108   96.568
 5382.00    1.52156   1.51706   96.225
 5383.00    1.51867   1.51522   95.367
 5384.00    1.52707   1.51647   94.887
 5385.00    1.52917   1.52015   95.140
 5386.00    1.53751   1.52391   95.919
 5387.00    1.54554   1.52540   97.227
 5388.00    1.52430   1.52328   98.466
 5389.00    1.52464   1.51758   99.111
 5390.00    1.53220   1.50998   99.268
 5391.00    1.50517   1.50205   99.478
 5392.00    1.49386   1.49453  100.085
 5393.00    1.49244   1.48732  101.234
 5394.00    1.49056   1.47977  103.075
 5395.00    1.49611   1.47159  103.824
 5396.00    1.48673   1.46436  101.672
 5397.00    1.47932   1.46202   98.629
 5398.00    1.49177   1.46625   97.323
 5399.00    1.49549   1.47518   97.325
 5400.00    1.49863   1.48461   97.927
 5401.00    1.47957   1.48960  100.208
 5402.00    1.48402   1.48664  103.483
 5403.00    1.47825   1.47575  105.634
 5404.00    1.45972   1.46130  105.305
 5405.00    1.45279   1.44938  103.335
 5406.00    1.45549   1.44486  102.003
 5407.00    1.45574   1.44740  102.372
 5408.00    1.48531   1.45420   -1.000
 5409.00    1.50586   1.46256   -1.000
 5410.00    1.48881   1.47190   97.803
 5411.00    1.49117   1.48259   96.402
 5412.00    1.50572   1.49342   96.160
 5413.00    1.53441   1.50328   -1.000
 5414.00    1.55065   1.51141   -1.000
 5415.00    1.53935   1.51769   95.087
 5416.00    1.52288   1.52286   95.170
 5417.00    1.51871   1.52698   95.975
 5418.00    1.53426   1.52960   96.685
 5419.00    1.55264   1.53057   96.583
 5420.00    1.54710   1.52949   96.166
 5421.00    1.53781   1.52672   96.974
 5422.00    1.53531   1.52330   98.067
 5423.00    1.51916   1.52004   97.601
 5424.00    1.51222   1.51839   96.075
 5425.00    1.51236   1.51863   95.763
 5426.00    1.50296   1.51859   97.742
 5427.00    1.51121   1.51550  100.824
 5428.00    1.52714   1.50811  101.962
 5429.00    1.51594   1.49899  100.644
 5430.00    1.48770   1.49143  100.000
 5431.00    1.47224   1.48642  101.036
 5432.00    1.48212   1.48341  102.334
 5433.00    1.50169   1.48127  102.422
 5434.00    1.49488   1.48126  100.836
 5435.00    1.47621   1.48577   98.235
 5436.00    1.49247   1.49569   95.961
 5437.00    1.54086   1.51025   -1.000
 5438.00    1.55461   1.52617   -1.000
 5439.00    1.55975   1.54024   93.179
 5440.00    1.56790   1.55024   93.145
 5441.00    1.55334   1.55479   93.833
 5442.00    1.53537   1.55305   95.909
 5443.00    1.53927   1.54417   99.495
 5444.00    1.52242   1.52864  103.091
 5445.00    1.51156   1.50971  103.559
 5446.00    1.49775   1.49354  100.850
 5447.00    1.48049   1.48595   97.834
 5448.00    1.48146   1.48854   96.380
 5449.00    1.51379   1.49836   96.168
 5450.00    1.53665   1.50925   96.773
 5451.00    1.53910   1.51564   98.627
 5452.00    1.53929   1.51447  101.356
 5453.00    1.52534   1.50628  103.792
 5454.00    1.51226   1.49507  103.375
 5455.00    1.50318   1.48744  100.275
 5456.00    1.50036   1.48805   97.267
 5457.00    1.51314   1.49712   96.120
 5458.00    1.53652   1.51008   96.816
 5459.00    1.56306   1.52141   -1.000
 5460.00    1.57847   1.52740   -1.000
 5461.00    1.57582   1.52724   -1.000
 5462.00    1.55638   1.52374   -1.000
 5463.00    1.54113   1.52086   98.773
 5464.00    1.53706   1.52104   98.113
 5465.00    1.53340   1.52428   97.221
 5466.00    1.53466   1.52927   96.595
 5467.00    1.53826   1.53415   97.143
 5468.00    1.54352   1.53743   98.172
 5469.00    1.53781   1.53843   98.717
 5470.00    1.53459   1.53686   99.157
 5471.00    1.54567   1.53301  100.033
 5472.00    1.53421   1.52704  101.358
 5473.00    1.51819   1.51891  103.330
 5474.00    1.52068   1.50911  105.147
 5475.00    1.53724   1.49944   -1.000
 5476.00    1.51390   1.49272  102.254
 5477.00    1.48501   1.49204   99.907
 5478.00    1.49279   1.49713   99.942
 5479.00    1.51186   1.50459  101.131
 5480.00    1.53523   1.51165  101.362
 5481.00    1.55784   1.51716   -1.000
 5482.00    1.54157   1.52184   97.974
 5483.00    1.52999   1.52717   96.787
 5484.00    1.52809   1.53280   97.254
 5485.00    1.52652   1.53739   98.582
 5486.00    1.53646   1.53942   99.408
 5487.00    1.55568   1.53894   99.557
 5488.00    1.56150   1.53736   99.042
 5489.00    1.55760   1.53650   98.304
 5490.00    1.55073   1.53721   97.842
 5491.00    1.54316   1.53903   97.908
 5492.00    1.54007   1.54064   98.014
 5493.00    1.55091   1.54079   98.006
 5494.00    1.54940   1.53883   98.518
 5495.00    1.56700   1.53494   -1.000
 5496.00    1.57020   1.53007   -1.000
 5497.00    1.54869   1.52597   98.049
 5498.00    1.54065   1.52363   98.287
 5499.00    1.53917   1.52204   99.717
 5500.00    1.53732   1.52027  100.310
 5501.00    1.52787   1.51829   99.708
 5502.00    1.51816   1.51663   99.303
 5503.00    1.53687   1.51541  100.243
 5504.00    1.55436   1.51371   -1.000
 5505.00    1.52886   1.51162  100.974
 5506.00    1.50153   1.51056   99.475
 5507.00    1.50096   1.51165   98.707
 5508.00    1.50941   1.51512   99.102
 5509.00    1.53336   1.51872  100.727
 5510.00    1.54245   1.52003  102.523
 5511.00    1.53332   1.51838  103.637
 5512.00    1.52505   1.51468  102.966
 5513.00    1.51442   1.51171  101.249
 5514.00    1.52411   1.51194   99.638
 5515.00    1.53683   1.51634   97.870
 5516.00    1.55559   1.52430   -1.000
 5517.00    1.57209   1.53412   -1.000
 5518.00    1.57939   1.54349   -1.000
 5519.00    1.57249   1.55083   95.845
 5520.00    1.57725   1.55536   96.142
 5521.00    1.58904   1.55743   -1.000
 5522.00    1.58581   1.55727   -1.000
 5523.00    1.56739   1.55441   97.952
 5524.00    1.55641   1.54824   99.989
 5525.00    1.55212   1.53830  102.534
 5526.00    1.53247   1.52629  103.684
 5527.00    1.51333   1.51577  102.122
 5528.00    1.50590   1.51083   99.463
 5529.00    1.51916   1.51328   97.804
 5530.00    1.52806   1.52096   97.652
 5531.00    1.56445   1.52976   -1.000
 5532.00    1.57569   1.53619   -1.000
 5533.00    1.56514   1.53915   -1.000
 5534.00    1.54945   1.53986   98.194
 5535.00    1.55423   1.54076   97.790
 5536.00    1.56717   1.54316   97.430
 5537.00    1.56091   1.54716   96.607
 5538.00    1.56681   1.55207   95.778
 5539.00    1.57054   1.55677   95.617
 5540.00    1.56312   1.56020   96.383
 5541.00    1.56572   1.56171   97.394
 5542.00    1.56516   1.56127   97.837
 5543.00    1.55756   1.55983   97.678
 5544.00    1.56135   1.55865   97.429
 5545.00    1.58143   1.55862   96.920
 5546.00    1.58934   1.56023   -1.000
 5547.00    1.58164   1.56358   95.181
 5548.00    1.57638   1.56789   94.816
 5549.00    1.58406   1.57162   95.152
 5550.00    1.59012   1.57382   95.922
 5551.00    1.59099   1.57405   96.967
 5552.00    1.59277   1.57266   97.611
 5553.00    1.59236   1.57033   97.604
 5554.00    1.58192   1.56814   97.319
 5555.00    1.57015   1.56663   97.113
 5556.00    1.57054   1.56601   96.985
 5557.00    1.58886   1.56610   96.876
 5558.00    1.59918   1.56651   -1.000
 5559.00    1.58278   1.56676   97.441
 5560.00    1.57312   1.56615   98.319
 5561.00    1.56374   1.56432   99.104
 5562.00    1.57112   1.56162   99.479
 5563.00    1.57561   1.55860   99.691
 5564.00    1.57558   1.55562   99.818
 5565.00    1.57085   1.55269   99.683
 5566.00    1.55844   1.54997   99.464
 5567.00    1.54993   1.54745   99.629
 5568.00    1.55117   1.54499   99.663
 5569.00    1.52642   1.54293   99.639
 5570.00    1.48104   1.54121   -1.000
 5571.00    1.30122   1.53966   -1.000
 5572.00    0.56984   1.53923   -1.000
 5573.00   -1.30649   1.54052    0.000
 5574.00   -3.39813   1.54367    0.000
 5575.00   -2.92600   1.54828    0.000
 5576.00    0.28193   1.55355   -1.000
 5577.00    4.39907   1.55876   -1.000
 5578.00    5.37441   1.56315   -1.000
 5579.00    3.45874   1.56601   -1.000
 5580.00    2.03754   1.56689   -1.000
 5581.00    1.65194   1.56591   -1.000
 5582.00    1.55888   1.56298   98.596
 5583.00    1.54977   1.55768  100.416
 5584.00    1.55385   1.54905  102.946
 5585.00    1.53404   1.53704  105.340
 5586.00    1.51506   1.52350  106.517
 5587.00    1.50393   1.51157  105.713
 5588.00    1.50797   1.50461  103.898
 5589.00    1.51147   1.50407  102.323
 5590.00    1.52190   1.50932  101.753
 5591.00    1.53203   1.51744  102.025
 5592.00    1.52935   1.52562  101.678
 5593.00    1.53658   1.53238  100.378
 5594.00    1.55514   1.53769   99.372
 5595.00    1.54745   1.54152   99.907
 5596.00    1.54823   1.54266  101.523
 5597.00    1.55522   1.54063  102.795
 5598.00    1.53803   1.53634  102.982
 5599.00    1.53550   1.53091  103.379
 5600.00    1.53993   1.52600  103.924
 5601.00    1.54407   1.52416  102.732
 5602.00    1.53258   1.52737  100.106
 5603.00    1.52260   1.53596   97.680
 5604.00    1.56199   1.54855   96.278
 5605.00    1.59161   1.56231   -1.000
 5606.00    1.60202   1.57462   -1.000
 5607.00    1.61662   1.58378   -1.000
 5608.00    1.63171   1.58936   -1.000
 5609.00    1.61806   1.59192   -1.000
 5610.00    1.62054   1.59175   -1.000
 5611.00    1.61133   1.58825   97.799
 5612.00    1.58245   1.58059  100.937
 5613.00    1.56091   1.56901  103.608
 5614.00    1.55197   1.55598  103.473
 5615.00    1.54241   1.54631  101.260
 5616.00    1.54077   1.54294   99.585
 5617.00    1.56204   1.54591   99.124
 5618.00    1.59543   1.55270   -1.000
 5619.00    1.59927   1.56027   -1.000
 5620.00    1.57394   1.56608   98.473
 5621.00    1.55118   1.56881  100.108
 5622.00    1.55654   1.56816  102.045
 5623.00    1.58661   1.56533  102.129
 5624.00    1.60025   1.56241   -1.000
 5625.00    1.57809   1.56151   99.072
 5626.00    1.57748   1.56353   97.871
 5627.00    1.57396   1.56790   97.062
 5628.00    1.59306   1.57358   96.702
 5629.00    1.59673   1.57903   96.350
 5630.00    1.60247   1.58302   96.336
 5631.00    1.63000   1.58511   -1.000
 5632.00    1.63790   1.58536   -1.000
 5633.00    1.59893   1.58415   98.326
 5634.00    1.58240   1.58169   99.027
 5635.00    1.60753   1.57828   -1.000
 5636.00    1.60680   1.57460   -1.000
 5637.00    1.59596   1.57135   -1.000
 5638.00    1.58559   1.56883  100.010
 5639.00    1.58325   1.56700  100.141
 5640.00    1.59738   1.56583   -1.000
 5641.00    1.58630   1.56547   99.364
 5642.00    1.57063   1.56616   99.141
 5643.00    1.57948   1.56769   98.569
 5644.00    1.60231   1.56968   -1.000
 5645.00    1.59957   1.57182   -1.000
 5646.00    1.59162   1.57367   97.771
 5647.00    1.60152   1.57513   -1.000
 5648.00    1.60313   1.57639   -1.000
 5649.00    1.60320   1.57776   -1.000
 5650.00    1.59275   1.57950   96.971
 5651.00    1.58847   1.58122   97.229
 5652.00    1.59712   1.58198   97.944
 5653.00    1.59465   1.58068   98.866
 5654.00    1.56970   1.57646  100.571
 5655.00    1.58684   1.56884  103.463
 5656.00    1.58706   1.55853   -1.000
 5657.00    1.56089   1.54822  104.617
 5658.00    1.54816   1.54118  102.392
 5659.00    1.54032   1.53917  101.593
 5660.00    1.56532   1.54176  101.702
 5661.00    1.58174   1.54716   -1.000
 5662.00    1.58630   1.55425   -1.000
 5663.00    1.60229   1.56181   -1.000
 5664.00    1.59768   1.56802   -1.000
 5665.00    1.60549   1.57160   -1.000
 5666.00    1.59514   1.57245  100.014
 5667.00    1.59859   1.57155   -1.000
 5668.00    1.60427   1.57055   -1.000
 5669.00    1.60094   1.57079   -1.000
 5670.00    1.60864   1.57302   -1.000
 5671.00    1.63659   1.57702   -1.000
 5672.00    1.63812   1.58188   -1.000
 5673.00    1.63882   1.58645   -1.000
 5674.00    1.64237   1.59015   -1.000
 5675.00    1.64024   1.59280   -1.000
 5676.00    1.64839   1.59433   -1.000
 5677.00    1.62752   1.59450   -1.000
 5678.00    1.62145   1.59303   -1.000
 5679.00    1.60681   1.58977   98.614
 5680.00    1.60600   1.58484   99.802
 5681.00    1.61506   1.57894   -1.000
 5682.00    1.63336   1.57337   -1.000
 5683.00    1.63643   1.56961   -1.000
 5684.00    1.63405   1.56808   -1.000
 5685.00    1.63855   1.56803   -1.000
 5686.00    1.62907   1.56847   -1.000
 5687.00    1.63234   1.56907   -1.000
 5688.00    1.64363   1.57027   -1.000
 5689.00    1.63249   1.57290   -1.000
 5690.00    1.64250   1.57735   -1.000
 5691.00    1.65075   1.58301   -1.000
 5692.00    1.64365   1.58852   -1.000
 5693.00    1.63974   1.59264   -1.000
 5694.00    1.63011   1.59476   -1.000
 5695.00    1.62078   1.59473   -1.000
 5696.00    1.62059   1.59276   -1.000
 5697.00    1.61951   1.58919   -1.000
 5698.00    1.59016   1.58453  100.814
 5699.00    1.57948   1.57959  101.401
 5700.00    1.58695   1.57524  100.854
 5701.00    1.59283   1.57245   99.819
 5702.00    1.57327   1.57167   99.420
 5703.00    1.54697   1.57210   99.943
 5704.00    1.56798   1.57210  101.248
 5705.00    1.57057   1.57013  103.080
 5706.00    1.56661   1.56541  104.760
 5707.00    1.56358   1.55853  105.547
 5708.00    1.55815   1.55125  105.428
 5709.00    1.55313   1.54600  104.474
 5710.00    1.53984   1.54474  102.490
 5711.00    1.53851   1.54827   99.995
 5712.00    1.55355   1.55583   98.284
 5713.00    1.58386   1.56557   97.749
 5714.00    1.61313   1.57535   -1.000
 5715.00    1.63666   1.58395   -1.000
 5716.00    1.63282   1.59082   -1.000
 5717.00    1.62423   1.59615   -1.000
 5718.00    1.61472   1.60046   95.711
 5719.00    1.63426   1.60426   -1.000
 5720.00    1.63465   1.60759   -1.000
 5721.00    1.62531   1.61019   95.173
 5722.00    1.63197   1.61178   95.341
 5723.00    1.64592   1.61189   -1.000
 5724.00    1.66188   1.61013   -1.000
 5725.00    1.65254   1.60666   -1.000
 5726.00    1.64314   1.60265   -1.000
 5727.00    1.61774   1.59943   96.958
 5728.00    1.60778   1.59779   97.079
 5729.00    1.61613   1.59774   97.560
 5730.00    1.63673   1.59893   -1.000
 5731.00    1.64144   1.60100   -1.000
 5732.00    1.64192   1.60380   -1.000
 5733.00    1.63447   1.60708   -1.000
 5734.00    1.63316   1.61009   -1.000
 5735.00    1.63345   1.61234   -1.000
 5736.00    1.62251   1.61369   96.267
 5737.00    1.62874   1.61413   96.447
 5738.00    1.64211   1.61403   -1.000
 5739.00    1.64440   1.61378   -1.000
 5740.00    1.63391   1.61361   96.659
 5741.00    1.62870   1.61351   96.532
 5742.00    1.62229   1.61381   95.927
 5743.00    1.61692   1.61465   95.361
 5744.00    1.63647   1.61576   95.715
 5745.00    1.64693   1.61646   -1.000
 5746.00    1.63215   1.61639   97.105
 5747.00    1.62557   1.61575   96.672
 5748.00    1.63628   1.61502   -1.000
 5749.00    1.63874   1.61407   -1.000
 5750.00    1.64270   1.61242   -1.000
 5751.00    1.63025   1.60973   -1.000
 5752.00    1.62350   1.60665   99.211
 5753.00    1.63619   1.60477   -1.000
 5754.00    1.61359   1.60559   96.356
 5755.00    1.60177   1.60927   95.100
 5756.00    1.62479   1.61450   95.175
 5757.00    1.63812   1.61923   96.154
 5758.00    1.61721   1.62131   97.405
 5759.00    1.63458   1.61995   98.733
 5760.00    1.66905   1.61611   -1.000
 5761.00    1.64353   1.61208   -1.000
 5762.00    1.61497   1.61035   96.838
 5763.00    1.62652   1.61221   95.553
 5764.00    1.62780   1.61696   95.129
 5765.00    1.63220   1.62258   95.019
 5766.00    1.63492   1.62746   94.870
 5767.00    1.62750   1.63052   95.005
 5768.00    1.63317   1.63158   95.310
 5769.00    1.62659   1.63095   95.810
 5770.00    1.64701   1.62939   96.402
 5771.00    1.65601   1.62723   -1.000
 5772.00    1.64302   1.62470   96.830
 5773.00    1.63416   1.62192   96.677
 5774.00    1.63887   1.61920   96.227
 5775.00    1.60433   1.61683   96.067
 5776.00    1.56844   1.61451   -1.000
 5777.00    1.55999   1.61157   -1.000
 5778.00    1.57049   1.60738   99.669
 5779.00    1.55220   1.60179   -1.000
 5780.00    1.54231   1.59542   -1.000
 5781.00    1.56082   1.58952  100.784
 5782.00    1.59816   1.58539  100.417
 5783.00    1.61811   1.58358   -1.000
 5784.00    1.61356   1.58414   -1.000
 5785.00    1.62180   1.58681   -1.000
 5786.00    1.61559   1.59101   -1.000
 5787.00    1.59470   1.59582   96.892
 5788.00    1.61966   1.60052   97.297
 5789.00    1.63913   1.60457   -1.000
 5790.00    1.64839   1.60815   -1.000
 5791.00    1.64774   1.61195   -1.000
 5792.00    1.62763   1.61648   95.252
 5793.00    1.61369   1.62142   95.106
 5794.00    1.61384   1.62579   95.588
 5795.00    1.62469   1.62864   96.208
 5796.00    1.63921   1.62976   95.919
 5797.00    1.65076   1.63020   -1.000
 5798.00    1.64432   1.63132   93.484
 5799.00    1.65831   1.63369   -1.000
 5800.00    1.68345   1.63676   -1.000
 5801.00    1.68801   1.63936   -1.000
 5802.00    1.67163   1.64046   -1.000
 5803.00    1.66768   1.63993   -1.000
 5804.00    1.64249   1.63862   95.625
 5805.00    1.64489   1.63757   95.273
 5806.00    1.66302   1.63752   -1.000
 5807.00    1.67873   1.63843   -1.000
 5808.00    1.67310   1.63991   -1.000
 5809.00    1.68118   1.64143   -1.000
 5810.00    1.67420   1.64252   -1.000
 5811.00    1.67355   1.64272   -1.000
 5812.00    1.66333   1.64176   -1.000
 5813.00    1.67511   1.63973   -1.000
 5814.00    1.69060   1.63721   -1.000
 5815.00    1.68846   1.63529   -1.000
 5816.00    1.66084   1.63506   -1.000
 5817.00    1.65653   1.63670   93.557
 5818.00    1.67947   1.63958   -1.000
 5819.00    1.68128   1.64272   -1.000
 5820.00    1.69099   1.64537   -1.000
 5821.00    1.70204   1.64708   -1.000
 5822.00    1.69922   1.64785   -1.000
 5823.00    1.69138   1.64810   -1.000
 5824.00    1.69046   1.64834   -1.000
 5825.00    1.69461   1.64899   -1.000
 5826.00    1.70197   1.65011   -1.000
 5827.00    1.69756   1.65159   -1.000
 5828.00    1.71637   1.65305   -1.000
 5829.00    1.71430   1.65401   -1.000
 5830.00    1.69886   1.65420   -1.000
 5831.00    1.68594   1.65359   -1.000
 5832.00    1.69296   1.65235   -1.000
 5833.00    1.68577   1.65085   -1.000
 5834.00    1.68972   1.64965   -1.000
 5835.00    1.70021   1.64918   -1.000
 5836.00    1.69342   1.64948   -1.000
 5837.00    1.70605   1.65049   -1.000
 5838.00    1.72225   1.65201   -1.000
 5839.00    1.71844   1.65373   -1.000
 5840.00    1.70793   1.65514   -1.000
 5841.00    1.69989   1.65574   -1.000
 5842.00    1.68466   1.65511   -1.000
 5843.00    1.67302   1.65324   -1.000
 5844.00    1.67516   1.65047   -1.000
 5845.00    1.68285   1.64728   -1.000
 5846.00    1.68776   1.64415   -1.000
 5847.00    1.70288   1.64134   -1.000
 5848.00    1.68785   1.63868   -1.000
 5849.00    1.66020   1.63566   -1.000
 5850.00    1.68079   1.63167   -1.000
 5851.00    1.68073   1.62658   -1.000
 5852.00    1.66503   1.62093   -1.000
 5853.00    1.65882   1.61538   -1.000
 5854.00    1.65231   1.60997   -1.000
 5855.00    1.65137   1.60452   -1.000
 5856.00    1.65019   1.59966   -1.000
 5857.00    1.66941   1.59682   -1.000
 5858.00    1.67429   1.59716   -1.000
 5859.00    1.66905   1.60062   -1.000
 5860.00    1.66940   1.60601   -1.000
 5861.00    1.68043   1.61180   -1.000
 5862.00    1.65567   1.61650   -1.000
 5863.00    1.64570   1.61927   -1.000
 5864.00    1.65264   1.62009   -1.000
 5865.00    1.69491   1.61985   -1.000
 5866.00    1.72346   1.61997   -1.000
 5867.00    1.69354   1.62152   -1.000
 5868.00    1.68671   1.62452   -1.000
 5869.00    1.69656   1.62819   -1.000
 5870.00    1.70051   1.63133   -1.000
 5871.00    1.71783   1.63310   -1.000
 5872.00    1.71975   1.63323   -1.000
 5873.00    1.68495   1.63199   -1.000
 5874.00    1.70695   1.62985   -1.000
 5875.00    1.71750   1.62718   -1.000
 5876.00    1.68210   1.62398   -1.000
 5877.00    1.67193   1.62013   -1.000
 5878.00    1.67885   1.61583   -1.000
 5879.00    1.67624   1.61153   -1.000
 5880.00    1.66839   1.60758   -1.000
 5881.00    1.66317   1.60388   -1.000
 5882.00    1.64629   1.59970   -1.000
 5883.00    1.57958   1.59383   97.675
 5884.00    1.43409   1.58453   -1.000
 5885.00    1.10718   1.56957   -1.000
 5886.00    0.70698   1.54693   -1.000
 5887.00    0.85222   1.51679   -1.000
 5888.00    1.05210   1.48418   -1.000
 5889.00    1.45931   1.45722  115.609
 5890.00    1.85354   1.44209   -1.000
 5891.00    1.58327   1.43920   -1.000
 5892.00    1.08488   1.44333   -1.000
 5893.00    0.90521   1.44823   -1.000
 5894.00    1.11040   1.45082   -1.000
 5895.00    1.54363   1.45344   -1.000
 5896.00    1.67066   1.46053   -1.000
 5897.00    1.65206   1.47449   -1.000
 5898.00    1.67558   1.49466   -1.000
 5899.00    1.65918   1.51804   -1.000
 5900.00    1.66058   1.54088   -1.000
 5901.00    1.65856   1.56026   -1.000
 5902.00    1.66191   1.57502   -1.000
 5903.00    1.67352   1.58545   -1.000
 5904.00    1.68573   1.59255   -1.000
 5905.00    1.70296   1.59737   -1.000
 5906.00    1.70868   1.60089   -1.000
 5907.00    1.68608   1.60372   -1.000
 5908.00    1.67062   1.60601   -1.000
 5909.00    1.67781   1.60748   -1.000
 5910.00    1.66107   1.60755   -1.000
 5911.00    1.63629   1.60577   -1.000
 5912.00    1.64834   1.60218   -1.000
 5913.00    1.67669   1.59766   -1.000
 5914.00    1.68359   1.59362   -1.000
 5915.00    1.69567   1.59131   -1.000
 5916.00    1.66883   1.59126   -1.000
 5917.00    1.65343   1.59319   -1.000
 5918.00    1.67418   1.59623   -1.000
 5919.00    1.68589   1.59943   -1.000
 5920.00    1.66769   1.60220   -1.000
 5921.00    1.68637   1.60441   -1.000
 5922.00    1.69789   1.60635   -1.000
 5923.00    1.68611   1.60850   -1.000
 5924.00    1.69723   1.61088   -1.000
 5925.00    1.70548   1.61313   -1.000
 5926.00    1.68766   1.61459   -1.000
 5927.00    1.68628   1.61482   -1.000
 5928.00    1.67892   1.61408   -1.000
 5929.00    1.65443   1.61320   -1.000
 5930.00    1.65281   1.61286   -1.000
 5931.00    1.68762   1.61309   -1.000
 5932.00    1.73019   1.61351   -1.000
 5933.00    1.70639   1.61380   -1.000
 5934.00    1.71139   1.61407   -1.000
 5935.00    1.68530   1.61463   -1.000
 5936.00    1.67685   1.61544   -1.000
 5937.00    1.66527   1.61604   -1.000
 5938.00    1.68495   1.61578   -1.000
 5939.00    1.67640   1.61445   -1.000
 5940.00    1.65617   1.61246   -1.000
 5941.00    1.70267   1.61071   -1.000
 5942.00    1.70171   1.61017   -1.000
 5943.00    1.68881   1.61104   -1.000
 5944.00    1.67614   1.61271   -1.000
 5945.00    1.68393   1.61425   -1.000
 5946.00    1.71421   1.61492   -1.000
 5947.00    1.68900   1.61476   -1.000
 5948.00    1.66911   1.61437   -1.000
 5949.00    1.65288   1.61409   -1.000
 5950.00    1.63093   1.61403   99.321
 5951.00    1.63674   1.61406   -1.000
 5952.00    1.67157   1.61398   -1.000
 5953.00    1.69791   1.61358   -1.000
 5954.00    1.68882   1.61276   -1.000
 5955.00    1.67685   1.61189   -1.000
 5956.00    1.67696   1.61171   -1.000
 5957.00    1.67416   1.61295   -1.000
 5958.00    1.69542   1.61581   -1.000
 5959.00    1.71230   1.61986   -1.000
 5960.00    1.70516   1.62417   -1.000
 5961.00    1.69205   1.62765   -1.000
 5962.00    1.69117   1.62955   -1.000
 5963.00    1.69131   1.62973   -1.000
 5964.00    1.67030   1.62871   -1.000
 5965.00    1.66196   1.62751   -1.000
 5966.00    1.67246   1.62702   -1.000
 5967.00    1.68735   1.62758   -1.000
 5968.00    1.69042   1.62909   -1.000
 5969.00    1.69271   1.63106   -1.000
 5970.00    1.71615   1.63280   -1.000
 5971.00    1.71560   1.63369   -1.000
 5972.00    1.68267   1.63343   -1.000
 5973.00    1.65997   1.63190   -1.000
 5974.00    1.65872   1.62926   -1.000
 5975.00    1.66532   1.62623   -1.000
 5976.00    1.67798   1.62365   -1.000
 5977.00    1.66720   1.62237   -1.000
 5978.00    1.67665   1.62257   -1.000
 5979.00    1.68435   1.62368   -1.000
 5980.00    1.68939   1.62462   -1.000
 5981.00    1.68708   1.62440   -1.000
 5982.00    1.67931   1.62290   -1.000
 5983.00    1.67372   1.62096   -1.000
 5984.00    1.69108   1.61985   -1.000
 5985.00    1.69025   1.62032   -1.000
 5986.00    1.67177   1.62236   -1.000
 5987.00    1.66243   1.62539   -1.000
 5988.00    1.68614   1.62856   -1.000
 5989.00    1.69446   1.63138   -1.000
 5990.00    1.67173   1.63400   -1.000
 5991.00    1.67495   1.63688   -1.000
 5992.00    1.67458   1.64007   -1.000
 5993.00    1.68381   1.64300   -1.000
 5994.00    1.68244   1.64479   -1.000
 5995.00    1.69004   1.64502   -1.000
 5996.00    1.70030   1.64390   -1.000
 5997.00    1.69553   1.64218   -1.000
 5998.00    1.71580   1.64045   -1.000
 5999.00    1.68958   1.63898   -1.000
 6000.00    1.66308   1.63774   -1.000
 6001.00    1.67764   1.63648   -1.000
 6002.00    1.65976   1.63513   -1.000
 6003.00    1.63659   1.63352   99.071
 6004.00    1.65361   1.63134   -1.000
 6005.00    1.67163   1.62862   -1.000
 6006.00    1.66729   1.62600   -1.000
 6007.00    1.65605   1.62453   -1.000
 6008.00    1.64951   1.62500   -1.000
 6009.00    1.65333   1.62705   -1.000
 6010.00    1.65785   1.62975   -1.000
 6011.00    1.65242   1.63216   -1.000
 6012.00    1.67859   1.63376   -1.000
 6013.00    1.67638   1.63457   -1.000
 6014.00    1.66322   1.63458   -1.000
 6015.00    1.65743   1.63398   -1.000
 6016.00    1.67232   1.63304   -1.000
 6017.00    1.68339   1.63177   -1.000
 6018.00    1.67213   1.63032   -1.000
 6019.00    1.68945   1.62906   -1.000
 6020.00    1.66719   1.62833   -1.000
 6021.00    1.64052   1.62849   99.466
 6022.00    1.66012   1.62983   -1.000
 6023.00    1.68914   1.63244   -1.000
 6024.00    1.70050   1.63610   -1.000
 6025.00    1.68839   1.64031   -1.000
 6026.00    1.67450   1.64458   -1.000
 6027.00    1.67848   1.64849   -1.000
 6028.00    1.68681   1.65172   -1.000
 6029.00    1.70284   1.65431   -1.000
 6030.00    1.69274   1.65642   -1.000
 6031.00    1.68566   1.65832   -1.000
 6032.00    1.70036   1.66026   -1.000
 6033.00    1.70088   1.66216   -1.000
 6034.00    1.70995   1.66363   -1.000
 6035.00    1.72023   1.66413   -1.000
 6036.00    1.72386   1.66331   -1.000
 6037.00    1.72880   1.66125   -1.000
 6038.00    1.71489   1.65849   -1.000
 6039.00    1.69193   1.65598   -1.000
 6040.00    1.69530   1.65442   -1.000
 6041.00    1.69626   1.65418   -1.000
 6042.00    1.70045   1.65566   -1.000
 6043.00    1.69855   1.65862   -1.000
 6044.00    1.68558   1.66235   -1.000
 6045.00    1.68372   1.66606   -1.000
 6046.00    1.69869   1.66911   -1.000
 6047.00    1.70730   1.67105   -1.000
 6048.00    1.71118   1.67182   -1.000
 6049.00    1.69584   1.67151   -1.000
 6050.00    1.67999   1.67027   96.815
 6051.00    1.69999   1.66842   -1.000
 6052.00    1.69830   1.66612   -1.000
 6053.00    1.68342   1.66353   -1.000
 6054.00    1.68791   1.66091   -1.000
 6055.00    1.68818   1.65868   -1.000
 6056.00    1.68657   1.65709   -1.000
 6057.00    1.67878   1.65635   -1.000
 6058.00    1.67352   1.65635   97.274
 6059.00    1.67205   1.65636   97.495
 6060.00    1.61663   1.65548   98.845
 6061.00    1.62065   1.65283  100.772
 6062.00    1.44866   1.64850   -1.000
 6063.00    0.65994   1.64362   -1.000
 6064.00    1.43894   1.64021   -1.000
 6065.00    1.63134   1.64002   74.327
 6066.00    1.61322   1.64356   99.953
 6067.00    1.49198   1.64982   -1.000
 6068.00    1.44448   1.65725   -1.000
 6069.00    0.49240   1.66420   -1.000
 6070.00    1.29933   1.66965   -1.000
 6071.00    1.70987   1.67327   -1.000
 6072.00    1.70484   1.67508   -1.000
 6073.00    1.69920   1.67529   -1.000
 6074.00    1.69976   1.67404   -1.000
 6075.00    1.69753   1.67157   -1.000
 6076.00    1.71115   1.66826   -1.000
 6077.00    1.70344   1.66463   -1.000
 6078.00    1.66971   1.66107   99.243
 6079.00    1.68086   1.65787   -1.000
 6080.00    1.67864   1.65511   -1.000
 6081.00    1.66746   1.65313   99.615
 6082.00    1.66961   1.65211   -1.000
 6083.00    1.66365   1.65207   99.438
 6084.00    1.66423   1.65293   99.156
 6085.00    1.66000   1.65445   98.759
 6086.00    1.67048   1.65604   98.927
 6087.00    1.68371   1.65706   -1.000
 6088.00    1.67490   1.65705   -1.000
 6089.00    1.65674   1.65615   99.917
 6090.00    1.66358   1.65512   99.296
 6091.00    1.66380   1.65478   98.792
 6092.00    1.66751   1.65577   98.235
 6093.00    1.66902   1.65808   97.803
 6094.00    1.67912   1.66120   -1.000
 6095.00    1.69355   1.66441   -1.000
 6096.00    1.70516   1.66686   -1.000
 6097.00    1.69345   1.66763   -1.000
 6098.00    1.67504   1.66572   99.264
 6099.00    1.66439   1.66062  101.665
 6100.00    1.67038   1.65266   -1.000
 6101.00    1.65940   1.64416  102.700
 6102.00    1.65029   1.63793  100.769
 6103.00    1.65299   1.63593   99.225
 6104.00    1.66430   1.63845   -1.000
 6105.00    1.68379   1.64435   -1.000
 6106.00    1.67541   1.65170   -1.000
 6107.00    1.67029   1.65872   99.414
 6108.00    1.66945   1.66419   99.203
 6109.00    1.67107   1.66778   98.773
 6110.00    1.68770   1.66988   -1.000
 6111.00    1.69564   1.67120   -1.000
 6112.00    1.70125   1.67216   -1.000
 6113.00    1.69214   1.67283   -1.000
 6114.00    1.66994   1.67286   98.985
 6115.00    1.66822   1.67182   99.144
 6116.00    1.67886   1.66886   99.610
 6117.00    1.66327   1.66284  101.024
 6118.00    1.64975   1.65403  102.349
 6119.00    1.66692   1.64332   -1.000
 6120.00    1.65909   1.63298   -1.000
 6121.00    1.63483   1.62623  101.835
 6122.00    1.63853   1.62477  100.502
 6123.00    1.64302   1.62834  100.425
 6124.00    1.62547   1.63530  100.997
 6125.00    1.63956   1.64328  100.898
 6126.00    1.67855   1.65056   -1.000
 6127.00    1.67356   1.65674   -1.000
 6128.00    1.66589   1.66204   98.930
 6129.00    1.66886   1.66659   98.698
 6130.00    1.65423   1.66987   98.878
 6131.00    1.65544   1.67050   99.793
 6132.00    1.62998   1.66676  102.017
 6133.00    1.60906   1.65762   -1.000
 6134.00    1.60444   1.64398  107.700
 6135.00    1.61937   1.62937  108.097
 6136.00    1.61955   1.61817  105.473
 6137.00    1.59691   1.61311  102.480
 6138.00    1.61232   1.61429  101.284
 6139.00    1.61572   1.61978  101.429
 6140.00    1.61296   1.62758  101.602
 6141.00    1.63390   1.63617  100.610
 6142.00    1.64803   1.64459   99.401
 6143.00    1.65118   1.65211   99.218
 6144.00    1.66523   1.65798   99.664
 6145.00    1.68976   1.66152   -1.000
 6146.00    1.68943   1.66233   -1.000
 6147.00    1.65127   1.66096  101.617
 6148.00    1.66478   1.65854  101.641
 6149.00    1.67513   1.65641   -1.000
 6150.00    1.66462   1.65536  100.572
 6151.00    1.65127   1.65534  100.433
 6152.00    1.65501   1.65559  101.267
 6153.00    1.67531   1.65527   -1.000
 6154.00    1.65362   1.65380  101.881
 6155.00    1.66976   1.65075   -1.000
 6156.00    1.65178   1.64569  103.372
 6157.00    1.64032   1.63789  105.333
 6158.00    1.62047   1.62641  108.516
 6159.00    1.62709   1.61140  111.677
 6160.00    1.60678   1.59489  112.805
 6161.00    1.61920   1.58065   -1.000
 6162.00    1.59758   1.57199   -1.000
 6163.00    1.58687   1.57029  106.439
 6164.00    1.58835   1.57437  105.962
 6165.00    1.60475   1.58137   -1.000
 6166.00    1.60298   1.58800  107.601
 6167.00    1.61170   1.59238  108.700
 6168.00    1.61398   1.59486  107.932
 6169.00    1.61156   1.59712  105.846
 6170.00    1.62977   1.60072   -1.000
 6171.00    1.64210   1.60610   -1.000
 6172.00    1.62854   1.61279  104.521
 6173.00    1.61378   1.61978  104.267
 6174.00    1.63754   1.62600  104.068
 6175.00    1.66260   1.63101   -1.000
 6176.00    1.65135   1.63485  103.274
 6177.00    1.65666   1.63772  102.898
 6178.00    1.66282   1.63999   -1.000
 6179.00    1.67523   1.64203   -1.000
 6180.00    1.66092   1.64390  101.832
 6181.00    1.64880   1.64538  102.034
 6182.00    1.65768   1.64615  102.394
 6183.00    1.66135   1.64573  103.213
 6184.00    1.64899   1.64359  104.346
 6185.00    1.62737   1.63955  105.424
 6186.00    1.63367   1.63363  106.427
 6187.00    1.65211   1.62597   -1.000
 6188.00    1.64914   1.61720   -1.000
 6189.00    1.63699   1.60882   -1.000
 6190.00    1.62342   1.60308  108.087
 6191.00    1.63626   1.60175   -1.000
 6192.00    1.62763   1.60525  103.674
 6193.00    1.61338   1.61238  103.034
 6194.00    1.62822   1.62095  102.882
 6195.00    1.64226   1.62850  103.557
 6196.00    1.63738   1.63333  104.769
 6197.00    1.63799   1.63519  105.621
 6198.00    1.63239   1.63536  105.519
 6199.00    1.62095   1.63553  104.443
 6200.00    1.62115   1.63692  103.126
 6201.00    1.65193   1.63992  102.845
 6202.00    1.66059   1.64396  102.854
 6203.00    1.64789   1.64818  102.677
 6204.00    1.66995   1.65182  102.675
 6205.00    1.68296   1.65445   -1.000
 6206.00    1.66815   1.65586  103.064
 6207.00    1.64152   1.65587  103.527
 6208.00    1.65382   1.65422  104.485
 6209.00    1.66048   1.65067  105.297
 6210.00    1.62862   1.64508  106.335
 6211.00    1.62828   1.63774  107.969
 6212.00    1.64438   1.62961  109.048
 6213.00    1.62377   1.62188  109.329
 6214.00    1.57683   1.61557   -1.000
 6215.00    1.56607   1.61108   -1.000
 6216.00    1.58427   1.60825  108.205
 6217.00    1.59523   1.60665  107.784
 6218.00    1.57551   1.60608  106.983
 6219.00    1.59264   1.60653  107.669
 6220.00    1.53243   1.60792   -1.000
 6221.00    1.51086   1.60995   -1.000
 6222.00    1.65668   1.61229   -1.000
 6223.00    1.66442   1.61446   -1.000
 6224.00    1.65721   1.61589   -1.000
 6225.00    1.64488   1.61585   -1.000
 6226.00    1.62245   1.61352  108.589
 6227.00    1.62926   1.60853  110.401
 6228.00    1.64310   1.60156   -1.000
 6229.00    1.60859   1.59463  111.308
 6230.00    1.57847   1.59020  109.693
 6231.00    1.57196   1.59004  107.608
 6232.00    1.58759   1.59433  105.863
 6233.00    1.57961   1.60148  105.388
 6234.00    1.62631   1.60889  106.109
 6235.00    1.65145   1.61426   -1.000
 6236.00    1.66958   1.61635   -1.000
 6237.00    1.61219   1.61525  109.436
 6238.00    1.62280   1.61200  109.880
 6239.00    1.62657   1.60783  109.835
 6240.00    1.59676   1.60354  110.656
 6241.00    1.61119   1.59951  111.381
 6242.00    1.63850   1.59602   -1.000
 6243.00    1.65527   1.59350   -1.000
 6244.00    1.61066   1.59267  109.481
 6245.00    1.61043   1.59418  108.080
 6246.00    1.60947   1.59788  106.957
 6247.00    1.59203   1.60262  106.860
 6248.00    1.60853   1.60656  107.865
 6249.00    1.61088   1.60789  109.882
 6250.00    1.59718   1.60590  111.225
 6251.00    1.58851   1.60131  111.981
 6252.00    1.57111   1.59566  112.289
 6253.00    1.53870   1.59050   -1.000
 6254.00    1.53311   1.58673   -1.000
 6255.00    1.51820   1.58463   -1.000
 6256.00    1.57333   1.58434  113.781
 6257.00    1.61602   1.58608   -1.000
 6258.00    1.62713   1.59003   -1.000
 6259.00    1.62425   1.59604   -1.000
 6260.00    1.60584   1.60348  107.181
 6261.00    1.60181   1.61112  106.661
 6262.00    1.60989   1.61778  107.524
 6263.00    1.60711   1.62276  108.235
 6264.00    1.61461   1.62604  107.738
 6265.00    1.60745   1.62798  106.950
 6266.00    1.61762   1.62896  107.342
 6267.00    1.62350   1.62933  107.887
 6268.00    1.63375   1.62927  107.738
 6269.00    1.62353   1.62876  107.364
 6270.00    1.61182   1.62758  107.113
 6271.00    1.61133   1.62526  107.401
 6272.00    1.61627   1.62125  108.190
 6273.00    1.61275   1.61522  109.064
 6274.00    1.57193   1.60739   -1.000
 6275.00    1.52443   1.59860   -1.000
 6276.00    1.50724   1.59016   -1.000
 6277.00    1.49474   1.58342   -1.000
 6278.00    1.53841   1.57956   -1.000
 6279.00    1.51550   1.57938   -1.000
 6280.00    1.49326   1.58311   -1.000
 6281.00    1.50516   1.59026   -1.000
 6282.00    1.52401   1.59967   -1.000
 6283.00    1.54093   1.60986   -1.000
 6284.00    1.55402   1.61940   -1.000
 6285.00    1.58530   1.62720   -1.000
 6286.00    1.61773   1.63261  106.256
 6287.00    1.63444   1.63542  106.833
 6288.00    1.64689   1.63587  107.748
 6289.00    1.62819   1.63448  108.548
 6290.00    1.61898   1.63186  108.753
 6291.00    1.60413   1.62857  108.870
 6292.00    1.59704   1.62491  109.065
 6293.00    1.59315   1.62089  109.922
 6294.00    1.57711   1.61657   -1.000
 6295.00    1.58054   1.61230  110.805
 6296.00    1.63364   1.60865   -1.000
 6297.00    1.72496   1.60611   -1.000
 6298.00    1.80538   1.60485   -1.000
 6299.00    1.88292   1.60486   -1.000
 6300.00    1.84853   1.60613   -1.000
 6301.00    1.70118   1.60868   -1.000
 6302.00    1.62099   1.61247  109.164
 6303.00    1.58041   1.61729  107.831
 6304.00    1.57196   1.62280   -1.000
 6305.00    1.60234   1.62849  105.938
 6306.00    1.65992   1.63378   -1.000
 6307.00    1.66410   1.63820   -1.000
 6308.00    1.65472   1.64137  106.982
 6309.00    1.63088   1.64301  107.388
 6310.00    1.61500   1.64309  107.832
 6311.00    1.59880   1.64176   -1.000
 6312.00    1.60288   1.63933  108.943
 6313.00    1.58979   1.63629   -1.000
 6314.00    1.58397   1.63306   -1.000
 6315.00    1.58870   1.63012   -1.000
 6316.00    1.58782   1.62815  109.296
 6317.00    1.59174   1.62783  108.885
 6318.00    1.57118   1.62949   -1.000
 6319.00    1.59262   1.63298  106.504
 6320.00    1.63913   1.63784  106.103
 6321.00    1.64935   1.64335  105.748
 6322.00    1.62959   1.64880  105.170
 6323.00    1.64262   1.65361  104.844
 6324.00    1.65690   1.65750  104.791
 6325.00    1.65495   1.66036  104.255
 6326.00    1.62096   1.66227  104.366
 6327.00    1.61704   1.66349   -1.000
 6328.00    1.61589   1.66435   -1.000
 6329.00    1.65337   1.66504  104.122
 6330.00    1.69750   1.66524   -1.000
 6331.00    1.70619   1.66434   -1.000
 6332.00    1.62407   1.66171  104.504
 6333.00    1.60505   1.65749   -1.000
 6334.00    1.63208   1.65273  107.204
 6335.00    1.64218   1.64899  106.287
 6336.00    1.63469   1.64762  105.201
 6337.00    1.62869   1.64906  104.038
 6338.00    1.64983   1.65261  103.541
 6339.00    1.64821   1.65682  103.032
 6340.00    1.65298   1.66019  103.121
 6341.00    1.65533   1.66185  104.073
 6342.00    1.65639   1.66198  104.208
 6343.00    1.66246   1.66143  103.915
 6344.00    1.67021   1.66135  103.346
 6345.00    1.65146   1.66260  102.616
 6346.00    1.64199   1.66542  102.232
 6347.00    1.67630   1.66938  102.261
 6348.00    1.70628   1.67353   -1.000
 6349.00    1.68396   1.67683  102.133
 6350.00    1.66984   1.67845  102.580
 6351.00    1.67417   1.67799  103.051
 6352.00    1.64320   1.67566  104.255
 6353.00    1.64575   1.67203  105.151
 6354.00    1.65348   1.66776  105.185
 6355.00    1.63396   1.66325  105.497
 6356.00    1.65073   1.65878  106.723
 6357.00    1.64627   1.65448  107.165
 6358.00    1.64304   1.65049  106.720
 6359.00    1.64376   1.64709  106.379
 6360.00    1.66167   1.64470   -1.000
 6361.00    1.71588   1.64379   -1.000
 6362.00    1.74513   1.64464   -1.000
 6363.00    1.76007   1.64729   -1.000
 6364.00    1.74368   1.65141   -1.000
 6365.00    1.69794   1.65642   -1.000
 6366.00    1.67881   1.66145   -1.000
 6367.00    1.67505   1.66579  102.361
 6368.00    1.67332   1.66906  102.440
 6369.00    1.67522   1.67130  102.086
 6370.00    1.69651   1.67293   -1.000
 6371.00    1.69715   1.67438   -1.000
 6372.00    1.67609   1.67581  102.038
 6373.00    1.66980   1.67710  102.261
 6374.00    1.67080   1.67784  102.645
 6375.00    1.63764   1.67765  103.171
 6376.00    1.61116   1.67637   -1.000
 6377.00    1.64282   1.67420  104.271
 6378.00    1.64685   1.67159  104.335
 6379.00    1.64008   1.66915  104.540
 6380.00    1.64075   1.66737  104.508
 6381.00    1.61650   1.66657   -1.000
 6382.00    1.61467   1.66676   -1.000
 6383.00    1.62548   1.66778  104.959
 6384.00    1.62278   1.66927   -1.000
 6385.00    1.64665   1.67082  105.192
 6386.00    1.67276   1.67198  105.530
 6387.00    1.63823   1.67225  106.418
 6388.00    1.60739   1.67108   -1.000
 6389.00    1.60014   1.66815   -1.000
 6390.00    1.58869   1.66372   -1.000
 6391.00    1.58260   1.65887   -1.000
 6392.00    1.58700   1.65511   -1.000
 6393.00    1.58423   1.65357   -1.000
 6394.00    1.55604   1.65440   -1.000
 6395.00    1.54953   1.65639   -1.000
 6396.00    1.53369   1.65787   -1.000
 6397.00    1.53540   1.65775   -1.000
 6398.00    1.53949   1.65652   -1.000
 6399.00    1.51374   1.65576   -1.000
 6400.00    1.49473   1.65705   -1.000
 6401.00    1.51143   1.66097   -1.000
 6402.00    1.51590   1.66658   -1.000
 6403.00    1.52245   1.67192   -1.000
 6404.00    1.53084   1.67529   -1.000
 6405.00    1.49225   1.67597   -1.000
 6406.00    1.47103   1.67454   -1.000
 6407.00    1.47002   1.67215   -1.000
 6408.00    1.45267   1.66980   -1.000
 6409.00    1.43406   1.66815   -1.000
 6410.00    1.42927   1.66739   -1.000
 6411.00    1.43180   1.66750   -1.000
 6412.00    1.41347   1.66840   -1.000
 6413.00    1.38511   1.66993   -1.000
 6414.00    1.39572   1.67161   -1.000
 6415.00    1.40720   1.67267   -1.000
 6416.00    1.36785   1.67234   -1.000
 6417.00    1.37391   1.67031   -1.000
 6418.00    1.37048   1.66720   -1.000
 6419.00    1.35849   1.66439   -1.000
 6420.00    1.35113   1.66340   -1.000
 6421.00    1.33653   1.66523   -1.000
 6422.00    1.32137   1.66978   -1.000
 6423.00    1.31051   1.67591   -1.000
 6424.00    1.30680   1.68191   -1.000
 6425.00    1.29690   1.68602   -1.000
 6426.00    1.29619   1.68703   -1.000
 6427.00    1.28448   1.68476   -1.000
 6428.00    1.24930   1.68015   -1.000
