###################################################################
## OUTPUT of StarlightChains_v04.for    [Cid@UFSC - 01/Apr/2007] ##
###################################################################

## Some input info
NGC6121_a_1.cxt                          [arq_obs]
Base.BC03.S                              [arq_base]
NGC6121_a_1.msk                          [arq_masks]
StCv04.C11.config                        [arq_config]
  150                                    [N_base]
    0                                    [N_YAV_components = # of components with extra extinction!]
    0                                    [i_FitPowerLaw (1/0 = Yes/No)]
-9.99                                    [alpha_PowerLaw]
CCM                                      [red_law_option]
 1.458241                                [q_norm = A(l_norm)/A(V)]

## (Re)Sampling Parameters
 3359.00                                 [l_ini (A)]
 6428.00                                 [l_fin (A)]
    1.00                                 [dl    (A)]     (OBS: dl_cushion =    50.00 A)

## Normalization info
 4020.00                                 [l_norm (A) - for base]
 4010.00                                 [llow_norm (A) - window for f_obs]
 4060.00                                 [lupp_norm (A) - window for f_obs]
2.192402E-14                             [fobs_norm (in input units)]

## S/N
 4730.00                                 [llow_SN (A) - window for S/N]
 4780.00                                 [lupp_SN (A) - window for S/N]
  81.858                                 [S/N in S/N window]
  65.062                                 [S/N in norm. window]
 104.198                                 [S/N_err in S/N window]
  82.818                                 [S/N_err in norm. window]
  1.0000                                 [fscale_chi2]

## etc...
  2147483628                             [idum_orig]
  3070                                   [NOl_eff]
  2130                                   [Nl_eff]
   940    NSIGMA                         [Ntot_cliped & clip_method]
  1900360                                [Nglobal_steps]
   7                                     [N_chains]
  28                                     [NEX0s_base = N_base in EX0s-fits]
 0   0   1      112   2.0   2.032E+02    [Clip-Bug, RC-Crash & Burn-In warning-flags, n_censored_weights, wei_nsig_threshold & wei_limit]
    72     72.466     72.466      0.000  [idt_all, wdt_TotTime, wdt_UsrTime & wdt_SysTime (sec)]

## Synthesis Results - Best model ##

 1.95259E+00                             [chi2/Nl_eff]
     1.16052                             [adev (%)]

    97.91106                             [sum-of-x (%)]
 7.56601E-14                             [Flux_tot (units of input spectrum!)]
 2.30289E-09                             [Mini_tot (???)]
 1.13306E-09                             [Mcor_tot (???)]

 -26.99                                  [v0_min  (km/s)]
  38.35                                  [vd_min  (km/s)]
 0.9380                                  [AV_min  (mag)]
 0.0000                                  [YAV_min (mag)]

# j     x_j(%)      Mini_j(%)     Mcor_j(%)     age_j(yr)     Z_j      (L/M)_j    YAV?  Mstars   component_j        a/Fe...       SSP_chi2r SSP_adev(%)   SSP_AV   SSP_x(%)
  1      0.0000     0.0000E+00    0.0000E+00    1.000000E+06  0.00010  8.160E-03    0   1.0000   age020_m22            0.0000     1.9448E+02    11.3040   4.0000    84.3212
  2      6.8596     4.8366E-03    9.8302E-03    3.160000E+06  0.00010  4.759E-02    0   1.0000   age045_m22            0.0000     1.8199E+01     3.5161   2.3761    95.3441
  3      1.7241     2.9945E-03    5.8318E-03    5.010000E+06  0.00010  1.932E-02    0   0.9582   age055_m22            0.0000     1.2186E+02     9.5296   2.6328    83.2357
  4      0.0000     0.0000E+00    0.0000E+00    6.610000E+06  0.00010  9.973E-03    0   0.9297   age061_m22            0.0000     1.8216E+02    10.7856   4.0000    86.4883
  5      0.0000     0.0000E+00    0.0000E+00    8.710000E+06  0.00010  7.690E-03    0   0.9030   age067_m22            0.0000     1.7236E+02    10.5130   4.0000    86.7616
  6      0.0000     0.0000E+00    0.0000E+00    1.000000E+07  0.00010  6.375E-03    0   0.8902   age070_m22            0.0000     1.7061E+02    10.4681   4.0000    87.2458
  7      0.0000     0.0000E+00    0.0000E+00    1.445000E+07  0.00010  4.874E-03    0   0.8589   age078_m22            0.0000     9.8453E+01     8.2551   4.0000    85.9417
  8      0.0000     0.0000E+00    0.0000E+00    2.512000E+07  0.00010  4.103E-03    0   0.8174   age090_m22            0.0000     4.0895E+01     5.7255   3.7406    88.8411
  9      0.0283     2.5986E-04    4.1354E-04    4.000000E+07  0.00010  3.654E-03    0   0.7830   age104_m22            0.0000     2.5437E+01     4.1600   3.4605    93.3677
 10      0.0000     0.0000E+00    0.0000E+00    5.500000E+07  0.00010  3.093E-03    0   0.7597   age110_m22            0.0000     2.3992E+01     3.8386   3.3687    94.7310
 11      0.0867     1.1970E-03    1.7366E-03    1.015200E+08  0.00010  2.431E-03    0   0.7138   age116_m22            0.0000     2.9124E+01     3.9394   3.0298    97.6176
 12      0.0000     0.0000E+00    0.0000E+00    1.609000E+08  0.00010  1.319E-03    0   0.6775   age120_m22            0.0000     2.7031E+01     3.7292   2.5602    99.7101
 13      0.0000     0.0000E+00    0.0000E+00    2.861200E+08  0.00010  1.075E-03    0   0.6412   age125_m22            0.0000     8.1924E+01     6.3652   2.6570   102.5408
 14      0.0000     0.0000E+00    0.0000E+00    5.088000E+08  0.00010  7.183E-04    0   0.6083   age130_m22            0.0000     1.0505E+02     7.3524   2.4405   103.8678
 15      0.0000     0.0000E+00    0.0000E+00    9.047900E+08  0.00010  4.524E-04    0   0.5785   age135_m22            0.0000     1.0735E+02     7.5077   2.2455   104.9056
 16      0.0000     0.0000E+00    0.0000E+00    1.278050E+09  0.00010  3.018E-04    0   0.5588   age138_m22            0.0000     4.6964E+01     5.0659   1.6992   103.3894
 17      0.0000     0.0000E+00    0.0000E+00    1.434000E+09  0.00010  2.691E-04    0   0.5532   age139_m22            0.0000     3.7442E+01     4.5795   1.5420   102.8046
 18      0.0000     0.0000E+00    0.0000E+00    2.500000E+09  0.00010  1.582E-04    0   0.5296   age150_m22            0.0000     3.0154E+01     4.1356   1.4183   103.7954
 19      0.0000     0.0000E+00    0.0000E+00    4.250000E+09  0.00010  1.007E-04    0   0.5110   age158_m22            0.0000     1.4484E+01     3.0194   1.2602   102.1110
 20      0.0000     0.0000E+00    0.0000E+00    6.250000E+09  0.00010  6.869E-05    0   0.4985   age166_m22            0.0000     5.9755E+00     2.0080   1.1944    99.3981
 21      0.0000     0.0000E+00    0.0000E+00    7.500000E+09  0.00010  5.873E-05    0   0.4931   age171_m22            0.0000     5.4076E+00     1.8942   1.1775    98.9806
 22      0.0000     0.0000E+00    0.0000E+00    1.000000E+10  0.00010  4.481E-05    0   0.4854   age181_m22            0.0000     5.0684E+00     1.8432   1.1405    98.5815
 23      0.0029     2.7650E-03    2.6924E-03    1.300000E+10  0.00010  3.489E-05    0   0.4791   age193_m22            0.0000     4.4394E+00     1.7268   1.0852    97.9848
 24      0.0303     3.3541E-02    3.2490E-02    1.500000E+10  0.00010  3.035E-05    0   0.4766   age201_m22            0.0000     4.0746E+00     1.6562   1.0459    97.7977
 25      5.4968     7.3485E+00    7.0720E+00    1.800000E+10  0.00010  2.510E-05    0   0.4735   age213_m22            0.0000     3.4934E+00     1.5322   0.9770    97.1838
 26      0.0000     0.0000E+00    0.0000E+00    1.000000E+06  0.00040  8.458E-03    0   1.0000   age020_m32            0.0000     1.9835E+02    11.3662   4.0000    85.3562
 27      0.0000     2.9930E-09    6.0831E-09    3.160000E+06  0.00040  3.973E-02    0   1.0000   age045_m32            0.0000     4.5906E+01     5.9831   3.6335    88.9303
 28      0.0000     0.0000E+00    0.0000E+00    5.010000E+06  0.00040  1.935E-02    0   0.9532   age055_m32            0.0000     1.0297E+02     8.8835   3.8411    83.4274
 29      0.0000     0.0000E+00    0.0000E+00    6.610000E+06  0.00040  1.204E-02    0   0.9243   age061_m32            0.0000     1.2580E+02     9.2018   4.0000    85.2683
 30      0.0000     0.0000E+00    0.0000E+00    8.710000E+06  0.00040  9.433E-03    0   0.9001   age067_m32            0.0000     1.1015E+02     8.7116   4.0000    85.5107
 31      0.0000     0.0000E+00    0.0000E+00    1.000000E+07  0.00040  8.053E-03    0   0.8877   age070_m32            0.0000     1.0143E+02     8.4710   4.0000    85.1011
 32      0.0000     0.0000E+00    0.0000E+00    1.445000E+07  0.00040  7.027E-03    0   0.8578   age078_m32            0.0000     5.9525E+01     6.8859   3.5816    87.8887
 33      0.0007     5.2348E-06    8.6881E-06    2.512000E+07  0.00040  4.707E-03    0   0.8166   age090_m32            0.0000     3.5059E+01     5.3241   3.2993    91.6262
 34      0.0000     0.0000E+00    0.0000E+00    4.000000E+07  0.00040  3.714E-03    0   0.7827   age104_m32            0.0000     2.2881E+01     4.0214   3.1102    94.7859
 35      0.0000     0.0000E+00    0.0000E+00    5.500000E+07  0.00040  2.982E-03    0   0.7593   age110_m32            0.0000     2.1974E+01     3.7534   3.0557    95.8491
 36      0.0170     2.6045E-04    3.7812E-04    1.015200E+08  0.00040  2.188E-03    0   0.7143   age116_m32            0.0000     4.0698E+01     4.5251   2.8183    99.6162
 37      0.0000     0.0000E+00    0.0000E+00    1.609000E+08  0.00040  1.690E-03    0   0.6856   age120_m32            0.0000     6.2740E+01     5.4510   2.6201   102.1689
 38      0.0000     0.0000E+00    0.0000E+00    2.861200E+08  0.00040  1.152E-03    0   0.6509   age125_m32            0.0000     8.7746E+01     6.6176   2.4154   103.5029
 39      0.0000     0.0000E+00    0.0000E+00    5.088000E+08  0.00040  7.331E-04    0   0.6182   age130_m32            0.0000     9.8504E+01     7.1523   2.2624   103.9378
 40      0.0000     0.0000E+00    0.0000E+00    9.047900E+08  0.00040  3.960E-04    0   0.5890   age135_m32            0.0000     5.1724E+01     5.4821   1.8011   102.3584
 41      0.0000     0.0000E+00    0.0000E+00    1.278050E+09  0.00040  2.854E-04    0   0.5687   age138_m32            0.0000     3.6945E+01     4.5987   1.4922   104.5601
 42      0.0000     0.0000E+00    0.0000E+00    1.434000E+09  0.00040  2.531E-04    0   0.5632   age139_m32            0.0000     3.5301E+01     4.4669   1.4293   104.5795
 43      8.5190     1.9211E+00    2.1030E+00    2.500000E+09  0.00040  1.488E-04    0   0.5386   age150_m32            0.0000     2.2981E+01     3.6476   1.1707   102.7501
 44     15.8176     5.8442E+00    6.1753E+00    4.250000E+09  0.00040  9.082E-05    0   0.5199   age158_m32            0.0000     5.4098E+00     1.9511   1.0628    99.4427
 45     15.6383     8.2482E+00    8.5094E+00    6.250000E+09  0.00040  6.362E-05    0   0.5076   age166_m32            0.0000     3.8208E+00     1.5782   1.0086    96.2202
 46      1.2664     8.0346E-01    8.2091E-01    7.500000E+09  0.00040  5.289E-05    0   0.5027   age171_m32            0.0000     4.6687E+00     1.7028   0.9728    94.9270
 47      0.0000     0.0000E+00    0.0000E+00    1.000000E+10  0.00040  3.972E-05    0   0.4948   age181_m32            0.0000     5.4318E+00     1.7991   0.9144    93.4879
 48      2.0883     2.1344E+00    2.1126E+00    1.300000E+10  0.00040  3.283E-05    0   0.4870   age193_m32            0.0000     2.7481E+00     1.4131   0.8760    96.1479
 49      3.9649     4.5484E+00    4.4873E+00    1.500000E+10  0.00040  2.925E-05    0   0.4854   age201_m32            0.0000     2.9186E+00     1.5152   0.8610    97.6971
 50     29.2213     3.9714E+01    3.8897E+01    1.800000E+10  0.00040  2.469E-05    0   0.4819   age213_m32            0.0000     3.3117E+00     1.6266   0.8221    98.2059
 51      0.0000     0.0000E+00    0.0000E+00    1.000000E+06  0.00400  1.114E-02    0   1.0000   age020_m42            0.0000     1.6948E+02    10.4681   4.0000    84.2576
 52      0.7587     6.2502E-04    1.2702E-03    3.160000E+06  0.00400  4.073E-02    0   0.9999   age045_m42            0.0000     2.9226E+01     4.7297   3.3459    91.3259
 53      0.0000     2.4550E-08    4.7342E-08    5.010000E+06  0.00400  2.534E-02    0   0.9488   age055_m42            0.0000     6.7132E+01     7.1686   3.7332    85.3737
 54      0.5603     7.2790E-04    1.3640E-03    6.610000E+06  0.00400  2.583E-02    0   0.9220   age061_m42            0.0000     2.3670E+01     4.1698   3.1668    92.2618
 55      0.0010     1.9976E-06    3.6471E-06    8.710000E+06  0.00400  1.706E-02    0   0.8983   age067_m42            0.0000     3.9500E+01     5.5743   2.9749    90.8307
 56      0.0000     0.0000E+00    0.0000E+00    1.000000E+07  0.00400  1.271E-02    0   0.8862   age070_m42            0.0000     6.0768E+01     7.0465   2.9512    89.5883
 57      0.0000     0.0000E+00    0.0000E+00    1.445000E+07  0.00400  7.666E-03    0   0.8571   age078_m42            0.0000     7.9524E+01     7.8275   3.3518    86.2148
 58      0.0000     0.0000E+00    0.0000E+00    2.512000E+07  0.00400  5.070E-03    0   0.8174   age090_m42            0.0000     5.1348E+01     6.5004   2.8256    91.0908
 59      0.0000     0.0000E+00    0.0000E+00    4.000000E+07  0.00400  3.505E-03    0   0.7851   age104_m42            0.0000     2.9240E+01     4.7960   2.5241    93.7026
 60      0.0000     0.0000E+00    0.0000E+00    5.500000E+07  0.00400  3.059E-03    0   0.7629   age110_m42            0.0000     1.3738E+01     2.7543   2.6045    97.9116
 61      0.0000     0.0000E+00    0.0000E+00    1.015200E+08  0.00400  2.268E-03    0   0.7207   age116_m42            0.0000     5.1766E+01     4.9945   2.5433   102.5959
 62      0.0000     0.0000E+00    0.0000E+00    1.609000E+08  0.00400  1.720E-03    0   0.6930   age120_m42            0.0000     6.0938E+01     5.5708   2.4109   103.8955
 63      0.0000     0.0000E+00    0.0000E+00    2.861200E+08  0.00400  1.079E-03    0   0.6613   age125_m42            0.0000     6.1266E+01     5.6964   2.0591   104.2893
 64      0.0759     4.0664E-03    5.2175E-03    5.088000E+08  0.00400  6.261E-04    0   0.6313   age130_m42            0.0000     7.2655E+01     6.2081   1.8654   107.1703
 65      0.0000     0.0000E+00    0.0000E+00    9.047900E+08  0.00400  3.535E-04    0   0.6024   age135_m42            0.0000     4.0725E+01     4.9391   1.4685   107.0506
 66      0.0000     0.0000E+00    0.0000E+00    1.278050E+09  0.00400  2.677E-04    0   0.5837   age138_m42            0.0000     2.5911E+01     4.3834   0.8093   103.3370
 67      0.0110     1.9245E-03    2.2358E-03    1.434000E+09  0.00400  1.910E-04    0   0.5716   age139_m42            0.0000     2.5933E+01     4.3471   0.9742   104.3876
 68      0.0000     0.0000E+00    0.0000E+00    2.500000E+09  0.00400  9.818E-05    0   0.5463   age150_m42            0.0000     2.0794E+01     3.7744   0.7139    98.9854
 69      0.0000     0.0000E+00    0.0000E+00    4.250000E+09  0.00400  5.491E-05    0   0.5269   age158_m42            0.0000     2.4572E+01     3.8454   0.5863    96.2151
 70      0.0000     0.0000E+00    0.0000E+00    6.250000E+09  0.00400  3.857E-05    0   0.5151   age166_m42            0.0000     3.4351E+01     4.4451   0.4689    94.6259
 71      0.0000     0.0000E+00    0.0000E+00    7.500000E+09  0.00400  3.243E-05    0   0.5110   age171_m42            0.0000     4.1418E+01     4.8317   0.3969    93.8977
 72      0.0000     0.0000E+00    0.0000E+00    1.000000E+10  0.00400  2.424E-05    0   0.5028   age181_m42            0.0000     5.1465E+01     5.3258   0.3258    93.0233
 73      0.7995     1.4246E+00    1.4266E+00    1.300000E+10  0.00400  1.883E-05    0   0.4927   age193_m42            0.0000     5.9457E+01     5.6908   0.2901    92.5703
 74      0.0000     0.0000E+00    0.0000E+00    1.500000E+10  0.00400  1.685E-05    0   0.4919   age201_m42            0.0000     5.7343E+01     5.5981   0.2929    92.6433
 75      1.2062     2.7874E+00    2.7613E+00    1.800000E+10  0.00400  1.452E-05    0   0.4874   age213_m42            0.0000     5.3482E+01     5.4341   0.3034    93.0369
 76      0.0000     0.0000E+00    0.0000E+00    1.000000E+06  0.00800  1.286E-02    0   1.0000   age020_m52            0.0000     1.4819E+02     9.8049   4.0000    85.5772
 77      0.0000     0.0000E+00    0.0000E+00    3.160000E+06  0.00800  3.147E-02    0   0.9966   age045_m52            0.0000     1.2476E+02     9.0609   4.0000    85.1557
 78      0.0000     0.0000E+00    0.0000E+00    5.010000E+06  0.00800  2.664E-02    0   0.9443   age055_m52            0.0000     7.9780E+01     7.6747   3.8529    84.2949
 79      0.0000     0.0000E+00    0.0000E+00    6.610000E+06  0.00800  2.151E-02    0   0.9177   age061_m52            0.0000     4.8494E+01     5.9150   2.5602    90.7630
 80      0.0000     0.0000E+00    0.0000E+00    8.710000E+06  0.00800  1.628E-02    0   0.8948   age067_m52            0.0000     4.6322E+01     5.9987   2.9306    91.2561
 81      0.0000     0.0000E+00    0.0000E+00    1.000000E+07  0.00800  1.215E-02    0   0.8827   age070_m52            0.0000     5.7941E+01     6.7239   3.2682    89.3931
 82      0.0000     0.0000E+00    0.0000E+00    1.445000E+07  0.00800  8.739E-03    0   0.8552   age078_m52            0.0000     4.6282E+01     5.9675   3.3126    90.6384
 83      0.0000     0.0000E+00    0.0000E+00    2.512000E+07  0.00800  5.676E-03    0   0.8162   age090_m52            0.0000     2.9385E+01     4.5453   2.9210    95.4681
 84      0.0000     0.0000E+00    0.0000E+00    4.000000E+07  0.00800  3.939E-03    0   0.7841   age104_m52            0.0000     2.1531E+01     3.5806   2.7745    97.6438
 85      0.0000     0.0000E+00    0.0000E+00    5.500000E+07  0.00800  3.155E-03    0   0.7627   age110_m52            0.0000     2.2621E+01     3.3736   2.7553    99.1491
 86      0.0000     0.0000E+00    0.0000E+00    1.015200E+08  0.00800  2.206E-03    0   0.7226   age116_m52            0.0000     3.8289E+01     4.3017   2.5949   102.4824
 87      0.0000     0.0000E+00    0.0000E+00    1.609000E+08  0.00800  1.596E-03    0   0.6963   age120_m52            0.0000     4.7805E+01     4.9339   2.3880   103.9691
 88      0.0000     0.0000E+00    0.0000E+00    2.861200E+08  0.00800  1.002E-03    0   0.6665   age125_m52            0.0000     8.0946E+01     6.7725   2.1212   106.0833
 89      0.0000     0.0000E+00    0.0000E+00    5.088000E+08  0.00800  5.759E-04    0   0.6377   age130_m52            0.0000     9.3925E+01     7.5418   1.7960   109.2548
 90      0.0000     0.0000E+00    0.0000E+00    9.047900E+08  0.00800  2.972E-04    0   0.6086   age135_m52            0.0000     6.2853E+01     6.5617   1.2839   106.8730
 91      0.0000     0.0000E+00    0.0000E+00    1.278050E+09  0.00800  2.242E-04    0   0.5907   age138_m52            0.0000     4.2666E+01     5.4385   0.6664   105.2221
 92      0.0000     0.0000E+00    0.0000E+00    1.434000E+09  0.00800  1.645E-04    0   0.5787   age139_m52            0.0000     3.4469E+01     4.9379   0.8079   104.7837
 93      0.0000     0.0000E+00    0.0000E+00    2.500000E+09  0.00800  7.723E-05    0   0.5519   age150_m52            0.0000     4.2680E+01     5.1741   0.4770   100.6066
 94      0.0000     0.0000E+00    0.0000E+00    4.250000E+09  0.00800  4.151E-05    0   0.5320   age158_m52            0.0000     4.5391E+01     5.2041   0.4080    98.0087
 95      0.0000     0.0000E+00    0.0000E+00    6.250000E+09  0.00800  3.010E-05    0   0.5197   age166_m52            0.0000     6.3839E+01     6.0271   0.2275    96.2235
 96      0.0000     0.0000E+00    0.0000E+00    7.500000E+09  0.00800  2.467E-05    0   0.5139   age171_m52            0.0000     6.9021E+01     6.2423   0.1908    95.6970
 97      0.0000     0.0000E+00    0.0000E+00    1.000000E+10  0.00800  1.862E-05    0   0.5054   age181_m52            0.0000     8.6656E+01     6.9463   0.0751    94.9235
 98      0.0000     0.0000E+00    0.0000E+00    1.300000E+10  0.00800  1.433E-05    0   0.4988   age193_m52            0.0000     1.0718E+02     7.6552  -0.0084    95.1570
 99      0.0000     0.0000E+00    0.0000E+00    1.500000E+10  0.00800  1.244E-05    0   0.4936   age201_m52            0.0000     1.1542E+02     7.9046  -0.0331    95.4585
100      0.0000     0.0000E+00    0.0000E+00    1.800000E+10  0.00800  1.070E-05    0   0.4888   age213_m52            0.0000     1.2133E+02     8.0958  -0.0638    95.2041
101      0.0000     0.0000E+00    0.0000E+00    1.000000E+06  0.02000  1.989E-02    0   1.0000   age020_m62            0.0000     1.6071E+02    10.0428   4.0000    84.1931
102      0.0000     0.0000E+00    0.0000E+00    3.160000E+06  0.02000  3.772E-02    0   0.9858   age045_m62            0.0000     1.2299E+02     9.1259   4.0000    83.2327
103      0.0000     0.0000E+00    0.0000E+00    5.010000E+06  0.02000  3.227E-02    0   0.9342   age055_m62            0.0000     4.6624E+01     6.0293   3.5957    88.2790
104      0.0000     0.0000E+00    0.0000E+00    6.610000E+06  0.02000  2.387E-02    0   0.9090   age061_m62            0.0000     7.4169E+01     7.6364   3.3304    88.1497
105      0.0000     0.0000E+00    0.0000E+00    8.710000E+06  0.02000  1.102E-02    0   0.8861   age067_m62            0.0000     2.2652E+02    13.5053   2.9334    84.0947
106      0.0000     0.0000E+00    0.0000E+00    1.000000E+07  0.02000  1.011E-02    0   0.8751   age070_m62            0.0000     1.5270E+02    11.0425   2.9622    86.3487
107      0.0000     0.0000E+00    0.0000E+00    1.445000E+07  0.02000  7.331E-03    0   0.8472   age078_m62            0.0000     1.0297E+02     8.9723   2.9896    87.5465
108      0.0000     0.0000E+00    0.0000E+00    2.512000E+07  0.02000  4.206E-03    0   0.8099   age090_m62            0.0000     1.0614E+02     9.0248   2.9032    86.9903
109      0.0000     0.0000E+00    0.0000E+00    4.000000E+07  0.02000  3.373E-03    0   0.7799   age104_m62            0.0000     2.7078E+01     4.4608   2.7310    95.5048
110      0.0000     0.0000E+00    0.0000E+00    5.500000E+07  0.02000  2.747E-03    0   0.7595   age110_m62            0.0000     2.0147E+01     3.3931   2.6785    98.8537
111      0.0000     0.0000E+00    0.0000E+00    1.015200E+08  0.02000  1.878E-03    0   0.7221   age116_m62            0.0000     4.2197E+01     4.4464   2.5602   103.4753
112      0.0000     0.0000E+00    0.0000E+00    1.609000E+08  0.02000  1.378E-03    0   0.6978   age120_m62            0.0000     6.7018E+01     5.7097   2.4199   105.7755
113      0.0000     0.0000E+00    0.0000E+00    2.861200E+08  0.02000  8.869E-04    0   0.6700   age125_m62            0.0000     1.1270E+02     7.6150   2.0724   109.5181
114      0.0000     0.0000E+00    0.0000E+00    5.088000E+08  0.02000  4.834E-04    0   0.6430   age130_m62            0.0000     1.0658E+02     7.9360   1.6709   110.5326
115      0.0000     0.0000E+00    0.0000E+00    9.047900E+08  0.02000  2.312E-04    0   0.6152   age135_m62            0.0000     5.6703E+01     6.2964   1.0820   108.8911
116      0.0000     0.0000E+00    0.0000E+00    1.278050E+09  0.02000  1.387E-04    0   0.5927   age138_m62            0.0000     3.7012E+01     5.1655   0.7001   104.1916
117      0.0000     0.0000E+00    0.0000E+00    1.434000E+09  0.02000  1.168E-04    0   0.5865   age139_m62            0.0000     3.6312E+01     5.0443   0.6760   102.4736
118      0.0000     0.0000E+00    0.0000E+00    2.500000E+09  0.02000  5.505E-05    0   0.5610   age150_m62            0.0000     5.8571E+01     6.0035   0.3236    98.8154
119      0.0000     0.0000E+00    0.0000E+00    4.250000E+09  0.02000  3.070E-05    0   0.5407   age158_m62            0.0000     9.8897E+01     7.5930   0.0576    97.8809
120      0.0000     0.0000E+00    0.0000E+00    6.250000E+09  0.02000  2.104E-05    0   0.5277   age166_m62            0.0000     1.2292E+02     8.3416  -0.0612    97.8603
121      0.0000     0.0000E+00    0.0000E+00    7.500000E+09  0.02000  1.770E-05    0   0.5223   age171_m62            0.0000     1.3636E+02     8.7669  -0.1421    98.0008
122      0.0000     0.0000E+00    0.0000E+00    1.000000E+10  0.02000  1.297E-05    0   0.5121   age181_m62            0.0000     1.6544E+02     9.5941  -0.2841    97.9641
123      0.0000     0.0000E+00    0.0000E+00    1.300000E+10  0.02000  9.691E-06    0   0.5047   age193_m62            0.0000     1.8546E+02    10.1092  -0.3592    98.0447
124      0.0000     0.0000E+00    0.0000E+00    1.500000E+10  0.02000  8.360E-06    0   0.4999   age201_m62            0.0000     2.0299E+02    10.5551  -0.4198    97.9708
125      0.0000     0.0000E+00    0.0000E+00    1.800000E+10  0.02000  6.911E-06    0   0.4946   age213_m62            0.0000     2.2521E+02    11.1086  -0.4815    97.8601
126      0.0000     0.0000E+00    0.0000E+00    1.000000E+06  0.05000  2.651E-02    0   0.9998   age020_m72            0.0000     1.5344E+02     9.8142   4.0000    85.1340
127      0.0000     0.0000E+00    0.0000E+00    3.160000E+06  0.05000  4.817E-02    0   0.9577   age045_m72            0.0000     8.6822E+01     7.9416   3.9653    83.8094
128      0.0000     0.0000E+00    0.0000E+00    5.010000E+06  0.05000  3.101E-02    0   0.9147   age055_m72            0.0000     7.9511E+01     7.6403   3.6053    86.6296
129      0.0000     0.0000E+00    0.0000E+00    6.610000E+06  0.05000  1.472E-02    0   0.8877   age061_m72            0.0000     1.7847E+02    11.5091   3.1391    85.2528
130      0.0000     0.0000E+00    0.0000E+00    8.710000E+06  0.05000  1.050E-02    0   0.8638   age067_m72            0.0000     1.1641E+02     9.1246   3.5492    85.3940
131      0.0000     0.0000E+00    0.0000E+00    1.000000E+07  0.05000  8.954E-03    0   0.8524   age070_m72            0.0000     8.3412E+01     7.7048   3.8411    85.1229
132      0.0000     0.0000E+00    0.0000E+00    1.445000E+07  0.05000  6.392E-03    0   0.8262   age078_m72            0.0000     6.9970E+01     7.0752   3.7945    86.0676
133      0.0000     0.0000E+00    0.0000E+00    2.512000E+07  0.05000  4.207E-03    0   0.7902   age090_m72            0.0000     3.8971E+01     5.3939   3.4190    90.7100
134      0.0000     0.0000E+00    0.0000E+00    4.000000E+07  0.05000  3.198E-03    0   0.7618   age104_m72            0.0000     2.5774E+01     3.6477   2.9306    98.8488
135      0.0000     0.0000E+00    0.0000E+00    5.500000E+07  0.05000  2.593E-03    0   0.7432   age110_m72            0.0000     3.3913E+01     4.0564   2.8375   100.8941
136      0.0000     0.0000E+00    0.0000E+00    1.015200E+08  0.05000  1.716E-03    0   0.7092   age116_m72            0.0000     5.4861E+01     5.0497   2.6489   103.5382
137      0.0000     0.0000E+00    0.0000E+00    1.609000E+08  0.05000  1.218E-03    0   0.6876   age120_m72            0.0000     8.2186E+01     6.3400   2.3999   105.9114
138      0.0000     0.0000E+00    0.0000E+00    2.861200E+08  0.05000  7.047E-04    0   0.6618   age125_m72            0.0000     1.1335E+02     7.8672   1.8906   108.9815
139      0.0000     0.0000E+00    0.0000E+00    5.088000E+08  0.05000  3.590E-04    0   0.6356   age130_m72            0.0000     9.7680E+01     7.6882   1.3474   110.2858
140      0.0000     0.0000E+00    0.0000E+00    9.047900E+08  0.05000  1.484E-04    0   0.6088   age135_m72            0.0000     5.6333E+01     6.3707   0.6279   102.8570
141      0.0000     0.0000E+00    0.0000E+00    1.278050E+09  0.05000  9.435E-05    0   0.5924   age138_m72            0.0000     8.1714E+01     7.2758   0.2513    98.9721
142      0.0000     0.0000E+00    0.0000E+00    1.434000E+09  0.05000  7.827E-05    0   0.5847   age139_m72            0.0000     8.0430E+01     7.1075   0.2594    98.4455
143      0.0000     0.0000E+00    0.0000E+00    2.500000E+09  0.05000  3.759E-05    0   0.5583   age150_m72            0.0000     1.1984E+02     8.2874  -0.0509    97.1310
144      0.0000     0.0000E+00    0.0000E+00    4.250000E+09  0.05000  1.842E-05    0   0.5374   age158_m72            0.0000     1.6305E+02     9.4203  -0.3567    96.3120
145      0.0000     0.0000E+00    0.0000E+00    6.250000E+09  0.05000  1.207E-05    0   0.5242   age166_m72            0.0000     2.0700E+02    10.5743  -0.5735    95.4147
146      0.0000     0.0000E+00    0.0000E+00    7.500000E+09  0.05000  9.993E-06    0   0.5183   age171_m72            0.0000     2.1375E+02    10.7512  -0.6149    95.2975
147      0.0000     0.0000E+00    0.0000E+00    1.000000E+10  0.05000  7.291E-06    0   0.5081   age181_m72            0.0000     2.4457E+02    11.5534  -0.7194    94.7112
148      3.1383     1.9809E+01    2.0203E+01    1.300000E+10  0.05000  5.316E-06    0   0.5018   age193_m72            0.0000     2.9446E+02    12.7673  -0.8785    93.9151
149      0.0022     1.6504E-02    1.6678E-02    1.500000E+10  0.05000  4.497E-06    0   0.4972   age201_m72            0.0000     3.1965E+02    13.3701  -0.9373    93.7514
150      0.5958     5.3472E+00    5.3514E+00    1.800000E+10  0.05000  3.739E-06    0   0.4924   age213_m72            0.0000     3.5310E+02    14.1175  -1.0000    92.6613


## Synthesis Results - Average & Chains ##

# j      x_j: min, <> & last-chain-values for 1 ...  7 chains
  1      0.0000      0.0120      0.0000      0.0000      0.0000      0.0000      0.0000      0.0000      0.0000
  2      6.8596      1.0690      1.1080      1.1486      1.5815      1.3467      1.7819      1.3812      1.8350
  3      1.7241      0.4771      0.4420      0.5722      0.4125      0.7390      0.4773      1.0427      0.6537
  4      0.0000      0.0191      0.0065      0.0000      0.0000      0.0000      0.0000      0.0000      0.0000
  5      0.0000      0.0300      0.0000      0.2847      0.0000      0.0000      0.0000      0.0000      0.0000
  6      0.0000      0.0471      0.3540      0.0000      0.0000      0.0000      0.0000      0.1001      0.0100
  7      0.0000      0.0523      0.1693      0.0282      0.1269      0.0341      0.0000      0.1208      0.0000
  8      0.0000      0.0542      0.2649      0.0324      0.1243      0.0000      0.0000      0.0095      0.2200
  9      0.0283      0.2438      0.1745      0.4959      0.2769      0.2978      0.2177      0.3625      0.2505
 10      0.0000      0.1120      0.0000      0.2460      0.0000      0.0000      0.1795      0.0000      0.0000
 11      0.0867      0.1386      0.1784      0.0000      0.2153      0.2192      0.1237      0.0000      0.0000
 12      0.0000      0.0539      0.0081      0.0000      0.0000      0.0000      0.0000      0.1203      0.0000
 13      0.0000      0.0250      0.0055      0.0000      0.0000      0.0000      0.0000      0.1266      0.0000
 14      0.0000      0.0211      0.0276      0.0000      0.0000      0.1135      0.0000      0.0000      0.0550
 15      0.0000      0.0196      0.0153      0.0000      0.0000      0.0000      0.0000      0.0000      0.0048
 16      0.0000      0.0398      0.0382      0.0103      0.0000      0.1167      0.0000      0.0000      0.0000
 17      0.0000      0.0414      0.0000      0.2784      0.1509      0.0141      0.0000      0.0962      0.1037
 18      0.0000      0.0454      0.1871      0.0057      0.0512      0.0000      0.0000      0.0000      0.0000
 19      0.0000      0.0718      0.0000      0.0000      0.0000      0.0000      0.0264      0.0000      0.0000
 20      0.0000      0.0998      0.0742      0.0000      0.0000      0.1190      0.0000      0.1527      0.0000
 21      0.0000      0.1445      0.0000      0.0000      0.0000      0.7489      0.0000      0.0000      0.3414
 22      0.0000      0.3021      0.0000      0.2254      0.0000      0.0246      0.0000      0.0000      0.0000
 23      0.0029      0.3894      0.5644      1.0094      0.2608      0.1537      0.1624      0.2907      0.4471
 24      0.0303      1.4114      0.8024      1.6010      1.1321      0.9891      2.6439      1.1338      0.0000
 25      5.4968      8.0255      7.7471      7.4096      7.8021      8.2398      8.1555      7.8395      8.2161
 26      0.0000      0.0132      0.0000      0.0000      0.0000      0.0000      0.0000      0.0000      0.0000
 27      0.0000      0.1930      0.2300      0.4219      0.2860      0.3768      0.2865      0.2577      0.2808
 28      0.0000      0.0438      0.0000      0.0000      0.0094      0.1154      0.0000      0.1792      0.0000
 29      0.0000      0.0179      0.0000      0.0000      0.0000      0.0000      0.0000      0.0000      0.0000
 30      0.0000      0.0164      0.0000      0.0000      0.0000      0.0000      0.0000      0.0000      0.0038
 31      0.0000      0.0345      0.0801      0.0000      0.1704      0.0229      0.0392      0.1267      0.0000
 32      0.0000      0.0382      0.0000      0.0000      0.0457      0.0000      0.0000      0.0000      0.0786
 33      0.0007      0.0422      0.0000      0.0000      0.2198      0.0000      0.0000      0.0000      0.1291
 34      0.0000      0.2656      0.3428      0.0367      0.0865      0.0000      0.2948      0.1751      0.3716
 35      0.0000      0.0803      0.0000      0.0000      0.0000      0.1188      0.0000      0.0000      0.0338
 36      0.0170      0.2247      0.5680      0.0475      0.2929      0.3258      0.1761      0.4380      0.5207
 37      0.0000      0.0937      0.1563      0.6586      0.0000      0.0000      0.0000      0.0000      0.4066
 38      0.0000      0.0690      0.0000      0.0000      0.0000      0.0674      0.3655      0.0000      0.0000
 39      0.0000      0.0388      0.0000      0.0000      0.0027      0.0728      0.0000      0.0000      0.4552
 40      0.0000      0.0317      0.1173      0.0000      0.0500      0.0000      0.0000      0.0000      0.0000
 41      0.0000      0.0279      0.0000      0.0000      0.0000      0.0910      0.0000      0.0000      0.0163
 42      0.0000      0.0778      0.0073      0.0000      0.0000      0.0697      0.1759      0.0464      0.0000
 43      8.5190      4.3710      5.3065      5.7346      5.1429      5.1054      4.3497      4.9738      4.7319
 44     15.8176     10.4765     12.2701     10.7475     11.7200     10.9944     10.8051     10.9993     10.8188
 45     15.6383     15.3685     15.3505     14.3097     16.0948     15.1314     15.3125     15.0493     15.1394
 46      1.2664      4.6078      4.6597      4.5199      4.1305      3.1267      5.2667      3.6272      3.7578
 47      0.0000      0.1870      0.1840      0.0000      0.0000      0.0000      0.0000      0.3740      0.1619
 48      2.0883      7.5439      6.9703      6.3631      8.4609      8.4205      6.1436      7.8055      7.5004
 49      3.9649      6.8541      5.8756      6.6041      5.1117      6.1139      7.2200      6.8704      7.3824
 50     29.2213     26.6045     26.5696     27.6481     26.0662     25.5975     26.6238     26.7540     27.2431
 51      0.0000      0.0294      0.0000      0.0000      0.0000      0.0000      0.0000      0.0000      0.2228
 52      0.7587      0.3123      0.4224      0.3890      0.6856      0.4995      0.3379      0.2688      0.3571
 53      0.0000      0.0544      0.0000      0.0000      0.2366      0.0000      0.2590      0.0000      0.0392
 54      0.5603      0.3617      0.4282      0.7969      0.3753      0.5067      0.2099      0.2771      0.2959
 55      0.0010      0.3058      0.3357      0.2820      0.2276      0.3259      0.5023      0.6553      0.3437
 56      0.0000      0.0652      0.0827      0.0000      0.0000      0.1082      0.3040      0.1442      0.0000
 57      0.0000      0.0283      0.0000      0.0707      0.0000      0.1959      0.0000      0.0000      0.0000
 58      0.0000      0.0507      0.0000      0.1424      0.1642      0.0367      0.0000      0.0471      0.0000
 59      0.0000      0.0270      0.0000      0.0000      0.0000      0.0000      0.0000      0.0000      0.0000
 60      0.0000      0.0244      0.0770      0.0000      0.0196      0.0000      0.0000      0.0000      0.0000
 61      0.0000      0.1265      0.1901      0.0000      0.0342      0.2553      0.0000      0.3026      0.1436
 62      0.0000      0.0342      0.0000      0.0000      0.1094      0.0275      0.0000      0.0535      0.0000
 63      0.0000      0.0446      0.0157      0.0000      0.0000      0.0000      0.0000      0.0871      0.0839
 64      0.0759      0.0623      0.0000      0.0000      0.4949      0.1035      0.0000      0.0000      0.0617
 65      0.0000      0.0456      0.0000      0.0870      0.0297      0.0000      0.0000      0.0000      0.0000
 66      0.0000      0.0834      0.0000      0.0000      0.0432      0.0458      0.0096      0.0000      0.0000
 67      0.0110      0.0760      0.0000      0.0000      0.2775      0.0000      0.0000      0.6780      0.0000
 68      0.0000      0.0626      0.0000      0.0000      0.0000      0.5915      0.0000      0.2420      0.0591
 69      0.0000      0.0902      0.0000      0.0947      0.1521      0.0000      0.0000      0.0000      0.1993
 70      0.0000      0.0476      0.0000      0.1253      0.0000      0.0000      0.1773      0.0000      0.0770
 71      0.0000      0.0565      0.0309      0.0388      0.0000      0.0000      0.0000      0.0176      0.0000
 72      0.0000      0.0676      0.0000      0.2465      0.0085      0.0000      0.2898      0.0000      0.0000
 73      0.7995      0.0519      0.1424      0.0029      0.2410      0.0820      0.0000      0.0000      0.0279
 74      0.0000      0.1310      0.0000      0.2812      0.1515      0.3425      0.1186      0.0000      0.0350
 75      1.2062      0.1147      0.3500      0.0000      0.2934      0.1494      0.2509      0.0015      0.0459
 76      0.0000      0.0166      0.0000      0.0000      0.0000      0.0000      0.0000      0.0000      0.1713
 77      0.0000      0.0096      0.0000      0.0000      0.0000      0.0000      0.0000      0.0000      0.0000
 78      0.0000      0.0144      0.0070      0.0000      0.0146      0.0000      0.0011      0.0000      0.0000
 79      0.0000      0.0140      0.0100      0.0000      0.0000      0.0000      0.0000      0.0162      0.0000
 80      0.0000      0.0219      0.0842      0.0000      0.0000      0.0000      0.0000      0.0000      0.0000
 81      0.0000      0.0153      0.0000      0.0000      0.0000      0.0000      0.0000      0.0000      0.0000
 82      0.0000      0.0402      0.0000      0.0937      0.0000      0.2839      0.0000      0.0000      0.0000
 83      0.0000      0.1165      0.0947      0.0000      0.0000      0.1948      0.1192      0.0000      0.1080
 84      0.0000      0.0644      0.2374      0.0000      0.0000      0.1329      0.0000      0.0000      0.0000
 85      0.0000      0.0873      0.0000      0.0000      0.0935      0.1754      0.1050      0.0000      0.0000
 86      0.0000      0.0297      0.0555      0.0000      0.0000      0.0000      0.0104      0.0000      0.0000
 87      0.0000      0.0275      0.0000      0.0000      0.0000      0.0000      0.0000      0.1637      0.0000
 88      0.0000      0.0173      0.0052      0.2447      0.0000      0.0000      0.0000      0.0087      0.0000
 89      0.0000      0.0126      0.0000      0.0000      0.0000      0.0000      0.0000      0.0000      0.0000
 90      0.0000      0.0068      0.0000      0.0000      0.0000      0.0000      0.0000      0.0000      0.0000
 91      0.0000      0.0068      0.0000      0.0000      0.0000      0.0000      0.0000      0.0000      0.0000
 92      0.0000      0.0059      0.0000      0.0000      0.0000      0.0000      0.0000      0.0000      0.0000
 93      0.0000      0.0093      0.0000      0.0000      0.0000      0.0065      0.0000      0.0000      0.0000
 94      0.0000      0.0157      0.0000      0.0000      0.0000      0.0000      0.0000      0.0000      0.0000
 95      0.0000      0.0106      0.0000      0.0793      0.0000      0.0186      0.0000      0.0000      0.0000
 96      0.0000      0.0120      0.0000      0.0000      0.0000      0.0000      0.0000      0.0000      0.0000
 97      0.0000      0.0078      0.0000      0.0000      0.0000      0.0000      0.0000      0.0000      0.0000
 98      0.0000      0.0085      0.0000      0.0000      0.1286      0.0761      0.0000      0.0000      0.0000
 99      0.0000      0.0062      0.0000      0.0000      0.0000      0.0000      0.0000      0.0000      0.0946
100      0.0000      0.0062      0.0000      0.0000      0.0000      0.0000      0.0000      0.0000      0.0000
101      0.0000      0.0047      0.0039      0.0820      0.0000      0.0000      0.0000      0.0000      0.0000
102      0.0000      0.0063      0.0000      0.0013      0.0000      0.0000      0.0000      0.0000      0.0000
103      0.0000      0.0505      0.0431      0.0000      0.0303      0.0000      0.0000      0.0000      0.0000
104      0.0000      0.0334      0.0000      0.0000      0.0000      0.0000      0.0000      0.0000      0.0000
105      0.0000      0.0119      0.0000      0.0000      0.0000      0.0000      0.0000      0.0000      0.0000
106      0.0000      0.0267      0.0059      0.0000      0.0000      0.2369      0.0000      0.0000      0.0000
107      0.0000      0.0127      0.0000      0.0000      0.0000      0.0000      0.0160      0.0000      0.0000
108      0.0000      0.0035      0.0000      0.0000      0.0000      0.0000      0.0000      0.0000      0.0000
109      0.0000      0.0173      0.0000      0.0000      0.0000      0.0027      0.0000      0.0000      0.0156
110      0.0000      0.0103      0.0505      0.0000      0.0000      0.0000      0.0000      0.0000      0.0000
111      0.0000      0.0112      0.0000      0.0000      0.0000      0.0000      0.0400      0.0000      0.0000
112      0.0000      0.0231      0.0000      0.0000      0.0000      0.0000      0.0000      0.2510      0.0000
113      0.0000      0.0210      0.0000      0.0000      0.0000      0.1749      0.0000      0.0000      0.0000
114      0.0000      0.0064      0.0000      0.0000      0.0360      0.0000      0.0000      0.0000      0.0000
115      0.0000      0.0058      0.0000      0.0000      0.0000      0.0000      0.0000      0.0000      0.0000
116      0.0000      0.0078      0.0000      0.0000      0.0000      0.0000      0.0000      0.0000      0.0000
117      0.0000      0.0061      0.0000      0.0000      0.0000      0.0000      0.0600      0.0000      0.0000
118      0.0000      0.0054      0.0000      0.0000      0.0000      0.0761      0.0000      0.0000      0.0019
119      0.0000      0.0038      0.0000      0.0000      0.0000      0.0000      0.0000      0.0000      0.0000
120      0.0000      0.0048      0.0000      0.0000      0.0000      0.0012      0.0000      0.0000      0.0000
121      0.0000      0.0070      0.0000      0.0000      0.0000      0.0000      0.0000      0.0578      0.0000
122      0.0000      0.0059      0.0863      0.0000      0.0000      0.0000      0.0000      0.0000      0.0000
123      0.0000      0.0068      0.0000      0.0000      0.0000      0.0000      0.0000      0.0000      0.0000
124      0.0000      0.0083      0.0000      0.0000      0.0000      0.1800      0.0000      0.0000      0.0000
125      0.0000      0.0040      0.0000      0.0000      0.0000      0.0000      0.0000      0.0000      0.0000
126      0.0000      0.0060      0.0000      0.0042      0.0000      0.0000      0.0000      0.0000      0.0000
127      0.0000      0.0145      0.0000      0.0000      0.0000      0.0000      0.0000      0.0000      0.0000
128      0.0000      0.0113      0.0000      0.0000      0.0000      0.0000      0.0000      0.0000      0.0000
129      0.0000      0.0099      0.0000      0.0000      0.0055      0.0000      0.0000      0.0000      0.0170
130      0.0000      0.0072      0.0000      0.0098      0.0000      0.0000      0.0000      0.0000      0.0149
131      0.0000      0.0072      0.0000      0.0000      0.0000      0.0000      0.0000      0.0023      0.0000
132      0.0000      0.0064      0.0000      0.1036      0.0000      0.0044      0.0000      0.0000      0.0000
133      0.0000      0.0048      0.0000      0.0000      0.0000      0.0000      0.0000      0.0000      0.0000
134      0.0000      0.0081      0.0000      0.0000      0.0000      0.0000      0.0000      0.0000      0.0000
135      0.0000      0.0461      0.0000      0.0000      0.0000      0.0980      0.0000      0.0000      0.0000
136      0.0000      0.0131      0.0000      0.1038      0.0000      0.0000      0.1468      0.0000      0.0000
137      0.0000      0.0155      0.0000      0.0000      0.0580      0.0864      0.0070      0.0000      0.0000
138      0.0000      0.0116      0.0000      0.0000      0.0000      0.0000      0.0000      0.0000      0.0000
139      0.0000      0.0063      0.0000      0.0000      0.0000      0.0000      0.0000      0.0000      0.0000
140      0.0000      0.0060      0.0000      0.0000      0.0013      0.0000      0.0038      0.0000      0.0439
141      0.0000      0.0052      0.0000      0.0000      0.0000      0.0000      0.0000      0.0000      0.0000
142      0.0000      0.0075      0.0000      0.0000      0.0000      0.0000      0.0000      0.0000      0.0000
143      0.0000      0.0071      0.0000      0.0000      0.0000      0.0000      0.0000      0.0000      0.0000
144      0.0000      0.0117      0.0000      0.0000      0.0000      0.0000      0.0000      0.0000      0.0000
145      0.0000      0.0262      0.0000      0.0000      0.0000      0.0000      0.0000      0.0184      0.0000
146      0.0000      0.0494      0.0235      0.0000      0.0000      0.0660      0.0887      0.0000      0.0000
147      0.0000      0.1732      0.2154      0.1200      0.0000      0.1858      0.2105      0.1054      0.1521
148      3.1383      2.8659      3.0052      3.0310      2.9169      2.7159      2.7408      2.9152      3.0641
149      0.0022      0.1853      0.2048      0.1796      0.2067      0.1907      0.2027      0.2954      0.1839
150      0.5958      0.7231      0.6868      0.7659      0.7131      0.7059      0.7192      0.7182      0.7651

# j      m_j: min, <> & last-chain-values for 1 ...  7 chains
  1  0.0000E+00  9.2342E-05  0.0000E+00  0.0000E+00  0.0000E+00  0.0000E+00  0.0000E+00  0.0000E+00  0.0000E+00
  2  9.8302E-03  1.4079E-03  1.4743E-03  1.5094E-03  2.1268E-03  1.8117E-03  2.3475E-03  1.8366E-03  2.4098E-03
  3  5.8318E-03  1.4830E-03  1.3883E-03  1.7747E-03  1.3093E-03  2.3465E-03  1.4842E-03  3.2727E-03  2.0262E-03
  4  0.0000E+00  1.1135E-04  3.8491E-05  0.0000E+00  0.0000E+00  0.0000E+00  0.0000E+00  0.0000E+00  0.0000E+00
  5  0.0000E+00  2.2095E-04  0.0000E+00  2.0904E-03  0.0000E+00  0.0000E+00  0.0000E+00  0.0000E+00  0.0000E+00
  6  0.0000E+00  4.1246E-04  3.1299E-03  0.0000E+00  0.0000E+00  0.0000E+00  0.0000E+00  8.8460E-04  8.7464E-05
  7  0.0000E+00  5.7735E-04  1.8897E-03  3.1118E-04  1.4309E-03  3.8463E-04  0.0000E+00  1.3470E-03  0.0000E+00
  8  0.0000E+00  6.7678E-04  3.3424E-03  4.0312E-04  1.5854E-03  0.0000E+00  0.0000E+00  1.1970E-04  2.7397E-03
  9  4.1354E-04  3.2746E-03  2.3677E-03  6.6459E-03  3.7971E-03  4.0853E-03  2.9249E-03  4.9153E-03  3.3548E-03
 10  0.0000E+00  1.7237E-03  0.0000E+00  3.7780E-03  0.0000E+00  0.0000E+00  2.7638E-03  0.0000E+00  0.0000E+00
 11  1.7366E-03  2.5510E-03  3.3174E-03  0.0000E+00  4.0458E-03  4.1203E-03  2.2780E-03  0.0000E+00  0.0000E+00
 12  0.0000E+00  1.7346E-03  2.6409E-04  0.0000E+00  0.0000E+00  0.0000E+00  0.0000E+00  3.9111E-03  0.0000E+00
 13  0.0000E+00  9.3449E-04  2.0680E-04  0.0000E+00  0.0000E+00  0.0000E+00  0.0000E+00  4.7799E-03  0.0000E+00
 14  0.0000E+00  1.1198E-03  1.4824E-03  0.0000E+00  0.0000E+00  6.1521E-03  0.0000E+00  0.0000E+00  2.9117E-03
 15  0.0000E+00  1.5684E-03  1.2408E-03  0.0000E+00  0.0000E+00  0.0000E+00  0.0000E+00  0.0000E+00  3.8466E-04
 16  0.0000E+00  4.6241E-03  4.4742E-03  1.1887E-03  0.0000E+00  1.3836E-02  0.0000E+00  0.0000E+00  0.0000E+00
 17  0.0000E+00  5.3381E-03  0.0000E+00  3.5787E-02  1.9855E-02  1.8528E-03  0.0000E+00  1.2512E-02  1.3328E-02
 18  0.0000E+00  9.5267E-03  3.9663E-02  1.1838E-03  1.0974E-02  0.0000E+00  0.0000E+00  0.0000E+00  0.0000E+00
 19  0.0000E+00  2.2843E-02  0.0000E+00  0.0000E+00  0.0000E+00  0.0000E+00  8.3951E-03  0.0000E+00  0.0000E+00
 20  0.0000E+00  4.5416E-02  3.4082E-02  0.0000E+00  0.0000E+00  5.5295E-02  0.0000E+00  7.0113E-02  0.0000E+00
 21  0.0000E+00  7.6069E-02  0.0000E+00  0.0000E+00  0.0000E+00  4.0255E-01  0.0000E+00  0.0000E+00  1.7915E-01
 22  0.0000E+00  2.0509E-01  0.0000E+00  1.5270E-01  0.0000E+00  1.7094E-02  0.0000E+00  0.0000E+00  0.0000E+00
 23  2.6924E-03  3.3515E-01  4.9075E-01  8.6684E-01  2.2918E-01  1.3514E-01  1.3979E-01  2.5260E-01  3.8369E-01
 24  3.2490E-02  1.3892E+00  7.9795E-01  1.5723E+00  1.1378E+00  9.9438E-01  2.6030E+00  1.1267E+00  0.0000E+00
 25  7.0720E+00  9.4894E+00  9.2546E+00  8.7414E+00  9.4197E+00  9.9512E+00  9.6459E+00  9.3588E+00  9.6866E+00
 26  0.0000E+00  9.7544E-05  0.0000E+00  0.0000E+00  0.0000E+00  0.0000E+00  0.0000E+00  0.0000E+00  0.0000E+00
 27  6.0831E-09  3.0443E-04  3.6653E-04  6.6414E-04  4.6064E-04  6.0708E-04  4.5215E-04  4.1049E-04  4.4168E-04
 28  0.0000E+00  1.3516E-04  0.0000E+00  0.0000E+00  2.9526E-05  3.6381E-04  0.0000E+00  5.5855E-04  0.0000E+00
 29  0.0000E+00  8.6163E-05  0.0000E+00  0.0000E+00  0.0000E+00  0.0000E+00  0.0000E+00  0.0000E+00  0.0000E+00
 30  0.0000E+00  9.8114E-05  0.0000E+00  0.0000E+00  0.0000E+00  0.0000E+00  0.0000E+00  0.0000E+00  2.2482E-05
 31  0.0000E+00  2.3864E-04  5.5932E-04  0.0000E+00  1.2024E-03  1.6164E-04  2.7121E-04  8.8351E-04  0.0000E+00
 32  0.0000E+00  2.9228E-04  0.0000E+00  0.0000E+00  3.5686E-04  0.0000E+00  0.0000E+00  0.0000E+00  5.9938E-04
 33  8.6881E-06  4.5867E-04  0.0000E+00  0.0000E+00  2.4400E-03  0.0000E+00  0.0000E+00  0.0000E+00  1.4001E-03
 34  0.0000E+00  3.5088E-03  4.5743E-03  4.8303E-04  1.1660E-03  0.0000E+00  3.8949E-03  2.3358E-03  4.8943E-03
 35  0.0000E+00  1.2812E-03  0.0000E+00  0.0000E+00  0.0000E+00  1.9365E-03  0.0000E+00  0.0000E+00  5.3781E-04
 36  3.7812E-04  4.5987E-03  1.1743E-02  9.6883E-04  6.1189E-03  6.8093E-03  3.6055E-03  9.0483E-03  1.0623E-02
 37  0.0000E+00  2.3832E-03  4.0155E-03  1.6708E-02  0.0000E+00  0.0000E+00  0.0000E+00  0.0000E+00  1.0308E-02
 38  0.0000E+00  2.4433E-03  0.0000E+00  0.0000E+00  0.0000E+00  2.4386E-03  1.2949E-02  0.0000E+00  0.0000E+00
 39  0.0000E+00  2.0506E-03  0.0000E+00  0.0000E+00  1.4474E-04  3.9314E-03  0.0000E+00  0.0000E+00  2.3990E-02
 40  0.0000E+00  2.9549E-03  1.1049E-02  0.0000E+00  4.7552E-03  0.0000E+00  0.0000E+00  0.0000E+00  0.0000E+00
 41  0.0000E+00  3.4882E-03  0.0000E+00  0.0000E+00  0.0000E+00  1.1608E-02  0.0000E+00  0.0000E+00  2.0360E-03
 42  0.0000E+00  1.0857E-02  1.0346E-03  0.0000E+00  0.0000E+00  9.9264E-03  2.4545E-02  6.5288E-03  0.0000E+00
 43  2.1030E+00  9.9165E-01  1.2163E+00  1.2981E+00  1.1914E+00  1.1831E+00  9.8711E-01  1.1393E+00  1.0704E+00
 44  6.1753E+00  3.7590E+00  4.4479E+00  3.8476E+00  4.2938E+00  4.0292E+00  3.8780E+00  3.9846E+00  3.8706E+00
 45  8.5094E+00  7.6856E+00  7.7557E+00  7.1400E+00  8.2185E+00  7.7289E+00  7.6598E+00  7.5985E+00  7.5491E+00
 46  8.2091E-01  2.7450E+00  2.8045E+00  2.6866E+00  2.5126E+00  1.9025E+00  3.1384E+00  2.1817E+00  2.2321E+00
 47  0.0000E+00  1.4599E-01  1.4517E-01  0.0000E+00  0.0000E+00  0.0000E+00  0.0000E+00  2.9485E-01  1.2605E-01
 48  2.1126E+00  7.0142E+00  6.5476E+00  5.9029E+00  8.0326E+00  7.9966E+00  5.7138E+00  7.3273E+00  6.9535E+00
 49  4.4873E+00  7.1293E+00  6.1745E+00  6.8537E+00  5.4290E+00  6.4953E+00  7.5120E+00  7.2151E+00  7.6565E+00
 50  3.8897E+01  3.2547E+01  3.2839E+01  3.3747E+01  3.2561E+01  3.1985E+01  3.2580E+01  3.3045E+01  3.3231E+01
 51  0.0000E+00  1.6567E-04  0.0000E+00  0.0000E+00  0.0000E+00  0.0000E+00  0.0000E+00  0.0000E+00  1.2498E-03
 52  1.2702E-03  4.8047E-04  6.5664E-04  5.9718E-04  1.0773E-03  7.8504E-04  5.2012E-04  4.1766E-04  5.4783E-04
 53  4.7342E-08  1.2756E-04  0.0000E+00  0.0000E+00  5.6692E-04  0.0000E+00  6.0803E-04  0.0000E+00  9.1846E-05
 54  1.3640E-03  8.0924E-04  9.6785E-04  1.7789E-03  8.5726E-04  1.1579E-03  4.6986E-04  6.2602E-04  6.6013E-04
 55  3.6471E-06  1.0093E-03  1.1195E-03  9.2853E-04  7.6713E-04  1.0985E-03  1.6581E-03  2.1835E-03  1.1310E-03
 56  0.0000E+00  2.8499E-04  3.6504E-04  0.0000E+00  0.0000E+00  4.8284E-04  1.3290E-03  6.3612E-04  0.0000E+00
 57  0.0000E+00  1.9821E-04  0.0000E+00  4.9405E-04  0.0000E+00  1.4024E-03  0.0000E+00  0.0000E+00  0.0000E+00
 58  0.0000E+00  5.1202E-04  0.0000E+00  1.4360E-03  1.6942E-03  3.7851E-04  0.0000E+00  4.8040E-04  0.0000E+00
 59  0.0000E+00  3.7888E-04  0.0000E+00  0.0000E+00  0.0000E+00  0.0000E+00  0.0000E+00  0.0000E+00  0.0000E+00
 60  0.0000E+00  3.8081E-04  1.2159E-03  0.0000E+00  3.1289E-04  0.0000E+00  0.0000E+00  0.0000E+00  0.0000E+00
 61  0.0000E+00  2.5194E-03  3.8255E-03  0.0000E+00  6.9608E-04  5.1933E-03  0.0000E+00  6.0845E-03  2.8526E-03
 62  0.0000E+00  8.6461E-04  0.0000E+00  0.0000E+00  2.8212E-03  7.0962E-04  0.0000E+00  1.3638E-03  0.0000E+00
 63  0.0000E+00  1.7130E-03  6.1029E-04  0.0000E+00  0.0000E+00  0.0000E+00  0.0000E+00  3.3796E-03  3.2141E-03
 64  5.2175E-03  3.9359E-03  0.0000E+00  0.0000E+00  3.1937E-02  6.6818E-03  0.0000E+00  0.0000E+00  3.8868E-03
 65  0.0000E+00  4.8666E-03  0.0000E+00  9.2692E-03  3.2341E-03  0.0000E+00  0.0000E+00  0.0000E+00  0.0000E+00
 66  0.0000E+00  1.1392E-02  0.0000E+00  0.0000E+00  6.0283E-03  6.3869E-03  1.3072E-03  0.0000E+00  0.0000E+00
 67  2.2358E-03  1.4254E-02  0.0000E+00  0.0000E+00  5.3159E-02  0.0000E+00  0.0000E+00  1.2840E-01  0.0000E+00
 68  0.0000E+00  2.1837E-02  0.0000E+00  0.0000E+00  0.0000E+00  2.1071E-01  0.0000E+00  8.5223E-02  2.0553E-02
 69  0.0000E+00  5.4269E-02  0.0000E+00  5.6821E-02  9.3397E-02  0.0000E+00  0.0000E+00  0.0000E+00  1.1954E-01
 70  0.0000E+00  3.9840E-02  0.0000E+00  1.0465E-01  0.0000E+00  0.0000E+00  1.4849E-01  0.0000E+00  6.4302E-02
 71  0.0000E+00  5.5843E-02  3.0807E-02  3.8267E-02  0.0000E+00  0.0000E+00  0.0000E+00  1.7550E-02  0.0000E+00
 72  0.0000E+00  8.7854E-02  0.0000E+00  3.1972E-01  1.1248E-02  0.0000E+00  3.7682E-01  0.0000E+00  0.0000E+00
 73  1.4266E+00  8.5095E-02  2.3591E-01  4.6712E-03  4.0360E-01  1.3742E-01  0.0000E+00  0.0000E+00  4.5671E-02
 74  0.0000E+00  2.3977E-01  0.0000E+00  5.1344E-01  2.8296E-01  6.4006E-01  2.1705E-01  0.0000E+00  6.3811E-02
 75  2.7613E+00  2.4133E-01  7.4392E-01  0.0000E+00  6.3028E-01  3.2115E-01  5.2814E-01  3.2642E-03  9.6239E-02
 76  0.0000E+00  8.1027E-05  0.0000E+00  0.0000E+00  0.0000E+00  0.0000E+00  0.0000E+00  0.0000E+00  8.3262E-04
 77  0.0000E+00  1.9074E-05  0.0000E+00  0.0000E+00  0.0000E+00  0.0000E+00  0.0000E+00  0.0000E+00  0.0000E+00
 78  0.0000E+00  3.2051E-05  1.5721E-05  0.0000E+00  3.3196E-05  0.0000E+00  2.5122E-06  0.0000E+00  0.0000E+00
 79  0.0000E+00  3.7570E-05  2.6990E-05  0.0000E+00  0.0000E+00  0.0000E+00  0.0000E+00  4.3812E-05  0.0000E+00
 80  0.0000E+00  7.5451E-05  2.9318E-04  0.0000E+00  0.0000E+00  0.0000E+00  0.0000E+00  0.0000E+00  0.0000E+00
 81  0.0000E+00  6.9593E-05  0.0000E+00  0.0000E+00  0.0000E+00  0.0000E+00  0.0000E+00  0.0000E+00  0.0000E+00
 82  0.0000E+00  2.4686E-04  0.0000E+00  5.7322E-04  0.0000E+00  1.7785E-03  0.0000E+00  0.0000E+00  0.0000E+00
 83  0.0000E+00  1.0500E-03  8.6199E-04  0.0000E+00  0.0000E+00  1.7930E-03  1.0751E-03  0.0000E+00  9.7033E-04
 84  0.0000E+00  8.0402E-04  2.9921E-03  0.0000E+00  0.0000E+00  1.6938E-03  0.0000E+00  0.0000E+00  0.0000E+00
 85  0.0000E+00  1.3232E-03  0.0000E+00  0.0000E+00  1.4469E-03  2.7145E-03  1.5911E-03  0.0000E+00  0.0000E+00
 86  0.0000E+00  6.1041E-04  1.1521E-03  0.0000E+00  0.0000E+00  0.0000E+00  2.1300E-04  0.0000E+00  0.0000E+00
 87  0.0000E+00  7.5334E-04  0.0000E+00  0.0000E+00  0.0000E+00  0.0000E+00  0.0000E+00  4.5197E-03  0.0000E+00
 88  0.0000E+00  7.1933E-04  2.1734E-04  1.0178E-02  0.0000E+00  0.0000E+00  0.0000E+00  3.6686E-04  0.0000E+00
 89  0.0000E+00  8.7370E-04  0.0000E+00  0.0000E+00  0.0000E+00  0.0000E+00  0.0000E+00  0.0000E+00  0.0000E+00
 90  0.0000E+00  8.6795E-04  0.0000E+00  0.0000E+00  0.0000E+00  0.0000E+00  0.0000E+00  0.0000E+00  0.0000E+00
 91  0.0000E+00  1.1287E-03  0.0000E+00  0.0000E+00  0.0000E+00  0.0000E+00  0.0000E+00  0.0000E+00  0.0000E+00
 92  0.0000E+00  1.2981E-03  0.0000E+00  0.0000E+00  0.0000E+00  0.0000E+00  0.0000E+00  0.0000E+00  0.0000E+00
 93  0.0000E+00  4.1751E-03  0.0000E+00  0.0000E+00  0.0000E+00  2.9955E-03  0.0000E+00  0.0000E+00  0.0000E+00
 94  0.0000E+00  1.2622E-02  0.0000E+00  0.0000E+00  0.0000E+00  0.0000E+00  0.0000E+00  0.0000E+00  0.0000E+00
 95  0.0000E+00  1.1487E-02  0.0000E+00  8.5611E-02  0.0000E+00  2.0607E-02  0.0000E+00  0.0000E+00  0.0000E+00
 96  0.0000E+00  1.5630E-02  0.0000E+00  0.0000E+00  0.0000E+00  0.0000E+00  0.0000E+00  0.0000E+00  0.0000E+00
 97  0.0000E+00  1.3266E-02  0.0000E+00  0.0000E+00  0.0000E+00  0.0000E+00  0.0000E+00  0.0000E+00  0.0000E+00
 98  0.0000E+00  1.8558E-02  0.0000E+00  0.0000E+00  2.8659E-01  1.6968E-01  0.0000E+00  0.0000E+00  0.0000E+00
 99  0.0000E+00  1.5461E-02  0.0000E+00  0.0000E+00  0.0000E+00  0.0000E+00  0.0000E+00  0.0000E+00  2.3452E-01
100  0.0000E+00  1.7640E-02  0.0000E+00  0.0000E+00  0.0000E+00  0.0000E+00  0.0000E+00  0.0000E+00  0.0000E+00
101  0.0000E+00  1.4807E-05  1.2465E-05  2.5775E-04  0.0000E+00  0.0000E+00  0.0000E+00  0.0000E+00  0.0000E+00
102  0.0000E+00  1.0396E-05  0.0000E+00  2.0836E-06  0.0000E+00  0.0000E+00  0.0000E+00  0.0000E+00  0.0000E+00
103  0.0000E+00  9.1723E-05  7.8993E-05  0.0000E+00  5.6095E-05  0.0000E+00  0.0000E+00  0.0000E+00  0.0000E+00
104  0.0000E+00  7.9838E-05  0.0000E+00  0.0000E+00  0.0000E+00  0.0000E+00  0.0000E+00  0.0000E+00  0.0000E+00
105  0.0000E+00  6.0100E-05  0.0000E+00  0.0000E+00  0.0000E+00  0.0000E+00  0.0000E+00  0.0000E+00  0.0000E+00
106  0.0000E+00  1.4511E-04  3.2096E-05  0.0000E+00  0.0000E+00  1.3126E-03  0.0000E+00  0.0000E+00  0.0000E+00
107  0.0000E+00  9.2292E-05  0.0000E+00  0.0000E+00  0.0000E+00  0.0000E+00  1.1624E-04  0.0000E+00  0.0000E+00
108  0.0000E+00  4.2641E-05  0.0000E+00  0.0000E+00  0.0000E+00  0.0000E+00  0.0000E+00  0.0000E+00  0.0000E+00
109  0.0000E+00  2.5066E-04  0.0000E+00  0.0000E+00  0.0000E+00  3.9996E-05  0.0000E+00  0.0000E+00  2.2481E-04
110  0.0000E+00  1.7913E-04  8.8376E-04  0.0000E+00  0.0000E+00  0.0000E+00  0.0000E+00  0.0000E+00  0.0000E+00
111  0.0000E+00  2.7062E-04  0.0000E+00  0.0000E+00  0.0000E+00  0.0000E+00  9.6469E-04  0.0000E+00  0.0000E+00
112  0.0000E+00  7.3451E-04  0.0000E+00  0.0000E+00  0.0000E+00  0.0000E+00  0.0000E+00  8.0422E-03  0.0000E+00
113  0.0000E+00  9.9667E-04  0.0000E+00  0.0000E+00  0.0000E+00  8.4599E-03  0.0000E+00  0.0000E+00  0.0000E+00
114  0.0000E+00  5.3317E-04  0.0000E+00  0.0000E+00  3.0622E-03  0.0000E+00  0.0000E+00  0.0000E+00  0.0000E+00
115  0.0000E+00  9.7376E-04  0.0000E+00  0.0000E+00  0.0000E+00  0.0000E+00  0.0000E+00  0.0000E+00  0.0000E+00
116  0.0000E+00  2.0920E-03  0.0000E+00  0.0000E+00  0.0000E+00  0.0000E+00  0.0000E+00  0.0000E+00  0.0000E+00
117  0.0000E+00  1.9296E-03  0.0000E+00  0.0000E+00  0.0000E+00  0.0000E+00  1.8894E-02  0.0000E+00  0.0000E+00
118  0.0000E+00  3.4177E-03  0.0000E+00  0.0000E+00  0.0000E+00  4.9680E-02  0.0000E+00  0.0000E+00  1.2122E-03
119  0.0000E+00  4.1496E-03  0.0000E+00  0.0000E+00  0.0000E+00  0.0000E+00  0.0000E+00  0.0000E+00  0.0000E+00
120  0.0000E+00  7.5445E-03  0.0000E+00  0.0000E+00  0.0000E+00  1.9435E-03  0.0000E+00  0.0000E+00  0.0000E+00
121  0.0000E+00  1.2927E-02  0.0000E+00  0.0000E+00  0.0000E+00  0.0000E+00  0.0000E+00  1.0793E-01  0.0000E+00
122  0.0000E+00  1.4678E-02  2.1568E-01  0.0000E+00  0.0000E+00  0.0000E+00  0.0000E+00  0.0000E+00  0.0000E+00
123  0.0000E+00  2.2125E-02  0.0000E+00  0.0000E+00  0.0000E+00  0.0000E+00  0.0000E+00  0.0000E+00  0.0000E+00
124  0.0000E+00  3.1125E-02  0.0000E+00  0.0000E+00  0.0000E+00  6.8923E-01  0.0000E+00  0.0000E+00  0.0000E+00
125  0.0000E+00  1.7779E-02  0.0000E+00  0.0000E+00  0.0000E+00  0.0000E+00  0.0000E+00  0.0000E+00  0.0000E+00
126  0.0000E+00  1.4203E-05  0.0000E+00  9.9916E-06  0.0000E+00  0.0000E+00  0.0000E+00  0.0000E+00  0.0000E+00
127  0.0000E+00  1.8092E-05  0.0000E+00  0.0000E+00  0.0000E+00  0.0000E+00  0.0000E+00  0.0000E+00  0.0000E+00
128  0.0000E+00  2.0964E-05  0.0000E+00  0.0000E+00  0.0000E+00  0.0000E+00  0.0000E+00  0.0000E+00  0.0000E+00
129  0.0000E+00  3.7427E-05  0.0000E+00  0.0000E+00  2.1050E-05  0.0000E+00  0.0000E+00  0.0000E+00  6.4032E-05
130  0.0000E+00  3.6938E-05  0.0000E+00  5.0474E-05  0.0000E+00  0.0000E+00  0.0000E+00  0.0000E+00  7.6833E-05
131  0.0000E+00  4.3137E-05  0.0000E+00  0.0000E+00  0.0000E+00  0.0000E+00  0.0000E+00  1.3725E-05  0.0000E+00
132  0.0000E+00  5.2089E-05  0.0000E+00  8.3733E-04  0.0000E+00  3.6466E-05  0.0000E+00  0.0000E+00  0.0000E+00
133  0.0000E+00  5.6997E-05  0.0000E+00  0.0000E+00  0.0000E+00  0.0000E+00  0.0000E+00  0.0000E+00  0.0000E+00
134  0.0000E+00  1.2068E-04  0.0000E+00  0.0000E+00  0.0000E+00  0.0000E+00  0.0000E+00  0.0000E+00  0.0000E+00
135  0.0000E+00  8.2862E-04  0.0000E+00  0.0000E+00  0.0000E+00  1.7980E-03  0.0000E+00  0.0000E+00  0.0000E+00
136  0.0000E+00  3.3940E-04  0.0000E+00  2.6828E-03  0.0000E+00  0.0000E+00  3.8038E-03  0.0000E+00  0.0000E+00
137  0.0000E+00  5.4886E-04  0.0000E+00  0.0000E+00  2.0960E-03  3.1209E-03  2.4724E-04  0.0000E+00  0.0000E+00
138  0.0000E+00  6.8255E-04  0.0000E+00  0.0000E+00  0.0000E+00  0.0000E+00  0.0000E+00  0.0000E+00  0.0000E+00
139  0.0000E+00  6.9973E-04  0.0000E+00  0.0000E+00  0.0000E+00  0.0000E+00  0.0000E+00  0.0000E+00  0.0000E+00
140  0.0000E+00  1.5507E-03  0.0000E+00  0.0000E+00  3.3776E-04  0.0000E+00  9.8263E-04  0.0000E+00  1.1244E-02
141  0.0000E+00  2.0554E-03  0.0000E+00  0.0000E+00  0.0000E+00  0.0000E+00  0.0000E+00  0.0000E+00  0.0000E+00
142  0.0000E+00  3.5188E-03  0.0000E+00  0.0000E+00  0.0000E+00  0.0000E+00  0.0000E+00  0.0000E+00  0.0000E+00
143  0.0000E+00  6.5927E-03  0.0000E+00  0.0000E+00  0.0000E+00  0.0000E+00  0.0000E+00  0.0000E+00  0.0000E+00
144  0.0000E+00  2.1386E-02  0.0000E+00  0.0000E+00  0.0000E+00  0.0000E+00  0.0000E+00  0.0000E+00  0.0000E+00
145  0.0000E+00  7.1397E-02  0.0000E+00  0.0000E+00  0.0000E+00  0.0000E+00  0.0000E+00  5.0485E-02  0.0000E+00
146  0.0000E+00  1.6048E-01  7.7177E-02  0.0000E+00  0.0000E+00  2.1908E-01  2.8850E-01  0.0000E+00  0.0000E+00
147  0.0000E+00  7.5647E-01  9.5065E-01  5.2318E-01  0.0000E+00  8.2878E-01  9.1974E-01  4.6480E-01  6.6244E-01
148  2.0203E+01  1.6956E+01  1.7963E+01  1.7893E+01  1.7622E+01  1.6412E+01  1.6220E+01  1.7414E+01  1.8076E+01
149  1.6678E-02  1.2842E+00  1.4340E+00  1.2415E+00  1.4627E+00  1.3498E+00  1.4050E+00  2.0667E+00  1.2706E+00
150  5.3514E+00  5.9683E+00  5.7272E+00  6.3074E+00  6.0099E+00  5.9510E+00  5.9386E+00  5.9854E+00  6.2967E+00

# AV, chi2 & Mass for <> & i_chain = 1 ...  7 solutions
AV       0.9380      0.8887      0.8970      0.8945      0.8990      0.9068      0.8880      0.8986      0.8960
chi2 1.9526E+00  2.0943E+00  2.0731E+00  2.0752E+00  2.0656E+00  2.0721E+00  2.0784E+00  2.0709E+00  2.0705E+00
Mass 1.1331E-09  1.1540E-09  1.1550E-09  1.1655E-09  1.1459E-09  1.1575E-09  1.1524E-09  1.1582E-09  1.1686E-09
 -26.99                                  [v0_min (km/s) before EX0s...]
  38.35                                  [vd_min (km/s) before EX0s...]


## Synthetic spectrum (Best Model) ##l_obs f_obs f_syn wei
 3070    [Nl_obs]
 3359.00    0.17615   0.37584   -1.000
 3360.00    0.24987   0.36660   -1.000
 3361.00    0.25832   0.38241   -1.000
 3362.00    0.27183   0.40944   -1.000
 3363.00    0.28380   0.43847   -1.000
 3364.00    0.29390   0.45123   -1.000
 3365.00    0.29340   0.44633   -1.000
 3366.00    0.29742   0.43949   -1.000
 3367.00    0.30033   0.43372   -1.000
 3368.00    0.30561   0.42639   -1.000
 3369.00    0.29110   0.41400   -1.000
 3370.00    0.28464   0.39474   -1.000
 3371.00    0.29591   0.38398   -1.000
 3372.00    0.30134   0.38951   -1.000
 3373.00    0.30224   0.40907   -1.000
 3374.00    0.31023   0.43286   -1.000
 3375.00    0.31351   0.45318   -1.000
 3376.00    0.32383   0.45975   -1.000
 3377.00    0.34044   0.45397   -1.000
 3378.00    0.35220   0.44220   -1.000
 3379.00    0.34108   0.43685   -1.000
 3380.00    0.32997   0.44087   -1.000
 3381.00    0.34432   0.44801   -1.000
 3382.00    0.35437   0.45378   -1.000
 3383.00    0.35301   0.45634   -1.000
 3384.00    0.35360   0.45955   -1.000
 3385.00    0.36512   0.46210   -1.000
 3386.00    0.36827   0.45487   -1.000
 3387.00    0.36955   0.44394   -1.000
 3388.00    0.37430   0.44026   -1.000
 3389.00    0.39050   0.44809   -1.000
 3390.00    0.39431   0.45994   -1.000
 3391.00    0.38319   0.46545   -1.000
 3392.00    0.37486   0.45916   -1.000
 3393.00    0.38452   0.45470   -1.000
 3394.00    0.38318   0.45958   -1.000
 3395.00    0.38966   0.47081   -1.000
 3396.00    0.40686   0.48398   -1.000
 3397.00    0.41656   0.49462   -1.000
 3398.00    0.42817   0.50213   -1.000
 3399.00    0.44488   0.50230   -1.000
 3400.00    0.45123   0.49589   -1.000
 3401.00    0.44491   0.48229   -1.000
 3402.00    0.44237   0.46517  203.161
 3403.00    0.43760   0.45603  203.161
 3404.00    0.43163   0.45400  203.161
 3405.00    0.43387   0.45985  203.161
 3406.00    0.43146   0.46164   -1.000
 3407.00    0.43327   0.45809  203.161
 3408.00    0.42313   0.45332   -1.000
 3409.00    0.41874   0.45574   -1.000
 3410.00    0.42277   0.46254   -1.000
 3411.00    0.42905   0.46010   -1.000
 3412.00    0.43455   0.45102  203.161
 3413.00    0.43578   0.44091  203.161
 3414.00    0.43113   0.44236   36.765
 3415.00    0.43060   0.45676   26.251
 3416.00    0.44047   0.47165   25.251
 3417.00    0.44466   0.48222   24.082
 3418.00    0.45624   0.49049   22.885
 3419.00    0.46617   0.49743   22.486
 3420.00    0.48161   0.50241   22.354
 3421.00    0.48593   0.49730   22.407
 3422.00    0.46984   0.47987   22.915
 3423.00    0.46597   0.46427   23.483
 3424.00    0.47050   0.46153   23.148
 3425.00    0.47165   0.46827   22.516
 3426.00    0.48161   0.47764   22.260
 3427.00    0.48373   0.49074   59.772
 3428.00    0.48793   0.50672  203.161
 3429.00    0.50641   0.51935  203.161
 3430.00    0.50909   0.51785  203.161
 3431.00    0.51090   0.49889   -1.000
 3432.00    0.50703   0.48130   30.517
 3433.00    0.49241   0.47918   22.210
 3434.00    0.48351   0.49436   59.808
 3435.00    0.49309   0.50917  203.161
 3436.00    0.49568   0.50877   30.274
 3437.00    0.49607   0.49581   22.886
 3438.00    0.49031   0.47954   24.177
 3439.00    0.47744   0.46373   25.966
 3440.00    0.45428   0.44767   27.319
 3441.00    0.43011   0.43395   27.666
 3442.00    0.43687   0.42863   27.592
 3443.00    0.44347   0.43208   26.768
 3444.00    0.44970   0.44188   25.409
 3445.00    0.46325   0.45737   24.005
 3446.00    0.48120   0.47911   23.031
 3447.00    0.49260   0.50057   61.438
 3448.00    0.50623   0.51567  203.161
 3449.00    0.50500   0.51804  203.161
 3450.00    0.51357   0.50350   -1.000
 3451.00    0.52771   0.48434   -1.000
 3452.00    0.52320   0.47347   -1.000
 3453.00    0.50722   0.47431   -1.000
 3454.00    0.51214   0.48226   -1.000
 3455.00    0.51628   0.49012   -1.000
 3456.00    0.51591   0.49161   -1.000
 3457.00    0.51091   0.48690   -1.000
 3458.00    0.51142   0.47835   30.166
 3459.00    0.49460   0.46818   22.438
 3460.00    0.48164   0.45870   22.418
 3461.00    0.48992   0.45913   61.017
 3462.00    0.49726   0.47016   -1.000
 3463.00    0.50240   0.48037   -1.000
 3464.00    0.50637   0.48239   -1.000
 3465.00    0.51293   0.47834   -1.000
 3466.00    0.51698   0.48148   -1.000
 3467.00    0.52240   0.49288   -1.000
 3468.00    0.53309   0.50688   -1.000
 3469.00    0.54234   0.51739   -1.000
 3470.00    0.53667   0.51985   -1.000
 3471.00    0.53559   0.51407   -1.000
 3472.00    0.54016   0.50029   -1.000
 3473.00    0.52245   0.47850   -1.000
 3474.00    0.49699   0.46107   30.298
 3475.00    0.47891   0.45516   23.007
 3476.00    0.47963   0.46287   22.885
 3477.00    0.48177   0.48052   62.007
 3478.00    0.49528   0.49522  200.547
 3479.00    0.51510   0.50660  192.292
 3480.00    0.52693   0.51515  189.767
 3481.00    0.53120   0.51565   -1.000
 3482.00    0.53195   0.51042   -1.000
 3483.00    0.53244   0.50500   -1.000
 3484.00    0.53676   0.50506   -1.000
 3485.00    0.53979   0.51312   -1.000
 3486.00    0.55024   0.52037   -1.000
 3487.00    0.55771   0.51889   -1.000
 3488.00    0.54290   0.50884   -1.000
 3489.00    0.52181   0.49404   -1.000
 3490.00    0.50180   0.48538   -1.000
 3491.00    0.49228   0.48989  203.161
 3492.00    0.49250   0.49942  203.161
 3493.00    0.50524   0.50213  203.161
 3494.00    0.50767   0.49733   -1.000
 3495.00    0.49925   0.48783   -1.000
 3496.00    0.49086   0.48261  203.161
 3497.00    0.49613   0.48670  203.161
 3498.00    0.50959   0.49309   -1.000
 3499.00    0.51967   0.49861   -1.000
 3500.00    0.54206   0.49819   -1.000
 3501.00    0.54311   0.49867   -1.000
 3502.00    0.54926   0.50506   -1.000
 3503.00    0.55347   0.50973   -1.000
 3504.00    0.54557   0.50816   -1.000
 3505.00    0.54204   0.49986   -1.000
 3506.00    0.53714   0.49141   -1.000
 3507.00    0.53580   0.48676   -1.000
 3508.00    0.53774   0.48709   -1.000
 3509.00    0.53273   0.49145   -1.000
 3510.00    0.52440   0.49292   -1.000
 3511.00    0.52032   0.48939   -1.000
 3512.00    0.52427   0.48067   -1.000
 3513.00    0.50939   0.47368   -1.000
 3514.00    0.50636   0.47600   -1.000
 3515.00    0.52430   0.49083   -1.000
 3516.00    0.53853   0.51436   -1.000
 3517.00    0.54826   0.53020   -1.000
 3518.00    0.55412   0.52871   -1.000
 3519.00    0.54176   0.51264   -1.000
 3520.00    0.53450   0.49727   -1.000
 3521.00    0.52905   0.48821   -1.000
 3522.00    0.51583   0.48155   -1.000
 3523.00    0.50179   0.47231   29.688
 3524.00    0.48715   0.46069   22.790
 3525.00    0.47998   0.45702   22.906
 3526.00    0.47301   0.46703   64.015
 3527.00    0.48470   0.48342  202.258
 3528.00    0.50674   0.50138  190.201
 3529.00    0.52450   0.51520  185.264
 3530.00    0.53360   0.52346  187.354
 3531.00    0.53617   0.52510  189.341
 3532.00    0.53874   0.51376   -1.000
 3533.00    0.54484   0.49537   -1.000
 3534.00    0.53932   0.48561   -1.000
 3535.00    0.54264   0.49148   -1.000
 3536.00    0.54555   0.51247   -1.000
 3537.00    0.55429   0.53223   -1.000
 3538.00    0.56236   0.54296   -1.000
 3539.00    0.55916   0.54651  175.592
 3540.00    0.55796   0.54330  178.471
 3541.00    0.55704   0.53941   -1.000
 3542.00    0.55712   0.54090   -1.000
 3543.00    0.56235   0.54828  177.741
 3544.00    0.56348   0.55222  176.621
 3545.00    0.56375   0.54945  178.891
 3546.00    0.56413   0.54422   -1.000
 3547.00    0.56405   0.53964   -1.000
 3548.00    0.56090   0.53861   -1.000
 3549.00    0.56120   0.54177   -1.000
 3550.00    0.56088   0.54767  184.783
 3551.00    0.55351   0.55024  189.715
 3552.00    0.54147   0.54281  195.351
 3553.00    0.53912   0.52969  199.194
 3554.00    0.53872   0.52294   -1.000
 3555.00    0.54378   0.52666   -1.000
 3556.00    0.54234   0.53611  194.250
 3557.00    0.54089   0.54625  196.585
 3558.00    0.54605   0.55147  199.201
 3559.00    0.54146   0.55258  198.404
 3560.00    0.54362   0.55338  195.059
 3561.00    0.55372   0.55380  193.494
 3562.00    0.55076   0.54896  193.623
 3563.00    0.53698   0.53495  202.517
 3564.00    0.52138   0.51430   29.637
 3565.00    0.50499   0.49614   23.107
 3566.00    0.49474   0.48900   23.159
 3567.00    0.49488   0.49062   22.990
 3568.00    0.49812   0.49241   23.532
 3569.00    0.49222   0.48745   24.068
 3570.00    0.47581   0.47756   23.619
 3571.00    0.48068   0.47243   22.637
 3572.00    0.49623   0.47463   64.501
 3573.00    0.50751   0.47981   -1.000
 3574.00    0.51459   0.48675   -1.000
 3575.00    0.50970   0.49525   -1.000
 3576.00    0.50646   0.50233  203.161
 3577.00    0.51714   0.50645  203.161
 3578.00    0.51846   0.50554   30.558
 3579.00    0.50983   0.49638   24.526
 3580.00    0.48764   0.48333   26.041
 3581.00    0.47383   0.47216   26.537
 3582.00    0.47227   0.46761   26.659
 3583.00    0.46336   0.46874   27.185
 3584.00    0.46281   0.46473   28.031
 3585.00    0.45992   0.45229   28.567
 3586.00    0.44354   0.44027   27.580
 3587.00    0.44915   0.43954   26.121
 3588.00    0.45624   0.45435   24.826
 3589.00    0.47540   0.47845   22.848
 3590.00    0.49848   0.49940   64.357
 3591.00    0.51434   0.51042  200.213
 3592.00    0.52397   0.51157  197.997
 3593.00    0.52546   0.51140   -1.000
 3594.00    0.53312   0.51746   -1.000
 3595.00    0.54786   0.52920   -1.000
 3596.00    0.55863   0.54002   -1.000
 3597.00    0.55354   0.54608  170.550
 3598.00    0.55922   0.54845  167.333
 3599.00    0.56717   0.54828   -1.000
 3600.00    0.56070   0.54139   -1.000
 3601.00    0.54736   0.52739   -1.000
 3602.00    0.54556   0.51569   -1.000
 3603.00    0.53157   0.51142   -1.000
 3604.00    0.51784   0.51598  199.656
 3605.00    0.52116   0.51989  198.385
 3606.00    0.52248   0.51693  199.498
 3607.00    0.51872   0.50972  203.161
 3608.00    0.51064   0.50259  203.161
 3609.00    0.50537   0.50036  203.161
 3610.00    0.50650   0.50266  203.161
 3611.00    0.51017   0.50862  197.813
 3612.00    0.51643   0.51665  192.528
 3613.00    0.51314   0.52549  188.779
 3614.00    0.51753   0.53814   -1.000
 3615.00    0.53494   0.54865   -1.000
 3616.00    0.54439   0.54435  193.053
 3617.00    0.52652   0.52846  203.161
 3618.00    0.50882   0.51058   28.887
 3619.00    0.49222   0.50468   65.037
 3620.00    0.49898   0.51530  193.710
 3621.00    0.51791   0.53098  181.172
 3622.00    0.54082   0.54324  175.381
 3623.00    0.55051   0.55123  172.737
 3624.00    0.55756   0.56070  167.362
 3625.00    0.57025   0.57700  160.501
 3626.00    0.58522   0.59628  157.057
 3627.00    0.59555   0.60580  158.663
 3628.00    0.58488   0.59353  166.710
 3629.00    0.56771   0.56339  184.147
 3630.00    0.54085   0.53007  201.386
 3631.00    0.50911   0.51460  203.161
 3632.00    0.50296   0.52076   -1.000
 3633.00    0.51514   0.53702   -1.000
 3634.00    0.52249   0.54735   -1.000
 3635.00    0.52880   0.54871   -1.000
 3636.00    0.54553   0.55235  176.070
 3637.00    0.56252   0.56333  168.036
 3638.00    0.56923   0.57491  161.935
 3639.00    0.57709   0.58152  160.470
 3640.00    0.57585   0.58138  163.494
 3641.00    0.56497   0.57378  168.700
 3642.00    0.55929   0.56178  177.034
 3643.00    0.54964   0.55115  183.347
 3644.00    0.53742   0.54401  187.012
 3645.00    0.52534   0.53904   -1.000
 3646.00    0.52415   0.53477  193.298
 3647.00    0.52583   0.53262  194.286
 3648.00    0.52412   0.53278  190.266
 3649.00    0.52590   0.53492  183.128
 3650.00    0.53199   0.54002  174.566
 3651.00    0.54905   0.54983  166.960
 3652.00    0.56932   0.56380  162.168
 3653.00    0.57390   0.57661  159.512
 3654.00    0.57897   0.58838  158.579
 3655.00    0.58310   0.59896   -1.000
 3656.00    0.58759   0.60620   -1.000
 3657.00    0.59546   0.60877   -1.000
 3658.00    0.59221   0.60718   -1.000
 3659.00    0.60113   0.60402  152.502
 3660.00    0.59289   0.59899  153.790
 3661.00    0.58839   0.59116  155.464
 3662.00    0.58888   0.58355  157.900
 3663.00    0.58147   0.58093  159.472
 3664.00    0.57701   0.58466  158.259
 3665.00    0.58226   0.58984  157.865
 3666.00    0.57983   0.59193   -1.000
 3667.00    0.57421   0.58869   -1.000
 3668.00    0.57509   0.58079  166.117
 3669.00    0.57294   0.57434  166.281
 3670.00    0.56694   0.57456  161.169
 3671.00    0.57660   0.58167  157.246
 3672.00    0.58548   0.59076  156.096
 3673.00    0.58734   0.59505  155.951
 3674.00    0.59076   0.59280  156.220
 3675.00    0.58572   0.58506  160.010
 3676.00    0.58100   0.57204  165.025
 3677.00    0.57619   0.55756  170.064
 3678.00    0.56211   0.54854  174.596
 3679.00    0.54845   0.54956  175.259
 3680.00    0.54856   0.55536  171.575
 3681.00    0.55984   0.56074  166.689
 3682.00    0.56942   0.56386  164.381
 3683.00    0.56672   0.56398  167.107
 3684.00    0.56063   0.56161  173.359
 3685.00    0.55678   0.55513  180.520
 3686.00    0.54719   0.54967  184.751
 3687.00    0.53751   0.55338   -1.000
 3688.00    0.54967   0.56868   -1.000
 3689.00    0.56740   0.58680   -1.000
 3690.00    0.58118   0.59736   -1.000
 3691.00    0.59246   0.59993  153.239
 3692.00    0.59760   0.59879  156.818
 3693.00    0.59683   0.59845  159.501
 3694.00    0.59557   0.59953  159.446
 3695.00    0.59845   0.59874  158.172
 3696.00    0.60056   0.59373  156.350
 3697.00    0.59899   0.59365  151.918
 3698.00    0.61008   0.60680  147.788
 3699.00    0.62384   0.62719  145.417
 3700.00    0.63814   0.64030  147.123
 3701.00    0.63611   0.62869  153.006
 3702.00    0.60219   0.59462  165.807
 3703.00    0.57502   0.55463   -1.000
 3704.00    0.55655   0.52803   -1.000
 3705.00    0.54013   0.52261   -1.000
 3706.00    0.54965   0.53355   -1.000
 3707.00    0.55450   0.55016  187.089
 3708.00    0.56068   0.56107  181.956
 3709.00    0.56309   0.55909  174.248
 3710.00    0.56694   0.54947   -1.000
 3711.00    0.57345   0.54526   -1.000
 3712.00    0.59029   0.55627   -1.000
 3713.00    0.61268   0.58410   -1.000
 3714.00    0.62849   0.61617  143.796
 3715.00    0.65509   0.63930  146.652
 3716.00    0.66370   0.64769  152.673
 3717.00    0.65815   0.63813   -1.000
 3718.00    0.62718   0.60726   -1.000
 3719.00    0.56983   0.55601   -1.000
 3720.00    0.52076   0.50129   28.760
 3721.00    0.49823   0.47489   70.097
 3722.00    0.51330   0.48736   -1.000
 3723.00    0.55190   0.53024   -1.000
 3724.00    0.60181   0.58177   -1.000
 3725.00    0.64561   0.61604   -1.000
 3726.00    0.66258   0.62948   -1.000
 3727.00    0.65583   0.63377   -1.000
 3728.00    0.65538   0.63773   -1.000
 3729.00    0.65401   0.64020   -1.000
 3730.00    0.64621   0.63116   -1.000
 3731.00    0.61515   0.59524   -1.000
 3732.00    0.56719   0.53608   28.065
 3733.00    0.51730   0.47958   24.135
 3734.00    0.47174   0.44398   25.523
 3735.00    0.46434   0.44409   24.735
 3736.00    0.49102   0.47861   22.629
 3737.00    0.53285   0.53106   68.349
 3738.00    0.58056   0.58579  180.083
 3739.00    0.62962   0.63335  167.992
 3740.00    0.65687   0.65969  165.106
 3741.00    0.67066   0.66195  169.965
 3742.00    0.66594   0.64610   -1.000
 3743.00    0.64338   0.62496   -1.000
 3744.00    0.60820   0.60280  201.962
 3745.00    0.59229   0.58109   -1.000
 3746.00    0.57024   0.55492   28.449
 3747.00    0.53463   0.52041   23.558
 3748.00    0.50311   0.48427   24.107
 3749.00    0.47921   0.46003   75.612
 3750.00    0.48086   0.46655  196.501
 3751.00    0.52344   0.50730   -1.000
 3752.00    0.58690   0.56522   -1.000
 3753.00    0.64359   0.62030   -1.000
 3754.00    0.67916   0.65790   -1.000
 3755.00    0.70631   0.67445   -1.000
 3756.00    0.70279   0.66861   -1.000
 3757.00    0.67429   0.64713   -1.000
 3758.00    0.64323   0.62715   -1.000
 3759.00    0.62872   0.62019  185.924
 3760.00    0.63796   0.62824  176.631
 3761.00    0.65517   0.64378  172.028
 3762.00    0.67776   0.65370   -1.000
 3763.00    0.67921   0.65479   -1.000
 3764.00    0.67352   0.64840   -1.000
 3765.00    0.66385   0.63623   -1.000
 3766.00    0.63863   0.61817   -1.000
 3767.00    0.61351   0.59057   -1.000
 3768.00    0.59809   0.55532   -1.000
 3769.00    0.58079   0.52289   -1.000
 3770.00    0.55719   0.50887   -1.000
 3771.00    0.55827   0.52616   -1.000
 3772.00    0.59171   0.56600   -1.000
 3773.00    0.63229   0.60942   -1.000
 3774.00    0.65835   0.63882  153.387
 3775.00    0.67961   0.65525   -1.000
 3776.00    0.70490   0.66846   -1.000
 3777.00    0.71779   0.68846   -1.000
 3778.00    0.73037   0.71357   -1.000
 3779.00    0.76564   0.73768   -1.000
 3780.00    0.78593   0.75579   -1.000
 3781.00    0.79534   0.76246   -1.000
 3782.00    0.79329   0.76053   -1.000
 3783.00    0.78801   0.75394   -1.000
 3784.00    0.78727   0.74417   -1.000
 3785.00    0.77463   0.73009   -1.000
 3786.00    0.74092   0.71305   -1.000
 3787.00    0.71561   0.69612   -1.000
 3788.00    0.70475   0.68651   -1.000
 3789.00    0.69738   0.68515  171.290
 3790.00    0.69953   0.68590  169.248
 3791.00    0.70089   0.68181   -1.000
 3792.00    0.69528   0.66733   -1.000
 3793.00    0.66494   0.64064   -1.000
 3794.00    0.62525   0.60389   -1.000
 3795.00    0.59646   0.56074   -1.000
 3796.00    0.55639   0.51686   -1.000
 3797.00    0.52031   0.48345   -1.000
 3798.00    0.51336   0.47914   -1.000
 3799.00    0.53636   0.51454   -1.000
 3800.00    0.58884   0.57769  170.481
 3801.00    0.64323   0.63879  161.773
 3802.00    0.68833   0.68251  157.506
 3803.00    0.72018   0.70537  156.094
 3804.00    0.74093   0.71538   -1.000
 3805.00    0.74113   0.71618   -1.000
 3806.00    0.73928   0.71713   -1.000
 3807.00    0.73796   0.72577  164.122
 3808.00    0.74782   0.74272  158.087
 3809.00    0.76513   0.76221  155.420
 3810.00    0.78538   0.77367  157.511
 3811.00    0.79403   0.76622   -1.000
 3812.00    0.77316   0.74203   -1.000
 3813.00    0.74689   0.71637   -1.000
 3814.00    0.72421   0.70077   -1.000
 3815.00    0.71669   0.70257   -1.000
 3816.00    0.72284   0.71645  186.976
 3817.00    0.73834   0.72905  188.026
 3818.00    0.74743   0.72520   -1.000
 3819.00    0.72134   0.70614   -1.000
 3820.00    0.70203   0.69008  203.161
 3821.00    0.70471   0.68924   -1.000
 3822.00    0.72024   0.69796   -1.000
 3823.00    0.71353   0.69335   -1.000
 3824.00    0.68209   0.67182   28.871
 3825.00    0.64864   0.65030   23.598
 3826.00    0.63378   0.63568   23.535
 3827.00    0.62455   0.62598   23.185
 3828.00    0.61527   0.61766   22.804
 3829.00    0.60842   0.60776   22.956
 3830.00    0.59357   0.59190   23.854
 3831.00    0.55304   0.56491   25.609
 3832.00    0.51505   0.52481   26.659
 3833.00    0.49334   0.47865   26.388
 3834.00    0.47764   0.44537   25.415
 3835.00    0.47200   0.43682   24.763
 3836.00    0.47831   0.45200   25.081
 3837.00    0.48494   0.48237   25.682
 3838.00    0.50509   0.51804   25.435
 3839.00    0.53709   0.55243   24.159
 3840.00    0.57435   0.58811   78.790
 3841.00    0.62230   0.62683  199.556
 3842.00    0.66849   0.66615  185.656
 3843.00    0.70619   0.70177  180.609
 3844.00    0.73517   0.72534  179.985
 3845.00    0.75038   0.74022  179.915
 3846.00    0.75640   0.75293  180.170
 3847.00    0.75473   0.76223  183.773
 3848.00    0.75869   0.76365  190.516
 3849.00    0.76183   0.75848  194.403
 3850.00    0.76575   0.75821  191.285
 3851.00    0.76374   0.77054  186.260
 3852.00    0.77016   0.78841   -1.000
 3853.00    0.77783   0.79925   -1.000
 3854.00    0.77682   0.79587   -1.000
 3855.00    0.76823   0.78309   -1.000
 3856.00    0.75722   0.76816  203.161
 3857.00    0.74549   0.75419   27.146
 3858.00    0.73048   0.74285   23.076
 3859.00    0.71734   0.74142   22.941
 3860.00    0.71252   0.75256   76.099
 3861.00    0.74737   0.77183   -1.000
 3862.00    0.78649   0.78929  177.079
 3863.00    0.80206   0.79744  176.544
 3864.00    0.80612   0.79631  179.678
 3865.00    0.81069   0.79414  182.570
 3866.00    0.80599   0.79653  185.986
 3867.00    0.79957   0.80253  192.712
 3868.00    0.79716   0.80569  202.316
 3869.00    0.77775   0.79796   -1.000
 3870.00    0.75618   0.77983   27.439
 3871.00    0.72544   0.75765   76.389
 3872.00    0.72258   0.74004   -1.000
 3873.00    0.73022   0.73633  181.058
 3874.00    0.75116   0.74450  172.468
 3875.00    0.77148   0.75157   -1.000
 3876.00    0.76986   0.74338   -1.000
 3877.00    0.73159   0.72402  202.146
 3878.00    0.69767   0.70786  203.161
 3879.00    0.68836   0.70489  203.161
 3880.00    0.69666   0.71073  203.161
 3881.00    0.69387   0.70853  203.161
 3882.00    0.67436   0.69560   -1.000
 3883.00    0.66648   0.67829  178.349
 3884.00    0.65883   0.65198  179.039
 3885.00    0.64317   0.61153   -1.000
 3886.00    0.60183   0.56011   -1.000
 3887.00    0.56724   0.51150   -1.000
 3888.00    0.55242   0.48678   -1.000
 3889.00    0.55423   0.49687   -1.000
 3890.00    0.58849   0.53881   -1.000
 3891.00    0.63767   0.59335   -1.000
 3892.00    0.67048   0.63774   -1.000
 3893.00    0.69595   0.66163   -1.000
 3894.00    0.69817   0.67487   -1.000
 3895.00    0.71408   0.68893   -1.000
 3896.00    0.74807   0.70621   -1.000
 3897.00    0.75716   0.72270   -1.000
 3898.00    0.76056   0.73268   -1.000
 3899.00    0.76559   0.73737   -1.000
 3900.00    0.77944   0.74606   -1.000
 3901.00    0.79501   0.75624   -1.000
 3902.00    0.80152   0.76051   -1.000
 3903.00    0.80272   0.75820   -1.000
 3904.00    0.78514   0.75258   -1.000
 3905.00    0.76359   0.75269  160.651
 3906.00    0.77220   0.76404  152.564
 3907.00    0.80863   0.78807   -1.000
 3908.00    0.84736   0.81601   -1.000
 3909.00    0.86134   0.83693   -1.000
 3910.00    0.88100   0.84607   -1.000
 3911.00    0.88835   0.84730   -1.000
 3912.00    0.87568   0.84350   -1.000
 3913.00    0.86631   0.83432   -1.000
 3914.00    0.85860   0.82465   -1.000
 3915.00    0.84909   0.82197   -1.000
 3916.00    0.84827   0.82220   -1.000
 3917.00    0.85052   0.81800   -1.000
 3918.00    0.84265   0.80855   -1.000
 3919.00    0.82252   0.79857   -1.000
 3920.00    0.80568   0.79268  166.708
 3921.00    0.80861   0.79066   -1.000
 3922.00    0.81472   0.79346   -1.000
 3923.00    0.81502   0.79743   -1.000
 3924.00    0.81790   0.79681   -1.000
 3925.00    0.80895   0.78490   -1.000
 3926.00    0.77479   0.75792   -1.000
 3927.00    0.72792   0.72070   29.802
 3928.00    0.68066   0.67406   27.868
 3929.00    0.60416   0.62062   32.619
 3930.00    0.52621   0.55256   38.516
 3931.00    0.45333   0.46595   45.169
 3932.00    0.37782   0.38448   50.039
 3933.00    0.33382   0.33857   49.134
 3934.00    0.32731   0.35435   43.345
 3935.00    0.37620   0.42547   36.107
 3936.00    0.45782   0.51730   29.676
 3937.00    0.54197   0.60294   24.850
 3938.00    0.62481   0.67428   -1.000
 3939.00    0.68982   0.72254   -1.000
 3940.00    0.72216   0.75353   -1.000
 3941.00    0.74542   0.77015   -1.000
 3942.00    0.76093   0.77473  188.446
 3943.00    0.75772   0.77585  180.543
 3944.00    0.76885   0.78207  165.141
 3945.00    0.80500   0.79536  154.598
 3946.00    0.82632   0.80968  151.659
 3947.00    0.83385   0.81484  150.494
 3948.00    0.83459   0.81163   -1.000
 3949.00    0.83643   0.80726   -1.000
 3950.00    0.84026   0.80460   -1.000
 3951.00    0.83838   0.80234   -1.000
 3952.00    0.83577   0.80416   -1.000
 3953.00    0.84418   0.81117   -1.000
 3954.00    0.84885   0.81370   -1.000
 3955.00    0.84475   0.80729   -1.000
 3956.00    0.83112   0.79463   -1.000
 3957.00    0.81039   0.78470   -1.000
 3958.00    0.80359   0.78126   -1.000
 3959.00    0.79965   0.77013   -1.000
 3960.00    0.76133   0.74409   -1.000
 3961.00    0.70470   0.71001  199.240
 3962.00    0.66339   0.67303  203.161
 3963.00    0.63105   0.63791   27.864
 3964.00    0.59739   0.59045   26.284
 3965.00    0.53112   0.51860   32.113
 3966.00    0.44758   0.42845   39.368
 3967.00    0.37157   0.33823   44.393
 3968.00    0.32322   0.28425   42.515
 3969.00    0.31756   0.28629   35.694
 3970.00    0.36523   0.34091   29.327
 3971.00    0.42869   0.42325   24.466
 3972.00    0.49716   0.50953   83.733
 3973.00    0.57080   0.58158  184.808
 3974.00    0.63392   0.64111  165.972
 3975.00    0.68590   0.68818  152.400
 3976.00    0.73564   0.72657  142.952
 3977.00    0.77026   0.75824  135.309
 3978.00    0.80175   0.78507  128.044
 3979.00    0.83176   0.80445   -1.000
 3980.00    0.85391   0.81205   -1.000
 3981.00    0.85774   0.81422   -1.000
 3982.00    0.85783   0.81835   -1.000
 3983.00    0.86273   0.82863   -1.000
 3984.00    0.88261   0.84406   -1.000
 3985.00    0.89596   0.85833   -1.000
 3986.00    0.90785   0.86962   -1.000
 3987.00    0.91227   0.88075   -1.000
 3988.00    0.91350   0.88893  117.587
 3989.00    0.92883   0.89149   -1.000
 3990.00    0.94284   0.89481   -1.000
 3991.00    0.95231   0.90231   -1.000
 3992.00    0.95529   0.91271   -1.000
 3993.00    0.96339   0.92025   -1.000
 3994.00    0.95186   0.91813   -1.000
 3995.00    0.93850   0.90551   -1.000
 3996.00    0.92402   0.88965   -1.000
 3997.00    0.91665   0.88242   -1.000
 3998.00    0.91953   0.88864   -1.000
 3999.00    0.94020   0.90404   -1.000
 4000.00    0.96343   0.91867   -1.000
 4001.00    0.97468   0.92739   -1.000
 4002.00    0.98731   0.92796   -1.000
 4003.00    0.98341   0.91975   -1.000
 4004.00    0.95344   0.90447   -1.000
 4005.00    0.93009   0.89444   -1.000
 4006.00    0.92869   0.89957   -1.000
 4007.00    0.95852   0.91711   -1.000
 4008.00    0.97630   0.93627   -1.000
 4009.00    0.98657   0.94694   -1.000
 4010.00    0.99589   0.95075   -1.000
 4011.00    0.99213   0.95090   -1.000
 4012.00    0.97326   0.94954  107.461
 4013.00    0.99461   0.95008   -1.000
 4014.00    0.99114   0.95400   -1.000
 4015.00    1.00000   0.95959   -1.000
 4016.00    1.00309   0.96385   -1.000
 4017.00    0.99787   0.96737   -1.000
 4018.00    1.00835   0.97201   -1.000
 4019.00    1.01329   0.97629   -1.000
 4020.00    1.01560   0.97705   -1.000
 4021.00    1.00756   0.97235   -1.000
 4022.00    1.00397   0.96534   -1.000
 4023.00    0.99614   0.95856   -1.000
 4024.00    0.99597   0.95522   -1.000
 4025.00    1.00039   0.96013   -1.000
 4026.00    1.01858   0.97292   -1.000
 4027.00    1.02692   0.98321   -1.000
 4028.00    1.02164   0.98056   -1.000
 4029.00    0.99711   0.96402  111.937
 4030.00    0.96808   0.94063  117.155
 4031.00    0.95898   0.92370   -1.000
 4032.00    0.94870   0.91865  117.994
 4033.00    0.94762   0.92424  114.455
 4034.00    0.96550   0.93905  109.039
 4035.00    0.98894   0.96115  103.637
 4036.00    1.01722   0.98589   99.774
 4037.00    1.02953   1.00479   98.934
 4038.00    1.05148   1.00965   -1.000
 4039.00    1.05109   1.00395   -1.000
 4040.00    1.03378   0.99529   -1.000
 4041.00    1.02185   0.98896   -1.000
 4042.00    1.02004   0.97967   -1.000
 4043.00    0.99808   0.95824   -1.000
 4044.00    0.95612   0.92851   -1.000
 4045.00    0.92289   0.90705  125.917
 4046.00    0.93007   0.91165  114.517
 4047.00    0.96367   0.94033  106.930
 4048.00    1.00039   0.97183  103.393
 4049.00    1.02813   0.99080   -1.000
 4050.00    1.03472   0.99649   -1.000
 4051.00    1.02467   0.99524  104.918
 4052.00    1.01816   0.98836  107.682
 4053.00    1.00707   0.98006  109.522
 4054.00    0.99804   0.97440  110.510
 4055.00    0.99462   0.97174  111.273
 4056.00    0.99546   0.97079  112.384
 4057.00    0.98084   0.97200  111.418
 4058.00    0.98408   0.97986  107.723
 4059.00    1.00634   0.99060  105.315
 4060.00    1.02125   0.99148  106.569
 4061.00    1.00463   0.97468  113.546
 4062.00    0.97245   0.94675  121.567
 4063.00    0.94610   0.92541  121.149
 4064.00    0.95017   0.91798   -1.000
 4065.00    0.96526   0.92405   -1.000
 4066.00    0.97726   0.93640   -1.000
 4067.00    0.99793   0.94588   -1.000
 4068.00    1.00608   0.95001   -1.000
 4069.00    1.01467   0.94709   -1.000
 4070.00    1.00936   0.93320   -1.000
 4071.00    0.98291   0.91715   -1.000
 4072.00    0.96850   0.91420   -1.000
 4073.00    0.97787   0.92262   -1.000
 4074.00    0.98503   0.92818   -1.000
 4075.00    0.96158   0.91800   -1.000
 4076.00    0.92690   0.89673   -1.000
 4077.00    0.89969   0.88139  122.823
 4078.00    0.90157   0.88532  114.890
 4079.00    0.93780   0.90869   -1.000
 4080.00    0.98104   0.93480   -1.000
 4081.00    1.00280   0.94969   -1.000
 4082.00    0.99357   0.94866   -1.000
 4083.00    0.98194   0.93796   -1.000
 4084.00    0.97077   0.92712   -1.000
 4085.00    0.96823   0.92452   -1.000
 4086.00    0.98160   0.93219   -1.000
 4087.00    0.99826   0.94446   -1.000
 4088.00    1.00397   0.95344   -1.000
 4089.00    1.00246   0.95324   -1.000
 4090.00    0.99022   0.94607   -1.000
 4091.00    0.97605   0.93737   -1.000
 4092.00    0.97636   0.92647   -1.000
 4093.00    0.95361   0.91123   -1.000
 4094.00    0.93876   0.89241   -1.000
 4095.00    0.91301   0.86863   -1.000
 4096.00    0.88703   0.84238   -1.000
 4097.00    0.87130   0.81233   -1.000
 4098.00    0.85172   0.77322   -1.000
 4099.00    0.82260   0.71843   -1.000
 4100.00    0.75202   0.65700   -1.000
 4101.00    0.68949   0.61834   -1.000
 4102.00    0.68153   0.62814   -1.000
 4103.00    0.73415   0.68443   -1.000
 4104.00    0.79799   0.75339   -1.000
 4105.00    0.85928   0.80930   -1.000
 4106.00    0.89317   0.84256   -1.000
 4107.00    0.90142   0.86188   -1.000
 4108.00    0.90518   0.87295   -1.000
 4109.00    0.90158   0.88118  112.549
 4110.00    0.91277   0.89061  111.543
 4111.00    0.93088   0.90281  109.139
 4112.00    0.94829   0.91796  107.179
 4113.00    0.96314   0.93415  105.507
 4114.00    0.98263   0.95016   -1.000
 4115.00    0.99238   0.96062   -1.000
 4116.00    0.99214   0.96091   -1.000
 4117.00    0.98649   0.95325   -1.000
 4118.00    0.98009   0.94309   -1.000
 4119.00    0.97346   0.93821   -1.000
 4120.00    0.96993   0.94217  109.571
 4121.00    0.97848   0.95006  109.527
 4122.00    0.98467   0.95718  108.518
 4123.00    0.99103   0.96366  106.670
 4124.00    0.99376   0.97166  106.109
 4125.00    1.00650   0.97800  107.324
 4126.00    1.00526   0.97779  109.554
 4127.00    0.99518   0.97289  110.655
 4128.00    0.99393   0.96908  111.250
 4129.00    0.98712   0.96659  112.547
 4130.00    0.97964   0.96009  115.846
 4131.00    0.96977   0.94901  119.534
 4132.00    0.95661   0.94150  120.292
 4133.00    0.95215   0.94736  116.826
 4134.00    0.96581   0.96404  111.122
 4135.00    0.98998   0.98305  107.244
 4136.00    1.01697   0.99960  105.305
 4137.00    1.03398   1.01260  103.658
 4138.00    1.04492   1.02298  103.098
 4139.00    1.04896   1.02714  104.908
 4140.00    1.04039   1.01824  110.041
 4141.00    1.01250   0.99714  118.966
 4142.00    0.96637   0.97163  125.798
 4143.00    0.93671   0.95638   -1.000
 4144.00    0.94256   0.96067  115.398
 4145.00    0.97661   0.97912  110.755
 4146.00    1.01387   0.99621  109.252
 4147.00    1.01919   1.00205  110.957
 4148.00    1.00450   1.00182  113.979
 4149.00    0.99525   1.00171  115.626
 4150.00    0.99261   1.00316  115.048
 4151.00    1.00137   1.00283  114.351
 4152.00    1.00164   0.99795  115.216
 4153.00    0.99255   0.99109  117.037
 4154.00    0.99051   0.98628  114.673
 4155.00    0.96393   0.98807   -1.000
 4156.00    1.06902   0.99612   -1.000
 4157.00    1.27655   1.00700   -1.000
 4158.00    1.05902   1.01747   -1.000
 4159.00    0.77141   1.02391   -1.000
 4160.00    0.94646   1.02658   -1.000
 4161.00    1.07266   1.02777   -1.000
 4162.00    1.04010   1.03076  106.159
 4163.00    1.02908   1.03568  107.799
 4164.00    1.02920   1.03904  109.436
 4165.00    1.03048   1.03630  111.815
 4166.00    1.02386   1.02826  113.635
 4167.00    1.01854   1.02292  113.069
 4168.00    1.02171   1.02130  111.203
 4169.00    1.02547   1.01930  111.998
 4170.00    1.00494   1.00722  118.069
 4171.00    0.97418   0.98336  125.322
 4172.00    0.95400   0.96296  126.540
 4173.00    0.94366   0.95776   -1.000
 4174.00    0.94706   0.97008   -1.000
 4175.00    0.96223   0.98763   -1.000
 4176.00    0.96430   0.99536   -1.000
 4177.00    0.96216   0.99677   -1.000
 4178.00    0.97091   0.99936   -1.000
 4179.00    0.98486   1.00766   -1.000
 4180.00    0.99882   1.01509  114.745
 4181.00    1.00268   1.01296  113.663
 4182.00    1.00377   1.01155  111.478
 4183.00    0.99480   1.01685   -1.000
 4184.00    0.99593   1.02125   -1.000
 4185.00    1.00297   1.01849  112.731
 4186.00    0.99650   1.00842  116.060
 4187.00    0.98007   1.00059   -1.000
 4188.00    0.98382   1.00189  113.019
 4189.00    0.99995   1.00740  112.122
 4190.00    1.00642   1.01138  110.722
 4191.00    1.00649   1.01355  108.403
 4192.00    1.01812   1.01791  106.861
 4193.00    1.02784   1.02469  109.498
 4194.00    1.02660   1.02427  115.046
 4195.00    1.00751   1.01112  119.127
 4196.00    0.98025   0.99232  121.415
 4197.00    0.96618   0.97519  121.868
 4198.00    0.95176   0.96393  120.686
 4199.00    0.95201   0.96108  118.793
 4200.00    0.96137   0.96504  118.304
 4201.00    0.96715   0.96872  117.594
 4202.00    0.97454   0.97311  115.842
 4203.00    0.98380   0.98333  114.905
 4204.00    0.98930   0.99577  112.808
 4205.00    0.99161   1.00603  110.031
 4206.00    1.00089   1.01487  107.823
 4207.00    1.01972   1.02205  107.133
 4208.00    1.03046   1.02471  107.491
 4209.00    1.02761   1.02444  107.336
 4210.00    1.02498   1.02543  106.624
 4211.00    1.02697   1.03076  107.105
 4212.00    1.03206   1.03494  110.347
 4213.00    1.01975   1.02598  115.306
 4214.00    0.99305   1.00830  118.730
 4215.00    0.96921   0.99432   -1.000
 4216.00    0.96468   0.99318   -1.000
 4217.00    0.98999   1.00677  103.276
 4218.00    1.02508   1.02317  100.244
 4219.00    1.04517   1.03466   99.004
 4220.00    1.04564   1.04012   99.714
 4221.00    1.04949   1.03757  103.527
 4222.00    1.03715   1.02391  110.539
 4223.00    1.01177   0.99399  121.214
 4224.00    0.96485   0.95128  137.148
 4225.00    0.90839   0.91285  149.162
 4226.00    0.86223   0.89664   -1.000
 4227.00    0.87133   0.91601   -1.000
 4228.00    0.93453   0.96310   -1.000
 4229.00    1.00684   1.01224  104.120
 4230.00    1.03237   1.03532  102.886
 4231.00    1.03312   1.03479  104.937
 4232.00    1.01758   1.02352  107.689
 4233.00    0.99945   1.00837  108.923
 4234.00    1.00100   0.99956  111.345
 4235.00    0.99439   1.00081  113.436
 4236.00    0.98712   1.00444  112.858
 4237.00    0.98795   1.01044   -1.000
 4238.00    0.99733   1.01922   -1.000
 4239.00    1.00773   1.02836  106.635
 4240.00    1.01022   1.03923   -1.000
 4241.00    1.02205   1.04962   -1.000
 4242.00    1.02582   1.05652   -1.000
 4243.00    1.03817   1.05826  100.765
 4244.00    1.03808   1.05485  101.531
 4245.00    1.03351   1.04425  105.935
 4246.00    1.01686   1.02553  110.084
 4247.00    0.98729   1.00747  113.018
 4248.00    0.97770   0.99616  114.208
 4249.00    0.97538   0.99216  114.172
 4250.00    0.97768   0.99692  111.133
 4251.00    0.99401   1.00918  107.968
 4252.00    1.01602   1.01867  108.264
 4253.00    1.01225   1.02028  111.061
 4254.00    0.99942   1.01837  110.024
 4255.00    1.00024   1.02254  105.905
 4256.00    1.01847   1.03261  104.742
 4257.00    1.03239   1.03449  108.372
 4258.00    1.01981   1.02213  114.274
 4259.00    0.99228   1.00566  117.593
 4260.00    0.97270   1.00048   -1.000
 4261.00    0.97549   1.01285   -1.000
 4262.00    1.01028   1.03549  101.623
 4263.00    1.03647   1.05647   99.052
 4264.00    1.05147   1.06580   98.647
 4265.00    1.05837   1.06441  100.121
 4266.00    1.05504   1.05923  103.334
 4267.00    1.04280   1.04964  106.512
 4268.00    1.02401   1.03407  110.547
 4269.00    1.00212   1.01194  117.620
 4270.00    0.95960   0.98645   -1.000
 4271.00    0.93035   0.96815   -1.000
 4272.00    0.92944   0.96310   -1.000
 4273.00    0.94338   0.97080   -1.000
 4274.00    0.95353   0.98581   -1.000
 4275.00    0.96750   1.00596   -1.000
 4276.00    0.99931   1.03141   -1.000
 4277.00    1.03093   1.05187  102.850
 4278.00    1.03501   1.05650  107.116
 4279.00    1.01641   1.04684   -1.000
 4280.00    1.00044   1.03145   -1.000
 4281.00    0.98496   1.02283   -1.000
 4282.00    0.98709   1.02211   -1.000
 4283.00    0.99710   1.02435   -1.000
 4284.00    0.99210   1.02505   -1.000
 4285.00    0.98405   1.01915   -1.000
 4286.00    0.97043   1.00525   -1.000
 4287.00    0.96011   0.98509   -1.000
 4288.00    0.94471   0.96215  128.458
 4289.00    0.92281   0.94454   -1.000
 4290.00    0.90989   0.94400   -1.000
 4291.00    0.92254   0.95981   -1.000
 4292.00    0.95322   0.97829   -1.000
 4293.00    0.97118   0.98462  113.611
 4294.00    0.97170   0.98106  115.449
 4295.00    0.96064   0.97740  118.044
 4296.00    0.94157   0.96796   -1.000
 4297.00    0.92617   0.94657  134.256
 4298.00    0.88379   0.91806   -1.000
 4299.00    0.84518   0.88992   -1.000
 4300.00    0.82171   0.87358   -1.000
 4301.00    0.82681   0.87218   -1.000
 4302.00    0.84633   0.88075   -1.000
 4303.00    0.85187   0.89390   -1.000
 4304.00    0.85702   0.90476   -1.000
 4305.00    0.86829   0.90317   -1.000
 4306.00    0.86191   0.89046   -1.000
 4307.00    0.84331   0.87665   -1.000
 4308.00    0.82045   0.87283   -1.000
 4309.00    0.82448   0.88301   -1.000
 4310.00    0.84270   0.90033   -1.000
 4311.00    0.86755   0.91704   -1.000
 4312.00    0.88691   0.92845   -1.000
 4313.00    0.90413   0.94285   -1.000
 4314.00    0.93556   0.96842   -1.000
 4315.00    0.97424   1.00548   -1.000
 4316.00    1.02729   1.04543   93.126
 4317.00    1.06699   1.06925   92.911
 4318.00    1.08216   1.07347   94.289
 4319.00    1.07489   1.06526   96.398
 4320.00    1.05157   1.05271   99.608
 4321.00    1.03303   1.03672  104.435
 4322.00    1.00304   1.01438  112.016
 4323.00    0.95704   0.98470   -1.000
 4324.00    0.91758   0.95503   -1.000
 4325.00    0.89455   0.94503   -1.000
 4326.00    0.90703   0.96328   -1.000
 4327.00    0.95334   0.99528   -1.000
 4328.00    0.99707   1.02146   97.279
 4329.00    1.01192   1.02903   97.581
 4330.00    1.00455   1.02522   97.107
 4331.00    1.00471   1.02213   95.460
 4332.00    1.00313   1.01997   94.437
 4333.00    0.99256   1.01232   94.190
 4334.00    0.98895   0.99382   95.706
 4335.00    0.98080   0.96072  101.619
 4336.00    0.94688   0.91005   -1.000
 4337.00    0.89303   0.84003   -1.000
 4338.00    0.83051   0.76455   -1.000
 4339.00    0.76265   0.70978   -1.000
 4340.00    0.72787   0.69607  126.344
 4341.00    0.75690   0.73485  113.942
 4342.00    0.81113   0.80848  106.683
 4343.00    0.87481   0.88111  103.153
 4344.00    0.91662   0.93083  100.335
 4345.00    0.94570   0.96494   98.578
 4346.00    0.96805   0.99164   97.511
 4347.00    0.98208   1.01355   -1.000
 4348.00    0.99917   1.02493   96.098
 4349.00    1.00625   1.01842  101.173
 4350.00    0.98799   0.99786  108.734
 4351.00    0.95409   0.97997   -1.000
 4352.00    0.94203   0.97966   -1.000
 4353.00    0.96439   1.00098   -1.000
 4354.00    0.99886   1.03075   -1.000
 4355.00    1.02212   1.05352   -1.000
 4356.00    1.04460   1.06404   96.201
 4357.00    1.05452   1.06549   98.217
 4358.00    1.04558   1.06282   99.486
 4359.00    1.03884   1.06333   97.719
 4360.00    1.04721   1.07095   94.760
 4361.00    1.06905   1.08243   93.615
 4362.00    1.08231   1.09298   93.211
 4363.00    1.08601   1.09933   92.190
 4364.00    1.08482   1.10129   92.061
 4365.00    1.08515   1.09784   94.783
 4366.00    1.07264   1.08719   98.260
 4367.00    1.05304   1.07411   99.477
 4368.00    1.05090   1.06647   98.581
 4369.00    1.05150   1.06388   97.946
 4370.00    1.05188   1.06288   97.837
 4371.00    1.05606   1.05843   98.770
 4372.00    1.05162   1.04686  102.689
 4373.00    1.03020   1.02909  106.809
 4374.00    1.00724   1.01355  107.075
 4375.00    1.00486   1.01492  102.821
 4376.00    1.02697   1.03642   97.660
 4377.00    1.06494   1.06477   95.785
 4378.00    1.08230   1.08128   96.268
 4379.00    1.08557   1.08108   97.953
 4380.00    1.07740   1.06632  102.473
 4381.00    1.05134   1.03533  113.588
 4382.00    1.00855   0.99445  126.547
 4383.00    0.94534   0.96441   -1.000
 4384.00    0.91945   0.96046   -1.000
 4385.00    0.95500   0.98359   -1.000
 4386.00    1.00248   1.01596  102.266
 4387.00    1.03231   1.03759  102.209
 4388.00    1.04174   1.04675  103.300
 4389.00    1.04250   1.04904  103.667
 4390.00    1.04063   1.05046  101.744
 4391.00    1.05146   1.05445   99.447
 4392.00    1.06547   1.05710  100.003
 4393.00    1.05872   1.05125  102.192
 4394.00    1.04085   1.04119  101.926
 4395.00    1.03922   1.04288   97.389
 4396.00    1.06228   1.05741   94.476
 4397.00    1.08288   1.06903   95.650
 4398.00    1.07975   1.06776   99.143
 4399.00    1.05960   1.05740  102.135
 4400.00    1.03798   1.05046  101.095
 4401.00    1.04378   1.05109   99.267
 4402.00    1.06812   1.05209  102.562
 4403.00    1.05480   1.04612  108.542
 4404.00    1.02719   1.03606  109.656
 4405.00    1.02562   1.03376  106.099
 4406.00    1.04117   1.04201  104.467
 4407.00    1.04946   1.05206  103.524
 4408.00    1.04829   1.06141   99.653
 4409.00    1.05799   1.07678   95.377
 4410.00    1.08919   1.09659   92.107
 4411.00    1.10505   1.10940   90.953
 4412.00    1.12237   1.10658   93.303
 4413.00    1.09607   1.08909   98.636
 4414.00    1.07127   1.06300  102.294
 4415.00    1.03879   1.04248  101.850
 4416.00    1.03161   1.04080   98.357
 4417.00    1.05025   1.05844   94.271
 4418.00    1.05879   1.08583   -1.000
 4419.00    1.09587   1.10772   92.003
 4420.00    1.10269   1.11554   94.403
 4421.00    1.08713   1.11014   96.145
 4422.00    1.07597   1.10309   -1.000
 4423.00    1.07976   1.10016   95.192
 4424.00    1.07845   1.09795   95.528
 4425.00    1.07751   1.09368   95.978
 4426.00    1.06604   1.09059   95.348
 4427.00    1.06433   1.09366   -1.000
 4428.00    1.07158   1.10138   -1.000
 4429.00    1.07903   1.10794   -1.000
 4430.00    1.08140   1.11158   -1.000
 4431.00    1.08181   1.11272   -1.000
 4432.00    1.09534   1.10838   97.388
 4433.00    1.08511   1.09552  102.158
 4434.00    1.05269   1.07945   -1.000
 4435.00    1.04104   1.07417   -1.000
 4436.00    1.06465   1.09111   93.315
 4437.00    1.10295   1.12061   89.328
 4438.00    1.13567   1.14307   88.980
 4439.00    1.13899   1.14508   91.741
 4440.00    1.12238   1.12635   96.144
 4441.00    1.09515   1.09855  100.238
 4442.00    1.06409   1.07680  100.693
 4443.00    1.04853   1.07524   -1.000
 4444.00    1.06578   1.09275   -1.000
 4445.00    1.10052   1.11723   91.038
 4446.00    1.11615   1.13295   91.038
 4447.00    1.12044   1.13742   91.213
 4448.00    1.12644   1.13784   92.211
 4449.00    1.11774   1.13682   93.129
 4450.00    1.11318   1.13551   92.462
 4451.00    1.12268   1.13440   93.050
 4452.00    1.12103   1.12952   96.435
 4453.00    1.10368   1.11450  100.901
 4454.00    1.07569   1.09469  103.063
 4455.00    1.05501   1.08487   -1.000
 4456.00    1.06689   1.09072   -1.000
 4457.00    1.08091   1.10270   99.605
 4458.00    1.08501   1.10860   -1.000
 4459.00    1.08810   1.10856  101.161
 4460.00    1.08046   1.10681   -1.000
 4461.00    1.08184   1.10882   -1.000
 4462.00    1.09035   1.11708   -1.000
 4463.00    1.10420   1.12740   93.885
 4464.00    1.11037   1.13388   93.705
 4465.00    1.11592   1.13276   93.771
 4466.00    1.12128   1.12411   94.822
 4467.00    1.10956   1.11174   96.652
 4468.00    1.08923   1.10334   97.266
 4469.00    1.09111   1.10539   95.944
 4470.00    1.09680   1.12005   -1.000
 4471.00    1.11661   1.14143   89.725
 4472.00    1.14211   1.16024   87.271
 4473.00    1.16841   1.17085   86.498
 4474.00    1.17370   1.17278   86.646
 4475.00    1.16550   1.17189   85.906
 4476.00    1.17211   1.17235   85.395
 4477.00    1.17961   1.17360   86.142
 4478.00    1.17536   1.16656   89.303
 4479.00    1.15536   1.14644   93.372
 4480.00    1.12457   1.12384   96.053
 4481.00    1.09623   1.11322   95.053
 4482.00    1.09992   1.12232   91.065
 4483.00    1.12368   1.14671   87.606
 4484.00    1.15529   1.17231   85.705
 4485.00    1.18239   1.18756   85.797
 4486.00    1.18763   1.18881   87.733
 4487.00    1.17508   1.17769   91.102
 4488.00    1.14653   1.16172   93.236
 4489.00    1.13196   1.15238   92.279
 4490.00    1.12979   1.15575   -1.000
 4491.00    1.15925   1.16677   88.361
 4492.00    1.16515   1.17183   89.642
 4493.00    1.16164   1.16559   92.392
 4494.00    1.14473   1.15636   94.406
 4495.00    1.12846   1.15313   93.432
 4496.00    1.13802   1.15717   90.223
 4497.00    1.15125   1.16432   87.665
 4498.00    1.16738   1.16892   86.751
 4499.00    1.17517   1.16485   87.754
 4500.00    1.16495   1.15609   88.247
 4501.00    1.15989   1.15586   86.004
 4502.00    1.16504   1.16966   83.037
 4503.00    1.18641   1.19023   81.548
 4504.00    1.21133   1.20390   82.072
 4505.00    1.21560   1.20587   83.752
 4506.00    1.21550   1.19943   84.592
 4507.00    1.20356   1.19235   84.669
 4508.00    1.19403   1.19086   84.026
 4509.00    1.19260   1.19449   83.437
 4510.00    1.20183   1.19787   84.129
 4511.00    1.20234   1.19613   85.794
 4512.00    1.19080   1.19114   87.334
 4513.00    1.18592   1.18561   87.892
 4514.00    1.18449   1.18110   87.467
 4515.00    1.18023   1.17896   87.396
 4516.00    1.17728   1.17801   88.454
 4517.00    1.16911   1.17535   88.982
 4518.00    1.16571   1.17031   87.495
 4519.00    1.17635   1.16871   85.759
 4520.00    1.18072   1.17225   85.994
 4521.00    1.17052   1.17370   88.024
 4522.00    1.16445   1.16821   89.821
 4523.00    1.15425   1.16031   90.604
 4524.00    1.15255   1.15639   92.116
 4525.00    1.15227   1.15292   94.937
 4526.00    1.13522   1.14385   97.628
 4527.00    1.11922   1.13016   98.820
 4528.00    1.10703   1.11968   98.121
 4529.00    1.10644   1.11858   96.398
 4530.00    1.11772   1.12471   94.634
 4531.00    1.13085   1.12941   94.154
 4532.00    1.12737   1.12296   96.768
 4533.00    1.10724   1.10784  100.073
 4534.00    1.08705   1.09946   98.825
 4535.00    1.08664   1.10921   93.217
 4536.00    1.11959   1.13451   87.701
 4537.00    1.16665   1.16481   85.306
 4538.00    1.19741   1.18700   86.100
 4539.00    1.19297   1.19381   88.185
 4540.00    1.18087   1.18998   88.123
 4541.00    1.17786   1.18488   87.478
 4542.00    1.17990   1.18377   87.147
 4543.00    1.17084   1.18381  124.462
 4544.00    1.21884   1.18016   41.351
 4545.00    0.88040   1.17509   -1.000
 4546.00    0.15006   1.17103   -1.000
 4547.00    0.00535   1.16188   -1.000
 4548.00    0.38275   1.14510   -1.000
 4549.00    0.79988   1.13199   -1.000
 4550.00    0.35800   1.13647   -1.000
 4551.00    1.09301   1.15249   -1.000
 4552.00    1.14504   1.15867   92.778
 4553.00    1.12905   1.14998   93.645
 4554.00    1.11780   1.13952   92.257
 4555.00    1.12163   1.14121   88.894
 4556.00    1.14571   1.15824   85.306
 4557.00    1.17834   1.18096   83.786
 4558.00    1.18941   1.19746   84.236
 4559.00    1.20291   1.20641   84.193
 4560.00    1.20567   1.21077   84.225
 4561.00    1.20713   1.20759   86.172
 4562.00    1.19579   1.19574   88.332
 4563.00    1.18150   1.18210   89.853
 4564.00    1.16326   1.17695   88.888
 4565.00    1.17699   1.18422   86.632
 4566.00    1.20051   1.19840   84.333
 4567.00    1.21345   1.21057   83.474
 4568.00    1.21691   1.21388   84.382
 4569.00    1.20716   1.20575   86.526
 4570.00    1.18858   1.18976   88.810
 4571.00    1.16476   1.17427   88.194
 4572.00    1.16565   1.17334   85.530
 4573.00    1.17969   1.18882   84.294
 4574.00    1.20168   1.20376   84.335
 4575.00    1.20920   1.20766   84.724
 4576.00    1.21152   1.20446   85.216
 4577.00    1.20425   1.19942   86.673
 4578.00    1.19638   1.19111   89.276
 4579.00    1.17397   1.17836   91.131
 4580.00    1.17012   1.16616   90.894
 4581.00    1.16591   1.16007   89.610
 4582.00    1.15974   1.15885   88.941
 4583.00    1.16353   1.15984   89.202
 4584.00    1.16360   1.16402   89.766
 4585.00    1.16913   1.17104   88.536
 4586.00    1.17287   1.17852   86.208
 4587.00    1.18955   1.18621   84.370
 4588.00    1.20434   1.19239   84.234
 4589.00    1.20911   1.19499   85.466
 4590.00    1.19949   1.19510   87.067
 4591.00    1.18087   1.19182   88.597
 4592.00    1.16955   1.18714   88.691
 4593.00    1.17350   1.18715   87.935
 4594.00    1.17986   1.19211   87.242
 4595.00    1.18915   1.19896   87.007
 4596.00    1.19963   1.20525   86.824
 4597.00    1.20791   1.20810   86.629
 4598.00    1.21017   1.20619   87.390
 4599.00    1.20524   1.20066   88.179
 4600.00    1.19559   1.19296   88.429
 4601.00    1.18371   1.18711   87.493
 4602.00    1.18107   1.18658   86.506
 4603.00    1.19491   1.19082   86.646
 4604.00    1.20718   1.19674   86.504
 4605.00    1.20240   1.20078   85.563
 4606.00    1.20178   1.20400   83.868
 4607.00    1.21858   1.20938   82.067
 4608.00    1.23322   1.21736   81.098
 4609.00    1.22936   1.22463   81.459
 4610.00    1.22974   1.22495   82.587
 4611.00    1.23646   1.22033   83.507
 4612.00    1.22761   1.21643   84.049
 4613.00    1.21551   1.21508   83.633
 4614.00    1.21810   1.21571   82.884
 4615.00    1.21928   1.21600   82.552
 4616.00    1.22063   1.21479   83.107
 4617.00    1.21953   1.21284   83.727
 4618.00    1.22181   1.21100   83.648
 4619.00    1.21496   1.21178   82.845
 4620.00    1.22108   1.21777   81.521
 4621.00    1.23150   1.22641   81.498
 4622.00    1.24357   1.23168   81.706
 4623.00    1.24242   1.23017   81.867
 4624.00    1.23282   1.22503   82.625
 4625.00    1.23226   1.22040   82.826
 4626.00    1.23355   1.21751   82.781
 4627.00    1.23782   1.21641   83.320
 4628.00    1.23152   1.21513   83.498
 4629.00    1.22449   1.21507   83.076
 4630.00    1.21930   1.21932   82.109
 4631.00    1.21564   1.22526   82.482
 4632.00    1.23408   1.22712   83.699
 4633.00    1.23165   1.22383   84.624
 4634.00    1.22592   1.21977   84.542
 4635.00    1.22737   1.21902   85.232
 4636.00    1.22265   1.21876   86.371
 4637.00    1.22021   1.21653   86.721
 4638.00    1.21795   1.21478   86.595
 4639.00    1.21306   1.21668   85.114
 4640.00    1.22435   1.22333   83.016
 4641.00    1.23848   1.23147   81.882
 4642.00    1.24948   1.23723   82.226
 4643.00    1.24382   1.23708   83.776
 4644.00    1.23911   1.23060   86.155
 4645.00    1.22679   1.22018   88.545
 4646.00    1.21840   1.20730   88.908
 4647.00    1.19918   1.20086   87.313
 4648.00    1.20521   1.20666   85.259
 4649.00    1.22068   1.21870   84.096
 4650.00    1.22487   1.22814   83.959
 4651.00    1.22041   1.23145   83.785
 4652.00    1.22806   1.22978   84.797
 4653.00    1.22423   1.22458   86.785
 4654.00    1.21737   1.21761   87.775
 4655.00    1.20537   1.21376   87.005
 4656.00    1.20241   1.21522   84.206
 4657.00    1.22384   1.22420   80.960
 4658.00    1.24431   1.24158   79.156
 4659.00    1.26520   1.25906   79.094
 4660.00    1.27613   1.26645   80.095
 4661.00    1.26413   1.26194   82.083
 4662.00    1.25234   1.25208   83.700
 4663.00    1.24653   1.24257   83.877
 4664.00    1.23849   1.23364   85.273
 4665.00    1.22638   1.22205   88.988
 4666.00    1.20859   1.20509   92.702
 4667.00    1.18717   1.18874   92.754
 4668.00    1.17091   1.18474   89.860
 4669.00    1.17894   1.19468   86.069
 4670.00    1.20873   1.21098   83.758
 4671.00    1.23404   1.22583   83.286
 4672.00    1.24513   1.23329   83.360
 4673.00    1.24116   1.23491   83.271
 4674.00    1.24287   1.23742   82.169
 4675.00    1.25583   1.24255   80.925
 4676.00    1.25514   1.24656   81.359
 4677.00    1.25883   1.24291   83.158
 4678.00    1.24626   1.23309   84.804
 4679.00    1.23049   1.22311   86.201
 4680.00    1.22499   1.21467   87.026
 4681.00    1.21867   1.21070   85.909
 4682.00    1.22289   1.21315   83.712
 4683.00    1.23881   1.22074   82.631
 4684.00    1.23933   1.22864   82.938
 4685.00    1.24810   1.23225   82.967
 4686.00    1.25530   1.23211   83.451
 4687.00    1.25469   1.23059   83.447
 4688.00    1.24309   1.23025   83.455
 4689.00    1.24891   1.23106   84.071
 4690.00    1.24591   1.23036   84.237
 4691.00    1.23567   1.22908   83.213
 4692.00    1.25194   1.23073   81.966
 4693.00    1.26659   1.23420   80.122
 4694.00    1.27473   1.23707   79.114
 4695.00    1.28450   1.23999   -1.000
 4696.00    1.28205   1.24043   -1.000
 4697.00    1.26502   1.23404   84.365
 4698.00    1.23910   1.22343   85.316
 4699.00    1.23348   1.21515   84.593
 4700.00    1.23878   1.21032   85.256
 4701.00    1.23312   1.20501   86.792
 4702.00    1.21503   1.19851   87.221
 4703.00    1.20811   1.19640   85.517
 4704.00    1.22286   1.20293   84.261
 4705.00    1.23544   1.21130   85.494
 4706.00    1.22994   1.21226   87.231
 4707.00    1.21805   1.20500   88.054
 4708.00    1.20975   1.19798   87.562
 4709.00    1.21357   1.20000   84.929
 4710.00    1.22504   1.21036   82.600
 4711.00    1.24992   1.22164   81.815
 4712.00    1.26405   1.22661   -1.000
 4713.00    1.25862   1.22344   84.232
 4714.00    1.24449   1.21874   84.196
 4715.00    1.23908   1.22022   82.480
 4716.00    1.24594   1.22887   80.893
 4717.00    1.26152   1.23873   80.419
 4718.00    1.27556   1.24470   80.140
 4719.00    1.27892   1.24784   79.865
 4720.00    1.27768   1.24939   80.574
 4721.00    1.26826   1.24919   81.144
 4722.00    1.26295   1.24845   80.641
 4723.00    1.27103   1.25063   79.753
 4724.00    1.27537   1.25454   79.903
 4725.00    1.26917   1.25505   81.900
 4726.00    1.25266   1.24996   85.063
 4727.00    1.23768   1.23837   86.935
 4728.00    1.22981   1.22637   86.554
 4729.00    1.23220   1.22042   85.651
 4730.00    1.23736   1.21784   84.983
 4731.00    1.23533   1.21933   83.946
 4732.00    1.24914   1.22645   83.226
 4733.00    1.25444   1.23393   82.760
 4734.00    1.25679   1.23733   82.299
 4735.00    1.25898   1.23642   83.227
 4736.00    1.24732   1.23341   83.310
 4737.00    1.25306   1.23244   82.193
 4738.00    1.25735   1.23499   82.263
 4739.00    1.25141   1.23831   82.757
 4740.00    1.25379   1.23920   82.855
 4741.00    1.26362   1.23892   82.166
 4742.00    1.26535   1.24181   81.259
 4743.00    1.27075   1.24765   81.456
 4744.00    1.27774   1.25246   81.525
 4745.00    1.27300   1.25583   80.893
 4746.00    1.27490   1.26017   80.066
 4747.00    1.27726   1.26700   79.918
 4748.00    1.27686   1.27271   80.049
 4749.00    1.27488   1.27550   80.100
 4750.00    1.28134   1.27836   80.702
 4751.00    1.27363   1.27966   81.632
 4752.00    1.26728   1.27669   82.309
 4753.00    1.25440   1.27066   82.870
 4754.00    1.25029   1.26583   82.700
 4755.00    1.26209   1.26442   83.039
 4756.00    1.25679   1.26586   83.667
 4757.00    1.24992   1.26836   83.741
 4758.00    1.24901   1.26943   83.018
 4759.00    1.25919   1.26871   82.886
 4760.00    1.25883   1.26579   84.234
 4761.00    1.25113   1.25812   86.378
 4762.00    1.22951   1.24692   87.456
 4763.00    1.21568   1.23754   87.554
 4764.00    1.21964   1.23411   87.362
 4765.00    1.22934   1.23706   86.732
 4766.00    1.23610   1.24424   85.509
 4767.00    1.24121   1.25354   83.536
 4768.00    1.25355   1.26429   82.402
 4769.00    1.26822   1.27340   82.585
 4770.00    1.27160   1.27630   83.307
 4771.00    1.26190   1.27308   84.047
 4772.00    1.26273   1.26880   83.014
 4773.00    1.26370   1.27023   81.203
 4774.00    1.26513   1.27741   80.691
 4775.00    1.27296   1.28300   80.776
 4776.00    1.27593   1.28389   81.020
 4777.00    1.27718   1.28223   81.561
 4778.00    1.27193   1.27831   82.497
 4779.00    1.26533   1.27253   82.967
 4780.00    1.26117   1.26885   83.165
 4781.00    1.26000   1.26895   83.580
 4782.00    1.25531   1.26889   84.267
 4783.00    1.25700   1.26645   84.205
 4784.00    1.26277   1.26421   84.502
 4785.00    1.25705   1.26227   85.368
 4786.00    1.24814   1.25923   85.847
 4787.00    1.24704   1.25758   85.739
 4788.00    1.24054   1.25884   85.304
 4789.00    1.23731   1.26155   84.774
 4790.00    1.25225   1.26666   83.874
 4791.00    1.26831   1.27603   82.477
 4792.00    1.27353   1.28664   80.616
 4793.00    1.27508   1.29605   79.248
 4794.00    1.28843   1.30357   78.998
 4795.00    1.29355   1.30567   79.837
 4796.00    1.29195   1.30227   81.486
 4797.00    1.28442   1.29481   83.009
 4798.00    1.26246   1.28637   83.975
 4799.00    1.25977   1.28263   83.172
 4800.00    1.26397   1.28671   81.448
 4801.00    1.27664   1.29588   80.297
 4802.00    1.28413   1.30388   80.466
 4803.00    1.27808   1.30231   81.584
 4804.00    1.27300   1.29098   82.627
 4805.00    1.27026   1.28139   83.367
 4806.00    1.26934   1.27854   83.315
 4807.00    1.26696   1.28103   83.098
 4808.00    1.27032   1.28690   82.718
 4809.00    1.27706   1.29220   81.950
 4810.00    1.27709   1.29400   81.370
 4811.00    1.28443   1.29485   80.960
 4812.00    1.28188   1.29763   80.894
 4813.00    1.28019   1.30271   80.691
 4814.00    1.28495   1.30771   80.397
 4815.00    1.28724   1.31050   79.879
 4816.00    1.28767   1.31261   79.385
 4817.00    1.29248   1.31470   79.069
 4818.00    1.29498   1.31498   79.053
 4819.00    1.29142   1.31354   79.057
 4820.00    1.30030   1.31082   79.785
 4821.00    1.29243   1.30435   81.964
 4822.00    1.27770   1.29214   83.501
 4823.00    1.25969   1.27809   83.271
 4824.00    1.24363   1.27149   -1.000
 4825.00    1.26003   1.27617   80.485
 4826.00    1.27711   1.28537   80.888
 4827.00    1.28339   1.28987   81.875
 4828.00    1.28139   1.28754   82.364
 4829.00    1.27123   1.28339   82.319
 4830.00    1.27388   1.28119   83.120
 4831.00    1.27426   1.27918   83.233
 4832.00    1.26906   1.27779   81.834
 4833.00    1.27379   1.27911   80.758
 4834.00    1.28643   1.28225   80.492
 4835.00    1.28367   1.28478   80.643
 4836.00    1.27495   1.28463   81.040
 4837.00    1.27867   1.28358   82.185
 4838.00    1.26933   1.28097   83.677
 4839.00    1.25249   1.27620   83.663
 4840.00    1.24689   1.27333   83.477
 4841.00    1.24381   1.27335   -1.000
 4842.00    1.25378   1.27221   82.416
 4843.00    1.25802   1.26961   81.583
 4844.00    1.25722   1.26899   80.277
 4845.00    1.26294   1.27235   79.902
 4846.00    1.26195   1.27496   81.622
 4847.00    1.25476   1.26970   82.821
 4848.00    1.24887   1.26039   82.760
 4849.00    1.23837   1.25567   81.545
 4850.00    1.23604   1.25485   81.398
 4851.00    1.23572   1.25264   81.892
 4852.00    1.24199   1.24696   82.601
 4853.00    1.22177   1.23422   85.161
 4854.00    1.18801   1.21156   -1.000
 4855.00    1.16329   1.18649   -1.000
 4856.00    1.15884   1.16890   86.344
 4857.00    1.14761   1.15106   88.861
 4858.00    1.13475   1.11185   96.795
 4859.00    1.07578   1.02993   -1.000
 4860.00    0.98514   0.92593   -1.000
 4861.00    0.92517   0.86205   -1.000
 4862.00    0.92095   0.88403   96.363
 4863.00    1.00270   0.97499   90.785
 4864.00    1.07915   1.06912   87.657
 4865.00    1.11534   1.13156   85.851
 4866.00    1.15150   1.16748   85.111
 4867.00    1.17749   1.19284   84.762
 4868.00    1.19328   1.21162   85.547
 4869.00    1.19701   1.21739   88.048
 4870.00    1.17606   1.20742   -1.000
 4871.00    1.15721   1.19251   -1.000
 4872.00    1.15261   1.19025   -1.000
 4873.00    1.17004   1.20680   -1.000
 4874.00    1.20442   1.22984   84.580
 4875.00    1.22143   1.24516   84.126
 4876.00    1.22885   1.25099   83.853
 4877.00    1.22572   1.25424   82.585
 4878.00    1.22390   1.26180   -1.000
 4879.00    1.24271   1.27466   -1.000
 4880.00    1.25214   1.28616   -1.000
 4881.00    1.24794   1.28625   -1.000
 4882.00    1.23689   1.27812   -1.000
 4883.00    1.23618   1.27290   -1.000
 4884.00    1.23109   1.27200   -1.000
 4885.00    1.23525   1.27270   -1.000
 4886.00    1.23210   1.27357   -1.000
 4887.00    1.22876   1.27435   -1.000
 4888.00    1.23667   1.27141   -1.000
 4889.00    1.22668   1.26175   -1.000
 4890.00    1.20862   1.24823   -1.000
 4891.00    1.20938   1.24288   -1.000
 4892.00    1.23560   1.25848   80.675
 4893.00    1.27559   1.28764   78.350
 4894.00    1.29451   1.31475   76.912
 4895.00    1.31496   1.33250   76.586
 4896.00    1.31329   1.34060   76.773
 4897.00    1.31789   1.34202   78.511
 4898.00    1.30858   1.33717   80.384
 4899.00    1.29235   1.32718   -1.000
 4900.00    1.27118   1.31790   -1.000
 4901.00    1.28304   1.31391   80.915
 4902.00    1.28768   1.31120   81.959
 4903.00    1.27881   1.30723   80.986
 4904.00    1.28375   1.30947   79.208
 4905.00    1.29788   1.32257   78.638
 4906.00    1.31652   1.33517   79.425
 4907.00    1.31321   1.33541   81.402
 4908.00    1.29754   1.32655   83.784
 4909.00    1.27799   1.31463   -1.000
 4910.00    1.26762   1.30403   -1.000
 4911.00    1.26218   1.30079   -1.000
 4912.00    1.27614   1.30648   80.941
 4913.00    1.29473   1.31600   79.889
 4914.00    1.29664   1.32504   79.198
 4915.00    1.31328   1.33056   79.625
 4916.00    1.31908   1.32712   82.527
 4917.00    1.28982   1.30866   87.141
 4918.00    1.25425   1.27656   91.273
 4919.00    1.21088   1.24322   -1.000
 4920.00    1.19252   1.22400   -1.000
 4921.00    1.20794   1.22807   85.789
 4922.00    1.22592   1.24558   84.590
 4923.00    1.24808   1.25889   84.548
 4924.00    1.25810   1.26653   83.425
 4925.00    1.26503   1.27964   81.196
 4926.00    1.28586   1.30037   79.773
 4927.00    1.30796   1.31960   79.049
 4928.00    1.31872   1.33317   78.515
 4929.00    1.32011   1.34215   78.050
 4930.00    1.32886   1.34489   78.878
 4931.00    1.31707   1.33771   81.094
 4932.00    1.29671   1.31877   84.071
 4933.00    1.27030   1.29476   84.167
 4934.00    1.25098   1.28263   82.596
 4935.00    1.26325   1.28861   82.613
 4936.00    1.28486   1.29633   85.154
 4937.00    1.27297   1.29025   87.481
 4938.00    1.25360   1.27576   86.593
 4939.00    1.25300   1.27082   83.554
 4940.00    1.26579   1.28380   80.885
 4941.00    1.28995   1.30844   79.435
 4942.00    1.30850   1.33116   78.740
 4943.00    1.32583   1.34348   78.830
 4944.00    1.33205   1.34579   79.410
 4945.00    1.32737   1.34206   79.559
 4946.00    1.31687   1.33896   78.806
 4947.00    1.32063   1.34099   77.868
 4948.00    1.33041   1.34786   77.657
 4949.00    1.33259   1.35427   77.332
 4950.00    1.33264   1.35645   77.765
 4951.00    1.33542   1.35522   78.309
 4952.00    1.33439   1.35180   79.233
 4953.00    1.32546   1.34733   80.237
 4954.00    1.32786   1.33853   82.453
 4955.00    1.31626   1.31683   86.798
 4956.00    1.27108   1.28017   90.213
 4957.00    1.22906   1.24705   88.178
 4958.00    1.23551   1.24571   83.024
 4959.00    1.27347   1.27639   80.251
 4960.00    1.31643   1.31275   79.714
 4961.00    1.32796   1.33488   80.124
 4962.00    1.32365   1.34170   80.778
 4963.00    1.32341   1.34024   81.758
 4964.00    1.31977   1.33280   83.520
 4965.00    1.31077   1.32116   84.568
 4966.00    1.29618   1.31185   84.549
 4967.00    1.29770   1.30931   84.288
 4968.00    1.30615   1.31103   83.647
 4969.00    1.30256   1.31581   82.741
 4970.00    1.30197   1.32402   81.852
 4971.00    1.30940   1.33282   80.871
 4972.00    1.32064   1.33999   80.121
 4973.00    1.33268   1.34484   79.822
 4974.00    1.33524   1.34555   80.413
 4975.00    1.33022   1.34302   81.275
 4976.00    1.32345   1.33875   82.394
 4977.00    1.31624   1.33204   83.744
 4978.00    1.30946   1.32563   84.769
 4979.00    1.30036   1.31976   86.002
 4980.00    1.28879   1.30730   88.900
 4981.00    1.26195   1.28673   91.743
 4982.00    1.23669   1.26509   -1.000
 4983.00    1.22255   1.25404   -1.000
 4984.00    1.23021   1.26015   -1.000
 4985.00    1.25683   1.27689   84.495
 4986.00    1.27977   1.29679   82.455
 4987.00    1.29798   1.31618   82.613
 4988.00    1.31262   1.32654   83.867
 4989.00    1.30197   1.32228   84.704
 4990.00    1.29016   1.31055   84.701
 4991.00    1.28626   1.30299   83.925
 4992.00    1.29860   1.30475   83.589
 4993.00    1.29469   1.31084   83.553
 4994.00    1.29681   1.31724   83.108
 4995.00    1.30775   1.32463   82.713
 4996.00    1.32067   1.33039   83.257
 4997.00    1.31985   1.32853   84.407
 4998.00    1.30492   1.31579   86.125
 4999.00    1.28481   1.29517   87.164
 5000.00    1.26750   1.28028   87.175
 5001.00    1.26352   1.28061   86.324
 5002.00    1.27871   1.28924   85.800
 5003.00    1.28265   1.29575   87.111
 5004.00    1.27231   1.29114   89.338
 5005.00    1.26103   1.27483   89.725
 5006.00    1.25363   1.26040   87.429
 5007.00    1.25357   1.26454   84.779
 5008.00    1.28370   1.28376   83.971
 5009.00    1.30439   1.29963   85.167
 5010.00    1.29782   1.30189   87.797
 5011.00    1.28262   1.29006   91.096
 5012.00    1.25577   1.27141   93.122
 5013.00    1.23154   1.25596   92.555
 5014.00    1.22299   1.25197   -1.000
 5015.00    1.23724   1.25926   88.599
 5016.00    1.25562   1.26710   88.280
 5017.00    1.25301   1.26636   88.286
 5018.00    1.24853   1.26232   87.254
 5019.00    1.26068   1.26937   86.576
 5020.00    1.27911   1.28469   86.992
 5021.00    1.28353   1.29466   87.160
 5022.00    1.27976   1.29800   86.627
 5023.00    1.28505   1.30297   85.704
 5024.00    1.29505   1.31338   85.164
 5025.00    1.29978   1.32253   85.604
 5026.00    1.29882   1.32351   85.983
 5027.00    1.29032   1.31907   85.134
 5028.00    1.28609   1.31744   83.510
 5029.00    1.30639   1.32079   82.326
 5030.00    1.31411   1.32692   80.992
 5031.00    1.31815   1.33527   80.100
 5032.00    1.33357   1.34377   80.332
 5033.00    1.33045   1.34540   83.017
 5034.00    1.31791   1.33535   86.298
 5035.00    1.29201   1.31825   87.632
 5036.00    1.27892   1.30618   87.927
 5037.00    1.27411   1.30355   89.110
 5038.00    1.27154   1.29800   92.714
 5039.00    1.24500   1.27903   -1.000
 5040.00    1.22261   1.25298   -1.000
 5041.00    1.20891   1.24087   -1.000
 5042.00    1.22407   1.25619   -1.000
 5043.00    1.27015   1.28858   82.298
 5044.00    1.30766   1.32137   80.573
 5045.00    1.32941   1.34539   77.596
 5046.00    1.34400   1.35695   74.409
 5047.00    1.39578   1.35394   23.260
 5048.00    0.75427   1.33717   -1.000
 5049.00    0.07835   1.31481   -1.000
 5050.00    0.85352   1.29731   -1.000
 5051.00    1.35363   1.29137   -1.000
 5052.00    1.29090   1.30039   82.304
 5053.00    1.31563   1.32156   80.847
 5054.00    1.33374   1.34283   80.119
 5055.00    1.34571   1.35462   79.891
 5056.00    1.34835   1.35902   80.053
 5057.00    1.34854   1.36057   80.195
 5058.00    1.34401   1.36204   80.139
 5059.00    1.34829   1.36412   79.593
 5060.00    1.35271   1.36657   79.695
 5061.00    1.35301   1.36847   80.852
 5062.00    1.34981   1.36476   83.283
 5063.00    1.33277   1.35101   86.215
 5064.00    1.30531   1.33153   87.059
 5065.00    1.28285   1.31832   -1.000
 5066.00    1.29600   1.31739   84.639
 5067.00    1.31055   1.32161   84.405
 5068.00    1.31131   1.32430   83.992
 5069.00    1.32205   1.32716   83.475
 5070.00    1.32709   1.33136   84.200
 5071.00    1.32511   1.33249   84.804
 5072.00    1.32722   1.32911   83.705
 5073.00    1.32156   1.32628   83.085
 5074.00    1.32332   1.32634   82.997
 5075.00    1.32379   1.32758   82.965
 5076.00    1.32535   1.32721   83.886
 5077.00    1.31369   1.32055   86.949
 5078.00    1.29724   1.30458   91.038
 5079.00    1.27352   1.28624   91.844
 5080.00    1.25379   1.27941   89.790
 5081.00    1.26445   1.28582   87.899
 5082.00    1.28089   1.29454   86.726
 5083.00    1.29335   1.30199   85.071
 5084.00    1.30755   1.31352   83.651
 5085.00    1.32268   1.32825   83.107
 5086.00    1.33895   1.33883   82.999
 5087.00    1.33548   1.34256   82.560
 5088.00    1.33566   1.34365   81.960
 5089.00    1.34299   1.34662   81.515
 5090.00    1.34906   1.35060   81.072
 5091.00    1.34745   1.35466   80.121
 5092.00    1.35833   1.36066   79.469
 5093.00    1.36010   1.36676   80.296
 5094.00    1.35531   1.36809   82.021
 5095.00    1.34959   1.36084   83.806
 5096.00    1.33688   1.34652   85.840
 5097.00    1.32211   1.33077   87.565
 5098.00    1.30564   1.31751   87.672
 5099.00    1.30228   1.31383   85.399
 5100.00    1.31533   1.32341   82.979
 5101.00    1.32906   1.33808   82.375
 5102.00    1.34335   1.34777   82.937
 5103.00    1.34402   1.34970   84.059
 5104.00    1.33759   1.34648   85.119
 5105.00    1.32740   1.33873   86.161
 5106.00    1.30955   1.32452   87.192
 5107.00    1.29526   1.30977   86.986
 5108.00    1.28954   1.30342   86.407
 5109.00    1.29905   1.30514   85.755
 5110.00    1.30574   1.31254   84.501
 5111.00    1.32226   1.32582   83.474
 5112.00    1.33439   1.34143   82.468
 5113.00    1.34095   1.35363   81.749
 5114.00    1.35045   1.36114   81.305
 5115.00    1.35187   1.36624   80.433
 5116.00    1.35714   1.37151   79.811
 5117.00    1.36387   1.37601   80.126
 5118.00    1.37321   1.37688   81.221
 5119.00    1.37046   1.37269   82.459
 5120.00    1.35488   1.36393   83.864
 5121.00    1.33530   1.35152   86.082
 5122.00    1.32321   1.33616   88.609
 5123.00    1.30434   1.32123   89.062
 5124.00    1.29547   1.31296   88.224
 5125.00    1.28781   1.31325   87.806
 5126.00    1.29747   1.31609   87.308
 5127.00    1.30443   1.31578   87.455
 5128.00    1.30232   1.31408   87.313
 5129.00    1.30407   1.31532   86.106
 5130.00    1.31001   1.32204   84.656
 5131.00    1.32872   1.33245   83.998
 5132.00    1.33622   1.34172   83.193
 5133.00    1.33527   1.34804   82.489
 5134.00    1.34278   1.35196   82.385
 5135.00    1.34839   1.35261   83.982
 5136.00    1.34099   1.34731   86.022
 5137.00    1.33146   1.33459   87.296
 5138.00    1.30468   1.31970   87.309
 5139.00    1.29058   1.31199   86.554
 5140.00    1.29640   1.31451   87.310
 5141.00    1.29963   1.32001   88.674
 5142.00    1.29203   1.32183   88.009
 5143.00    1.29557   1.32436   86.539
 5144.00    1.31292   1.33196   86.356
 5145.00    1.31826   1.33799   87.189
 5146.00    1.31889   1.33711   87.304
 5147.00    1.32424   1.33447   86.198
 5148.00    1.32372   1.33426   85.825
 5149.00    1.32325   1.33311   86.996
 5150.00    1.32323   1.32636   88.561
 5151.00    1.31028   1.31583   89.035
 5152.00    1.29569   1.31014   88.463
 5153.00    1.30426   1.31224   86.678
 5154.00    1.32366   1.31976   84.446
 5155.00    1.32609   1.33348   82.330
 5156.00    1.34264   1.35135   80.868
 5157.00    1.36267   1.36649   80.349
 5158.00    1.36891   1.37473   80.380
 5159.00    1.37302   1.37737   80.674
 5160.00    1.37640   1.37578   81.173
 5161.00    1.36177   1.37030   82.133
 5162.00    1.35642   1.36278   83.529
 5163.00    1.34346   1.35302   87.025
 5164.00    1.32797   1.33175   94.550
 5165.00    1.27812   1.28669  104.395
 5166.00    1.21020   1.22024  110.681
 5167.00    1.15353   1.16413  107.720
 5168.00    1.14682   1.15128  101.588
 5169.00    1.17749   1.17733  100.897
 5170.00    1.21392   1.20151  107.873
 5171.00    1.19352   1.19071  114.546
 5172.00    1.14105   1.16701   -1.000
 5173.00    1.14834   1.17596   -1.000
 5174.00    1.21383   1.22792   89.142
 5175.00    1.29342   1.29018   86.136
 5176.00    1.34429   1.32955   85.309
 5177.00    1.36130   1.34568   85.234
 5178.00    1.35959   1.35070   86.261
 5179.00    1.35497   1.34767   89.591
 5180.00    1.34688   1.33103   96.500
 5181.00    1.30763   1.29013  107.802
 5182.00    1.22321   1.22941  115.175
 5183.00    1.14323   1.17917   -1.000
 5184.00    1.13173   1.17711   -1.000
 5185.00    1.20066   1.22722   88.416
 5186.00    1.27953   1.28588   86.008
 5187.00    1.31906   1.31910   85.373
 5188.00    1.32948   1.32951   85.116
 5189.00    1.32706   1.33058   86.216
 5190.00    1.32269   1.32462   89.047
 5191.00    1.30551   1.30919   91.288
 5192.00    1.27991   1.29388   90.360
 5193.00    1.27725   1.29187   88.773
 5194.00    1.29726   1.30165   87.475
 5195.00    1.31320   1.31335   86.166
 5196.00    1.32403   1.32463   84.420
 5197.00    1.34311   1.33656   83.049
 5198.00    1.35529   1.34825   82.448
 5199.00    1.36576   1.35740   82.448
 5200.00    1.36432   1.36156   83.211
 5201.00    1.36067   1.35778   84.798
 5202.00    1.35621   1.34419   86.812
 5203.00    1.33630   1.32119   89.594
 5204.00    1.31680   1.29311   92.187
 5205.00    1.29659   1.27090   92.387
 5206.00    1.28979   1.26213   92.900
 5207.00    1.29105   1.26216   93.337
 5208.00    1.29560   1.26347   91.744
 5209.00    1.30994   1.27057   88.606
 5210.00    1.32522   1.29348   85.007
 5211.00    1.34616   1.32643   81.793
 5212.00    1.36697   1.35538   80.361
 5213.00    1.37932   1.36982   81.474
 5214.00    1.37972   1.36556   83.402
 5215.00    1.36314   1.35107   84.241
 5216.00    1.34452   1.34104   83.361
 5217.00    1.35152   1.34639   81.530
 5218.00    1.37166   1.36411   80.371
 5219.00    1.39239   1.38256   79.808
 5220.00    1.40094   1.39467   79.597
 5221.00    1.40580   1.39975   80.809
 5222.00    1.40713   1.39692   83.432
 5223.00    1.38984   1.38274   86.971
 5224.00    1.35264   1.35407   90.970
 5225.00    1.30772   1.31414   93.061
 5226.00    1.27631   1.28004   90.575
 5227.00    1.27383   1.27551   85.443
 5228.00    1.31117   1.30430   82.175
 5229.00    1.35337   1.34351   80.920
 5230.00    1.37550   1.36713   80.996
 5231.00    1.38389   1.36681   82.737
 5232.00    1.37338   1.35131   84.076
 5233.00    1.34616   1.33627   83.657
 5234.00    1.34118   1.33745   81.627
 5235.00    1.36622   1.35560   79.750
 5236.00    1.39081   1.37871   78.977
 5237.00    1.40271   1.39556   78.978
 5238.00    1.39936   1.40178   79.220
 5239.00    1.40634   1.40166   79.028
 5240.00    1.41277   1.40034   78.584
 5241.00    1.40713   1.39936   78.722
 5242.00    1.40757   1.39924   78.542
 5243.00    1.41006   1.40087   78.547
 5244.00    1.40791   1.40286   80.306
 5245.00    1.40672   1.39886   82.840
 5246.00    1.38796   1.38501   84.593
 5247.00    1.36928   1.36867   84.693
 5248.00    1.36261   1.35971   84.881
 5249.00    1.35721   1.35690   85.381
 5250.00    1.35911   1.35558   84.851
 5251.00    1.35438   1.35813   83.650
 5252.00    1.36761   1.36433   82.911
 5253.00    1.37423   1.36865   82.931
 5254.00    1.37068   1.37034   82.184
 5255.00    1.37230   1.37444   80.151
 5256.00    1.39317   1.38630   78.082
 5257.00    1.41039   1.40253   77.597
 5258.00    1.42047   1.41292   78.522
 5259.00    1.42050   1.41107   80.865
 5260.00    1.39956   1.39540   84.414
 5261.00    1.36077   1.36855   88.383
 5262.00    1.32531   1.33835   91.270
 5263.00    1.30895   1.31136   92.942
 5264.00    1.29214   1.29221   92.939
 5265.00    1.28069   1.28490   91.197
 5266.00    1.29050   1.28811   89.859
 5267.00    1.29981   1.29126   92.194
 5268.00    1.29101   1.27757   95.600
 5269.00    1.26932   1.25228   93.306
 5270.00    1.26408   1.24631   87.598
 5271.00    1.29094   1.27588   84.185
 5272.00    1.33500   1.32002   83.575
 5273.00    1.36334   1.34735   83.650
 5274.00    1.36522   1.35449   83.317
 5275.00    1.36144   1.35727   81.514
 5276.00    1.37023   1.36777   78.752
 5277.00    1.39704   1.38780   77.530
 5278.00    1.42167   1.40616   78.240
 5279.00    1.42653   1.41013   80.235
 5280.00    1.41270   1.39832   82.284
 5281.00    1.39027   1.37952   83.653
 5282.00    1.37067   1.36235   83.813
 5283.00    1.36279   1.35519   81.903
 5284.00    1.36643   1.36481   79.336
 5285.00    1.37480   1.38898   76.996
 5286.00    1.37557   1.41499   76.623
 5287.00    1.43566   1.42968   77.055
 5288.00    1.43581   1.43413   76.974
 5289.00    1.42972   1.43519   76.518
 5290.00    1.43751   1.43415   76.430
 5291.00    1.43611   1.43127   76.944
 5292.00    1.43545   1.42873   77.716
 5293.00    1.43142   1.42694   78.861
 5294.00    1.42489   1.42245   81.160
 5295.00    1.41378   1.40977   84.269
 5296.00    1.39294   1.38817   86.215
 5297.00    1.35965   1.36720   85.339
 5298.00    1.35485   1.35928   83.121
 5299.00    1.37523   1.36744   81.707
 5300.00    1.38898   1.38121   81.209
 5301.00    1.38462   1.39106   80.064
 5302.00    1.39737   1.39970   77.884
 5303.00    1.41206   1.41165   76.612
 5304.00    1.43134   1.42431   76.579
 5305.00    1.43904   1.43064   77.383
 5306.00    1.43658   1.42867   77.940
 5307.00    1.42529   1.42456   77.321
 5308.00    1.42911   1.42475   76.519
 5309.00    1.44983   1.43043   76.105
 5310.00    1.45182   1.43671   76.250
 5311.00    1.44621   1.43852   76.695
 5312.00    1.44608   1.43639   77.038
 5313.00    1.44651   1.43134   77.634
 5314.00    1.44217   1.42261   78.411
 5315.00    1.42445   1.41107   79.039
 5316.00    1.40205   1.40137   78.960
 5317.00    1.40300   1.40111   78.356
 5318.00    1.41941   1.41008   78.100
 5319.00    1.42910   1.41973   78.455
 5320.00    1.43038   1.42349   79.059
 5321.00    1.42083   1.41917   80.060
 5322.00    1.41458   1.40689   81.437
 5323.00    1.39993   1.39067   82.068
 5324.00    1.38612   1.37914   82.191
 5325.00    1.38715   1.37085   84.900
 5326.00    1.36381   1.35043   90.373
 5327.00    1.32742   1.31517   92.416
 5328.00    1.30193   1.28895   88.212
 5329.00    1.32200   1.30066   83.057
 5330.00    1.36694   1.34433   80.724
 5331.00    1.39903   1.38363   79.993
 5332.00    1.41138   1.40196   79.209
 5333.00    1.41933   1.40903   78.331
 5334.00    1.43226   1.41330   78.116
 5335.00    1.44181   1.41517   78.678
 5336.00    1.42777   1.41368   79.218
 5337.00    1.42184   1.40915   80.223
 5338.00    1.41847   1.40035   82.283
 5339.00    1.40463   1.38607   83.468
 5340.00    1.38049   1.37255   82.470
 5341.00    1.38179   1.37274   80.208
 5342.00    1.41173   1.38847   78.969
 5343.00    1.43041   1.40495   79.114
 5344.00    1.43921   1.41117   79.664
 5345.00    1.42612   1.40782   80.163
 5346.00    1.42221   1.40043   80.579
 5347.00    1.41149   1.39428   81.282
 5348.00    1.40697   1.39037   81.288
 5349.00    1.41098   1.39068   79.862
 5350.00    1.41326   1.39970   78.049
 5351.00    1.43145   1.41394   77.215
 5352.00    1.43660   1.42621   76.980
 5353.00    1.44077   1.43339   76.304
 5354.00    1.45508   1.43843   75.341
 5355.00    1.46711   1.44503   74.871
 5356.00    1.46937   1.45105   74.988
 5357.00    1.47514   1.45403   75.120
 5358.00    1.47536   1.45431   75.468
 5359.00    1.47184   1.45192   76.440
 5360.00    1.46431   1.44615   77.737
 5361.00    1.44379   1.43727   78.802
 5362.00    1.42813   1.42733   79.302
 5363.00    1.41839   1.41816   79.760
 5364.00    1.41358   1.41082   80.167
 5365.00    1.41126   1.40754   79.889
 5366.00    1.41763   1.40846   79.993
 5367.00    1.41531   1.40882   80.991
 5368.00    1.41184   1.40121   83.151
 5369.00    1.39871   1.38181   85.480
 5370.00    1.37724   1.35724   85.196
 5371.00    1.36446   1.34428   81.744
 5372.00    1.37744   1.35740   78.113
 5373.00    1.41745   1.38967   76.475
 5374.00    1.45117   1.42083   -1.000
 5375.00    1.46809   1.43790   -1.000
 5376.00    1.47241   1.44214   -1.000
 5377.00    1.46226   1.44307   76.560
 5378.00    1.46201   1.44387   77.061
 5379.00    1.45295   1.44193   77.849
 5380.00    1.44253   1.43589   78.574
 5381.00    1.43679   1.42745   78.880
 5382.00    1.42211   1.42074   78.761
 5383.00    1.42728   1.41875   78.312
 5384.00    1.43968   1.42280   77.507
 5385.00    1.44883   1.43231   77.467
 5386.00    1.45857   1.44182   77.897
 5387.00    1.45549   1.44521   78.732
 5388.00    1.44963   1.44085   79.940
 5389.00    1.44086   1.43094   80.748
 5390.00    1.42816   1.42039   81.032
 5391.00    1.42511   1.41262   81.071
 5392.00    1.41854   1.40718   81.378
 5393.00    1.41105   1.40325   82.063
 5394.00    1.40440   1.39857   83.251
 5395.00    1.40104   1.38795   84.810
 5396.00    1.39804   1.37107   84.433
 5397.00    1.38900   1.36218   81.735
 5398.00    1.39966   1.37319   79.612
 5399.00    1.41346   1.39587   79.353
 5400.00    1.42448   1.41440   79.595
 5401.00    1.43304   1.42130   80.463
 5402.00    1.42407   1.41519   83.091
 5403.00    1.40344   1.39488   85.644
 5404.00    1.37588   1.36662   86.555
 5405.00    1.36347   1.34643   85.342
 5406.00    1.37606   1.34864   83.591
 5407.00    1.39869   1.36706   83.128
 5408.00    1.40987   1.38102   83.845
 5409.00    1.39855   1.38218   83.124
 5410.00    1.39085   1.38211   80.806
 5411.00    1.39724   1.39407   79.080
 5412.00    1.41772   1.41179   78.438
 5413.00    1.43552   1.42194   78.551
 5414.00    1.44202   1.42356   78.508
 5415.00    1.43437   1.42463   77.875
 5416.00    1.43856   1.43051   77.487
 5417.00    1.44714   1.43781   77.928
 5418.00    1.44814   1.44106   78.704
 5419.00    1.44742   1.44095   79.052
 5420.00    1.43716   1.43956   78.667
 5421.00    1.44310   1.43635   78.522
 5422.00    1.44160   1.43117   79.706
 5423.00    1.43559   1.42404   80.203
 5424.00    1.42841   1.41955   79.155
 5425.00    1.42840   1.42473   77.965
 5426.00    1.43987   1.43541   78.576
 5427.00    1.44483   1.43667   80.960
 5428.00    1.42460   1.41993   83.291
 5429.00    1.39825   1.39802   83.019
 5430.00    1.38998   1.39085   81.575
 5431.00    1.40795   1.39782   81.818
 5432.00    1.42393   1.40272   83.061
 5433.00    1.41035   1.39531   83.839
 5434.00    1.39299   1.38421   83.255
 5435.00    1.39374   1.38611   81.409
 5436.00    1.41313   1.40341   79.179
 5437.00    1.43505   1.42673   77.639
 5438.00    1.45275   1.44579   76.650
 5439.00    1.46925   1.45681   76.110
 5440.00    1.47801   1.46305   76.038
 5441.00    1.47920   1.46704   76.139
 5442.00    1.47677   1.46785   77.167
 5443.00    1.46416   1.46086   79.475
 5444.00    1.44243   1.44068   82.789
 5445.00    1.41070   1.40892   85.042
 5446.00    1.38270   1.38036   83.859
 5447.00    1.38463   1.37346   81.035
 5448.00    1.41046   1.39060   79.001
 5449.00    1.44239   1.41701   78.468
 5450.00    1.46418   1.43630   78.618
 5451.00    1.46972   1.44258   79.490
 5452.00    1.46601   1.43747   81.508
 5453.00    1.45516   1.42162   -1.000
 5454.00    1.42127   1.39717   85.200
 5455.00    1.39213   1.37806   83.477
 5456.00    1.40073   1.38137   80.526
 5457.00    1.43629   1.40670   78.612
 5458.00    1.46449   1.43504   78.488
 5459.00    1.46873   1.44940   79.596
 5460.00    1.47131   1.44918   81.090
 5461.00    1.45878   1.44007   82.061
 5462.00    1.43606   1.42823   82.266
 5463.00    1.43153   1.42161   81.121
 5464.00    1.44105   1.42476   80.264
 5465.00    1.44702   1.43371   79.868
 5466.00    1.45962   1.44195   78.996
 5467.00    1.46769   1.44709   78.859
 5468.00    1.47094   1.44979   79.709
 5469.00    1.46634   1.45080   80.471
 5470.00    1.46576   1.44885   80.721
 5471.00    1.45760   1.44417   81.206
 5472.00    1.45959   1.43901   82.118
 5473.00    1.45071   1.43278   83.391
 5474.00    1.43368   1.42179   85.174
 5475.00    1.41685   1.40516   86.177
 5476.00    1.39608   1.39020   84.951
 5477.00    1.39938   1.39046   82.326
 5478.00    1.42177   1.40850   81.147
 5479.00    1.44134   1.42728   82.014
 5480.00    1.43966   1.43305   82.900
 5481.00    1.43741   1.42951   82.455
 5482.00    1.43553   1.42770   80.868
 5483.00    1.43916   1.43469   79.323
 5484.00    1.45159   1.44653   78.914
 5485.00    1.45928   1.45429   79.861
 5486.00    1.45594   1.45376   80.947
 5487.00    1.44417   1.44752   81.289
 5488.00    1.44161   1.44152   81.189
 5489.00    1.44927   1.43999   80.560
 5490.00    1.45679   1.44337   80.014
 5491.00    1.46061   1.44865   79.809
 5492.00    1.45711   1.45237   80.010
 5493.00    1.45752   1.45294   80.016
 5494.00    1.46338   1.45038   80.082
 5495.00    1.46739   1.44420   80.726
 5496.00    1.45887   1.43465   81.150
 5497.00    1.43999   1.42726   80.551
 5498.00    1.44406   1.42861   79.809
 5499.00    1.45550   1.43350   80.690
 5500.00    1.45742   1.43166   81.888
 5501.00    1.44909   1.42416   81.797
 5502.00    1.44701   1.42114   81.123
 5503.00    1.44993   1.42653   81.181
 5504.00    1.45631   1.42985   82.365
 5505.00    1.45227   1.42266   -1.000
 5506.00    1.44117   1.41281   81.936
 5507.00    1.43845   1.41229   80.705
 5508.00    1.44514   1.42403   80.576
 5509.00    1.45475   1.43716   81.330
 5510.00    1.45459   1.43921   82.996
 5511.00    1.44637   1.43123   84.246
 5512.00    1.42443   1.42078   84.691
 5513.00    1.42385   1.41455   83.455
 5514.00    1.43686   1.41582   81.986
 5515.00    1.45220   1.42333   80.724
 5516.00    1.46687   1.43449   -1.000
 5517.00    1.47084   1.44705   78.061
 5518.00    1.48538   1.45761   -1.000
 5519.00    1.49272   1.46334   -1.000
 5520.00    1.48521   1.46407   78.335
 5521.00    1.49381   1.46301   -1.000
 5522.00    1.48987   1.46364   -1.000
 5523.00    1.47862   1.46416   79.361
 5524.00    1.47784   1.46048   80.604
 5525.00    1.47252   1.44785   82.572
 5526.00    1.45235   1.42670   84.491
 5527.00    1.41498   1.40636   84.471
 5528.00    1.40318   1.39938   82.380
 5529.00    1.42696   1.41186   80.333
 5530.00    1.45602   1.43431   79.568
 5531.00    1.46823   1.45048   79.921
 5532.00    1.46708   1.45301   80.671
 5533.00    1.46344   1.44653   80.929
 5534.00    1.45261   1.44000   80.535
 5535.00    1.44860   1.44023   79.906
 5536.00    1.45542   1.44662   79.736
 5537.00    1.46834   1.45372   79.304
 5538.00    1.47890   1.45926   78.510
 5539.00    1.48393   1.46390   78.000
 5540.00    1.49151   1.46776   78.211
 5541.00    1.48740   1.46895   79.090
 5542.00    1.47827   1.46584   79.796
 5543.00    1.46861   1.46076   79.882
 5544.00    1.46350   1.45821   79.628
 5545.00    1.47393   1.45918   79.409
 5546.00    1.47971   1.46148   78.832
 5547.00    1.48479   1.46528   78.041
 5548.00    1.49245   1.47192   77.472
 5549.00    1.50252   1.47782   77.425
 5550.00    1.49864   1.47931   77.932
 5551.00    1.49287   1.47711   78.668
 5552.00    1.49586   1.47391   79.516
 5553.00    1.48902   1.47086   79.770
 5554.00    1.48012   1.46850   79.588
 5555.00    1.48462   1.46761   79.343
 5556.00    1.48482   1.46787   79.226
 5557.00    1.48668   1.46876   79.131
 5558.00    1.49018   1.46987   79.085
 5559.00    1.50086   1.47161   -1.000
 5560.00    1.49826   1.47237   79.806
 5561.00    1.49227   1.46953   80.623
 5562.00    1.48793   1.46433   81.107
 5563.00    1.46913   1.46038   81.297
 5564.00    1.45979   1.45879   81.447
 5565.00    1.46961   1.45712   81.485
 5566.00    1.46914   1.45416   81.289
 5567.00    1.47008   1.45129   81.181
 5568.00    1.46913   1.44840   81.414
 5569.00    1.45298   1.44651   81.331
 5570.00    1.44943   1.44589   81.385
 5571.00    1.44366   1.44272   81.557
 5572.00    1.41214   1.43911   81.065
 5573.00    1.29053   1.44028   -1.000
 5574.00    1.01555   1.44582   -1.000
 5575.00    1.02249   1.45245   -1.000
 5576.00    1.19492   1.45772   -1.000
 5577.00    1.48084   1.46236   79.094
 5578.00    1.95636   1.46746   -1.000
 5579.00    1.95222   1.47119   -1.000
 5580.00    1.61544   1.47079   -1.000
 5581.00    1.49717   1.46767   -1.000
 5582.00    1.48756   1.46544   80.206
 5583.00    1.47792   1.46456   80.932
 5584.00    1.48657   1.45973   -1.000
 5585.00    1.46860   1.44504   84.998
 5586.00    1.43225   1.42356   86.683
 5587.00    1.41257   1.40495   86.951
 5588.00    1.40869   1.39760   85.682
 5589.00    1.41405   1.40291   84.144
 5590.00    1.42646   1.41706   83.147
 5591.00    1.44116   1.43186   83.076
 5592.00    1.44525   1.43947   83.331
 5593.00    1.44833   1.44033   82.629
 5594.00    1.44771   1.44154   81.451
 5595.00    1.45114   1.44852   81.060
 5596.00    1.46410   1.45413   82.075
 5597.00    1.46609   1.44948   83.484
 5598.00    1.45419   1.43995   84.157
 5599.00    1.44662   1.43309   84.098
 5600.00    1.44591   1.42702   84.629
 5601.00    1.44253   1.42141   84.732
 5602.00    1.42718   1.42282   83.009
 5603.00    1.43696   1.43502   80.713
 5604.00    1.46564   1.45469   79.053
 5605.00    1.49177   1.47346   78.318
 5606.00    1.50504   1.48516   78.266
 5607.00    1.51194   1.49018   78.414
 5608.00    1.51428   1.49123   78.539
 5609.00    1.51437   1.49154   78.407
 5610.00    1.51215   1.49315   78.246
 5611.00    1.50911   1.49390   78.885
 5612.00    1.50525   1.48826   80.827
 5613.00    1.49360   1.47189   83.615
 5614.00    1.46638   1.44713   85.013
 5615.00    1.44163   1.42969   83.834
 5616.00    1.44289   1.43239   81.845
 5617.00    1.46480   1.44870   80.968
 5618.00    1.48364   1.46404   80.835
 5619.00    1.48953   1.47145   80.434
 5620.00    1.49192   1.47431   80.154
 5621.00    1.49682   1.47623   80.782
 5622.00    1.49522   1.47482   82.500
 5623.00    1.48185   1.46771   83.693
 5624.00    1.46708   1.45945   82.960
 5625.00    1.46496   1.45732   81.497
 5626.00    1.47476   1.46340   80.388
 5627.00    1.48973   1.47201   79.534
 5628.00    1.50778   1.47897   -1.000
 5629.00    1.51981   1.48418   -1.000
 5630.00    1.52316   1.48709   -1.000
 5631.00    1.51978   1.48781   -1.000
 5632.00    1.51708   1.48662   -1.000
 5633.00    1.50815   1.48504   80.003
 5634.00    1.50935   1.48345   -1.000
 5635.00    1.49639   1.47979   81.112
 5636.00    1.48245   1.47456   81.564
 5637.00    1.48962   1.47074   81.498
 5638.00    1.49461   1.46951   81.468
 5639.00    1.49093   1.46914   81.747
 5640.00    1.48668   1.46757   81.698
 5641.00    1.48709   1.46578   81.324
 5642.00    1.49090   1.46670   80.986
 5643.00    1.48563   1.47002   80.809
 5644.00    1.48928   1.47306   80.250
 5645.00    1.49116   1.47526   80.070
 5646.00    1.49897   1.47668   79.874
 5647.00    1.50282   1.47733   -1.000
 5648.00    1.51163   1.47760   -1.000
 5649.00    1.50453   1.47768   -1.000
 5650.00    1.49876   1.47920   79.244
 5651.00    1.50536   1.48258   79.175
 5652.00    1.51037   1.48541   -1.000
 5653.00    1.50307   1.48568   80.286
 5654.00    1.50195   1.48276   81.203
 5655.00    1.49565   1.47493   83.018
 5656.00    1.47710   1.45898   85.481
 5657.00    1.45118   1.43939   86.259
 5658.00    1.43781   1.42918   84.632
 5659.00    1.44100   1.43405   83.000
 5660.00    1.45712   1.44647   82.930
 5661.00    1.46603   1.45441   82.910
 5662.00    1.46864   1.45757   81.817
 5663.00    1.47330   1.46541   80.786
 5664.00    1.48498   1.47663   80.689
 5665.00    1.49607   1.48161   81.204
 5666.00    1.48818   1.47716   81.621
 5667.00    1.48370   1.46901   81.623
 5668.00    1.49465   1.46512   -1.000
 5669.00    1.50043   1.46710   -1.000
 5670.00    1.49790   1.47178   -1.000
 5671.00    1.49926   1.47727   79.185
 5672.00    1.50766   1.48296   78.567
 5673.00    1.51459   1.48756   -1.000
 5674.00    1.52110   1.49001   -1.000
 5675.00    1.51934   1.49121   -1.000
 5676.00    1.51063   1.49254   78.611
 5677.00    1.51504   1.49370   79.057
 5678.00    1.51747   1.49308   -1.000
 5679.00    1.51233   1.48992   79.961
 5680.00    1.50526   1.48408   80.954
 5681.00    1.49772   1.47567   81.772
 5682.00    1.48561   1.46647   81.745
 5683.00    1.47458   1.46128   81.225
 5684.00    1.47730   1.46337   81.018
 5685.00    1.48463   1.46902   81.591
 5686.00    1.48306   1.47161   82.491
 5687.00    1.46887   1.46931   82.452
 5688.00    1.46998   1.46604   81.290
 5689.00    1.48123   1.46681   79.866
 5690.00    1.49207   1.47344   79.245
 5691.00    1.50812   1.48310   -1.000
 5692.00    1.51696   1.49080   -1.000
 5693.00    1.51974   1.49402   -1.000
 5694.00    1.52048   1.49412   -1.000
 5695.00    1.51648   1.49299   -1.000
 5696.00    1.50880   1.49111   80.189
 5697.00    1.50479   1.48801   81.089
 5698.00    1.49403   1.48281   81.805
 5699.00    1.49143   1.47634   82.616
 5700.00    1.48237   1.47052   82.743
 5701.00    1.47146   1.46702   81.971
 5702.00    1.46636   1.46826   81.218
 5703.00    1.47910   1.47352   81.238
 5704.00    1.48045   1.47769   81.978
 5705.00    1.47523   1.47699   83.277
 5706.00    1.46686   1.47038   84.825
 5707.00    1.45752   1.45949   85.956
 5708.00    1.44492   1.44774   86.227
 5709.00    1.42769   1.43913   85.821
 5710.00    1.42795   1.43757   84.695
 5711.00    1.43874   1.44433   82.784
 5712.00    1.45527   1.45694   80.852
 5713.00    1.47996   1.47065   79.889
 5714.00    1.50005   1.48059   79.723
 5715.00    1.51088   1.48618   -1.000
 5716.00    1.51214   1.49020   79.249
 5717.00    1.51275   1.49330   78.819
 5718.00    1.51653   1.49601   78.323
 5719.00    1.51825   1.49925   78.010
 5720.00    1.52137   1.50272   77.855
 5721.00    1.52663   1.50514   77.745
 5722.00    1.53132   1.50644   -1.000
 5723.00    1.53224   1.50734   -1.000
 5724.00    1.52870   1.50643   -1.000
 5725.00    1.52477   1.50115   -1.000
 5726.00    1.51813   1.49334   -1.000
 5727.00    1.51090   1.48847   79.409
 5728.00    1.51460   1.48862   -1.000
 5729.00    1.52377   1.49156   -1.000
 5730.00    1.52018   1.49388   -1.000
 5731.00    1.51212   1.49464   79.214
 5732.00    1.51972   1.49593   -1.000
 5733.00    1.52293   1.50050   -1.000
 5734.00    1.52751   1.50603   -1.000
 5735.00    1.53414   1.50804   -1.000
 5736.00    1.52872   1.50774   78.574
 5737.00    1.52293   1.50679   78.629
 5738.00    1.51839   1.50575   78.808
 5739.00    1.52149   1.50581   78.928
 5740.00    1.52262   1.50633   79.044
 5741.00    1.52151   1.50579   78.832
 5742.00    1.51504   1.50460   78.677
 5743.00    1.51546   1.50528   78.061
 5744.00    1.51860   1.50841   77.836
 5745.00    1.52261   1.51096   78.432
 5746.00    1.52917   1.50989   79.151
 5747.00    1.52100   1.50634   79.235
 5748.00    1.51619   1.50523   78.728
 5749.00    1.52047   1.50770   78.696
 5750.00    1.52705   1.50914   79.485
 5751.00    1.52435   1.50575   80.451
 5752.00    1.50515   1.49750   81.067
 5753.00    1.49328   1.49049   80.748
 5754.00    1.49122   1.49164   79.511
 5755.00    1.50414   1.50039   78.099
 5756.00    1.51981   1.51091   77.478
 5757.00    1.52813   1.51879   77.972
 5758.00    1.53152   1.52127   78.940
 5759.00    1.52827   1.51687   79.997
 5760.00    1.52048   1.50791   80.957
 5761.00    1.51081   1.49861   81.015
 5762.00    1.50756   1.49430   79.884
 5763.00    1.50535   1.49921   78.496
 5764.00    1.51107   1.51065   77.741
 5765.00    1.52645   1.51978   77.608
 5766.00    1.54094   1.52290   77.527
 5767.00    1.54105   1.52280   77.446
 5768.00    1.53249   1.52180   77.661
 5769.00    1.52538   1.52054   77.961
 5770.00    1.52319   1.51893   78.427
 5771.00    1.52622   1.51731   78.858
 5772.00    1.51787   1.51529   78.999
 5773.00    1.51191   1.51227   79.036
 5774.00    1.51062   1.50832   78.792
 5775.00    1.49749   1.50577   78.438
 5776.00    1.48999   1.50600   78.471
 5777.00    1.48228   1.50575   78.934
 5778.00    1.46051   1.50232   80.319
 5779.00    1.45148   1.49570   82.047
 5780.00    1.45312   1.48724   82.765
 5781.00    1.46599   1.47980   82.457
 5782.00    1.48021   1.47659   82.137
 5783.00    1.48470   1.47765   81.845
 5784.00    1.48602   1.48021   81.416
 5785.00    1.49310   1.48316   80.400
 5786.00    1.50371   1.48745   79.414
 5787.00    1.51300   1.49275   79.001
 5788.00    1.52006   1.49774   79.215
 5789.00    1.52409   1.50071   -1.000
 5790.00    1.52188   1.50063   79.208
 5791.00    1.51860   1.50100   78.524
 5792.00    1.51916   1.50556   78.019
 5793.00    1.51764   1.51363   77.639
 5794.00    1.52940   1.52101   77.739
 5795.00    1.53167   1.52369   78.265
 5796.00    1.52100   1.52063   78.580
 5797.00    1.52226   1.51550   77.977
 5798.00    1.52219   1.51475   76.908
 5799.00    1.53635   1.51989   76.032
 5800.00    1.54866   1.52688   -1.000
 5801.00    1.54991   1.53144   -1.000
 5802.00    1.55058   1.53140   -1.000
 5803.00    1.53962   1.52735   77.998
 5804.00    1.53507   1.52321   78.202
 5805.00    1.53303   1.52206   77.945
 5806.00    1.53167   1.52382   77.658
 5807.00    1.53373   1.52690   77.482
 5808.00    1.53789   1.52886   77.487
 5809.00    1.54431   1.52965   77.354
 5810.00    1.54526   1.53076   77.053
 5811.00    1.55140   1.53188   76.917
 5812.00    1.55696   1.53162   -1.000
 5813.00    1.55615   1.52897   -1.000
 5814.00    1.55089   1.52425   -1.000
 5815.00    1.55313   1.51967   -1.000
 5816.00    1.55317   1.51897   -1.000
 5817.00    1.55008   1.52345   -1.000
 5818.00    1.55625   1.52931   -1.000
 5819.00    1.56270   1.53292   -1.000
 5820.00    1.56425   1.53425   -1.000
 5821.00    1.56509   1.53491   -1.000
 5822.00    1.57044   1.53508   -1.000
 5823.00    1.57053   1.53439   -1.000
 5824.00    1.56683   1.53354   -1.000
 5825.00    1.57028   1.53382   -1.000
 5826.00    1.57204   1.53563   -1.000
 5827.00    1.57325   1.53787   -1.000
 5828.00    1.57244   1.54016   -1.000
 5829.00    1.57063   1.54137   -1.000
 5830.00    1.57125   1.54065   -1.000
 5831.00    1.56757   1.53924   -1.000
 5832.00    1.56567   1.53753   -1.000
 5833.00    1.57629   1.53537   -1.000
 5834.00    1.57070   1.53348   -1.000
 5835.00    1.57059   1.53340   -1.000
 5836.00    1.57193   1.53507   -1.000
 5837.00    1.56514   1.53684   -1.000
 5838.00    1.56533   1.53847   -1.000
 5839.00    1.56674   1.54031   -1.000
 5840.00    1.56903   1.54200   -1.000
 5841.00    1.56892   1.54295   -1.000
 5842.00    1.56903   1.54194   -1.000
 5843.00    1.56945   1.53866   -1.000
 5844.00    1.56673   1.53477   -1.000
 5845.00    1.56393   1.53154   -1.000
 5846.00    1.55377   1.52904   -1.000
 5847.00    1.55340   1.52756   -1.000
 5848.00    1.55391   1.52701   -1.000
 5849.00    1.55893   1.52608   -1.000
 5850.00    1.56327   1.52311   -1.000
 5851.00    1.55087   1.51628   -1.000
 5852.00    1.54114   1.50732   -1.000
 5853.00    1.53642   1.50167   -1.000
 5854.00    1.52805   1.50055   -1.000
 5855.00    1.52636   1.49777   -1.000
 5856.00    1.52371   1.48884   -1.000
 5857.00    1.52316   1.48005   -1.000
 5858.00    1.52775   1.48044   -1.000
 5859.00    1.53403   1.49014   -1.000
 5860.00    1.54463   1.50138   -1.000
 5861.00    1.54641   1.50844   -1.000
 5862.00    1.54919   1.51198   -1.000
 5863.00    1.55169   1.51350   -1.000
 5864.00    1.55256   1.51260   -1.000
 5865.00    1.54980   1.50893   -1.000
 5866.00    1.54554   1.50523   -1.000
 5867.00    1.55051   1.50626   -1.000
 5868.00    1.56062   1.51259   -1.000
 5869.00    1.56311   1.51989   -1.000
 5870.00    1.56586   1.52431   -1.000
 5871.00    1.56764   1.52444   -1.000
 5872.00    1.56655   1.52184   -1.000
 5873.00    1.56385   1.51886   -1.000
 5874.00    1.56293   1.51600   -1.000
 5875.00    1.56461   1.51380   -1.000
 5876.00    1.56587   1.51252   -1.000
 5877.00    1.56329   1.51000   -1.000
 5878.00    1.55437   1.50475   -1.000
 5879.00    1.54964   1.49918   -1.000
 5880.00    1.54528   1.49582   -1.000
 5881.00    1.54174   1.49418   -1.000
 5882.00    1.54102   1.49198   -1.000
 5883.00    1.53394   1.48768   -1.000
 5884.00    1.52424   1.48170   -1.000
 5885.00    1.49070   1.47386   81.499
 5886.00    1.42084   1.45774   85.188
 5887.00    1.31605   1.42150   -1.000
 5888.00    1.22358   1.36533   -1.000
 5889.00    1.22311   1.31776   -1.000
 5890.00    1.29343   1.30938   92.839
 5891.00    1.37045   1.33728   89.421
 5892.00    1.38377   1.37039   88.569
 5893.00    1.34131   1.37969   -1.000
 5894.00    1.29310   1.36190   -1.000
 5895.00    1.29985   1.33901   -1.000
 5896.00    1.35463   1.33968   88.071
 5897.00    1.42271   1.36760   -1.000
 5898.00    1.47681   1.40202   -1.000
 5899.00    1.49980   1.42964   -1.000
 5900.00    1.51715   1.45046   -1.000
 5901.00    1.52946   1.46614   -1.000
 5902.00    1.53505   1.47727   -1.000
 5903.00    1.54281   1.48427   -1.000
 5904.00    1.54381   1.48798   -1.000
 5905.00    1.54517   1.49040   -1.000
 5906.00    1.54796   1.49243   -1.000
 5907.00    1.54924   1.49457   -1.000
 5908.00    1.54685   1.49733   -1.000
 5909.00    1.54341   1.49995   -1.000
 5910.00    1.54536   1.50096   -1.000
 5911.00    1.54299   1.49918   -1.000
 5912.00    1.53894   1.49386   -1.000
 5913.00    1.52654   1.48594   -1.000
 5914.00    1.51491   1.47902   -1.000
 5915.00    1.51412   1.47671   -1.000
 5916.00    1.51408   1.47904   -1.000
 5917.00    1.51678   1.48374   -1.000
 5918.00    1.53001   1.48873   -1.000
 5919.00    1.52787   1.49208   -1.000
 5920.00    1.53581   1.49369   -1.000
 5921.00    1.53551   1.49464   -1.000
 5922.00    1.53638   1.49521   -1.000
 5923.00    1.53859   1.49639   -1.000
 5924.00    1.54550   1.49972   -1.000
 5925.00    1.55568   1.50404   -1.000
 5926.00    1.55885   1.50710   -1.000
 5927.00    1.55959   1.50687   -1.000
 5928.00    1.55035   1.50283   -1.000
 5929.00    1.53918   1.49862   -1.000
 5930.00    1.53584   1.49874   -1.000
 5931.00    1.53795   1.50241   -1.000
 5932.00    1.54379   1.50511   -1.000
 5933.00    1.54729   1.50431   -1.000
 5934.00    1.54226   1.50143   -1.000
 5935.00    1.53823   1.50045   -1.000
 5936.00    1.54201   1.50329   -1.000
 5937.00    1.54245   1.50701   -1.000
 5938.00    1.54155   1.50733   -1.000
 5939.00    1.53673   1.50342   -1.000
 5940.00    1.52525   1.49811   -1.000
 5941.00    1.52533   1.49418   -1.000
 5942.00    1.52842   1.49326   -1.000
 5943.00    1.52694   1.49668   -1.000
 5944.00    1.53270   1.50200   -1.000
 5945.00    1.53419   1.50508   -1.000
 5946.00    1.53943   1.50460   -1.000
 5947.00    1.53293   1.50152   -1.000
 5948.00    1.51997   1.49936   81.511
 5949.00    1.52152   1.50086   81.063
 5950.00    1.52977   1.50302   -1.000
 5951.00    1.53210   1.50325   -1.000
 5952.00    1.52721   1.50279   -1.000
 5953.00    1.53254   1.50265   -1.000
 5954.00    1.53900   1.50188   -1.000
 5955.00    1.53646   1.49939   -1.000
 5956.00    1.52747   1.49676   -1.000
 5957.00    1.53087   1.49700   -1.000
 5958.00    1.53784   1.50152   -1.000
 5959.00    1.54674   1.50813   -1.000
 5960.00    1.55894   1.51412   -1.000
 5961.00    1.55411   1.51812   -1.000
 5962.00    1.55669   1.51911   -1.000
 5963.00    1.55583   1.51726   -1.000
 5964.00    1.55185   1.51370   -1.000
 5965.00    1.54414   1.51014   -1.000
 5966.00    1.53978   1.50904   -1.000
 5967.00    1.54498   1.51096   -1.000
 5968.00    1.55449   1.51386   -1.000
 5969.00    1.55717   1.51663   -1.000
 5970.00    1.55539   1.51913   -1.000
 5971.00    1.56193   1.52038   -1.000
 5972.00    1.56087   1.51972   -1.000
 5973.00    1.55401   1.51819   -1.000
 5974.00    1.54195   1.51535   -1.000
 5975.00    1.52881   1.51036   81.243
 5976.00    1.53039   1.50584   -1.000
 5977.00    1.53257   1.50428   -1.000
 5978.00    1.53439   1.50663   -1.000
 5979.00    1.54263   1.51158   -1.000
 5980.00    1.54944   1.51559   -1.000
 5981.00    1.55251   1.51565   -1.000
 5982.00    1.54472   1.51088   -1.000
 5983.00    1.53338   1.50437   -1.000
 5984.00    1.52505   1.50113   -1.000
 5985.00    1.52439   1.50345   80.670
 5986.00    1.53456   1.50862   -1.000
 5987.00    1.53905   1.51333   -1.000
 5988.00    1.54693   1.51649   -1.000
 5989.00    1.54623   1.51729   -1.000
 5990.00    1.54729   1.51663   -1.000
 5991.00    1.54786   1.51777   -1.000
 5992.00    1.54765   1.52286   -1.000
 5993.00    1.55675   1.52963   -1.000
 5994.00    1.55499   1.53329   -1.000
 5995.00    1.54940   1.53172   80.030
 5996.00    1.55309   1.52726   -1.000
 5997.00    1.55206   1.52377   -1.000
 5998.00    1.54799   1.52312   -1.000
 5999.00    1.54918   1.52368   -1.000
 6000.00    1.54757   1.52299   -1.000
 6001.00    1.54745   1.52101   -1.000
 6002.00    1.54481   1.51868   -1.000
 6003.00    1.53770   1.51766   80.816
 6004.00    1.53895   1.51758   -1.000
 6005.00    1.53399   1.51495   -1.000
 6006.00    1.52499   1.50891   82.386
 6007.00    1.51905   1.50369   82.015
 6008.00    1.51485   1.50461   80.998
 6009.00    1.52079   1.51195   80.420
 6010.00    1.53771   1.51910   80.717
 6011.00    1.54579   1.52098   -1.000
 6012.00    1.54252   1.51963   -1.000
 6013.00    1.53705   1.51887   81.115
 6014.00    1.54357   1.51990   -1.000
 6015.00    1.54631   1.52013   -1.000
 6016.00    1.54087   1.51832   -1.000
 6017.00    1.54259   1.51646   -1.000
 6018.00    1.54251   1.51470   -1.000
 6019.00    1.54150   1.51261   -1.000
 6020.00    1.53057   1.51136   81.728
 6021.00    1.52713   1.51128   81.262
 6022.00    1.52446   1.51187   81.156
 6023.00    1.52284   1.51409   80.948
 6024.00    1.53297   1.51877   80.479
 6025.00    1.54631   1.52438   -1.000
 6026.00    1.55196   1.52876   -1.000
 6027.00    1.55094   1.53185   -1.000
 6028.00    1.55658   1.53440   -1.000
 6029.00    1.56243   1.53588   -1.000
 6030.00    1.56361   1.53664   -1.000
 6031.00    1.55709   1.53754   -1.000
 6032.00    1.55458   1.53873   79.009
 6033.00    1.56574   1.54083   -1.000
 6034.00    1.56722   1.54368   -1.000
 6035.00    1.57135   1.54543   -1.000
 6036.00    1.56423   1.54416   -1.000
 6037.00    1.56530   1.54015   -1.000
 6038.00    1.56559   1.53517   -1.000
 6039.00    1.56046   1.53104   -1.000
 6040.00    1.55795   1.52969   -1.000
 6041.00    1.55844   1.52964   -1.000
 6042.00    1.56119   1.52863   -1.000
 6043.00    1.56156   1.53129   -1.000
 6044.00    1.56132   1.53923   -1.000
 6045.00    1.56856   1.54615   -1.000
 6046.00    1.57397   1.54897   -1.000
 6047.00    1.57256   1.54963   -1.000
 6048.00    1.57787   1.54924   -1.000
 6049.00    1.57255   1.54791   -1.000
 6050.00    1.57101   1.54637   -1.000
 6051.00    1.57182   1.54470   -1.000
 6052.00    1.56398   1.54337   -1.000
 6053.00    1.56058   1.54198   -1.000
 6054.00    1.56460   1.53939   -1.000
 6055.00    1.56405   1.53628   -1.000
 6056.00    1.56017   1.53433   -1.000
 6057.00    1.55524   1.53374   -1.000
 6058.00    1.55961   1.53441   -1.000
 6059.00    1.56473   1.53687   -1.000
 6060.00    1.56654   1.53905   -1.000
 6061.00    1.56035   1.53775   -1.000
 6062.00    1.53491   1.53093   81.724
 6063.00    1.48747   1.52014   88.154
 6064.00    1.52829   1.51088   64.115
 6065.00    1.76228   1.50936   -1.000
 6066.00    1.83384   1.51776   -1.000
 6067.00    1.53113   1.53076   79.489
 6068.00    1.44139   1.54098   -1.000
 6069.00    1.51561   1.54660   76.957
 6070.00    1.52707   1.54944   76.814
 6071.00    1.61369   1.55101   -1.000
 6072.00    1.60006   1.55237   -1.000
 6073.00    1.57567   1.55300   -1.000
 6074.00    1.57592   1.55185   -1.000
 6075.00    1.56859   1.54867   -1.000
 6076.00    1.56954   1.54434   -1.000
 6077.00    1.56472   1.54041   -1.000
 6078.00    1.55649   1.53772   -1.000
 6079.00    1.55051   1.53595   81.036
 6080.00    1.54847   1.53391   81.166
 6081.00    1.54883   1.53094   -1.000
 6082.00    1.54853   1.52891   -1.000
 6083.00    1.54426   1.52945   81.230
 6084.00    1.54559   1.53139   81.099
 6085.00    1.54677   1.53351   80.820
 6086.00    1.54527   1.53623   80.622
 6087.00    1.54909   1.53892   80.930
 6088.00    1.55315   1.53927   81.411
 6089.00    1.54861   1.53629   81.625
 6090.00    1.54528   1.53192   81.407
 6091.00    1.54414   1.52989   80.868
 6092.00    1.54606   1.53174   80.470
 6093.00    1.54891   1.53619   80.034
 6094.00    1.55819   1.54103   -1.000
 6095.00    1.56245   1.54461   -1.000
 6096.00    1.56165   1.54729   80.096
 6097.00    1.56011   1.54964   80.115
 6098.00    1.55747   1.55014   80.387
 6099.00    1.55251   1.54570   81.741
 6100.00    1.54349   1.53388   83.660
 6101.00    1.52955   1.51611   84.357
 6102.00    1.50594   1.50232   83.264
 6103.00    1.50918   1.50239   81.687
 6104.00    1.52488   1.51394   80.772
 6105.00    1.53952   1.52712   80.754
 6106.00    1.54415   1.53627   81.082
 6107.00    1.54469   1.54214   81.196
 6108.00    1.54665   1.54636   81.099
 6109.00    1.55009   1.54848   80.859
 6110.00    1.54241   1.54788   80.581
 6111.00    1.54781   1.54640   80.487
 6112.00    1.55156   1.54678   80.073
 6113.00    1.55004   1.54890   80.057
 6114.00    1.55598   1.55048   80.480
 6115.00    1.55118   1.55034   80.912
 6116.00    1.54873   1.54967   81.056
 6117.00    1.54823   1.54729   81.711
 6118.00    1.55070   1.53723   82.945
 6119.00    1.53885   1.52064   -1.000
 6120.00    1.52040   1.50296   84.478
 6121.00    1.50275   1.48914   84.053
 6122.00    1.49548   1.48910   82.630
 6123.00    1.50206   1.50333   81.914
 6124.00    1.52095   1.51970   82.135
 6125.00    1.53006   1.53028   82.487
 6126.00    1.53195   1.53453   82.292
 6127.00    1.53277   1.53485   81.971
 6128.00    1.53353   1.53620   81.217
 6129.00    1.54201   1.54220   80.619
 6130.00    1.54024   1.55026   80.608
 6131.00    1.54054   1.55573   80.965
 6132.00    1.54122   1.55584   82.102
 6133.00    1.53901   1.54745   84.239
 6134.00    1.51553   1.52721   86.684
 6135.00    1.48941   1.49832   88.259
 6136.00    1.46754   1.47649   87.589
 6137.00    1.45971   1.47610   85.083
 6138.00    1.47320   1.49208   83.103
 6139.00    1.49468   1.50687   82.642
 6140.00    1.50257   1.51101   82.876
 6141.00    1.49857   1.51219   82.711
 6142.00    1.49828   1.52024   81.728
 6143.00    1.51403   1.53284   80.995
 6144.00    1.53718   1.54207   81.108
 6145.00    1.54130   1.54458   81.565
 6146.00    1.53522   1.54228   82.116
 6147.00    1.53612   1.53720   82.684
 6148.00    1.53555   1.53142   83.013
 6149.00    1.53358   1.52801   82.878
 6150.00    1.52560   1.52860   82.466
 6151.00    1.51813   1.53227   82.003
 6152.00    1.52370   1.53613   82.192
 6153.00    1.52757   1.53684   82.889
 6154.00    1.52603   1.53385   83.165
 6155.00    1.52210   1.53002   83.276
 6156.00    1.52069   1.52684   83.819
 6157.00    1.52342   1.52350   84.974
 6158.00    1.51608   1.51714   86.950
 6159.00    1.50370   1.50151   89.662
 6160.00    1.48745   1.47483   91.725
 6161.00    1.46029   1.44779   91.749
 6162.00    1.43898   1.43636   89.823
 6163.00    1.44293   1.44491   87.576
 6164.00    1.46379   1.46261   86.653
 6165.00    1.48437   1.47737   86.543
 6166.00    1.49320   1.48520   87.091
 6167.00    1.48690   1.48561   88.248
 6168.00    1.47085   1.47965   88.633
 6169.00    1.45867   1.47456   87.495
 6170.00    1.46905   1.47824   85.848
 6171.00    1.48569   1.48945   85.099
 6172.00    1.49799   1.50034   85.306
 6173.00    1.50617   1.50734   85.267
 6174.00    1.50866   1.51263   85.044
 6175.00    1.51173   1.51640   84.872
 6176.00    1.51627   1.51834   84.574
 6177.00    1.51632   1.51998   84.169
 6178.00    1.51883   1.52113   83.891
 6179.00    1.51773   1.52149   83.587
 6180.00    1.51924   1.52305   83.237
 6181.00    1.52460   1.52607   83.164
 6182.00    1.52726   1.52805   83.409
 6183.00    1.53067   1.52821   83.826
 6184.00    1.52843   1.52710   84.615
 6185.00    1.52373   1.52352   85.550
 6186.00    1.52355   1.51739   86.402
 6187.00    1.51505   1.51053   87.158
 6188.00    1.50833   1.50147   87.923
 6189.00    1.49740   1.48816   88.964
 6190.00    1.48565   1.47493   88.968
 6191.00    1.47562   1.47153   87.431
 6192.00    1.47985   1.48196   85.375
 6193.00    1.49963   1.49874   84.353
 6194.00    1.51036   1.51217   84.035
 6195.00    1.51733   1.51987   84.151
 6196.00    1.52044   1.52306   84.908
 6197.00    1.51561   1.52093   85.846
 6198.00    1.51233   1.51411   86.261
 6199.00    1.50887   1.50925   85.849
 6200.00    1.49645   1.51174   84.834
 6201.00    1.49327   1.51889   84.013
 6202.00    1.51081   1.52599   83.952
 6203.00    1.51602   1.53063   83.924
 6204.00    1.52249   1.53284   83.804
 6205.00    1.53625   1.53404   83.925
 6206.00    1.53654   1.53514   84.183
 6207.00    1.54027   1.53592   84.247
 6208.00    1.53813   1.53520   84.800
 6209.00    1.52823   1.53214   85.582
 6210.00    1.51947   1.52692   86.282
 6211.00    1.51448   1.51909   87.302
 6212.00    1.50862   1.50835   88.549
 6213.00    1.49462   1.49830   89.170
 6214.00    1.48899   1.49302   88.892
 6215.00    1.49013   1.49229   87.807
 6216.00    1.49819   1.49270   87.840
 6217.00    1.50790   1.49150   88.305
 6218.00    1.50067   1.48885   87.738
 6219.00    1.49245   1.48761   87.448
 6220.00    1.49283   1.49041   89.941
 6221.00    1.49961   1.49572   94.269
 6222.00    1.48809   1.49911   89.532
 6223.00    1.42174   1.50008   -1.000
 6224.00    1.49249   1.50145   86.947
 6225.00    1.52284   1.50357   87.098
 6226.00    1.51247   1.50405   87.869
 6227.00    1.51212   1.49919   89.226
 6228.00    1.50123   1.48712   90.621
 6229.00    1.48640   1.47155   91.245
 6230.00    1.47404   1.46130   90.395
 6231.00    1.47586   1.46299   88.885
 6232.00    1.48369   1.47515   87.243
 6233.00    1.49170   1.49053   86.179
 6234.00    1.50834   1.50249   86.196
 6235.00    1.52382   1.50725   86.962
 6236.00    1.52283   1.50519   87.864
 6237.00    1.51744   1.49941   88.768
 6238.00    1.51094   1.49298   89.539
 6239.00    1.49549   1.48839   89.715
 6240.00    1.48764   1.48646   89.867
 6241.00    1.48722   1.48511   90.590
 6242.00    1.48921   1.48134   90.956
 6243.00    1.48538   1.47578   90.663
 6244.00    1.47743   1.47121   89.936
 6245.00    1.47941   1.47069   88.933
 6246.00    1.48621   1.47700   87.842
 6247.00    1.49492   1.48826   87.215
 6248.00    1.50513   1.49823   87.496
 6249.00    1.50963   1.50164   88.651
 6250.00    1.50743   1.49599   90.200
 6251.00    1.49564   1.48389   91.081
 6252.00    1.47811   1.47301   91.545
 6253.00    1.46511   1.46857   91.673
 6254.00    1.46167   1.46935   91.887
 6255.00    1.46291   1.47070   92.817
 6256.00    1.46664   1.46942   93.235
 6257.00    1.46839   1.46814   92.387
 6258.00    1.47102   1.47140   90.911
 6259.00    1.47619   1.47947   89.601
 6260.00    1.48413   1.48910   88.340
 6261.00    1.49242   1.49825   87.248
 6262.00    1.49795   1.50534   87.271
 6263.00    1.50066   1.50824   88.032
 6264.00    1.50144   1.50778   88.275
 6265.00    1.50381   1.50753   87.704
 6266.00    1.50547   1.50947   87.357
 6267.00    1.50226   1.51092   87.808
 6268.00    1.50028   1.50971   88.073
 6269.00    1.50524   1.50758   87.840
 6270.00    1.50743   1.50671   87.556
 6271.00    1.50362   1.50659   87.502
 6272.00    1.50202   1.50435   87.906
 6273.00    1.49989   1.49775   88.604
 6274.00    1.47991   1.48697   89.548
 6275.00    1.45041   1.47467   91.327
 6276.00    1.42704   1.46360   93.512
 6277.00    1.41493   1.45632   94.770
 6278.00    1.40921   1.45331   94.957
 6279.00    1.40134   1.45386   -1.000
 6280.00    1.39724   1.45883   -1.000
 6281.00    1.39283   1.46895   -1.000
 6282.00    1.40069   1.48244   -1.000
 6283.00    1.42017   1.49545   -1.000
 6284.00    1.44149   1.50478   -1.000
 6285.00    1.46274   1.51048   87.260
 6286.00    1.47792   1.51437   86.813
 6287.00    1.48840   1.51644   86.885
 6288.00    1.49235   1.51509   87.495
 6289.00    1.49799   1.51101   88.230
 6290.00    1.50291   1.50690   88.718
 6291.00    1.49829   1.50428   88.820
 6292.00    1.50006   1.50245   88.935
 6293.00    1.49259   1.50015   89.273
 6294.00    1.47310   1.49622   89.984
 6295.00    1.45245   1.48993   90.411
 6296.00    1.42145   1.48386   -1.000
 6297.00    1.37943   1.48142   -1.000
 6298.00    1.34567   1.48307   -1.000
 6299.00    1.39708   1.48524   -1.000
 6300.00    1.51700   1.48492   -1.000
 6301.00    1.59719   1.48510   -1.000
 6302.00    1.57830   1.48966   -1.000
 6303.00    1.51041   1.49728   88.656
 6304.00    1.50326   1.50401   87.711
 6305.00    1.50424   1.50848   86.971
 6306.00    1.50078   1.51263   86.383
 6307.00    1.50409   1.51696   86.474
 6308.00    1.51076   1.52019   86.964
 6309.00    1.51541   1.52173   87.487
 6310.00    1.50942   1.52120   87.806
 6311.00    1.49976   1.51889   88.082
 6312.00    1.49373   1.51584   88.376
 6313.00    1.48440   1.51235   89.104
 6314.00    1.47720   1.50884   89.243
 6315.00    1.47435   1.50611   89.147
 6316.00    1.46891   1.50316   89.132
 6317.00    1.46425   1.50025   89.127
 6318.00    1.46482   1.50191   88.507
 6319.00    1.47552   1.50931   87.441
 6320.00    1.48877   1.51704   86.783
 6321.00    1.49646   1.52187   86.506
 6322.00    1.49836   1.52581   86.155
 6323.00    1.49946   1.53063   85.736
 6324.00    1.50509   1.53483   85.560
 6325.00    1.51339   1.53647   85.404
 6326.00    1.51271   1.53638   85.106
 6327.00    1.51393   1.53601   85.230
 6328.00    1.51372   1.53583   85.282
 6329.00    1.52177   1.53634   85.219
 6330.00    1.52252   1.53837   84.932
 6331.00    1.52209   1.54099   84.933
 6332.00    1.51771   1.54013   85.189
 6333.00    1.50580   1.53274   85.979
 6334.00    1.44638   1.52080   -1.000
 6335.00    1.39785   1.51197   -1.000
 6336.00    1.46354   1.51226   86.423
 6337.00    1.48119   1.51942   85.511
 6338.00    1.49706   1.52814   84.737
 6339.00    1.50645   1.53539   84.368
 6340.00    1.50970   1.53969   84.107
 6341.00    1.51043   1.54024   84.445
 6342.00    1.50683   1.53698   85.054
 6343.00    1.50266   1.53184   84.995
 6344.00    1.49964   1.52893   84.662
 6345.00    1.50141   1.53016   84.141
 6346.00    1.49815   1.53433   83.630
 6347.00    1.49753   1.54004   83.448
 6348.00    1.50252   1.54646   83.424
 6349.00    1.50725   1.55193   83.308
 6350.00    1.51128   1.55423   83.504
 6351.00    1.51041   1.55269   83.893
 6352.00    1.50894   1.54804   84.472
 6353.00    1.50237   1.54196   85.416
 6354.00    1.49372   1.53719   85.895
 6355.00    1.48671   1.53476   85.950
 6356.00    1.48004   1.53249   86.468
 6357.00    1.47550   1.52832   87.311
 6358.00    1.47072   1.52369   -1.000
 6359.00    1.47016   1.52090   87.004
 6360.00    1.45637   1.51917   -1.000
 6361.00    1.44530   1.51734   -1.000
 6362.00    1.45122   1.51693   -1.000
 6363.00    1.49002   1.52003   85.667
 6364.00    1.52780   1.52579   85.153
 6365.00    1.53097   1.53163   84.674
 6366.00    1.52115   1.53665   84.118
 6367.00    1.50848   1.54071   83.670
 6368.00    1.50615   1.54226   83.574
 6369.00    1.49933   1.54110   83.538
 6370.00    1.49939   1.53949   83.210
 6371.00    1.50473   1.53974   83.064
 6372.00    1.50592   1.54293   83.275
 6373.00    1.49707   1.54697   83.362
 6374.00    1.48881   1.54854   83.597
 6375.00    1.48983   1.54764   83.956
 6376.00    1.48500   1.54547   -1.000
 6377.00    1.48009   1.54238   -1.000
 6378.00    1.48292   1.53888   85.157
 6379.00    1.47865   1.53546   85.232
 6380.00    1.47442   1.53296   -1.000
 6381.00    1.46728   1.53229   -1.000
 6382.00    1.46895   1.53333   -1.000
 6383.00    1.47408   1.53518   -1.000
 6384.00    1.46510   1.53702   -1.000
 6385.00    1.46227   1.53910   -1.000
 6386.00    1.47004   1.54134   -1.000
 6387.00    1.46663   1.54247   -1.000
 6388.00    1.45817   1.54211   -1.000
 6389.00    1.45172   1.54002   -1.000
 6390.00    1.44038   1.53436   -1.000
 6391.00    1.42912   1.52451   -1.000
 6392.00    1.41628   1.51483   -1.000
 6393.00    1.40876   1.51284   -1.000
 6394.00    1.40241   1.52069   -1.000
 6395.00    1.40268   1.53169   -1.000
 6396.00    1.40727   1.53771   -1.000
 6397.00    1.40663   1.53428   -1.000
 6398.00    1.38824   1.52344   -1.000
 6399.00    1.36651   1.51383   -1.000
 6400.00    1.36278   1.51453   -1.000
 6401.00    1.36597   1.52604   -1.000
 6402.00    1.37198   1.54011   -1.000
 6403.00    1.37836   1.54951   -1.000
 6404.00    1.37883   1.55188   -1.000
 6405.00    1.37105   1.54770   -1.000
 6406.00    1.35559   1.54010   -1.000
 6407.00    1.34195   1.53367   -1.000
 6408.00    1.32679   1.53231   -1.000
 6409.00    1.31934   1.53484   -1.000
 6410.00    1.31441   1.53551   -1.000
 6411.00    1.30214   1.53395   -1.000
 6412.00    1.29623   1.53426   -1.000
 6413.00    1.30091   1.53718   -1.000
 6414.00    1.29535   1.54059   -1.000
 6415.00    1.28518   1.54342   -1.000
 6416.00    1.28375   1.54471   -1.000
 6417.00    1.27401   1.54257   -1.000
 6418.00    1.25525   1.53580   -1.000
 6419.00    1.23996   1.52657   -1.000
 6420.00    1.22217   1.52147   -1.000
 6421.00    1.21171   1.52550   -1.000
 6422.00    1.20789   1.53633   -1.000
 6423.00    1.20725   1.54752   -1.000
 6424.00    1.19929   1.55523   -1.000
 6425.00    1.19606   1.55962   -1.000
 6426.00    1.19590   1.56110   -1.000
 6427.00    1.18079   1.55756   -1.000
 6428.00    1.16056   1.54714   -1.000
