###################################################################
## OUTPUT of StarlightChains_v04.for    [Cid@UFSC - 01/Apr/2007] ##
###################################################################

## Some input info
NGC6254_a_1.cxt                          [arq_obs]
Base.BC03.S                              [arq_base]
NGC6254_a_1.msk                          [arq_masks]
StCv04.C11.config                        [arq_config]
  150                                    [N_base]
    0                                    [N_YAV_components = # of components with extra extinction!]
    0                                    [i_FitPowerLaw (1/0 = Yes/No)]
-9.99                                    [alpha_PowerLaw]
CCM                                      [red_law_option]
 1.458241                                [q_norm = A(l_norm)/A(V)]

## (Re)Sampling Parameters
 3359.00                                 [l_ini (A)]
 6428.00                                 [l_fin (A)]
    1.00                                 [dl    (A)]     (OBS: dl_cushion =    50.00 A)

## Normalization info
 4020.00                                 [l_norm (A) - for base]
 4010.00                                 [llow_norm (A) - window for f_obs]
 4060.00                                 [lupp_norm (A) - window for f_obs]
2.492239E-14                             [fobs_norm (in input units)]

## S/N
 4730.00                                 [llow_SN (A) - window for S/N]
 4780.00                                 [lupp_SN (A) - window for S/N]
 102.867                                 [S/N in S/N window]
  85.513                                 [S/N in norm. window]
 113.249                                 [S/N_err in S/N window]
  94.144                                 [S/N_err in norm. window]
  1.0000                                 [fscale_chi2]

## etc...
  2147483623                             [idum_orig]
  3068                                   [NOl_eff]
  1563                                   [Nl_eff]
  1505    NSIGMA                         [Ntot_cliped & clip_method]
  1515080                                [Nglobal_steps]
   7                                     [N_chains]
  23                                     [NEX0s_base = N_base in EX0s-fits]
 0   0   1      142   2.0   2.178E+02    [Clip-Bug, RC-Crash & Burn-In warning-flags, n_censored_weights, wei_nsig_threshold & wei_limit]
    59     58.916     58.904      0.012  [idt_all, wdt_TotTime, wdt_UsrTime & wdt_SysTime (sec)]

## Synthesis Results - Best model ##

 2.19213E+00                             [chi2/Nl_eff]
     1.39623                             [adev (%)]

   100.80727                             [sum-of-x (%)]
 6.80688E-14                             [Flux_tot (units of input spectrum!)]
 1.30291E-09                             [Mini_tot (???)]
 6.53289E-10                             [Mcor_tot (???)]

 -15.95                                  [v0_min  (km/s)]
  72.43                                  [vd_min  (km/s)]
 0.7421                                  [AV_min  (mag)]
 0.0000                                  [YAV_min (mag)]

# j     x_j(%)      Mini_j(%)     Mcor_j(%)     age_j(yr)     Z_j      (L/M)_j    YAV?  Mstars   component_j        a/Fe...       SSP_chi2r SSP_adev(%)   SSP_AV   SSP_x(%)
  1      0.0000     0.0000E+00    0.0000E+00    1.000000E+06  0.00010  8.160E-03    0   1.0000   age020_m22            0.0000     1.6363E+02    11.3961   4.0000    81.9781
  2     11.9010     1.2960E-02    2.5847E-02    3.160000E+06  0.00010  4.759E-02    0   1.0000   age045_m22            0.0000     1.7233E+01     3.5457   2.0902    99.2918
  3      0.8251     2.2134E-03    4.2299E-03    5.010000E+06  0.00010  1.932E-02    0   0.9582   age055_m22            0.0000     1.3516E+02    10.5578   2.3770    87.4844
  4      0.0000     0.0000E+00    0.0000E+00    6.610000E+06  0.00010  9.973E-03    0   0.9297   age061_m22            0.0000     1.5611E+02    11.3462   4.0000    84.4051
  5      0.0000     0.0000E+00    0.0000E+00    8.710000E+06  0.00010  7.690E-03    0   0.9030   age067_m22            0.0000     1.4651E+02    11.0023   4.0000    84.6496
  6      0.0000     0.0000E+00    0.0000E+00    1.000000E+07  0.00010  6.375E-03    0   0.8902   age070_m22            0.0000     1.3904E+02    10.6807   4.0000    85.0155
  7      0.0000     0.0000E+00    0.0000E+00    1.445000E+07  0.00010  4.874E-03    0   0.8589   age078_m22            0.0000     9.9396E+01     9.1761   3.8470    87.1788
  8      0.0000     0.0000E+00    0.0000E+00    2.512000E+07  0.00010  4.103E-03    0   0.8174   age090_m22            0.0000     4.3731E+01     6.0689   3.4523    92.9513
  9      0.0000     0.0000E+00    0.0000E+00    4.000000E+07  0.00010  3.654E-03    0   0.7830   age104_m22            0.0000     3.7249E+01     4.3060   3.1705    97.0148
 10      0.0000     0.0000E+00    0.0000E+00    5.500000E+07  0.00010  3.093E-03    0   0.7597   age110_m22            0.0000     4.1186E+01     4.0371   3.0700    98.4491
 11      0.0000     0.0000E+00    0.0000E+00    1.015200E+08  0.00010  2.431E-03    0   0.7138   age116_m22            0.0000     5.9701E+01     4.4564   2.7288   101.1927
 12      0.0000     0.0000E+00    0.0000E+00    1.609000E+08  0.00010  1.319E-03    0   0.6775   age120_m22            0.0000     6.4973E+01     4.5089   2.2469   103.6786
 13      0.0000     0.0000E+00    0.0000E+00    2.861200E+08  0.00010  1.075E-03    0   0.6412   age125_m22            0.0000     1.8159E+02     8.3279   2.3135   106.8551
 14      0.0000     0.0000E+00    0.0000E+00    5.088000E+08  0.00010  7.183E-04    0   0.6083   age130_m22            0.0000     2.2796E+02     9.7347   2.0806   108.5258
 15      0.0000     0.0000E+00    0.0000E+00    9.047900E+08  0.00010  4.524E-04    0   0.5785   age135_m22            0.0000     2.3172E+02     9.9531   1.8796   109.6861
 16      0.0000     0.0000E+00    0.0000E+00    1.278050E+09  0.00010  3.018E-04    0   0.5588   age138_m22            0.0000     1.1022E+02     6.9100   1.3497   107.9812
 17      0.0000     0.0000E+00    0.0000E+00    1.434000E+09  0.00010  2.691E-04    0   0.5532   age139_m22            0.0000     8.9407E+01     6.2913   1.1935   107.4140
 18      0.0000     0.0000E+00    0.0000E+00    2.500000E+09  0.00010  1.582E-04    0   0.5296   age150_m22            0.0000     7.5021E+01     5.6088   1.0843   108.1023
 19      0.0068     3.4914E-03    3.5582E-03    4.250000E+09  0.00010  1.007E-04    0   0.5110   age158_m22            0.0000     3.8829E+01     4.0875   0.9282   106.5368
 20      0.0147     1.1056E-02    1.0992E-02    6.250000E+09  0.00010  6.869E-05    0   0.4985   age166_m22            0.0000     1.4519E+01     2.6007   0.8652   103.9363
 21      0.0002     1.5649E-04    1.5390E-04    7.500000E+09  0.00010  5.873E-05    0   0.4931   age171_m22            0.0000     1.1771E+01     2.3485   0.8542   103.4170
 22      0.4751     5.4944E-01    5.3190E-01    1.000000E+10  0.00010  4.481E-05    0   0.4854   age181_m22            0.0000     1.1111E+01     2.3024   0.8153   103.0548
 23      2.8778     4.2747E+00    4.0845E+00    1.300000E+10  0.00010  3.489E-05    0   0.4791   age193_m22            0.0000     9.4831E+00     2.1880   0.7563   102.5335
 24      3.0277     5.1700E+00    4.9142E+00    1.500000E+10  0.00010  3.035E-05    0   0.4766   age201_m22            0.0000     8.5353E+00     2.1163   0.7167   102.3545
 25      3.9266     8.1074E+00    7.6562E+00    1.800000E+10  0.00010  2.510E-05    0   0.4735   age213_m22            0.0000     6.3880E+00     1.9287   0.6470   101.7697
 26      0.0000     0.0000E+00    0.0000E+00    1.000000E+06  0.00040  8.458E-03    0   1.0000   age020_m32            0.0000     1.6016E+02    11.2652   4.0000    82.9615
 27      0.0000     0.0000E+00    0.0000E+00    3.160000E+06  0.00040  3.973E-02    0   1.0000   age045_m32            0.0000     4.8805E+01     6.5487   3.3518    93.0013
 28      0.0000     5.0920E-08    9.6801E-08    5.010000E+06  0.00040  1.935E-02    0   0.9532   age055_m32            0.0000     1.1391E+02     9.9731   3.5743    87.6902
 29      0.0000     0.0000E+00    0.0000E+00    6.610000E+06  0.00040  1.204E-02    0   0.9243   age061_m32            0.0000     1.2761E+02    10.3999   3.8794    85.9123
 30      0.0000     0.0000E+00    0.0000E+00    8.710000E+06  0.00040  9.433E-03    0   0.9001   age067_m32            0.0000     1.1316E+02     9.8294   3.8529    86.7013
 31      0.0000     0.0000E+00    0.0000E+00    1.000000E+07  0.00040  8.053E-03    0   0.8877   age070_m32            0.0000     1.0749E+02     9.5978   3.8182    87.1144
 32      0.0000     0.0000E+00    0.0000E+00    1.445000E+07  0.00040  7.027E-03    0   0.8578   age078_m32            0.0000     6.3412E+01     7.5018   3.3089    91.8410
 33      0.0000     0.0000E+00    0.0000E+00    2.512000E+07  0.00040  4.707E-03    0   0.8166   age090_m32            0.0000     3.8995E+01     5.5146   3.0193    95.4366
 34      0.0000     0.0000E+00    0.0000E+00    4.000000E+07  0.00040  3.714E-03    0   0.7827   age104_m32            0.0000     3.3874E+01     4.1366   2.8247    98.3712
 35      0.0000     0.0000E+00    0.0000E+00    5.500000E+07  0.00040  2.982E-03    0   0.7593   age110_m32            0.0000     3.8155E+01     3.9894   2.7643    99.4374
 36      0.0000     0.0000E+00    0.0000E+00    1.015200E+08  0.00040  2.188E-03    0   0.7143   age116_m32            0.0000     8.9092E+01     5.3628   2.5004   103.4534
 37      0.0000     0.0000E+00    0.0000E+00    1.609000E+08  0.00040  1.690E-03    0   0.6856   age120_m32            0.0000     1.3793E+02     6.8856   2.3008   105.9572
 38      0.0000     0.0000E+00    0.0000E+00    2.861200E+08  0.00040  1.152E-03    0   0.6509   age125_m32            0.0000     1.9272E+02     8.7728   2.0673   107.9296
 39      0.0000     0.0000E+00    0.0000E+00    5.088000E+08  0.00040  7.331E-04    0   0.6182   age130_m32            0.0000     2.1314E+02     9.5140   1.9010   108.6271
 40      0.0000     0.0000E+00    0.0000E+00    9.047900E+08  0.00040  3.960E-04    0   0.5890   age135_m32            0.0000     1.1697E+02     7.3671   1.4310   107.3909
 41      0.0000     0.0000E+00    0.0000E+00    1.278050E+09  0.00040  2.854E-04    0   0.5687   age138_m32            0.0000     8.8702E+01     6.2130   1.1478   109.0783
 42      0.0000     0.0000E+00    0.0000E+00    1.434000E+09  0.00040  2.531E-04    0   0.5632   age139_m32            0.0000     8.5455E+01     6.0856   1.0894   109.0040
 43      0.0000     0.0000E+00    0.0000E+00    2.500000E+09  0.00040  1.488E-04    0   0.5386   age150_m32            0.0000     5.5643E+01     5.0969   0.8308   107.2610
 44      5.6086     3.2005E+00    3.3185E+00    4.250000E+09  0.00040  9.082E-05    0   0.5199   age158_m32            0.0000     1.4840E+01     2.8100   0.7244   104.1699
 45     37.8232     3.0811E+01    3.1192E+01    6.250000E+09  0.00040  6.362E-05    0   0.5076   age166_m32            0.0000     2.6664E+00     1.4867   0.6769   101.0188
 46     31.5790     3.0943E+01    3.1023E+01    7.500000E+09  0.00040  5.289E-05    0   0.5027   age171_m32            0.0000     2.8530E+00     1.5452   0.6368    99.8289
 47      0.0175     2.2873E-02    2.2571E-02    1.000000E+10  0.00040  3.972E-05    0   0.4948   age181_m32            0.0000     4.0925E+00     1.7712   0.5703    98.5191
 48      0.0000     0.0000E+00    0.0000E+00    1.300000E+10  0.00040  3.283E-05    0   0.4870   age193_m32            0.0000     5.1799E+00     1.9725   0.5318   101.1016
 49      0.0000     0.0000E+00    0.0000E+00    1.500000E+10  0.00040  2.925E-05    0   0.4854   age201_m32            0.0000     8.9538E+00     2.4435   0.5169   102.6017
 50      0.0026     5.4740E-03    5.2610E-03    1.800000E+10  0.00040  2.469E-05    0   0.4819   age213_m32            0.0000     1.1402E+01     2.7241   0.4785   103.0752
 51      0.0000     0.0000E+00    0.0000E+00    1.000000E+06  0.00400  1.114E-02    0   1.0000   age020_m42            0.0000     1.5073E+02    11.0173   3.9904    82.3360
 52      0.0000     0.0000E+00    0.0000E+00    3.160000E+06  0.00400  4.073E-02    0   0.9999   age045_m42            0.0000     2.8919E+01     4.9268   3.0587    95.4493
 53      0.0000     0.0000E+00    0.0000E+00    5.010000E+06  0.00400  2.534E-02    0   0.9488   age055_m42            0.0000     7.1792E+01     7.9878   3.4501    89.6794
 54      0.0000     7.5832E-08    1.3944E-07    6.610000E+06  0.00400  2.583E-02    0   0.9220   age061_m42            0.0000     2.7703E+01     4.3415   2.8809    96.0189
 55      0.0000     0.0000E+00    0.0000E+00    8.710000E+06  0.00400  1.706E-02    0   0.8983   age067_m42            0.0000     4.1251E+01     5.9441   2.7082    94.4311
 56      0.0000     2.9019E-08    5.1290E-08    1.000000E+07  0.00400  1.271E-02    0   0.8862   age070_m42            0.0000     6.3646E+01     7.5477   2.6977    93.1421
 57      0.0000     0.0000E+00    0.0000E+00    1.445000E+07  0.00400  7.666E-03    0   0.8571   age078_m42            0.0000     8.5382E+01     8.4931   3.0817    90.2834
 58      0.0000     0.0000E+00    0.0000E+00    2.512000E+07  0.00400  5.070E-03    0   0.8174   age090_m42            0.0000     5.1334E+01     6.8426   2.5602    94.9477
 59      0.0000     0.0000E+00    0.0000E+00    4.000000E+07  0.00400  3.505E-03    0   0.7851   age104_m42            0.0000     2.8519E+01     5.0722   2.2373    97.9271
 60      0.0000     0.0000E+00    0.0000E+00    5.500000E+07  0.00400  3.059E-03    0   0.7629   age110_m42            0.0000     3.3374E+01     3.5506   2.2980   102.0028
 61      0.0000     0.0000E+00    0.0000E+00    1.015200E+08  0.00400  2.268E-03    0   0.7207   age116_m42            0.0000     1.2126E+02     6.6281   2.2121   106.7048
 62      0.0000     0.0000E+00    0.0000E+00    1.609000E+08  0.00400  1.720E-03    0   0.6930   age120_m42            0.0000     1.3789E+02     7.4381   2.0687   108.3164
 63      0.0000     0.0000E+00    0.0000E+00    2.861200E+08  0.00400  1.079E-03    0   0.6613   age125_m42            0.0000     1.4853E+02     7.8715   1.7156   108.7594
 64      0.0000     0.0000E+00    0.0000E+00    5.088000E+08  0.00400  6.261E-04    0   0.6313   age130_m42            0.0000     1.7023E+02     8.5147   1.5261   111.4501
 65      0.0000     0.0000E+00    0.0000E+00    9.047900E+08  0.00400  3.535E-04    0   0.6024   age135_m42            0.0000     1.0110E+02     6.9774   1.1227   111.6697
 66      0.0000     0.0000E+00    0.0000E+00    1.278050E+09  0.00400  2.677E-04    0   0.5837   age138_m42            0.0000     6.3856E+01     6.5233   0.4251   109.0644
 67      0.0000     0.0000E+00    0.0000E+00    1.434000E+09  0.00400  1.910E-04    0   0.5716   age139_m42            0.0000     6.4676E+01     6.3939   0.5947   110.0050
 68      0.0000     0.0000E+00    0.0000E+00    2.500000E+09  0.00400  9.818E-05    0   0.5463   age150_m42            0.0000     4.6954E+01     5.6125   0.3133   105.2644
 69      0.0000     0.0000E+00    0.0000E+00    4.250000E+09  0.00400  5.491E-05    0   0.5269   age158_m42            0.0000     5.2278E+01     5.7321   0.1894   102.4684
 70      0.0000     0.0000E+00    0.0000E+00    6.250000E+09  0.00400  3.857E-05    0   0.5151   age166_m42            0.0000     7.0813E+01     6.4551   0.0616   101.0201
 71      0.0000     0.0000E+00    0.0000E+00    7.500000E+09  0.00400  3.243E-05    0   0.5110   age171_m42            0.0000     8.4885E+01     6.9463  -0.0172   100.3987
 72      0.0000     0.0000E+00    0.0000E+00    1.000000E+10  0.00400  2.424E-05    0   0.5028   age181_m42            0.0000     1.0516E+02     7.5906  -0.0966    99.6844
 73      0.0000     0.0000E+00    0.0000E+00    1.300000E+10  0.00400  1.883E-05    0   0.4927   age193_m42            0.0000     1.2128E+02     8.0861  -0.1356    99.3319
 74      0.0000     0.0000E+00    0.0000E+00    1.500000E+10  0.00400  1.685E-05    0   0.4919   age201_m42            0.0000     1.1665E+02     7.9614  -0.1296    99.3641
 75      0.0000     0.0000E+00    0.0000E+00    1.800000E+10  0.00400  1.452E-05    0   0.4874   age213_m42            0.0000     1.0824E+02     7.7374  -0.1134    99.6770
 76      0.0000     0.0000E+00    0.0000E+00    1.000000E+06  0.00800  1.286E-02    0   1.0000   age020_m52            0.0000     1.2856E+02    10.3322   3.9689    84.0962
 77      0.0000     0.0000E+00    0.0000E+00    3.160000E+06  0.00800  3.147E-02    0   0.9966   age045_m52            0.0000     1.2323E+02    10.1884   3.8853    85.6073
 78      0.0000     0.0000E+00    0.0000E+00    5.010000E+06  0.00800  2.664E-02    0   0.9443   age055_m52            0.0000     8.6913E+01     8.6801   3.5587    88.9110
 79      0.0000     0.0000E+00    0.0000E+00    6.610000E+06  0.00800  2.151E-02    0   0.9177   age061_m52            0.0000     4.5155E+01     6.3849   2.2706    95.2541
 80      0.0000     0.0000E+00    0.0000E+00    8.710000E+06  0.00800  1.628E-02    0   0.8948   age067_m52            0.0000     4.6753E+01     6.5225   2.6548    95.2904
 81      0.0003     1.4755E-06    2.5976E-06    1.000000E+07  0.00800  1.215E-02    0   0.8827   age070_m52            0.0000     6.0778E+01     7.4030   2.9919    93.5119
 82      0.0000     0.0000E+00    0.0000E+00    1.445000E+07  0.00800  8.739E-03    0   0.8552   age078_m52            0.0000     5.0243E+01     6.5770   3.0348    94.5968
 83      0.0000     0.0000E+00    0.0000E+00    2.512000E+07  0.00800  5.676E-03    0   0.8162   age090_m52            0.0000     4.1206E+01     5.0176   2.6534    98.8679
 84      0.0000     0.0000E+00    0.0000E+00    4.000000E+07  0.00800  3.939E-03    0   0.7841   age104_m52            0.0000     4.1893E+01     4.2366   2.4899   101.2552
 85      0.0000     0.0000E+00    0.0000E+00    5.500000E+07  0.00800  3.155E-03    0   0.7627   age110_m52            0.0000     5.3590E+01     4.1783   2.4552   102.9153
 86      0.0000     0.0000E+00    0.0000E+00    1.015200E+08  0.00800  2.206E-03    0   0.7226   age116_m52            0.0000     9.2630E+01     5.5840   2.2669   106.6190
 87      0.0000     0.0000E+00    0.0000E+00    1.609000E+08  0.00800  1.596E-03    0   0.6963   age120_m52            0.0000     1.1736E+02     6.6645   2.0518   108.2472
 88      0.0000     0.0000E+00    0.0000E+00    2.861200E+08  0.00800  1.002E-03    0   0.6665   age125_m52            0.0000     1.8885E+02     9.2894   1.7567   110.9481
 89      0.0000     0.0000E+00    0.0000E+00    5.088000E+08  0.00800  5.759E-04    0   0.6377   age130_m52            0.0000     2.0888E+02    10.3939   1.4045   114.9127
 90      0.0000     0.0000E+00    0.0000E+00    9.047900E+08  0.00800  2.972E-04    0   0.6086   age135_m52            0.0000     1.3238E+02     8.8269   0.8514   113.8650
 91      0.0000     0.0000E+00    0.0000E+00    1.278050E+09  0.00800  2.242E-04    0   0.5907   age138_m52            0.0000     8.9295E+01     7.5617   0.2357   112.3572
 92      0.0000     0.0000E+00    0.0000E+00    1.434000E+09  0.00800  1.645E-04    0   0.5787   age139_m52            0.0000     7.3683E+01     6.9078   0.3852   111.7997
 93      0.0000     0.0000E+00    0.0000E+00    2.500000E+09  0.00800  7.723E-05    0   0.5519   age150_m52            0.0000     8.3050E+01     7.1525   0.0408   107.9077
 94      0.0000     0.0000E+00    0.0000E+00    4.250000E+09  0.00800  4.151E-05    0   0.5320   age158_m52            0.0000     8.8231E+01     7.2117  -0.0289   105.2309
 95      0.0000     0.0000E+00    0.0000E+00    6.250000E+09  0.00800  3.010E-05    0   0.5197   age166_m52            0.0000     1.2294E+02     8.2249  -0.2249   103.7191
 96      0.0000     0.0000E+00    0.0000E+00    7.500000E+09  0.00800  2.467E-05    0   0.5139   age171_m52            0.0000     1.3313E+02     8.4922  -0.2670   103.2740
 97      0.0000     0.0000E+00    0.0000E+00    1.000000E+10  0.00800  1.862E-05    0   0.5054   age181_m52            0.0000     1.6645E+02     9.3482  -0.4001   102.8196
 98      0.0000     0.0000E+00    0.0000E+00    1.300000E+10  0.00800  1.433E-05    0   0.4988   age193_m52            0.0000     2.0534E+02    10.2814  -0.4973   103.3844
 99      0.0000     0.0000E+00    0.0000E+00    1.500000E+10  0.00800  1.244E-05    0   0.4936   age201_m52            0.0000     2.2139E+02    10.6437  -0.5258   103.8114
100      0.0000     0.0000E+00    0.0000E+00    1.800000E+10  0.00800  1.070E-05    0   0.4888   age213_m52            0.0000     2.3320E+02    10.9062  -0.5599   103.6122
101      0.0000     0.0000E+00    0.0000E+00    1.000000E+06  0.02000  1.989E-02    0   1.0000   age020_m62            0.0000     1.5107E+02    10.9345   3.9474    83.2832
102      0.0000     0.0000E+00    0.0000E+00    3.160000E+06  0.02000  3.772E-02    0   0.9858   age045_m62            0.0000     1.3464E+02    10.4978   3.8109    85.4161
103      0.0000     0.0000E+00    0.0000E+00    5.010000E+06  0.02000  3.227E-02    0   0.9342   age055_m62            0.0000     4.9878E+01     6.5393   3.3075    92.3731
104      0.0000     0.0000E+00    0.0000E+00    6.610000E+06  0.02000  2.387E-02    0   0.9090   age061_m62            0.0000     7.9114E+01     8.3377   3.0693    91.9812
105      0.0000     0.0000E+00    0.0000E+00    8.710000E+06  0.02000  1.102E-02    0   0.8861   age067_m62            0.0000     2.4580E+02    14.5247   2.7141    88.0228
106      0.0000     0.0000E+00    0.0000E+00    1.000000E+07  0.02000  1.011E-02    0   0.8751   age070_m62            0.0000     1.6085E+02    11.8238   2.7274    90.3327
107      0.0000     0.0000E+00    0.0000E+00    1.445000E+07  0.02000  7.331E-03    0   0.8472   age078_m62            0.0000     1.0611E+02     9.6420   2.7333    91.7138
108      0.0000     0.0000E+00    0.0000E+00    2.512000E+07  0.02000  4.206E-03    0   0.8099   age090_m62            0.0000     1.0773E+02     9.7854   2.6356    91.4302
109      0.0000     0.0000E+00    0.0000E+00    4.000000E+07  0.02000  3.373E-03    0   0.7799   age104_m62            0.0000     3.5294E+01     4.8648   2.4405    99.6705
110      0.0000     0.0000E+00    0.0000E+00    5.500000E+07  0.02000  2.747E-03    0   0.7595   age110_m62            0.0000     4.6825E+01     4.2351   2.3761   102.9065
111      0.0000     0.0000E+00    0.0000E+00    1.015200E+08  0.02000  1.878E-03    0   0.7221   age116_m62            0.0000     1.1119E+02     5.9281   2.2409   107.4362
112      0.0000     0.0000E+00    0.0000E+00    1.609000E+08  0.02000  1.378E-03    0   0.6978   age120_m62            0.0000     1.6646E+02     7.7868   2.0865   109.9329
113      0.0000     0.0000E+00    0.0000E+00    2.861200E+08  0.02000  8.869E-04    0   0.6700   age125_m62            0.0000     2.6124E+02    10.5410   1.7212   114.0402
114      0.0000     0.0000E+00    0.0000E+00    5.088000E+08  0.02000  4.834E-04    0   0.6430   age130_m62            0.0000     2.3360E+02    10.9046   1.2698   116.4934
115      0.0000     0.0000E+00    0.0000E+00    9.047900E+08  0.02000  2.312E-04    0   0.6152   age135_m62            0.0000     1.1672E+02     8.4247   0.6549   115.8517
116      0.0000     0.0000E+00    0.0000E+00    1.278050E+09  0.02000  1.387E-04    0   0.5927   age138_m62            0.0000     7.4153E+01     6.9450   0.2679   111.4899
117      0.0000     0.0000E+00    0.0000E+00    1.434000E+09  0.02000  1.168E-04    0   0.5865   age139_m62            0.0000     7.1241E+01     6.7949   0.2388   109.8850
118      0.0000     0.0000E+00    0.0000E+00    2.500000E+09  0.02000  5.505E-05    0   0.5610   age150_m62            0.0000     1.0816E+02     8.0278  -0.1388   106.7460
119      0.0000     0.0000E+00    0.0000E+00    4.250000E+09  0.02000  3.070E-05    0   0.5407   age158_m62            0.0000     1.8137E+02     9.9546  -0.4413   106.6019
120      0.0000     0.0000E+00    0.0000E+00    6.250000E+09  0.02000  2.104E-05    0   0.5277   age166_m62            0.0000     2.2702E+02    10.9253  -0.5759   106.9911
121      0.0000     0.0000E+00    0.0000E+00    7.500000E+09  0.02000  1.770E-05    0   0.5223   age171_m62            0.0000     2.5122E+02    11.4362  -0.6664   107.3764
122      0.0000     0.0000E+00    0.0000E+00    1.000000E+10  0.02000  1.297E-05    0   0.5121   age181_m62            0.0000     3.0457E+02    12.4798  -0.8285   107.8605
123      0.0000     0.0000E+00    0.0000E+00    1.300000E+10  0.02000  9.691E-06    0   0.5047   age193_m62            0.0000     3.4251E+02    13.1886  -0.9137   108.2217
124      0.0000     0.0000E+00    0.0000E+00    1.500000E+10  0.02000  8.360E-06    0   0.4999   age201_m62            0.0000     3.7500E+02    13.7601  -0.9864   108.4566
125      0.0000     0.0000E+00    0.0000E+00    1.800000E+10  0.02000  6.911E-06    0   0.4946   age213_m62            0.0000     4.1744E+02    14.3087  -1.0000   107.2238
126      0.0000     0.0000E+00    0.0000E+00    1.000000E+06  0.05000  2.651E-02    0   0.9998   age020_m72            0.0000     1.4164E+02    10.5599   3.9438    84.2134
127      0.0000     0.0000E+00    0.0000E+00    3.160000E+06  0.05000  4.817E-02    0   0.9577   age045_m72            0.0000     9.7463E+01     8.9911   3.6660    88.4619
128      0.0000     0.0000E+00    0.0000E+00    5.010000E+06  0.05000  3.101E-02    0   0.9147   age055_m72            0.0000     8.4458E+01     8.4784   3.3290    91.0479
129      0.0000     0.0000E+00    0.0000E+00    6.610000E+06  0.05000  1.472E-02    0   0.8877   age061_m72            0.0000     1.8100E+02    12.0863   2.9210    89.4922
130      0.0000     0.0000E+00    0.0000E+00    8.710000E+06  0.05000  1.050E-02    0   0.8638   age067_m72            0.0000     1.2093E+02     9.7877   3.2897    89.9658
131      0.0000     0.0000E+00    0.0000E+00    1.000000E+07  0.05000  8.954E-03    0   0.8524   age070_m72            0.0000     9.0401E+01     8.4697   3.5469    89.9931
132      0.0000     0.0000E+00    0.0000E+00    1.445000E+07  0.05000  6.392E-03    0   0.8262   age078_m72            0.0000     7.6261E+01     7.7630   3.4893    91.0495
133      0.0000     0.0000E+00    0.0000E+00    2.512000E+07  0.05000  4.207E-03    0   0.7902   age090_m72            0.0000     4.3474E+01     5.6720   3.1160    95.4268
134      0.0000     0.0000E+00    0.0000E+00    4.000000E+07  0.05000  3.198E-03    0   0.7618   age104_m72            0.0000     6.7535E+01     4.6877   2.6127   103.1019
135      0.0000     0.0000E+00    0.0000E+00    5.500000E+07  0.05000  2.593E-03    0   0.7432   age110_m72            0.0000     9.0293E+01     5.3658   2.5264   104.9165
136      0.0000     0.0000E+00    0.0000E+00    1.015200E+08  0.05000  1.716E-03    0   0.7092   age116_m72            0.0000     1.3897E+02     6.8191   2.3355   107.4718
137      0.0000     0.0000E+00    0.0000E+00    1.609000E+08  0.05000  1.218E-03    0   0.6876   age120_m72            0.0000     1.9808E+02     8.7790   2.0614   110.2320
138      0.0000     0.0000E+00    0.0000E+00    2.861200E+08  0.05000  7.047E-04    0   0.6618   age125_m72            0.0000     2.5127E+02    10.9925   1.5151   114.2632
139      0.0000     0.0000E+00    0.0000E+00    5.088000E+08  0.05000  3.590E-04    0   0.6356   age130_m72            0.0000     1.9866E+02    10.6699   0.9240   117.0879
140      0.0000     0.0000E+00    0.0000E+00    9.047900E+08  0.05000  1.484E-04    0   0.6088   age135_m72            0.0000     1.0818E+02     8.3578   0.1681   110.7206
141      0.0000     0.0000E+00    0.0000E+00    1.278050E+09  0.05000  9.435E-05    0   0.5924   age138_m72            0.0000     1.4981E+02     9.3835  -0.2469   107.6343
142      0.0000     0.0000E+00    0.0000E+00    1.434000E+09  0.05000  7.827E-05    0   0.5847   age139_m72            0.0000     1.4889E+02     9.2449  -0.2316   106.9729
143      0.0000     0.0000E+00    0.0000E+00    2.500000E+09  0.05000  3.759E-05    0   0.5583   age150_m72            0.0000     2.2103E+02    10.8140  -0.5623   106.1594
144      0.7086     1.9937E+00    2.1368E+00    4.250000E+09  0.05000  1.842E-05    0   0.5374   age158_m72            0.0000     3.0165E+02    12.3576  -0.8699   105.5025
145      0.0000     0.0000E+00    0.0000E+00    6.250000E+09  0.05000  1.207E-05    0   0.5242   age166_m72            0.0000     3.8638E+02    13.5616  -1.0000   102.5590
146      0.9523     4.9387E+00    5.1051E+00    7.500000E+09  0.05000  9.993E-06    0   0.5183   age171_m72            0.0000     4.0249E+02    13.7473  -1.0000   101.4880
147      0.2695     1.9159E+00    1.9415E+00    1.000000E+10  0.05000  7.291E-06    0   0.5081   age181_m72            0.0000     4.7921E+02    14.8818  -1.0000    98.3699
148      0.6051     5.8986E+00    5.9032E+00    1.300000E+10  0.05000  5.316E-06    0   0.5018   age193_m72            0.0000     6.1699E+02    17.0757  -1.0000    93.6759
149      0.1856     2.1389E+00    2.1209E+00    1.500000E+10  0.05000  4.497E-06    0   0.4972   age201_m72            0.0000     6.8599E+02    18.1079  -1.0000    92.0386
150      0.0000     0.0000E+00    0.0000E+00    1.800000E+10  0.05000  3.739E-06    0   0.4924   age213_m72            0.0000     7.8465E+02    19.4417  -1.0000    89.4683


## Synthesis Results - Average & Chains ##

# j      x_j: min, <> & last-chain-values for 1 ...  7 chains
  1      0.0000      0.0335      0.0270      0.2549      0.1757      0.0000      0.0000      0.0000      0.0000
  2     11.9010      4.2617      4.7256      4.4767      4.9474      4.6089      4.8621      4.3509      4.9236
  3      0.8251      0.2980      0.3806      0.1156      0.2648      0.9244      0.5546      0.2779      0.4516
  4      0.0000      0.0228      0.0000      0.0000      0.0843      0.0000      0.2370      0.0000      0.0000
  5      0.0000      0.0343      0.0000      0.0000      0.0000      0.0000      0.0000      0.0000      0.1157
  6      0.0000      0.0113      0.0000      0.0000      0.0000      0.0000      0.0000      0.0000      0.1086
  7      0.0000      0.0114      0.0000      0.0000      0.0000      0.0164      0.0000      0.0000      0.0090
  8      0.0000      0.0909      0.0000      0.0572      0.0409      0.0000      0.0969      0.2213      0.0000
  9      0.0000      0.1942      0.2067      0.0000      0.1604      0.0572      0.0614      0.4395      0.0000
 10      0.0000      0.0702      0.0000      0.1265      0.0000      0.3283      0.0221      0.0000      0.0005
 11      0.0000      0.0886      0.3935      0.1235      0.0000      0.0320      0.0000      0.1067      0.0592
 12      0.0000      0.0200      0.0000      0.0000      0.0000      0.1272      0.0000      0.0000      0.0000
 13      0.0000      0.0120      0.0089      0.0000      0.0000      0.0000      0.0711      0.0338      0.0094
 14      0.0000      0.0083      0.0000      0.0000      0.0000      0.0000      0.0000      0.0000      0.0000
 15      0.0000      0.0096      0.0000      0.0000      0.0000      0.0335      0.0000      0.0000      0.0000
 16      0.0000      0.0200      0.0000      0.0000      0.0074      0.0000      0.0000      0.0000      0.0000
 17      0.0000      0.0154      0.0000      0.0983      0.0000      0.1275      0.0000      0.0000      0.0287
 18      0.0000      0.0230      0.0000      0.0000      0.0000      0.1599      0.0000      0.0202      0.0289
 19      0.0068      0.0602      0.1474      0.0000      0.2492      0.0000      0.0000      0.0000      0.0000
 20      0.0147      0.1816      0.0000      0.0000      0.5343      0.1591      0.0000      0.0000      0.2072
 21      0.0002      0.2672      0.1860      0.0000      0.2575      0.0000      0.3341      0.0000      0.1307
 22      0.4751      0.3856      0.3975      0.8620      0.2721      1.0945      0.2901      0.0000      0.7534
 23      2.8778      1.0754      2.7510      0.6949      1.1818      0.5366      0.9694      0.6393      1.3111
 24      3.0277      2.2687      1.7771      1.7386      1.9054      2.3212      2.1991      2.8894      2.1388
 25      3.9266      2.4031      2.7495      2.8989      2.6675      3.0581      2.3768      3.2699      2.8261
 26      0.0000      0.0461      0.0841      0.0000      0.0000      0.0000      0.0000      0.0000      0.0833
 27      0.0000      0.1776      0.1141      0.6072      0.0000      0.2952      0.1546      0.8265      0.0000
 28      0.0000      0.0439      0.1108      0.0199      0.3552      0.0000      0.0000      0.0000      0.0102
 29      0.0000      0.0635      0.0518      0.0000      0.0000      0.1176      0.2256      0.0439      0.0185
 30      0.0000      0.0202      0.0000      0.0000      0.0000      0.0000      0.0000      0.0000      0.0000
 31      0.0000      0.0696      0.0187      0.0000      0.0000      0.0000      0.0000      0.0000      0.0339
 32      0.0000      0.1527      0.3731      0.2262      0.0000      0.1498      0.0000      0.0921      0.1885
 33      0.0000      0.0910      0.0054      0.0000      0.1138      0.0000      0.0000      0.0000      0.0000
 34      0.0000      0.1027      0.4984      0.1527      0.0021      0.3531      0.0000      0.0000      0.0276
 35      0.0000      0.0532      0.0000      0.0497      0.0000      0.1201      0.1991      0.0000      0.1494
 36      0.0000      0.0623      0.0000      0.0000      0.0000      0.0770      0.0000      0.0637      0.0200
 37      0.0000      0.0340      0.0000      0.2009      0.1486      0.1226      0.0000      0.0000      0.0000
 38      0.0000      0.0222      0.0000      0.0000      0.0000      0.0000      0.0000      0.0089      0.0000
 39      0.0000      0.0079      0.0000      0.0000      0.0000      0.0176      0.0000      0.0000      0.0000
 40      0.0000      0.0124      0.0000      0.0000      0.0000      0.0296      0.0000      0.0000      0.0000
 41      0.0000      0.0212      0.0000      0.0000      0.0000      0.0000      0.0000      0.0000      0.0924
 42      0.0000      0.0207      0.0006      0.0000      0.0535      0.0000      0.0000      0.0000      0.0000
 43      0.0000      0.2424      0.0000      0.0000      0.0000      0.5289      1.5546      0.3574      0.0000
 44      5.6086      6.1826      5.9742      6.5610      7.0107      4.8336      5.8757      5.8968      6.4892
 45     37.8232     38.1066     38.5861     40.1669     38.9520     38.7953     39.0511     38.3479     38.9992
 46     31.5790     33.3779     33.1025     33.2896     32.3229     32.8117     33.0687     33.6221     33.0703
 47      0.0175      5.0991      4.3165      3.6311      4.1425      4.9367      4.6712      5.1310      4.3220
 48      0.0000      0.3581      0.0000      0.3565      0.0000      0.3477      0.2616      0.0000      0.0000
 49      0.0000      0.2372      0.0000      0.0000      0.0000      0.0000      0.0000      0.0215      0.0000
 50      0.0026      0.2715      0.2042      0.4038      0.5040      0.0000      0.0000      0.1824      0.0204
 51      0.0000      0.0201      0.0000      0.0000      0.0721      0.0000      0.0000      0.0190      0.0211
 52      0.0000      0.2314      0.2460      0.3361      0.0000      0.4035      0.0910      0.7031      0.2660
 53      0.0000      0.0594      0.0000      0.0657      0.0735      0.1137      0.0000      0.0000      0.1433
 54      0.0000      0.2468      0.4261      0.1651      0.6729      0.3671      0.3946      0.1301      0.8702
 55      0.0000      0.0995      0.0000      0.3855      0.0982      0.0369      0.2596      0.0284      0.1038
 56      0.0000      0.0807      0.0000      0.0255      0.2569      0.0000      0.1558      0.0956      0.0000
 57      0.0000      0.0231      0.0000      0.0000      0.0000      0.0000      0.0000      0.0000      0.0000
 58      0.0000      0.0216      0.0000      0.0000      0.0000      0.0000      0.0000      0.0000      0.0000
 59      0.0000      0.0117      0.0787      0.0000      0.0000      0.0000      0.0000      0.0416      0.0000
 60      0.0000      0.0141      0.0000      0.0000      0.0642      0.0000      0.0000      0.0000      0.0000
 61      0.0000      0.0201      0.0000      0.0655      0.0545      0.0000      0.0000      0.0635      0.0000
 62      0.0000      0.0261      0.0000      0.0000      0.0028      0.0000      0.0000      0.0000      0.0000
 63      0.0000      0.0152      0.0000      0.0000      0.0000      0.0000      0.0000      0.0000      0.0045
 64      0.0000      0.0206      0.0000      0.0000      0.0000      0.0000      0.0953      0.0000      0.1491
 65      0.0000      0.0140      0.0000      0.0000      0.0000      0.0000      0.0000      0.0000      0.0000
 66      0.0000      0.0103      0.0000      0.0000      0.0000      0.0000      0.0296      0.0000      0.0000
 67      0.0000      0.0170      0.0362      0.0000      0.0000      0.0000      0.0000      0.0000      0.0000
 68      0.0000      0.0172      0.0000      0.0000      0.0000      0.0000      0.0116      0.0000      0.0000
 69      0.0000      0.0157      0.0000      0.1448      0.0000      0.0000      0.0000      0.0000      0.0000
 70      0.0000      0.0221      0.0000      0.0000      0.0000      0.0885      0.0000      0.0000      0.0285
 71      0.0000      0.0191      0.0000      0.0000      0.0000      0.0097      0.0000      0.0000      0.0000
 72      0.0000      0.0128      0.0000      0.0155      0.0000      0.0000      0.0000      0.0000      0.0000
 73      0.0000      0.0148      0.0000      0.0000      0.0000      0.0000      0.0000      0.0000      0.0000
 74      0.0000      0.0125      0.0000      0.0000      0.0000      0.0000      0.0000      0.0000      0.0000
 75      0.0000      0.0199      0.0000      0.1266      0.0000      0.0136      0.0000      0.0000      0.0043
 76      0.0000      0.0259      0.0000      0.0000      0.0000      0.0000      0.0000      0.0000      0.0972
 77      0.0000      0.0187      0.1220      0.1492      0.0000      0.0346      0.0000      0.0000      0.0000
 78      0.0000      0.0163      0.0000      0.0000      0.0000      0.0000      0.0000      0.0000      0.0000
 79      0.0000      0.0151      0.0000      0.0000      0.0000      0.0000      0.0130      0.0000      0.0000
 80      0.0000      0.0182      0.0000      0.0000      0.1716      0.0000      0.0000      0.0000      0.0733
 81      0.0003      0.0235      0.0000      0.0000      0.3081      0.0000      0.0065      0.0000      0.0000
 82      0.0000      0.0180      0.0000      0.0070      0.0000      0.0000      0.0000      0.0551      0.0000
 83      0.0000      0.0533      0.0000      0.0000      0.1499      0.0000      0.2266      0.1182      0.0000
 84      0.0000      0.0348      0.0000      0.0000      0.0000      0.0000      0.0000      0.0000      0.0434
 85      0.0000      0.0321      0.2514      0.0000      0.1283      0.0000      0.0000      0.0000      0.0000
 86      0.0000      0.0196      0.0000      0.0000      0.0000      0.0000      0.0000      0.0000      0.0000
 87      0.0000      0.0096      0.0000      0.0000      0.0040      0.0000      0.0316      0.0839      0.0000
 88      0.0000      0.0087      0.0000      0.0000      0.0352      0.0000      0.0000      0.0000      0.0000
 89      0.0000      0.0049      0.0000      0.0000      0.0000      0.0000      0.0000      0.0000      0.0000
 90      0.0000      0.0044      0.0341      0.0000      0.0000      0.0101      0.0000      0.0000      0.0000
 91      0.0000      0.0057      0.0000      0.0000      0.0000      0.0000      0.0000      0.0000      0.0000
 92      0.0000      0.0044      0.0161      0.0000      0.0000      0.0000      0.0000      0.0000      0.0000
 93      0.0000      0.0063      0.0000      0.0000      0.0000      0.0000      0.0000      0.0064      0.0000
 94      0.0000      0.0103      0.0000      0.0000      0.0000      0.0000      0.0000      0.0000      0.0000
 95      0.0000      0.0081      0.0000      0.0000      0.0000      0.0000      0.0000      0.0000      0.0000
 96      0.0000      0.0153      0.0000      0.0222      0.0000      0.0000      0.0000      0.1341      0.0000
 97      0.0000      0.0067      0.0000      0.0000      0.0139      0.0000      0.0000      0.0000      0.0000
 98      0.0000      0.0042      0.0000      0.0000      0.0000      0.0000      0.0000      0.0000      0.0000
 99      0.0000      0.0052      0.0000      0.0000      0.0000      0.0000      0.0000      0.0000      0.0000
100      0.0000      0.0043      0.0000      0.0000      0.0000      0.0000      0.0000      0.0000      0.0000
101      0.0000      0.0058      0.0000      0.0000      0.0000      0.0000      0.1128      0.0000      0.0000
102      0.0000      0.0065      0.0000      0.0000      0.0137      0.0000      0.0000      0.0000      0.0000
103      0.0000      0.0618      0.0000      0.0203      0.0300      0.1561      0.0000      0.0000      0.0000
104      0.0000      0.0234      0.0000      0.0000      0.0000      0.0000      0.0000      0.0000      0.0270
105      0.0000      0.0088      0.0000      0.0000      0.0000      0.0000      0.0000      0.0000      0.0000
106      0.0000      0.0223      0.0000      0.0000      0.0000      0.0000      0.0000      0.0000      0.0000
107      0.0000      0.0132      0.0000      0.0000      0.0000      0.0000      0.0000      0.0000      0.0000
108      0.0000      0.0056      0.0105      0.0000      0.0000      0.0000      0.0000      0.0000      0.0000
109      0.0000      0.0274      0.0000      0.0000      0.0000      0.0000      0.0312      0.0000      0.0000
110      0.0000      0.0104      0.0146      0.0000      0.0000      0.0000      0.0000      0.0000      0.0000
111      0.0000      0.0170      0.0000      0.0000      0.0000      0.0000      0.0000      0.0000      0.0000
112      0.0000      0.0073      0.0000      0.0000      0.0608      0.0000      0.0000      0.0000      0.0000
113      0.0000      0.0052      0.0000      0.0000      0.0000      0.0000      0.0000      0.0000      0.0000
114      0.0000      0.0036      0.0000      0.0000      0.0000      0.0000      0.0000      0.0287      0.0000
115      0.0000      0.0039      0.0000      0.0000      0.0000      0.0000      0.0000      0.0000      0.0000
116      0.0000      0.0074      0.0000      0.0000      0.0000      0.0000      0.0000      0.0000      0.0000
117      0.0000      0.0070      0.0000      0.0000      0.0000      0.0000      0.0000      0.0255      0.0000
118      0.0000      0.0049      0.0000      0.0000      0.0000      0.0000      0.0000      0.0000      0.0000
119      0.0000      0.0048      0.0000      0.0000      0.0000      0.0203      0.0000      0.0000      0.0000
120      0.0000      0.0040      0.0000      0.0000      0.0478      0.0000      0.0000      0.0000      0.0000
121      0.0000      0.0054      0.0000      0.0000      0.0000      0.0000      0.0000      0.0000      0.0200
122      0.0000      0.0051      0.0217      0.0000      0.0000      0.0684      0.0000      0.0000      0.0000
123      0.0000      0.0084      0.0000      0.0000      0.0000      0.0000      0.0000      0.0000      0.0000
124      0.0000      0.0042      0.0000      0.0151      0.0000      0.0000      0.0000      0.0000      0.0000
125      0.0000      0.0084      0.0000      0.0000      0.0000      0.0000      0.0000      0.0000      0.0000
126      0.0000      0.0041      0.0000      0.0000      0.0131      0.0000      0.0000      0.0000      0.0000
127      0.0000      0.0178      0.0000      0.0000      0.0000      0.0000      0.0000      0.0000      0.0000
128      0.0000      0.0337      0.0000      0.0000      0.0000      0.0000      0.0000      0.0000      0.0000
129      0.0000      0.0305      0.0337      0.0000      0.0088      0.0082      0.0000      0.0678      0.0000
130      0.0000      0.0043      0.0000      0.0000      0.0000      0.0000      0.0000      0.0333      0.0000
131      0.0000      0.0056      0.0000      0.0000      0.0000      0.0092      0.0000      0.0000      0.0000
132      0.0000      0.0058      0.0000      0.0000      0.0000      0.0000      0.0000      0.0000      0.0000
133      0.0000      0.0062      0.0000      0.0000      0.0000      0.0000      0.0000      0.0000      0.0000
134      0.0000      0.0112      0.0000      0.0000      0.0000      0.0000      0.0496      0.0000      0.0000
135      0.0000      0.0089      0.0000      0.0000      0.0000      0.0000      0.0000      0.0000      0.0093
136      0.0000      0.0114      0.0000      0.0000      0.0000      0.0077      0.0000      0.0000      0.0000
137      0.0000      0.0102      0.0000      0.0000      0.0000      0.0048      0.0000      0.0000      0.0027
138      0.0000      0.0045      0.0000      0.0000      0.0000      0.0000      0.0000      0.0024      0.0000
139      0.0000      0.0042      0.0000      0.0000      0.0000      0.0371      0.0000      0.0000      0.0000
140      0.0000      0.0036      0.0000      0.0000      0.0000      0.0000      0.0000      0.0000      0.0000
141      0.0000      0.0045      0.0000      0.0000      0.0000      0.0000      0.0000      0.0000      0.0000
142      0.0000      0.0059      0.0000      0.0000      0.0000      0.0000      0.0412      0.0000      0.0000
143      0.0000      0.0078      0.0000      0.0000      0.0000      0.0045      0.0000      0.0000      0.0000
144      0.7086      0.2511      0.3728      0.2502      0.3703      0.2680      0.5132      0.0696      0.0000
145      0.0000      0.1237      0.1536      0.1653      0.0000      0.1706      0.1074      0.3924      0.0147
146      0.9523      0.4287      0.4860      0.4293      0.4946      0.4849      0.2513      0.4823      0.4589
147      0.2695      0.3572      0.3016      0.3423      0.3959      0.3054      0.3611      0.4234      0.3664
148      0.6051      0.3711      0.4153      0.4240      0.3108      0.3716      0.3461      0.2618      0.2455
149      0.1856      0.3201      0.3261      0.1848      0.3106      0.4423      0.2915      0.2513      0.7656
150      0.0000      0.1830      0.1607      0.2272      0.1365      0.0950      0.1450      0.3020      0.2873

# j      m_j: min, <> & last-chain-values for 1 ...  7 chains
  1  0.0000E+00  4.0988E-04  3.3027E-04  3.1471E-03  2.2106E-03  0.0000E+00  0.0000E+00  0.0000E+00  0.0000E+00
  2  2.5847E-02  8.9478E-03  9.9251E-03  9.4762E-03  1.0671E-02  9.7157E-03  1.0548E-02  9.0192E-03  1.0044E-02
  3  4.2299E-03  1.4769E-03  1.8866E-03  5.7734E-04  1.3483E-03  4.5994E-03  2.8396E-03  1.3596E-03  2.1742E-03
  4  0.0000E+00  2.1269E-04  0.0000E+00  0.0000E+00  8.0659E-04  0.0000E+00  2.2805E-03  0.0000E+00  0.0000E+00
  5  0.0000E+00  4.0233E-04  0.0000E+00  0.0000E+00  0.0000E+00  0.0000E+00  0.0000E+00  0.0000E+00  1.3194E-03
  6  0.0000E+00  1.5699E-04  0.0000E+00  0.0000E+00  0.0000E+00  0.0000E+00  0.0000E+00  0.0000E+00  1.4722E-03
  7  0.0000E+00  2.0012E-04  0.0000E+00  0.0000E+00  0.0000E+00  2.8999E-04  0.0000E+00  0.0000E+00  1.5352E-04
  8  0.0000E+00  1.8101E-03  0.0000E+00  1.1489E-03  8.3658E-04  0.0000E+00  1.9925E-03  4.3500E-03  0.0000E+00
  9  0.0000E+00  4.1576E-03  4.4274E-03  0.0000E+00  3.5281E-03  1.2304E-03  1.3592E-03  9.2912E-03  0.0000E+00
 10  0.0000E+00  1.7241E-03  0.0000E+00  3.1310E-03  0.0000E+00  8.0899E-03  5.6052E-04  0.0000E+00  1.2779E-05
 11  0.0000E+00  2.6001E-03  1.1549E-02  3.6532E-03  0.0000E+00  9.4395E-04  0.0000E+00  3.0896E-03  1.6885E-03
 12  0.0000E+00  1.0240E-03  0.0000E+00  0.0000E+00  0.0000E+00  6.5534E-03  0.0000E+00  0.0000E+00  0.0000E+00
 13  0.0000E+00  7.1795E-04  5.3164E-04  0.0000E+00  0.0000E+00  0.0000E+00  4.3807E-03  1.9914E-03  5.4182E-04
 14  0.0000E+00  7.0044E-04  0.0000E+00  0.0000E+00  0.0000E+00  0.0000E+00  0.0000E+00  0.0000E+00  0.0000E+00
 15  0.0000E+00  1.2205E-03  0.0000E+00  0.0000E+00  0.0000E+00  4.3038E-03  0.0000E+00  0.0000E+00  0.0000E+00
 16  0.0000E+00  3.6914E-03  0.0000E+00  0.0000E+00  1.3973E-03  0.0000E+00  0.0000E+00  0.0000E+00  0.0000E+00
 17  0.0000E+00  3.1653E-03  0.0000E+00  2.0366E-02  0.0000E+00  2.6289E-02  0.0000E+00  0.0000E+00  5.7178E-03
 18  0.0000E+00  7.6935E-03  0.0000E+00  0.0000E+00  0.0000E+00  5.3703E-02  0.0000E+00  6.6575E-03  9.4029E-03
 19  3.5582E-03  3.0500E-02  7.4780E-02  0.0000E+00  1.2980E-01  0.0000E+00  0.0000E+00  0.0000E+00  0.0000E+00
 20  1.0992E-02  1.3169E-01  0.0000E+00  0.0000E+00  3.9804E-01  1.1583E-01  0.0000E+00  0.0000E+00  1.4598E-01
 21  1.5390E-04  2.2414E-01  1.5608E-01  0.0000E+00  2.2188E-01  0.0000E+00  2.8963E-01  0.0000E+00  1.0649E-01
 22  5.3190E-01  4.1736E-01  4.3044E-01  9.4067E-01  3.0259E-01  1.1894E+00  3.2446E-01  0.0000E+00  7.9231E-01
 23  4.0845E+00  1.4755E+00  3.7759E+00  9.6125E-01  1.6658E+00  7.3921E-01  1.3742E+00  8.6608E-01  1.7477E+00
 24  4.9142E+00  3.5597E+00  2.7894E+00  2.7504E+00  3.0713E+00  3.6569E+00  3.5653E+00  4.4761E+00  3.2605E+00
 25  7.6562E+00  4.5298E+00  5.1843E+00  5.5090E+00  5.1653E+00  5.7876E+00  4.6289E+00  6.0852E+00  5.1755E+00
 26  0.0000E+00  5.4433E-04  9.9412E-04  0.0000E+00  0.0000E+00  0.0000E+00  0.0000E+00  0.0000E+00  9.5635E-04
 27  0.0000E+00  4.4658E-04  2.8714E-04  1.5397E-03  0.0000E+00  7.4550E-04  4.0183E-04  2.0523E-03  0.0000E+00
 28  9.6801E-08  2.1616E-04  5.4535E-04  9.8647E-05  1.7961E-03  0.0000E+00  0.0000E+00  0.0000E+00  4.8644E-05
 29  0.0000E+00  4.8702E-04  3.9739E-04  0.0000E+00  0.0000E+00  9.0608E-04  1.7882E-03  3.3221E-04  1.3820E-04
 30  0.0000E+00  1.9283E-04  0.0000E+00  0.0000E+00  0.0000E+00  0.0000E+00  0.0000E+00  0.0000E+00  0.0000E+00
 31  0.0000E+00  7.6651E-04  2.0649E-04  0.0000E+00  0.0000E+00  0.0000E+00  0.0000E+00  0.0000E+00  3.6243E-04
 32  0.0000E+00  1.8619E-03  4.5527E-03  2.7822E-03  0.0000E+00  1.8346E-03  0.0000E+00  1.1087E-03  2.2343E-03
 33  0.0000E+00  1.5771E-03  9.3684E-05  0.0000E+00  2.0268E-03  0.0000E+00  0.0000E+00  0.0000E+00  0.0000E+00
 34  0.0000E+00  2.1618E-03  1.0498E-02  3.2428E-03  4.5927E-05  7.4648E-03  0.0000E+00  0.0000E+00  5.6434E-04
 35  0.0000E+00  1.3548E-03  0.0000E+00  1.2743E-03  0.0000E+00  3.0673E-03  5.2339E-03  0.0000E+00  3.6940E-03
 36  0.0000E+00  2.0316E-03  0.0000E+00  0.0000E+00  0.0000E+00  2.5234E-03  0.0000E+00  2.0502E-03  6.3270E-04
 37  0.0000E+00  1.3774E-03  0.0000E+00  8.2103E-03  6.1878E-03  4.9910E-03  0.0000E+00  0.0000E+00  0.0000E+00
 38  0.0000E+00  1.2535E-03  0.0000E+00  0.0000E+00  0.0000E+00  0.0000E+00  0.0000E+00  4.9817E-04  0.0000E+00
 39  0.0000E+00  6.6426E-04  0.0000E+00  0.0000E+00  0.0000E+00  1.4905E-03  0.0000E+00  0.0000E+00  0.0000E+00
 40  0.0000E+00  1.8484E-03  0.0000E+00  0.0000E+00  0.0000E+00  4.4242E-03  0.0000E+00  0.0000E+00  0.0000E+00
 41  0.0000E+00  4.2260E-03  0.0000E+00  0.0000E+00  0.0000E+00  0.0000E+00  0.0000E+00  0.0000E+00  1.7871E-02
 42  0.0000E+00  4.6011E-03  1.3412E-04  0.0000E+00  1.2229E-02  0.0000E+00  0.0000E+00  0.0000E+00  0.0000E+00
 43  0.0000E+00  8.7659E-02  0.0000E+00  0.0000E+00  0.0000E+00  1.9205E-01  5.8092E-01  1.2763E-01  0.0000E+00
 44  3.3185E+00  3.5364E+00  3.4183E+00  3.7836E+00  4.1195E+00  2.7759E+00  3.4725E+00  3.3301E+00  3.6062E+00
 45  3.1192E+01  3.0379E+01  3.0772E+01  3.2284E+01  3.1901E+01  3.1053E+01  3.2167E+01  3.0183E+01  3.0206E+01
 46  3.1023E+01  3.1699E+01  3.1448E+01  3.1874E+01  3.1535E+01  3.1287E+01  3.2449E+01  3.1525E+01  3.0513E+01
 47  2.2571E-02  6.3470E+00  5.3746E+00  4.5567E+00  5.2969E+00  6.1696E+00  6.0075E+00  6.3055E+00  5.2266E+00
 48  0.0000E+00  5.3078E-01  0.0000E+00  5.3281E-01  0.0000E+00  5.1745E-01  4.0064E-01  0.0000E+00  0.0000E+00
 49  0.0000E+00  3.9325E-01  0.0000E+00  0.0000E+00  0.0000E+00  0.0000E+00  0.0000E+00  3.5226E-02  0.0000E+00
 50  5.2610E-03  5.2950E-01  3.9827E-01  7.9399E-01  1.0097E+00  0.0000E+00  0.0000E+00  3.5119E-01  3.8658E-02
 51  0.0000E+00  1.7990E-04  0.0000E+00  0.0000E+00  6.6435E-04  0.0000E+00  0.0000E+00  1.6788E-04  1.8412E-04
 52  0.0000E+00  5.6763E-04  6.0360E-04  8.3130E-04  0.0000E+00  9.9364E-04  2.3068E-04  1.7027E-03  6.3396E-04
 53  0.0000E+00  2.2210E-04  0.0000E+00  2.4794E-04  2.8258E-04  4.2703E-04  0.0000E+00  0.0000E+00  5.2075E-04
 54  1.3944E-07  8.8032E-04  1.5201E-03  5.9358E-04  2.4656E-03  1.3146E-03  1.4540E-03  4.5810E-04  3.0154E-03
 55  0.0000E+00  5.2345E-04  0.0000E+00  2.0446E-03  5.3080E-04  1.9468E-04  1.4110E-03  1.4743E-04  5.3082E-04
 56  5.1290E-08  5.6242E-04  0.0000E+00  1.7892E-04  1.8387E-03  0.0000E+00  1.1216E-03  6.5738E-04  0.0000E+00
 57  0.0000E+00  2.5768E-04  0.0000E+00  0.0000E+00  0.0000E+00  0.0000E+00  0.0000E+00  0.0000E+00  0.0000E+00
 58  0.0000E+00  3.4872E-04  0.0000E+00  0.0000E+00  0.0000E+00  0.0000E+00  0.0000E+00  0.0000E+00  0.0000E+00
 59  0.0000E+00  2.6098E-04  1.7628E-03  0.0000E+00  0.0000E+00  0.0000E+00  0.0000E+00  9.1869E-04  0.0000E+00
 60  0.0000E+00  3.5141E-04  0.0000E+00  0.0000E+00  1.6442E-03  0.0000E+00  0.0000E+00  0.0000E+00  0.0000E+00
 61  0.0000E+00  6.3714E-04  0.0000E+00  2.0975E-03  1.7792E-03  0.0000E+00  0.0000E+00  1.9892E-03  0.0000E+00
 62  0.0000E+00  1.0520E-03  0.0000E+00  0.0000E+00  1.1473E-04  0.0000E+00  0.0000E+00  0.0000E+00  0.0000E+00
 63  0.0000E+00  9.3021E-04  0.0000E+00  0.0000E+00  0.0000E+00  0.0000E+00  0.0000E+00  0.0000E+00  2.6910E-04
 64  0.0000E+00  2.0719E-03  0.0000E+00  0.0000E+00  0.0000E+00  0.0000E+00  9.9177E-03  0.0000E+00  1.4597E-02
 65  0.0000E+00  2.3787E-03  0.0000E+00  0.0000E+00  0.0000E+00  0.0000E+00  0.0000E+00  0.0000E+00  0.0000E+00
 66  0.0000E+00  2.2545E-03  0.0000E+00  0.0000E+00  0.0000E+00  0.0000E+00  6.6611E-03  0.0000E+00  0.0000E+00
 67  0.0000E+00  5.0875E-03  1.0826E-02  0.0000E+00  0.0000E+00  0.0000E+00  0.0000E+00  0.0000E+00  0.0000E+00
 68  0.0000E+00  9.5376E-03  0.0000E+00  0.0000E+00  0.0000E+00  0.0000E+00  6.6484E-03  0.0000E+00  0.0000E+00
 69  0.0000E+00  1.5061E-02  0.0000E+00  1.3995E-01  0.0000E+00  0.0000E+00  0.0000E+00  0.0000E+00  0.0000E+00
 70  0.0000E+00  2.9501E-02  0.0000E+00  0.0000E+00  0.0000E+00  1.1858E-01  0.0000E+00  0.0000E+00  3.7007E-02
 71  0.0000E+00  3.0032E-02  0.0000E+00  0.0000E+00  0.0000E+00  1.5351E-02  0.0000E+00  0.0000E+00  0.0000E+00
 72  0.0000E+00  2.6557E-02  0.0000E+00  3.2355E-02  0.0000E+00  0.0000E+00  0.0000E+00  0.0000E+00  0.0000E+00
 73  0.0000E+00  3.8675E-02  0.0000E+00  0.0000E+00  0.0000E+00  0.0000E+00  0.0000E+00  0.0000E+00  0.0000E+00
 74  0.0000E+00  3.6420E-02  0.0000E+00  0.0000E+00  0.0000E+00  0.0000E+00  0.0000E+00  0.0000E+00  0.0000E+00
 75  0.0000E+00  6.6678E-02  0.0000E+00  4.2819E-01  0.0000E+00  4.5836E-02  0.0000E+00  0.0000E+00  1.4003E-02
 76  0.0000E+00  2.0097E-04  0.0000E+00  0.0000E+00  0.0000E+00  0.0000E+00  0.0000E+00  0.0000E+00  7.3338E-04
 77  0.0000E+00  5.9086E-05  3.8620E-04  4.7584E-04  0.0000E+00  1.0998E-04  0.0000E+00  0.0000E+00  0.0000E+00
 78  0.0000E+00  5.7742E-05  0.0000E+00  0.0000E+00  0.0000E+00  0.0000E+00  0.0000E+00  0.0000E+00  0.0000E+00
 79  0.0000E+00  6.4408E-05  0.0000E+00  0.0000E+00  0.0000E+00  0.0000E+00  5.7218E-05  0.0000E+00  0.0000E+00
 80  0.0000E+00  9.9766E-05  0.0000E+00  0.0000E+00  9.6817E-04  0.0000E+00  0.0000E+00  0.0000E+00  3.9105E-04
 81  2.5976E-06  1.7073E-04  0.0000E+00  0.0000E+00  2.2979E-03  0.0000E+00  4.8598E-05  0.0000E+00  0.0000E+00
 82  0.0000E+00  1.7567E-04  0.0000E+00  6.8915E-05  0.0000E+00  0.0000E+00  0.0000E+00  5.3181E-04  0.0000E+00
 83  0.0000E+00  7.6528E-04  0.0000E+00  0.0000E+00  2.2133E-03  0.0000E+00  3.3639E-03  1.6769E-03  0.0000E+00
 84  0.0000E+00  6.9238E-04  0.0000E+00  0.0000E+00  0.0000E+00  0.0000E+00  0.0000E+00  0.0000E+00  8.3929E-04
 85  0.0000E+00  7.7514E-04  6.0746E-03  0.0000E+00  3.1824E-03  0.0000E+00  0.0000E+00  0.0000E+00  0.0000E+00
 86  0.0000E+00  6.4261E-04  0.0000E+00  0.0000E+00  0.0000E+00  0.0000E+00  0.0000E+00  0.0000E+00  0.0000E+00
 87  0.0000E+00  4.1789E-04  0.0000E+00  0.0000E+00  1.7934E-04  0.0000E+00  1.4245E-03  3.6104E-03  0.0000E+00
 88  0.0000E+00  5.7863E-04  0.0000E+00  0.0000E+00  2.4055E-03  0.0000E+00  0.0000E+00  0.0000E+00  0.0000E+00
 89  0.0000E+00  5.4639E-04  0.0000E+00  0.0000E+00  0.0000E+00  0.0000E+00  0.0000E+00  0.0000E+00  0.0000E+00
 90  0.0000E+00  9.0741E-04  6.9769E-03  0.0000E+00  0.0000E+00  2.0696E-03  0.0000E+00  0.0000E+00  0.0000E+00
 91  0.0000E+00  1.5008E-03  0.0000E+00  0.0000E+00  0.0000E+00  0.0000E+00  0.0000E+00  0.0000E+00  0.0000E+00
 92  0.0000E+00  1.5378E-03  5.6554E-03  0.0000E+00  0.0000E+00  0.0000E+00  0.0000E+00  0.0000E+00  0.0000E+00
 93  0.0000E+00  4.4966E-03  0.0000E+00  0.0000E+00  0.0000E+00  0.0000E+00  0.0000E+00  4.4913E-03  0.0000E+00
 94  0.0000E+00  1.3183E-02  0.0000E+00  0.0000E+00  0.0000E+00  0.0000E+00  0.0000E+00  0.0000E+00  0.0000E+00
 95  0.0000E+00  1.4053E-02  0.0000E+00  0.0000E+00  0.0000E+00  0.0000E+00  0.0000E+00  0.0000E+00  0.0000E+00
 96  0.0000E+00  3.1941E-02  0.0000E+00  4.6585E-02  0.0000E+00  0.0000E+00  0.0000E+00  2.7548E-01  0.0000E+00
 97  0.0000E+00  1.8244E-02  0.0000E+00  0.0000E+00  3.8632E-02  0.0000E+00  0.0000E+00  0.0000E+00  0.0000E+00
 98  0.0000E+00  1.4523E-02  0.0000E+00  0.0000E+00  0.0000E+00  0.0000E+00  0.0000E+00  0.0000E+00  0.0000E+00
 99  0.0000E+00  2.0434E-02  0.0000E+00  0.0000E+00  0.0000E+00  0.0000E+00  0.0000E+00  0.0000E+00  0.0000E+00
100  0.0000E+00  1.9606E-02  0.0000E+00  0.0000E+00  0.0000E+00  0.0000E+00  0.0000E+00  0.0000E+00  0.0000E+00
101  0.0000E+00  2.8895E-05  0.0000E+00  0.0000E+00  0.0000E+00  0.0000E+00  5.8537E-04  0.0000E+00  0.0000E+00
102  0.0000E+00  1.7087E-05  0.0000E+00  0.0000E+00  3.6883E-05  0.0000E+00  0.0000E+00  0.0000E+00  0.0000E+00
103  0.0000E+00  1.7884E-04  0.0000E+00  5.9309E-05  8.9253E-05  4.5345E-04  0.0000E+00  0.0000E+00  0.0000E+00
104  0.0000E+00  8.9177E-05  0.0000E+00  0.0000E+00  0.0000E+00  0.0000E+00  0.0000E+00  0.0000E+00  9.9675E-05
105  0.0000E+00  7.1062E-05  0.0000E+00  0.0000E+00  0.0000E+00  0.0000E+00  0.0000E+00  0.0000E+00  0.0000E+00
106  0.0000E+00  1.9273E-04  0.0000E+00  0.0000E+00  0.0000E+00  0.0000E+00  0.0000E+00  0.0000E+00  0.0000E+00
107  0.0000E+00  1.5260E-04  0.0000E+00  0.0000E+00  0.0000E+00  0.0000E+00  0.0000E+00  0.0000E+00  0.0000E+00
108  0.0000E+00  1.0862E-04  2.0138E-04  0.0000E+00  0.0000E+00  0.0000E+00  0.0000E+00  0.0000E+00  0.0000E+00
109  0.0000E+00  6.3387E-04  0.0000E+00  0.0000E+00  0.0000E+00  0.0000E+00  7.4575E-04  0.0000E+00  0.0000E+00
110  0.0000E+00  2.8738E-04  4.0234E-04  0.0000E+00  0.0000E+00  0.0000E+00  0.0000E+00  0.0000E+00  0.0000E+00
111  0.0000E+00  6.5175E-04  0.0000E+00  0.0000E+00  0.0000E+00  0.0000E+00  0.0000E+00  0.0000E+00  0.0000E+00
112  0.0000E+00  3.7045E-04  0.0000E+00  0.0000E+00  3.1620E-03  0.0000E+00  0.0000E+00  0.0000E+00  0.0000E+00
113  0.0000E+00  3.9174E-04  0.0000E+00  0.0000E+00  0.0000E+00  0.0000E+00  0.0000E+00  0.0000E+00  0.0000E+00
114  0.0000E+00  4.8097E-04  0.0000E+00  0.0000E+00  0.0000E+00  0.0000E+00  0.0000E+00  3.7702E-03  0.0000E+00
115  0.0000E+00  1.0295E-03  0.0000E+00  0.0000E+00  0.0000E+00  0.0000E+00  0.0000E+00  0.0000E+00  0.0000E+00
116  0.0000E+00  3.1790E-03  0.0000E+00  0.0000E+00  0.0000E+00  0.0000E+00  0.0000E+00  0.0000E+00  0.0000E+00
117  0.0000E+00  3.5011E-03  0.0000E+00  0.0000E+00  0.0000E+00  0.0000E+00  0.0000E+00  1.2642E-02  0.0000E+00
118  0.0000E+00  5.0197E-03  0.0000E+00  0.0000E+00  0.0000E+00  0.0000E+00  0.0000E+00  0.0000E+00  0.0000E+00
119  0.0000E+00  8.4556E-03  0.0000E+00  0.0000E+00  0.0000E+00  3.5899E-02  0.0000E+00  0.0000E+00  0.0000E+00
120  0.0000E+00  1.0051E-02  0.0000E+00  0.0000E+00  1.2313E-01  0.0000E+00  0.0000E+00  0.0000E+00  0.0000E+00
121  0.0000E+00  1.5911E-02  0.0000E+00  0.0000E+00  0.0000E+00  0.0000E+00  0.0000E+00  0.0000E+00  5.7268E-02
122  0.0000E+00  2.0044E-02  8.5485E-02  0.0000E+00  0.0000E+00  2.7111E-01  0.0000E+00  0.0000E+00  0.0000E+00
123  0.0000E+00  4.3554E-02  0.0000E+00  0.0000E+00  0.0000E+00  0.0000E+00  0.0000E+00  0.0000E+00  0.0000E+00
124  0.0000E+00  2.5212E-02  0.0000E+00  9.1032E-02  0.0000E+00  0.0000E+00  0.0000E+00  0.0000E+00  0.0000E+00
125  0.0000E+00  6.0236E-02  0.0000E+00  0.0000E+00  0.0000E+00  0.0000E+00  0.0000E+00  0.0000E+00  0.0000E+00
126  0.0000E+00  1.5283E-05  0.0000E+00  0.0000E+00  5.0695E-05  0.0000E+00  0.0000E+00  0.0000E+00  0.0000E+00
127  0.0000E+00  3.5389E-05  0.0000E+00  0.0000E+00  0.0000E+00  0.0000E+00  0.0000E+00  0.0000E+00  0.0000E+00
128  0.0000E+00  9.9179E-05  0.0000E+00  0.0000E+00  0.0000E+00  0.0000E+00  0.0000E+00  0.0000E+00  0.0000E+00
129  0.0000E+00  1.8362E-04  2.0329E-04  0.0000E+00  5.4319E-05  4.9328E-05  0.0000E+00  4.0347E-04  0.0000E+00
130  0.0000E+00  3.5121E-05  0.0000E+00  0.0000E+00  0.0000E+00  0.0000E+00  0.0000E+00  2.7016E-04  0.0000E+00
131  0.0000E+00  5.3016E-05  0.0000E+00  0.0000E+00  0.0000E+00  8.7684E-05  0.0000E+00  0.0000E+00  0.0000E+00
132  0.0000E+00  7.5026E-05  0.0000E+00  0.0000E+00  0.0000E+00  0.0000E+00  0.0000E+00  0.0000E+00  0.0000E+00
133  0.0000E+00  1.1551E-04  0.0000E+00  0.0000E+00  0.0000E+00  0.0000E+00  0.0000E+00  0.0000E+00  0.0000E+00
134  0.0000E+00  2.6650E-04  0.0000E+00  0.0000E+00  0.0000E+00  0.0000E+00  1.2193E-03  0.0000E+00  0.0000E+00
135  0.0000E+00  2.5549E-04  0.0000E+00  0.0000E+00  0.0000E+00  0.0000E+00  0.0000E+00  0.0000E+00  2.5776E-04
136  0.0000E+00  4.7210E-04  0.0000E+00  0.0000E+00  0.0000E+00  3.1927E-04  0.0000E+00  0.0000E+00  0.0000E+00
137  0.0000E+00  5.7279E-04  0.0000E+00  0.0000E+00  0.0000E+00  2.7147E-04  0.0000E+00  0.0000E+00  1.4556E-04
138  0.0000E+00  4.2638E-04  0.0000E+00  0.0000E+00  0.0000E+00  0.0000E+00  0.0000E+00  2.2483E-04  0.0000E+00
139  0.0000E+00  7.5141E-04  0.0000E+00  0.0000E+00  0.0000E+00  6.5824E-03  0.0000E+00  0.0000E+00  0.0000E+00
140  0.0000E+00  1.4696E-03  0.0000E+00  0.0000E+00  0.0000E+00  0.0000E+00  0.0000E+00  0.0000E+00  0.0000E+00
141  0.0000E+00  2.8084E-03  0.0000E+00  0.0000E+00  0.0000E+00  0.0000E+00  0.0000E+00  0.0000E+00  0.0000E+00
142  0.0000E+00  4.3751E-03  0.0000E+00  0.0000E+00  0.0000E+00  0.0000E+00  3.1773E-02  0.0000E+00  0.0000E+00
143  0.0000E+00  1.1582E-02  0.0000E+00  0.0000E+00  0.0000E+00  6.7204E-03  0.0000E+00  0.0000E+00  0.0000E+00
144  2.1368E+00  7.3203E-01  1.0873E+00  7.3524E-01  1.1089E+00  7.8449E-01  1.5458E+00  2.0046E-01  0.0000E+00
145  0.0000E+00  5.3695E-01  6.6663E-01  7.2334E-01  0.0000E+00  7.4340E-01  4.8164E-01  1.6812E+00  6.2028E-02
146  5.1051E+00  2.2219E+00  2.5194E+00  2.2430E+00  2.6329E+00  2.5229E+00  1.3456E+00  2.4678E+00  2.3104E+00
147  1.9415E+00  2.4873E+00  2.1006E+00  2.4033E+00  2.8318E+00  2.1354E+00  2.5976E+00  2.9110E+00  2.4789E+00
148  5.9032E+00  3.5001E+00  3.9186E+00  4.0321E+00  3.0113E+00  3.5191E+00  3.3731E+00  2.4381E+00  2.2500E+00
149  2.1209E+00  3.5367E+00  3.6041E+00  2.0581E+00  3.5248E+00  4.9061E+00  3.3270E+00  2.7411E+00  8.2168E+00
150  0.0000E+00  2.4075E+00  2.1153E+00  3.0148E+00  1.8451E+00  1.2555E+00  1.9717E+00  3.9236E+00  3.6725E+00

# AV, chi2 & Mass for <> & i_chain = 1 ...  7 solutions
AV       0.7421      0.7028      0.7095      0.7048      0.7208      0.7127      0.7117      0.7031      0.7037
chi2 2.1921E+00  2.3373E+00  2.3086E+00  2.3186E+00  2.3076E+00  2.3099E+00  2.3115E+00  2.3188E+00  2.3116E+00
Mass 6.5329E-10  6.4103E-10  6.4662E-10  6.3757E-10  6.3927E-10  6.4703E-10  6.2792E-10  6.4951E-10  6.6059E-10
 -15.95                                  [v0_min (km/s) before EX0s...]
  72.43                                  [vd_min (km/s) before EX0s...]


## Synthetic spectrum (Best Model) ##l_obs f_obs f_syn wei
 3070    [Nl_obs]
 3359.00    0.20281   0.44307   -1.000
 3360.00    0.29608   0.43068   -1.000
 3361.00    0.30884   0.44155   -1.000
 3362.00    0.31424   0.46752   -1.000
 3363.00    0.32432   0.49566   -1.000
 3364.00    0.35033   0.51159   -1.000
 3365.00    0.35286   0.51183   -1.000
 3366.00    0.35910   0.50626   -1.000
 3367.00    0.35516   0.50022   -1.000
 3368.00    0.35244   0.49181   -1.000
 3369.00    0.34943   0.47704   -1.000
 3370.00    0.34417   0.45658   -1.000
 3371.00    0.34713   0.44353   -1.000
 3372.00    0.36210   0.44794   -1.000
 3373.00    0.37043   0.46765   -1.000
 3374.00    0.36656   0.49348   -1.000
 3375.00    0.38146   0.51473   -1.000
 3376.00    0.40349   0.52275   -1.000
 3377.00    0.42317   0.51745   -1.000
 3378.00    0.41875   0.50679   37.879
 3379.00    0.40930   0.50135   -1.000
 3380.00    0.40572   0.50462   -1.000
 3381.00    0.40393   0.51139   -1.000
 3382.00    0.41311   0.51685   -1.000
 3383.00    0.42709   0.52084   36.065
 3384.00    0.43587   0.52523   34.579
 3385.00    0.43337   0.52675   34.189
 3386.00    0.44057   0.51905   34.451
 3387.00    0.44606   0.50599   34.005
 3388.00    0.44509   0.50030   33.371
 3389.00    0.44573   0.50842   32.685
 3390.00    0.45425   0.52268   32.748
 3391.00    0.46266   0.53042   33.096
 3392.00    0.46191   0.52653   33.311
 3393.00    0.46081   0.52095   32.611
 3394.00    0.46312   0.52372   31.285
 3395.00    0.46796   0.53439   29.632
 3396.00    0.47700   0.54788   28.541
 3397.00    0.48787   0.55964   27.676
 3398.00    0.50954   0.56812   26.687
 3399.00    0.51484   0.57108   26.148
 3400.00    0.50249   0.56648   26.220
 3401.00    0.50736   0.55351   27.109
 3402.00    0.51050   0.53658   27.660
 3403.00    0.49785   0.52462   28.083
 3404.00    0.48660   0.52130   28.592
 3405.00    0.48857   0.52491   29.074
 3406.00    0.49327   0.52683   29.304
 3407.00    0.49027   0.52249   29.677
 3408.00    0.48165   0.51725   29.931
 3409.00    0.47897   0.51920   29.841
 3410.00    0.48044   0.52495   29.132
 3411.00    0.48795   0.52423   28.715
 3412.00    0.49084   0.51643   29.540
 3413.00    0.49370   0.50889   30.305
 3414.00    0.49170   0.51164   30.408
 3415.00    0.48642   0.52571   29.838
 3416.00    0.49031   0.54160   28.697
 3417.00    0.50937   0.55262   27.369
 3418.00    0.52136   0.55931   26.008
 3419.00    0.51951   0.56404   25.560
 3420.00    0.52127   0.56629   25.410
 3421.00    0.52265   0.56056   25.472
 3422.00    0.52000   0.54484   26.054
 3423.00    0.52489   0.52900   26.698
 3424.00    0.52115   0.52392   26.309
 3425.00    0.52527   0.52943   25.591
 3426.00    0.52025   0.54047   25.303
 3427.00    0.53250   0.55555   68.840
 3428.00    0.54992   0.57287   -1.000
 3429.00    0.55357   0.58596   -1.000
 3430.00    0.55631   0.58582   -1.000
 3431.00    0.55177   0.57077  217.781
 3432.00    0.54627   0.55398   34.463
 3433.00    0.53866   0.55007   25.246
 3434.00    0.54239   0.56148   68.884
 3435.00    0.53946   0.57497   -1.000
 3436.00    0.53760   0.57611   34.169
 3437.00    0.54062   0.56458   26.022
 3438.00    0.53658   0.54833   27.493
 3439.00    0.52519   0.53207   29.529
 3440.00    0.51296   0.51622   31.062
 3441.00    0.50573   0.50243   31.450
 3442.00    0.49523   0.49528   31.364
 3443.00    0.49875   0.49694   30.422
 3444.00    0.50836   0.50596   28.875
 3445.00    0.51461   0.52142   27.279
 3446.00    0.52391   0.54305   26.176
 3447.00    0.54717   0.56595   70.840
 3448.00    0.55713   0.58239   -1.000
 3449.00    0.56369   0.58527   -1.000
 3450.00    0.57640   0.57237  217.781
 3451.00    0.57076   0.55267   -1.000
 3452.00    0.55162   0.53912   -1.000
 3453.00    0.54819   0.53772   -1.000
 3454.00    0.56245   0.54527   -1.000
 3455.00    0.56865   0.55394   -1.000
 3456.00    0.57860   0.55730   -1.000
 3457.00    0.58210   0.55457   -1.000
 3458.00    0.57140   0.54754   34.069
 3459.00    0.56183   0.53758   25.509
 3460.00    0.56302   0.52812   25.483
 3461.00    0.56281   0.52639   -1.000
 3462.00    0.56549   0.53379   -1.000
 3463.00    0.57664   0.54221   -1.000
 3464.00    0.58508   0.54484   -1.000
 3465.00    0.58642   0.54381   -1.000
 3466.00    0.58814   0.54831   -1.000
 3467.00    0.58147   0.56122   -1.000
 3468.00    0.58511   0.57693  216.319
 3469.00    0.59431   0.58824  213.927
 3470.00    0.59828   0.59048  214.974
 3471.00    0.60099   0.58362   -1.000
 3472.00    0.59105   0.56894   -1.000
 3473.00    0.58260   0.54868   -1.000
 3474.00    0.57292   0.53127   34.199
 3475.00    0.55620   0.52430   26.159
 3476.00    0.54873   0.53053   26.011
 3477.00    0.55518   0.54650   71.421
 3478.00    0.57283   0.56309  217.781
 3479.00    0.59704   0.57593   -1.000
 3480.00    0.60150   0.58425   -1.000
 3481.00    0.59632   0.58588  215.731
 3482.00    0.60860   0.58207   -1.000
 3483.00    0.60477   0.57766   -1.000
 3484.00    0.60087   0.57774   -1.000
 3485.00    0.61009   0.58358   -1.000
 3486.00    0.61844   0.58925   -1.000
 3487.00    0.62091   0.58786   -1.000
 3488.00    0.61456   0.57809   -1.000
 3489.00    0.60155   0.56424   -1.000
 3490.00    0.58608   0.55579   -1.000
 3491.00    0.58148   0.55882   -1.000
 3492.00    0.58848   0.56700   -1.000
 3493.00    0.60182   0.57008   -1.000
 3494.00    0.59929   0.56557   -1.000
 3495.00    0.58774   0.55719   -1.000
 3496.00    0.58161   0.55171   -1.000
 3497.00    0.58106   0.55216   -1.000
 3498.00    0.59131   0.55543   -1.000
 3499.00    0.59756   0.55871   -1.000
 3500.00    0.60718   0.56018   -1.000
 3501.00    0.61756   0.56268   -1.000
 3502.00    0.61494   0.56838   -1.000
 3503.00    0.61795   0.57285   -1.000
 3504.00    0.61787   0.57153   -1.000
 3505.00    0.61678   0.56438   -1.000
 3506.00    0.61934   0.55619   -1.000
 3507.00    0.60843   0.55104   -1.000
 3508.00    0.60334   0.55040   -1.000
 3509.00    0.61447   0.55314   -1.000
 3510.00    0.61501   0.55488   -1.000
 3511.00    0.60269   0.55256   -1.000
 3512.00    0.59199   0.54641   -1.000
 3513.00    0.58373   0.54161   -1.000
 3514.00    0.58581   0.54489   -1.000
 3515.00    0.58890   0.55922   -1.000
 3516.00    0.60368   0.58007   -1.000
 3517.00    0.62579   0.59503   -1.000
 3518.00    0.62478   0.59433   -1.000
 3519.00    0.60932   0.58023   -1.000
 3520.00    0.60167   0.56420   -1.000
 3521.00    0.58938   0.55303   -1.000
 3522.00    0.58260   0.54521   -1.000
 3523.00    0.57490   0.53652   33.513
 3524.00    0.55859   0.52658   25.912
 3525.00    0.54868   0.52240   26.037
 3526.00    0.54909   0.52929   73.852
 3527.00    0.56646   0.54424   -1.000
 3528.00    0.58111   0.56194   -1.000
 3529.00    0.59067   0.57755   -1.000
 3530.00    0.59730   0.58816  213.004
 3531.00    0.60694   0.59064   -1.000
 3532.00    0.60720   0.58052   -1.000
 3533.00    0.60446   0.56232   -1.000
 3534.00    0.60784   0.55003   -1.000
 3535.00    0.60980   0.55413   -1.000
 3536.00    0.61909   0.57384   -1.000
 3537.00    0.61960   0.59627   -1.000
 3538.00    0.61524   0.61038  199.013
 3539.00    0.62130   0.61488  199.617
 3540.00    0.61870   0.61299  202.902
 3541.00    0.61101   0.61031  205.215
 3542.00    0.61031   0.61194  204.691
 3543.00    0.61588   0.61763  202.031
 3544.00    0.62081   0.62123  200.773
 3545.00    0.61727   0.61922  203.379
 3546.00    0.61873   0.61382  207.847
 3547.00    0.61643   0.60879  209.700
 3548.00    0.60997   0.60750  209.565
 3549.00    0.61343   0.61135  208.336
 3550.00    0.62050   0.61804  210.072
 3551.00    0.61284   0.62117  215.699
 3552.00    0.60679   0.61509  217.781
 3553.00    0.59456   0.60307  217.781
 3554.00    0.59534   0.59500  217.781
 3555.00    0.59868   0.59653  217.781
 3556.00    0.59460   0.60572  217.781
 3557.00    0.59768   0.61705   -1.000
 3558.00    0.60394   0.62450   -1.000
 3559.00    0.59456   0.62647   -1.000
 3560.00    0.59602   0.62578   -1.000
 3561.00    0.59892   0.62335   -1.000
 3562.00    0.59989   0.61633   -1.000
 3563.00    0.60335   0.60260  217.781
 3564.00    0.59283   0.58453   33.460
 3565.00    0.56448   0.56838   26.273
 3566.00    0.55510   0.55984   26.325
 3567.00    0.55832   0.55829   26.134
 3568.00    0.56251   0.55788   26.756
 3569.00    0.55080   0.55320   27.363
 3570.00    0.54241   0.54445   26.844
 3571.00    0.54309   0.53774   25.726
 3572.00    0.55572   0.53712   74.451
 3573.00    0.55825   0.54157   -1.000
 3574.00    0.55893   0.54940  217.781
 3575.00    0.56588   0.55882  217.781
 3576.00    0.57674   0.56732  217.781
 3577.00    0.57885   0.57329  217.781
 3578.00    0.58272   0.57424   34.499
 3579.00    0.57125   0.56755   27.893
 3580.00    0.55316   0.55547   29.612
 3581.00    0.54592   0.54367   30.168
 3582.00    0.54261   0.53679   30.306
 3583.00    0.54975   0.53365   30.908
 3584.00    0.54198   0.52720   31.871
 3585.00    0.51753   0.51430   32.476
 3586.00    0.50822   0.50141   31.342
 3587.00    0.51184   0.49915   29.684
 3588.00    0.52225   0.51261   28.213
 3589.00    0.53544   0.53648   25.959
 3590.00    0.55585   0.55896   74.278
 3591.00    0.57743   0.57161  217.781
 3592.00    0.58331   0.57519  217.781
 3593.00    0.58919   0.57722  217.781
 3594.00    0.59684   0.58398   -1.000
 3595.00    0.59918   0.59502  206.225
 3596.00    0.60284   0.60525  199.204
 3597.00    0.61025   0.61122  193.845
 3598.00    0.61162   0.61323  190.199
 3599.00    0.62234   0.61194  191.143
 3600.00    0.61930   0.60541  198.624
 3601.00    0.60997   0.59380   -1.000
 3602.00    0.60526   0.58344   -1.000
 3603.00    0.59359   0.58028   -1.000
 3604.00    0.57909   0.58381  217.781
 3605.00    0.57745   0.58675  217.781
 3606.00    0.58296   0.58383  217.781
 3607.00    0.58421   0.57680  217.781
 3608.00    0.57174   0.57029  217.781
 3609.00    0.56541   0.56737  217.781
 3610.00    0.57079   0.56827  217.781
 3611.00    0.57442   0.57300  217.781
 3612.00    0.58076   0.58088  217.781
 3613.00    0.59027   0.59098  214.572
 3614.00    0.58983   0.60359   -1.000
 3615.00    0.60074   0.61380   -1.000
 3616.00    0.60366   0.61313  217.781
 3617.00    0.59160   0.60121  217.781
 3618.00    0.57113   0.58575   32.604
 3619.00    0.56224   0.57795   75.088
 3620.00    0.57898   0.58322  217.781
 3621.00    0.59693   0.59569  205.880
 3622.00    0.60926   0.60780  199.339
 3623.00    0.60883   0.61792  196.347
 3624.00    0.60842   0.62957   -1.000
 3625.00    0.61876   0.64623   -1.000
 3626.00    0.63065   0.66482   -1.000
 3627.00    0.63239   0.67433   -1.000
 3628.00    0.63677   0.66443   -1.000
 3629.00    0.62054   0.63673   -1.000
 3630.00    0.59245   0.60538  217.781
 3631.00    0.57173   0.58819   -1.000
 3632.00    0.56730   0.59108   -1.000
 3633.00    0.58218   0.60414   -1.000
 3634.00    0.59513   0.61352   -1.000
 3635.00    0.60450   0.61621  209.538
 3636.00    0.60465   0.62043   -1.000
 3637.00    0.61505   0.63093   -1.000
 3638.00    0.62471   0.64292   -1.000
 3639.00    0.62452   0.65029   -1.000
 3640.00    0.63085   0.65065   -1.000
 3641.00    0.62612   0.64399   -1.000
 3642.00    0.61262   0.63285   -1.000
 3643.00    0.60505   0.62146   -1.000
 3644.00    0.59825   0.61265   -1.000
 3645.00    0.59432   0.60689   -1.000
 3646.00    0.59114   0.60338  217.781
 3647.00    0.58863   0.60145   -1.000
 3648.00    0.58634   0.60071   -1.000
 3649.00    0.58896   0.60134  208.121
 3650.00    0.60068   0.60489  198.383
 3651.00    0.60979   0.61323  189.743
 3652.00    0.61304   0.62606  184.320
 3653.00    0.62639   0.64057   -1.000
 3654.00    0.63717   0.65500   -1.000
 3655.00    0.64637   0.66784   -1.000
 3656.00    0.64495   0.67660   -1.000
 3657.00    0.64534   0.67985   -1.000
 3658.00    0.66095   0.67889   -1.000
 3659.00    0.65567   0.67594   -1.000
 3660.00    0.64606   0.67089   -1.000
 3661.00    0.65114   0.66313   -1.000
 3662.00    0.64842   0.65514  179.513
 3663.00    0.64003   0.65135  181.290
 3664.00    0.64923   0.65358  179.889
 3665.00    0.65120   0.65836  179.456
 3666.00    0.65017   0.66086  182.416
 3667.00    0.65158   0.65845  184.870
 3668.00    0.63829   0.65162   -1.000
 3669.00    0.62356   0.64489   -1.000
 3670.00    0.62309   0.64353   -1.000
 3671.00    0.63234   0.64879   -1.000
 3672.00    0.63884   0.65687   -1.000
 3673.00    0.64774   0.66187   -1.000
 3674.00    0.65163   0.66059  177.587
 3675.00    0.63909   0.65286   -1.000
 3676.00    0.63690   0.63980  187.628
 3677.00    0.63199   0.62545  193.358
 3678.00    0.62524   0.61637  198.503
 3679.00    0.61530   0.61596  199.224
 3680.00    0.61809   0.62101  195.006
 3681.00    0.61880   0.62652  189.453
 3682.00    0.61866   0.62983  186.852
 3683.00    0.62392   0.63035  189.988
 3684.00    0.62414   0.62801  197.118
 3685.00    0.61179   0.62356  205.260
 3686.00    0.59917   0.62152   -1.000
 3687.00    0.60030   0.62733   -1.000
 3688.00    0.61155   0.64144   -1.000
 3689.00    0.62188   0.65710   -1.000
 3690.00    0.63265   0.66659   -1.000
 3691.00    0.64838   0.66904   -1.000
 3692.00    0.65288   0.66811   -1.000
 3693.00    0.64943   0.66713   -1.000
 3694.00    0.65060   0.66757   -1.000
 3695.00    0.64438   0.66751   -1.000
 3696.00    0.63804   0.66530   -1.000
 3697.00    0.63916   0.66603   -1.000
 3698.00    0.65215   0.67576   -1.000
 3699.00    0.68262   0.69185  165.291
 3700.00    0.69461   0.70185  167.263
 3701.00    0.67920   0.69243  173.982
 3702.00    0.66045   0.66293  188.588
 3703.00    0.62961   0.62663  206.736
 3704.00    0.59807   0.59997  217.781
 3705.00    0.59055   0.59116  217.781
 3706.00    0.59778   0.59756  215.680
 3707.00    0.61179   0.61073  212.663
 3708.00    0.61696   0.62092  206.797
 3709.00    0.61637   0.62083  198.025
 3710.00    0.61672   0.61274  189.012
 3711.00    0.61247   0.60790  178.697
 3712.00    0.63201   0.61719  169.775
 3713.00    0.65571   0.64200  164.738
 3714.00    0.68851   0.67296  163.459
 3715.00    0.70706   0.69812  166.735
 3716.00    0.71326   0.70955  173.600
 3717.00    0.70156   0.70265  188.189
 3718.00    0.67249   0.67430  213.767
 3719.00    0.61975   0.62663  217.781
 3720.00    0.58057   0.57528   32.458
 3721.00    0.55447   0.54556   81.001
 3722.00    0.56060   0.55191  217.372
 3723.00    0.59652   0.58896  194.539
 3724.00    0.64165   0.63687  183.917
 3725.00    0.67632   0.67367  183.383
 3726.00    0.69778   0.69157  188.449
 3727.00    0.69198   0.69830  191.061
 3728.00    0.68404   0.70251  188.878
 3729.00    0.68811   0.70382  189.704
 3730.00    0.68020   0.69281  196.933
 3731.00    0.65618   0.65842  215.546
 3732.00    0.61410   0.60318   31.678
 3733.00    0.56332   0.54674   27.455
 3734.00    0.52728   0.51066   29.020
 3735.00    0.52249   0.50798   28.108
 3736.00    0.54332   0.53844   25.709
 3737.00    0.57613   0.58888   79.072
 3738.00    0.62213   0.64330   -1.000
 3739.00    0.67006   0.68943  190.896
 3740.00    0.70253   0.71663  187.681
 3741.00    0.71504   0.72063  193.257
 3742.00    0.70997   0.70724  204.571
 3743.00    0.69258   0.68674  217.007
 3744.00    0.66871   0.66499  217.781
 3745.00    0.64945   0.64263   -1.000
 3746.00    0.62184   0.61661   32.108
 3747.00    0.58592   0.58455   26.791
 3748.00    0.54582   0.55088   27.406
 3749.00    0.52280   0.52770   87.498
 3750.00    0.53031   0.53042  217.781
 3751.00    0.57991   0.56444   -1.000
 3752.00    0.63739   0.61818   -1.000
 3753.00    0.67999   0.67263  172.792
 3754.00    0.71458   0.71301  168.217
 3755.00    0.73766   0.73194  174.958
 3756.00    0.74443   0.72839   -1.000
 3757.00    0.72453   0.70962   -1.000
 3758.00    0.69467   0.69001  217.781
 3759.00    0.68802   0.68079  211.262
 3760.00    0.71018   0.68470   -1.000
 3761.00    0.72228   0.69685   -1.000
 3762.00    0.72485   0.70808   -1.000
 3763.00    0.73146   0.71211   -1.000
 3764.00    0.73274   0.70803   -1.000
 3765.00    0.72642   0.69682   -1.000
 3766.00    0.70323   0.67789   -1.000
 3767.00    0.67633   0.64930   -1.000
 3768.00    0.64974   0.61300   -1.000
 3769.00    0.61792   0.57967   -1.000
 3770.00    0.59873   0.56550   -1.000
 3771.00    0.60411   0.58033   -1.000
 3772.00    0.63749   0.61859   -1.000
 3773.00    0.68218   0.66279   -1.000
 3774.00    0.70727   0.69627  174.363
 3775.00    0.72149   0.71570  173.975
 3776.00    0.74305   0.72965  173.499
 3777.00    0.76488   0.74737   -1.000
 3778.00    0.78392   0.77036   -1.000
 3779.00    0.80061   0.79333  162.098
 3780.00    0.81495   0.80987  160.466
 3781.00    0.82784   0.81625  159.481
 3782.00    0.83083   0.81365   -1.000
 3783.00    0.83297   0.80621   -1.000
 3784.00    0.83072   0.79615   -1.000
 3785.00    0.81168   0.78312   -1.000
 3786.00    0.78249   0.76767   -1.000
 3787.00    0.76660   0.75290   -1.000
 3788.00    0.75853   0.74352   -1.000
 3789.00    0.76184   0.74111   -1.000
 3790.00    0.75512   0.74168   -1.000
 3791.00    0.74681   0.73886  194.355
 3792.00    0.73767   0.72661   -1.000
 3793.00    0.71127   0.70150  207.941
 3794.00    0.67917   0.66469   -1.000
 3795.00    0.64755   0.62070   -1.000
 3796.00    0.61275   0.57693   -1.000
 3797.00    0.57061   0.54514   -1.000
 3798.00    0.55364   0.54038   -1.000
 3799.00    0.58215   0.57194  211.029
 3800.00    0.63305   0.63005  193.703
 3801.00    0.68281   0.69104  183.847
 3802.00    0.73259   0.73683  179.022
 3803.00    0.76240   0.76236  177.435
 3804.00    0.77579   0.77236  179.437
 3805.00    0.78440   0.77439  185.498
 3806.00    0.78450   0.77620  189.849
 3807.00    0.78986   0.78396  186.536
 3808.00    0.80305   0.79857  179.662
 3809.00    0.82070   0.81490  176.663
 3810.00    0.83919   0.82368   -1.000
 3811.00    0.83933   0.81617   -1.000
 3812.00    0.81790   0.79339   -1.000
 3813.00    0.79205   0.76704   -1.000
 3814.00    0.77171   0.75039   -1.000
 3815.00    0.76602   0.75024   -1.000
 3816.00    0.78527   0.76258   -1.000
 3817.00    0.80083   0.77464   -1.000
 3818.00    0.80684   0.77403   -1.000
 3819.00    0.78125   0.76072   -1.000
 3820.00    0.75043   0.74690  217.781
 3821.00    0.75199   0.74345   -1.000
 3822.00    0.76697   0.74699   -1.000
 3823.00    0.77093   0.74312   -1.000
 3824.00    0.74693   0.72669   32.599
 3825.00    0.71845   0.70689   26.829
 3826.00    0.70368   0.69153   26.752
 3827.00    0.69842   0.68076   26.353
 3828.00    0.70227   0.67172   25.920
 3829.00    0.69662   0.66120   26.098
 3830.00    0.68008   0.64506   27.125
 3831.00    0.64758   0.61819   29.125
 3832.00    0.60270   0.57871   30.311
 3833.00    0.56240   0.53354   29.993
 3834.00    0.53986   0.49825   28.883
 3835.00    0.53074   0.48605   28.146
 3836.00    0.53671   0.49879   28.515
 3837.00    0.55868   0.52886   29.199
 3838.00    0.58899   0.56614   28.910
 3839.00    0.62304   0.60375   27.453
 3840.00    0.65582   0.64103   91.267
 3841.00    0.69298   0.67960   -1.000
 3842.00    0.72836   0.71836   -1.000
 3843.00    0.75756   0.75297  205.288
 3844.00    0.78088   0.77853  204.600
 3845.00    0.79799   0.79515  204.520
 3846.00    0.80530   0.80678  204.813
 3847.00    0.81334   0.81412  208.939
 3848.00    0.81838   0.81487  216.625
 3849.00    0.81192   0.81078  217.781
 3850.00    0.80837   0.81034  217.413
 3851.00    0.82024   0.81955  211.697
 3852.00    0.83129   0.83401  211.819
 3853.00    0.83653   0.84320  216.560
 3854.00    0.82981   0.84070  217.781
 3855.00    0.81731   0.82883  217.781
 3856.00    0.80868   0.81414  217.781
 3857.00    0.80800   0.80061   30.644
 3858.00    0.79372   0.79060   26.242
 3859.00    0.77517   0.78837   26.075
 3860.00    0.78222   0.79706   88.164
 3861.00    0.79786   0.81368  213.068
 3862.00    0.82618   0.83002  201.240
 3863.00    0.85629   0.83911   -1.000
 3864.00    0.86763   0.84048   -1.000
 3865.00    0.85713   0.83937   -1.000
 3866.00    0.84840   0.84090  211.448
 3867.00    0.85313   0.84537  217.781
 3868.00    0.84744   0.84817  217.781
 3869.00    0.82455   0.84355   -1.000
 3870.00    0.80502   0.83001   30.975
 3871.00    0.77557   0.81126   88.566
 3872.00    0.76382   0.79501   -1.000
 3873.00    0.77726   0.78878  205.699
 3874.00    0.80271   0.79251   -1.000
 3875.00    0.82450   0.79662   -1.000
 3876.00    0.80987   0.79096   -1.000
 3877.00    0.78117   0.77593  217.781
 3878.00    0.75508   0.76214  217.781
 3879.00    0.75065   0.75859  217.781
 3880.00    0.74756   0.76198  217.781
 3881.00    0.74081   0.76137   -1.000
 3882.00    0.72216   0.75188   -1.000
 3883.00    0.71558   0.73492   -1.000
 3884.00    0.71155   0.70834  203.552
 3885.00    0.68826   0.66844   -1.000
 3886.00    0.64776   0.61794   -1.000
 3887.00    0.61355   0.56948   -1.000
 3888.00    0.58333   0.54135   -1.000
 3889.00    0.57898   0.54651   -1.000
 3890.00    0.61952   0.58299   -1.000
 3891.00    0.67119   0.63476   -1.000
 3892.00    0.70763   0.68127   -1.000
 3893.00    0.73501   0.71124   -1.000
 3894.00    0.74696   0.72842   -1.000
 3895.00    0.74888   0.74198  169.359
 3896.00    0.77437   0.75670   -1.000
 3897.00    0.79015   0.77112   -1.000
 3898.00    0.79725   0.78087   -1.000
 3899.00    0.79897   0.78634  167.330
 3900.00    0.80853   0.79227   -1.000
 3901.00    0.82382   0.79871   -1.000
 3902.00    0.83736   0.80155   -1.000
 3903.00    0.83861   0.79890   -1.000
 3904.00    0.82727   0.79407   -1.000
 3905.00    0.81241   0.79364   -1.000
 3906.00    0.81706   0.80381   -1.000
 3907.00    0.83683   0.82512   -1.000
 3908.00    0.86432   0.85084   -1.000
 3909.00    0.87548   0.87181  154.994
 3910.00    0.87900   0.88320  153.536
 3911.00    0.89284   0.88574  152.530
 3912.00    0.88803   0.88171  153.871
 3913.00    0.87310   0.87261  156.853
 3914.00    0.87177   0.86253  160.488
 3915.00    0.86781   0.85652  162.832
 3916.00    0.86352   0.85396  164.982
 3917.00    0.86528   0.85006   -1.000
 3918.00    0.86011   0.84259   -1.000
 3919.00    0.83589   0.83394  184.842
 3920.00    0.81848   0.82746  189.531
 3921.00    0.81620   0.82469  188.742
 3922.00    0.82056   0.82559  185.511
 3923.00    0.83499   0.82762  186.130
 3924.00    0.82363   0.82581  194.117
 3925.00    0.81333   0.81385  211.316
 3926.00    0.79175   0.78833  217.781
 3927.00    0.75236   0.74983   33.649
 3928.00    0.70398   0.69964   31.713
 3929.00    0.65201   0.63745   37.121
 3930.00    0.58452   0.55937   43.833
 3931.00    0.51420   0.46850   -1.000
 3932.00    0.44398   0.38451   -1.000
 3933.00    0.40351   0.33712   -1.000
 3934.00    0.41196   0.34679   -1.000
 3935.00    0.46517   0.41061   -1.000
 3936.00    0.54417   0.50252   33.692
 3937.00    0.61735   0.59609   28.219
 3938.00    0.67784   0.67611   97.271
 3939.00    0.72949   0.73578  217.781
 3940.00    0.76133   0.77474  217.660
 3941.00    0.78772   0.79640  214.619
 3942.00    0.79612   0.80515  214.218
 3943.00    0.79006   0.80861  205.161
 3944.00    0.80079   0.81480  187.613
 3945.00    0.82326   0.82640  175.676
 3946.00    0.84880   0.83898  172.390
 3947.00    0.85291   0.84573  171.068
 3948.00    0.84950   0.84505  165.587
 3949.00    0.85561   0.84109  160.033
 3950.00    0.85980   0.83772   -1.000
 3951.00    0.86209   0.83673   -1.000
 3952.00    0.86377   0.84021   -1.000
 3953.00    0.87004   0.84682   -1.000
 3954.00    0.87079   0.85017   -1.000
 3955.00    0.86584   0.84591   -1.000
 3956.00    0.85274   0.83656   -1.000
 3957.00    0.84753   0.82878   -1.000
 3958.00    0.85040   0.82435   -1.000
 3959.00    0.83921   0.81508   -1.000
 3960.00    0.80579   0.79393  203.991
 3961.00    0.76112   0.76259  217.781
 3962.00    0.72016   0.72644  217.781
 3963.00    0.68636   0.68672   31.460
 3964.00    0.64378   0.63444   29.911
 3965.00    0.57438   0.56101   36.557
 3966.00    0.48077   0.46967   44.813
 3967.00    0.39201   0.38057   50.499
 3968.00    0.33271   0.32337   48.307
 3969.00    0.32865   0.32044   40.525
 3970.00    0.37652   0.37027   33.299
 3971.00    0.45833   0.45292   27.782
 3972.00    0.54104   0.54191   97.185
 3973.00    0.61451   0.61960  209.924
 3974.00    0.67976   0.68184  188.541
 3975.00    0.73391   0.73081  173.156
 3976.00    0.77638   0.76971  162.439
 3977.00    0.81120   0.80148  153.763
 3978.00    0.84777   0.82719   -1.000
 3979.00    0.87256   0.84485   -1.000
 3980.00    0.88617   0.85287   -1.000
 3981.00    0.88680   0.85507   -1.000
 3982.00    0.88231   0.85842   -1.000
 3983.00    0.89846   0.86718   -1.000
 3984.00    0.91638   0.88041   -1.000
 3985.00    0.92810   0.89392   -1.000
 3986.00    0.92966   0.90523   -1.000
 3987.00    0.93395   0.91464  133.447
 3988.00    0.94681   0.92145   -1.000
 3989.00    0.95182   0.92547   -1.000
 3990.00    0.95804   0.92952   -1.000
 3991.00    0.96099   0.93630   -1.000
 3992.00    0.96892   0.94477   -1.000
 3993.00    0.96961   0.95036  130.813
 3994.00    0.96205   0.94810  133.862
 3995.00    0.95179   0.93670  136.512
 3996.00    0.93645   0.92204  137.886
 3997.00    0.92291   0.91381  135.406
 3998.00    0.93151   0.91777  129.596
 3999.00    0.95547   0.93040   -1.000
 4000.00    0.96950   0.94368   -1.000
 4001.00    0.97966   0.95171   -1.000
 4002.00    0.98948   0.95244   -1.000
 4003.00    0.99060   0.94549   -1.000
 4004.00    0.96697   0.93371   -1.000
 4005.00    0.94170   0.92563  137.375
 4006.00    0.94649   0.92902  130.332
 4007.00    0.96908   0.94315   -1.000
 4008.00    0.98588   0.95969   -1.000
 4009.00    0.98643   0.97127  121.313
 4010.00    0.97056   0.97645  120.774
 4011.00    1.01823   0.97743   -1.000
 4012.00    1.00565   0.97676   -1.000
 4013.00    0.99280   0.97721  121.478
 4014.00    0.99983   0.98051  119.853
 4015.00    1.00729   0.98574  120.480
 4016.00    0.99868   0.99062  121.927
 4017.00    1.00212   0.99482  121.651
 4018.00    1.01768   0.99921  119.932
 4019.00    1.01498   1.00315  119.897
 4020.00    1.00839   1.00394  121.462
 4021.00    0.99748   1.00008  122.342
 4022.00    1.00000   0.99314  123.126
 4023.00    0.99512   0.98623  124.071
 4024.00    0.98951   0.98301  121.564
 4025.00    0.99450   0.98671  117.374
 4026.00    1.00769   0.99614  114.727
 4027.00    1.01545   1.00361  115.285
 4028.00    1.01054   1.00156  119.530
 4029.00    0.99072   0.98828  127.306
 4030.00    0.97009   0.96959  133.212
 4031.00    0.94998   0.95444  135.385
 4032.00    0.95545   0.94871  134.120
 4033.00    0.95707   0.95304  130.080
 4034.00    0.96905   0.96620  123.908
 4035.00    0.98906   0.98586  117.773
 4036.00    1.01621   1.00780  113.392
 4037.00    1.02968   1.02502  112.462
 4038.00    1.03809   1.03215  114.476
 4039.00    1.03887   1.02962  117.196
 4040.00    1.02422   1.02259  118.696
 4041.00    1.01775   1.01480  119.363
 4042.00    1.01767   1.00388  124.384
 4043.00    1.00533   0.98535  135.725
 4044.00    0.97417   0.96161  146.744
 4045.00    0.94091   0.94448  143.094
 4046.00    0.94623   0.94642  130.088
 4047.00    0.97914   0.96702  121.508
 4048.00    0.99838   0.99305  117.511
 4049.00    1.01953   1.01133  115.891
 4050.00    1.02807   1.01877  116.401
 4051.00    1.02707   1.01797  119.289
 4052.00    1.02196   1.01202  122.430
 4053.00    1.00494   1.00452  124.513
 4054.00    0.99933   0.99897  125.630
 4055.00    0.99961   0.99654  126.496
 4056.00    0.99306   0.99659  127.762
 4057.00    0.98649   0.99944  126.644
 4058.00    0.99386   1.00631  122.424
 4059.00    1.00477   1.01356  119.702
 4060.00    1.01774   1.01280  121.158
 4061.00    1.01017   0.99855  129.136
 4062.00    0.98026   0.97603  138.258
 4063.00    0.95410   0.95660  137.701
 4064.00    0.95135   0.94826  131.423
 4065.00    0.96601   0.95115  127.758
 4066.00    0.97672   0.95963  124.359
 4067.00    0.98671   0.96737  120.413
 4068.00    1.00808   0.97096   -1.000
 4069.00    1.01926   0.96836   -1.000
 4070.00    1.00353   0.95879   -1.000
 4071.00    0.97832   0.94789   -1.000
 4072.00    0.96949   0.94399  123.706
 4073.00    0.97872   0.94763   -1.000
 4074.00    0.97756   0.94974   -1.000
 4075.00    0.97003   0.94162   -1.000
 4076.00    0.94673   0.92517  143.184
 4077.00    0.92792   0.91166  139.587
 4078.00    0.92796   0.91303  130.542
 4079.00    0.95399   0.93047   -1.000
 4080.00    0.98267   0.95376   -1.000
 4081.00    0.99618   0.97004   -1.000
 4082.00    0.99878   0.97330   -1.000
 4083.00    0.98640   0.96643  124.512
 4084.00    0.97150   0.95773  123.131
 4085.00    0.96932   0.95503  119.230
 4086.00    0.98377   0.96069  114.689
 4087.00    0.99964   0.97109  110.897
 4088.00    1.01040   0.97961   -1.000
 4089.00    1.01521   0.98202   -1.000
 4090.00    1.00154   0.97868  115.122
 4091.00    0.98722   0.97224  116.533
 4092.00    0.97444   0.96291  116.788
 4093.00    0.96421   0.94971  118.672
 4094.00    0.96032   0.93218   -1.000
 4095.00    0.93325   0.91054  128.120
 4096.00    0.90591   0.88501  129.473
 4097.00    0.88540   0.85367   -1.000
 4098.00    0.85866   0.81253   -1.000
 4099.00    0.81005   0.75921   -1.000
 4100.00    0.75104   0.70303   -1.000
 4101.00    0.69308   0.66610   -1.000
 4102.00    0.68163   0.67065  147.377
 4103.00    0.73690   0.71596  135.711
 4104.00    0.80688   0.77978  128.008
 4105.00    0.85886   0.83673  123.740
 4106.00    0.89175   0.87541  122.746
 4107.00    0.90729   0.89787  123.713
 4108.00    0.91601   0.91087  126.000
 4109.00    0.92375   0.92009  127.955
 4110.00    0.94006   0.92931  126.786
 4111.00    0.95455   0.94045  124.046
 4112.00    0.96744   0.95353  121.823
 4113.00    0.97977   0.96767  119.925
 4114.00    0.98559   0.98116  118.671
 4115.00    0.99465   0.99017  119.047
 4116.00    0.99619   0.99101  121.363
 4117.00    1.00064   0.98407  125.317
 4118.00    0.98315   0.97419  127.143
 4119.00    0.96910   0.96788  125.903
 4120.00    0.97497   0.96819  124.548
 4121.00    0.98270   0.97302  124.507
 4122.00    0.98899   0.97883  123.350
 4123.00    0.99705   0.98474  121.243
 4124.00    1.00512   0.99103  120.619
 4125.00    1.01446   0.99586  122.013
 4126.00    1.00909   0.99649  124.556
 4127.00    1.00392   0.99337  125.795
 4128.00    0.99671   0.98987  126.469
 4129.00    0.98933   0.98677  127.950
 4130.00    0.99042   0.98139  131.719
 4131.00    0.98089   0.97311  135.911
 4132.00    0.96559   0.96765  136.745
 4133.00    0.96207   0.97157  132.772
 4134.00    0.97269   0.98479  126.274
 4135.00    0.99770   1.00166  121.885
 4136.00    1.01824   1.01755  119.694
 4137.00    1.03559   1.03105  117.822
 4138.00    1.03645   1.04141  117.195
 4139.00    1.04422   1.04517  119.273
 4140.00    1.04088   1.03838  125.137
 4141.00    1.02024   1.02119  135.314
 4142.00    0.99197   1.00038  143.052
 4143.00    0.96732   0.98677   -1.000
 4144.00    0.97255   0.98753  131.125
 4145.00    0.99583   0.99981  125.870
 4146.00    1.02180   1.01308  124.185
 4147.00    1.02937   1.01983  126.150
 4148.00    1.01875   1.02106  129.592
 4149.00    1.00950   1.02120  131.450
 4150.00    1.00964   1.02177  130.775
 4151.00    1.00993   1.02084  129.985
 4152.00    1.01254   1.01690  130.983
 4153.00    0.99339   1.01109  133.059
 4154.00    1.03958   1.00684   -1.000
 4155.00    1.24465   1.00753   -1.000
 4156.00    1.16475   1.01378   -1.000
 4157.00    0.76837   1.02326   -1.000
 4158.00    0.87740   1.03215   -1.000
 4159.00    1.06336   1.03786  125.352
 4160.00    1.03737   1.04038  121.808
 4161.00    1.03171   1.04202  120.180
 4162.00    1.03349   1.04515  120.683
 4163.00    1.04150   1.05003  122.556
 4164.00    1.04684   1.05434  124.415
 4165.00    1.04486   1.05423  127.127
 4166.00    1.03188   1.04945  129.189
 4167.00    1.02269   1.04366   -1.000
 4168.00    1.02791   1.03939  126.396
 4169.00    1.03244   1.03387  127.325
 4170.00    1.02236   1.02143  134.272
 4171.00    0.99616   1.00225  142.521
 4172.00    0.96390   0.98522   -1.000
 4173.00    0.95553   0.97973   -1.000
 4174.00    0.96086   0.98716   -1.000
 4175.00    0.98144   0.99933   -1.000
 4176.00    0.97978   1.00746   -1.000
 4177.00    0.98400   1.01067   -1.000
 4178.00    0.99193   1.01421   -1.000
 4179.00    1.00133   1.02098   -1.000
 4180.00    1.00904   1.02689   -1.000
 4181.00    1.00566   1.02807   -1.000
 4182.00    1.00693   1.02779   -1.000
 4183.00    1.00977   1.03006   -1.000
 4184.00    1.01552   1.03262  124.358
 4185.00    1.01072   1.03056   -1.000
 4186.00    0.99844   1.02363   -1.000
 4187.00    0.99175   1.01741   -1.000
 4188.00    0.99185   1.01693   -1.000
 4189.00    0.99998   1.02095   -1.000
 4190.00    1.01265   1.02516  125.852
 4191.00    1.00978   1.02824  123.210
 4192.00    1.02226   1.03198  121.465
 4193.00    1.03919   1.03606  124.499
 4194.00    1.03311   1.03546  130.831
 4195.00    1.01710   1.02615  135.449
 4196.00    0.99961   1.01019  138.035
 4197.00    0.98358   0.99368  138.536
 4198.00    0.97740   0.98205  137.180
 4199.00    0.97232   0.97808  135.024
 4200.00    0.98361   0.98001  134.481
 4201.00    0.98762   0.98385  133.671
 4202.00    0.99154   0.98901  131.669
 4203.00    0.99820   0.99727  130.614
 4204.00    0.99266   1.00777  128.218
 4205.00    0.99766   1.01765   -1.000
 4206.00    1.00426   1.02564   -1.000
 4207.00    1.01621   1.03129  121.781
 4208.00    1.02299   1.03420  122.195
 4209.00    1.02385   1.03569  122.014
 4210.00    1.01682   1.03840   -1.000
 4211.00    1.02810   1.04323  121.758
 4212.00    1.03489   1.04561  125.468
 4213.00    1.02548   1.03936  131.120
 4214.00    1.00702   1.02536   -1.000
 4215.00    0.98400   1.01213   -1.000
 4216.00    0.98358   1.00891   -1.000
 4217.00    1.00149   1.01717  117.366
 4218.00    1.02213   1.03077  113.933
 4219.00    1.03610   1.04240  112.536
 4220.00    1.03608   1.04869  113.359
 4221.00    1.02656   1.04758   -1.000
 4222.00    1.01975   1.03596  125.717
 4223.00    1.00860   1.01048  137.885
 4224.00    0.97599   0.97479  156.048
 4225.00    0.93451   0.94110  169.652
 4226.00    0.90135   0.92631   -1.000
 4227.00    0.90427   0.94015   -1.000
 4228.00    0.94893   0.97788   -1.000
 4229.00    0.99480   1.01891   -1.000
 4230.00    1.01961   1.04308   -1.000
 4231.00    1.02513   1.04565   -1.000
 4232.00    1.01104   1.03537   -1.000
 4233.00    1.00165   1.02254   -1.000
 4234.00    0.99342   1.01457   -1.000
 4235.00    0.98906   1.01343   -1.000
 4236.00    0.98375   1.01644   -1.000
 4237.00    0.98940   1.02138   -1.000
 4238.00    0.99070   1.02817   -1.000
 4239.00    0.99757   1.03738   -1.000
 4240.00    1.01329   1.04855   -1.000
 4241.00    1.01887   1.05904   -1.000
 4242.00    1.02162   1.06534   -1.000
 4243.00    1.01977   1.06565   -1.000
 4244.00    1.02364   1.06012   -1.000
 4245.00    1.01916   1.04870   -1.000
 4246.00    1.00188   1.03334   -1.000
 4247.00    0.98879   1.01874   -1.000
 4248.00    0.97343   1.00918   -1.000
 4249.00    0.96594   1.00581   -1.000
 4250.00    0.96943   1.00944   -1.000
 4251.00    0.98447   1.01861   -1.000
 4252.00    1.00493   1.02785   -1.000
 4253.00    1.00648   1.03257   -1.000
 4254.00    1.00167   1.03437   -1.000
 4255.00    1.00455   1.03776   -1.000
 4256.00    1.01379   1.04241   -1.000
 4257.00    1.01726   1.04209   -1.000
 4258.00    1.00169   1.03340   -1.000
 4259.00    0.98814   1.02178   -1.000
 4260.00    0.97644   1.01717   -1.000
 4261.00    0.98063   1.02476   -1.000
 4262.00    1.00812   1.04132   -1.000
 4263.00    1.02788   1.05824   -1.000
 4264.00    1.04158   1.06826   -1.000
 4265.00    1.03438   1.07014   -1.000
 4266.00    1.03177   1.06630   -1.000
 4267.00    1.02403   1.05781   -1.000
 4268.00    1.01205   1.04395   -1.000
 4269.00    1.00347   1.02461   -1.000
 4270.00    0.97382   1.00346   -1.000
 4271.00    0.94862   0.98706   -1.000
 4272.00    0.94101   0.98084   -1.000
 4273.00    0.94832   0.98534   -1.000
 4274.00    0.95236   0.99802   -1.000
 4275.00    0.96661   1.01631   -1.000
 4276.00    0.99940   1.03721   -1.000
 4277.00    1.02544   1.05409   -1.000
 4278.00    1.03279   1.06042   -1.000
 4279.00    1.01836   1.05505   -1.000
 4280.00    0.99785   1.04377   -1.000
 4281.00    0.99357   1.03436   -1.000
 4282.00    0.98948   1.03070   -1.000
 4283.00    0.99473   1.03127   -1.000
 4284.00    0.99269   1.03136   -1.000
 4285.00    0.97463   1.02620   -1.000
 4286.00    0.96653   1.01334   -1.000
 4287.00    0.96122   0.99433   -1.000
 4288.00    0.94561   0.97379   -1.000
 4289.00    0.92210   0.95936   -1.000
 4290.00    0.91250   0.95786   -1.000
 4291.00    0.92723   0.96876   -1.000
 4292.00    0.95320   0.98234   -1.000
 4293.00    0.96540   0.98902   -1.000
 4294.00    0.96868   0.98840   -1.000
 4295.00    0.96458   0.98442   -1.000
 4296.00    0.94894   0.97592   -1.000
 4297.00    0.92766   0.95941   -1.000
 4298.00    0.89910   0.93550   -1.000
 4299.00    0.86728   0.91057   -1.000
 4300.00    0.85553   0.89271   -1.000
 4301.00    0.85854   0.88684   -1.000
 4302.00    0.86079   0.89173   -1.000
 4303.00    0.86401   0.90251   -1.000
 4304.00    0.87753   0.91177   -1.000
 4305.00    0.88266   0.91288   -1.000
 4306.00    0.87874   0.90538   -1.000
 4307.00    0.86751   0.89608   -1.000
 4308.00    0.84445   0.89336   -1.000
 4309.00    0.83611   0.90026   -1.000
 4310.00    0.85556   0.91317   -1.000
 4311.00    0.87547   0.92581   -1.000
 4312.00    0.89286   0.93577   -1.000
 4313.00    0.90722   0.94769   -1.000
 4314.00    0.93567   0.96846   -1.000
 4315.00    0.97806   1.00010  109.976
 4316.00    1.01659   1.03459  105.837
 4317.00    1.04196   1.05982  105.619
 4318.00    1.05839   1.06948  107.197
 4319.00    1.05545   1.06667  109.599
 4320.00    1.03522   1.05718   -1.000
 4321.00    1.02462   1.04374  118.761
 4322.00    1.00694   1.02529  127.405
 4323.00    0.97506   1.00152   -1.000
 4324.00    0.93964   0.97885   -1.000
 4325.00    0.91820   0.96984   -1.000
 4326.00    0.93926   0.98094   -1.000
 4327.00    0.97796   1.00473   -1.000
 4328.00    1.00282   1.02611  110.570
 4329.00    1.01701   1.03582  110.930
 4330.00    1.01985   1.03600  110.383
 4331.00    1.01326   1.03359  108.501
 4332.00    1.00337   1.03045   -1.000
 4333.00    1.00192   1.02240  107.070
 4334.00    0.99958   1.00435  108.809
 4335.00    0.97561   0.97238  115.574
 4336.00    0.93409   0.92423  126.680
 4337.00    0.87615   0.86077  138.531
 4338.00    0.80942   0.79276  150.089
 4339.00    0.74563   0.73989  154.223
 4340.00    0.70423   0.72284   -1.000
 4341.00    0.73217   0.75012  129.429
 4342.00    0.80343   0.81097  121.221
 4343.00    0.87022   0.87926  117.237
 4344.00    0.91576   0.93473   -1.000
 4345.00    0.95320   0.97382   -1.000
 4346.00    0.97281   1.00205   -1.000
 4347.00    0.98716   1.02201   -1.000
 4348.00    1.00108   1.03123   -1.000
 4349.00    1.01292   1.02647  115.056
 4350.00    0.99919   1.01148  123.674
 4351.00    0.96812   0.99776   -1.000
 4352.00    0.96431   0.99713   -1.000
 4353.00    0.98510   1.01230   -1.000
 4354.00    1.01143   1.03555   -1.000
 4355.00    1.02641   1.05571   -1.000
 4356.00    1.04002   1.06674   -1.000
 4357.00    1.04180   1.06935   -1.000
 4358.00    1.03905   1.06814   -1.000
 4359.00    1.03634   1.06856   -1.000
 4360.00    1.04127   1.07346   -1.000
 4361.00    1.04923   1.08175   -1.000
 4362.00    1.06694   1.09010  105.956
 4363.00    1.07159   1.09574  104.790
 4364.00    1.07016   1.09704   -1.000
 4365.00    1.07315   1.09313  107.772
 4366.00    1.05506   1.08428   -1.000
 4367.00    1.04463   1.07367   -1.000
 4368.00    1.03780   1.06557   -1.000
 4369.00    1.03984   1.06138  111.337
 4370.00    1.04317   1.05889  111.217
 4371.00    1.04760   1.05418  112.287
 4372.00    1.04737   1.04412  116.768
 4373.00    1.03192   1.02938  121.452
 4374.00    1.00707   1.01723  121.717
 4375.00    0.99944   1.01743  116.845
 4376.00    1.01735   1.03319  110.978
 4377.00    1.04310   1.05593  108.874
 4378.00    1.06113   1.07269  109.439
 4379.00    1.06311   1.07607  111.365
 4380.00    1.06386   1.06496  116.530
 4381.00    1.04463   1.04039  129.224
 4382.00    1.00906   1.00859  143.965
 4383.00    0.96505   0.98258   -1.000
 4384.00    0.95044   0.97448   -1.000
 4385.00    0.97522   0.98626  120.416
 4386.00    1.00731   1.00852  116.229
 4387.00    1.03167   1.02896  116.189
 4388.00    1.03739   1.04139  117.437
 4389.00    1.02745   1.04681  117.847
 4390.00    1.03154   1.04914  115.641
 4391.00    1.03866   1.05087  113.030
 4392.00    1.05522   1.05030  113.687
 4393.00    1.04981   1.04459  116.188
 4394.00    1.03544   1.03713  115.861
 4395.00    1.03147   1.03625  110.668
 4396.00    1.04008   1.04393  107.376
 4397.00    1.06047   1.05223  108.744
 4398.00    1.06534   1.05323  112.736
 4399.00    1.04558   1.04788  116.128
 4400.00    1.02855   1.04316  114.910
 4401.00    1.03726   1.04301  112.829
 4402.00    1.05214   1.04448  116.623
 4403.00    1.04929   1.04314  123.444
 4404.00    1.03179   1.03977  124.657
 4405.00    1.02609   1.03899  120.579
 4406.00    1.03799   1.04276  118.743
 4407.00    1.04056   1.04899  117.674
 4408.00    1.03728   1.05684  113.248
 4409.00    1.04298   1.06808   -1.000
 4410.00    1.06584   1.08154  104.680
 4411.00    1.09011   1.09096  103.384
 4412.00    1.09509   1.09004  106.087
 4413.00    1.08576   1.07741  112.175
 4414.00    1.05329   1.05772  116.313
 4415.00    1.02581   1.04057  115.772
 4416.00    1.01751   1.03537   -1.000
 4417.00    1.02979   1.04548  107.129
 4418.00    1.05199   1.06545  104.068
 4419.00    1.06878   1.08482  104.591
 4420.00    1.07788   1.09513  107.334
 4421.00    1.06650   1.09571   -1.000
 4422.00    1.05577   1.09211   -1.000
 4423.00    1.05341   1.08903   -1.000
 4424.00    1.04964   1.08649   -1.000
 4425.00    1.04579   1.08351   -1.000
 4426.00    1.03937   1.08176   -1.000
 4427.00    1.03627   1.08386   -1.000
 4428.00    1.04406   1.08949   -1.000
 4429.00    1.05049   1.09551   -1.000
 4430.00    1.05447   1.09921   -1.000
 4431.00    1.06217   1.09938   -1.000
 4432.00    1.06403   1.09475   -1.000
 4433.00    1.05640   1.08506   -1.000
 4434.00    1.03797   1.07452   -1.000
 4435.00    1.02595   1.07186   -1.000
 4436.00    1.04453   1.08301   -1.000
 4437.00    1.07813   1.10346  101.515
 4438.00    1.10421   1.12066  101.149
 4439.00    1.11557   1.12343  104.312
 4440.00    1.10182   1.10980  109.332
 4441.00    1.07407   1.08734  113.984
 4442.00    1.04773   1.06866   -1.000
 4443.00    1.03030   1.06398   -1.000
 4444.00    1.03572   1.07491   -1.000
 4445.00    1.06213   1.09341   -1.000
 4446.00    1.08573   1.10898  103.490
 4447.00    1.10247   1.11689  103.689
 4448.00    1.09380   1.11882   -1.000
 4449.00    1.09141   1.11800   -1.000
 4450.00    1.08828   1.11667   -1.000
 4451.00    1.08671   1.11518   -1.000
 4452.00    1.09116   1.11080  109.655
 4453.00    1.08777   1.10066  114.737
 4454.00    1.05984   1.08785   -1.000
 4455.00    1.04628   1.08043   -1.000
 4456.00    1.05176   1.08269   -1.000
 4457.00    1.07013   1.09017  113.229
 4458.00    1.08228   1.09572  113.815
 4459.00    1.07255   1.09687   -1.000
 4460.00    1.06777   1.09624   -1.000
 4461.00    1.06520   1.09748   -1.000
 4462.00    1.06788   1.10208   -1.000
 4463.00    1.08696   1.10815   -1.000
 4464.00    1.09831   1.11218  106.520
 4465.00    1.09914   1.11145  106.596
 4466.00    1.09448   1.10510  107.800
 4467.00    1.08441   1.09535  109.885
 4468.00    1.07517   1.08775  110.572
 4469.00    1.06190   1.08828   -1.000
 4470.00    1.07129   1.09896   -1.000
 4471.00    1.09048   1.11595   -1.000
 4472.00    1.11615   1.13251   99.188
 4473.00    1.13366   1.14355   98.322
 4474.00    1.14027   1.14816   98.498
 4475.00    1.13564   1.14885   97.647
 4476.00    1.13352   1.14864   97.070
 4477.00    1.13444   1.14713   97.930
 4478.00    1.14258   1.14027  101.545
 4479.00    1.13634   1.12614  106.180
 4480.00    1.11364   1.11000  109.211
 4481.00    1.08918   1.10144  108.041
 4482.00    1.08092   1.10666   -1.000
 4483.00    1.10027   1.12360   99.560
 4484.00    1.12540   1.14343   97.410
 4485.00    1.14090   1.15707   97.533
 4486.00    1.14591   1.16001   99.748
 4487.00    1.14184   1.15314  103.591
 4488.00    1.12423   1.14216   -1.000
 4489.00    1.11218   1.13498   -1.000
 4490.00    1.11187   1.13604   -1.000
 4491.00    1.11953   1.14214   -1.000
 4492.00    1.12620   1.14564   -1.000
 4493.00    1.12446   1.14290   -1.000
 4494.00    1.11964   1.13748  107.335
 4495.00    1.11699   1.13467  106.200
 4496.00    1.11000   1.13612   -1.000
 4497.00    1.12369   1.13966   99.634
 4498.00    1.14140   1.14110   98.609
 4499.00    1.13771   1.13760   99.766
 4500.00    1.12513   1.13197  100.319
 4501.00    1.12597   1.13161   97.746
 4502.00    1.13442   1.14072   94.369
 4503.00    1.15251   1.15522   92.688
 4504.00    1.16451   1.16675   93.302
 4505.00    1.16382   1.17026   95.222
 4506.00    1.16332   1.16704   96.168
 4507.00    1.15749   1.16219   96.249
 4508.00    1.15038   1.16040   95.512
 4509.00    1.15455   1.16250   94.843
 4510.00    1.16725   1.16530   95.641
 4511.00    1.16877   1.16550   97.542
 4512.00    1.16049   1.16292   99.291
 4513.00    1.14935   1.15916   99.917
 4514.00    1.14932   1.15535   99.425
 4515.00    1.14939   1.15205   99.348
 4516.00    1.13616   1.14905  100.560
 4517.00    1.13137   1.14551  101.156
 4518.00    1.13117   1.14171   99.447
 4519.00    1.13178   1.13944   97.474
 4520.00    1.13687   1.13904   97.758
 4521.00    1.13714   1.13799  100.081
 4522.00    1.12639   1.13432  102.121
 4523.00    1.12154   1.12957  103.001
 4524.00    1.12315   1.12605  104.728
 4525.00    1.12318   1.12289  107.945
 4526.00    1.11845   1.11729  111.003
 4527.00    1.10819   1.10893  112.345
 4528.00    1.09135   1.10136  111.534
 4529.00    1.09327   1.09847  109.568
 4530.00    1.10603   1.09989  107.562
 4531.00    1.10284   1.10040  107.027
 4532.00    1.10373   1.09496  110.028
 4533.00    1.09031   1.08539  113.788
 4534.00    1.07152   1.08049  112.328
 4535.00    1.07336   1.08777  105.919
 4536.00    1.10089   1.10666   99.649
 4537.00    1.13358   1.12974   96.953
 4538.00    1.15700   1.14813   97.884
 4539.00    1.16129   1.15683  100.264
 4540.00    1.15765   1.15713  100.173
 4541.00    1.15028   1.15420   99.436
 4542.00    1.18791   1.15210   99.062
 4543.00    1.01169   1.15098   -1.000
 4544.00    0.17050   1.14912   -1.000
 4545.00   -0.00243   1.14597    0.000
 4546.00    0.17997   1.14099   -1.000
 4547.00    0.91913   1.13193   -1.000
 4548.00    0.30520   1.11881   -1.000
 4549.00    0.92877   1.10813   -1.000
 4550.00    1.11043   1.10736  103.963
 4551.00    1.11494   1.11461  103.855
 4552.00    1.12390   1.11969  105.479
 4553.00    1.11251   1.11678  106.459
 4554.00    1.09831   1.11115  104.862
 4555.00    1.10544   1.11230  101.021
 4556.00    1.12623   1.12396   96.942
 4557.00    1.14421   1.14136   95.233
 4558.00    1.15412   1.15699   95.761
 4559.00    1.16097   1.16721   95.707
 4560.00    1.16376   1.17174   95.744
 4561.00    1.16991   1.16981   97.976
 4562.00    1.16048   1.16150  100.431
 4563.00    1.14309   1.15139  102.154
 4564.00    1.13300   1.14658  101.035
 4565.00    1.13518   1.15051   98.459
 4566.00    1.14706   1.16021   95.848
 4567.00    1.15864   1.16916   94.884
 4568.00    1.16940   1.17199   95.931
 4569.00    1.16965   1.16677   98.380
 4570.00    1.15178   1.15577  100.977
 4571.00    1.12785   1.14539  100.248
 4572.00    1.12695   1.14324   97.205
 4573.00    1.14154   1.15095   95.812
 4574.00    1.15859   1.16148   95.869
 4575.00    1.16384   1.16707   96.314
 4576.00    1.16312   1.16642   96.875
 4577.00    1.15650   1.16211   98.539
 4578.00    1.15153   1.15528  101.509
 4579.00    1.14712   1.14616  103.610
 4580.00    1.12840   1.13678  103.322
 4581.00    1.12628   1.12979  101.854
 4582.00    1.13043   1.12594  101.100
 4583.00    1.12576   1.12526  101.404
 4584.00    1.12787   1.12860  102.048
 4585.00    1.13961   1.13547  100.633
 4586.00    1.15118   1.14319   97.979
 4587.00    1.15354   1.14923   95.894
 4588.00    1.15835   1.15266   95.754
 4589.00    1.15557   1.15397   97.166
 4590.00    1.14838   1.15400   98.988
 4591.00    1.14613   1.15316  100.727
 4592.00    1.14065   1.15246  100.820
 4593.00    1.14254   1.15387   99.955
 4594.00    1.14987   1.15811   99.167
 4595.00    1.15582   1.16386   98.904
 4596.00    1.16159   1.16895   98.697
 4597.00    1.16794   1.17141   98.475
 4598.00    1.16727   1.17019   99.349
 4599.00    1.16394   1.16571  100.245
 4600.00    1.15803   1.15973  100.524
 4601.00    1.14942   1.15497   99.450
 4602.00    1.14515   1.15371   98.329
 4603.00    1.14626   1.15616   98.498
 4604.00    1.15343   1.16034   98.333
 4605.00    1.16420   1.16415   97.257
 4606.00    1.17598   1.16756   95.323
 4607.00    1.16908   1.17186   93.276
 4608.00    1.17473   1.17707   92.181
 4609.00    1.18821   1.18107   92.603
 4610.00    1.18776   1.18159   93.892
 4611.00    1.18776   1.17907   94.935
 4612.00    1.18035   1.17626   95.548
 4613.00    1.17326   1.17494   95.067
 4614.00    1.17509   1.17460   94.213
 4615.00    1.16817   1.17384   93.839
 4616.00    1.16882   1.17204   94.478
 4617.00    1.17163   1.16968   95.183
 4618.00    1.17279   1.16803   95.086
 4619.00    1.16679   1.16897   94.168
 4620.00    1.17237   1.17364   92.659
 4621.00    1.18251   1.18044   92.644
 4622.00    1.18725   1.18560   92.883
 4623.00    1.18878   1.18646   93.065
 4624.00    1.18397   1.18369   93.932
 4625.00    1.17918   1.18013   94.155
 4626.00    1.17957   1.17770   94.102
 4627.00    1.17907   1.17619   94.721
 4628.00    1.17372   1.17480   94.919
 4629.00    1.16535   1.17435   94.434
 4630.00    1.17886   1.17641   93.330
 4631.00    1.17865   1.18005   93.767
 4632.00    1.18575   1.18217   95.157
 4633.00    1.17731   1.18132   96.205
 4634.00    1.18077   1.17930   96.102
 4635.00    1.18972   1.17837   96.895
 4636.00    1.18082   1.17833   98.193
 4637.00    1.17375   1.17805   98.584
 4638.00    1.17209   1.17811   98.437
 4639.00    1.17776   1.18034   96.741
 4640.00    1.18902   1.18537   94.352
 4641.00    1.19227   1.19133   93.071
 4642.00    1.19753   1.19523   93.476
 4643.00    1.19961   1.19514   95.246
 4644.00    1.19375   1.19098   97.958
 4645.00    1.18384   1.18389  100.676
 4646.00    1.16926   1.17606  101.069
 4647.00    1.16081   1.17152   99.240
 4648.00    1.16538   1.17337   96.902
 4649.00    1.17978   1.17994   95.588
 4650.00    1.18898   1.18643   95.441
 4651.00    1.18540   1.18945   95.242
 4652.00    1.18123   1.18849   96.403
 4653.00    1.17620   1.18454   98.672
 4654.00    1.16648   1.17937   99.788
 4655.00    1.15704   1.17557   98.896
 4656.00    1.15661   1.17574   95.697
 4657.00    1.16937   1.18177   92.006
 4658.00    1.18710   1.19320   89.966
 4659.00    1.20432   1.20560   89.911
 4660.00    1.21002   1.21301   91.058
 4661.00    1.21108   1.21281   93.328
 4662.00    1.20005   1.20711   95.161
 4663.00    1.20147   1.19938   95.349
 4664.00    1.19560   1.19090   96.949
 4665.00    1.18191   1.18058  101.194
 4666.00    1.17313   1.16813  105.414
 4667.00    1.15037   1.15701  105.438
 4668.00    1.14055   1.15268  102.125
 4669.00    1.15705   1.15727   97.808
 4670.00    1.17052   1.16774   95.193
 4671.00    1.18337   1.17876   94.673
 4672.00    1.19079   1.18644   94.762
 4673.00    1.19639   1.19063   94.658
 4674.00    1.19928   1.19384   93.397
 4675.00    1.20675   1.19730   91.981
 4676.00    1.20332   1.19916   92.490
 4677.00    1.20116   1.19665   94.547
 4678.00    1.19869   1.18977   96.416
 4679.00    1.18970   1.18150   98.003
 4680.00    1.18298   1.17482   98.935
 4681.00    1.17318   1.17185   97.648
 4682.00    1.17812   1.17348   95.141
 4683.00    1.18144   1.17844   93.923
 4684.00    1.19702   1.18367   94.285
 4685.00    1.20608   1.18678   94.314
 4686.00    1.20817   1.18768   94.869
 4687.00    1.19892   1.18766   94.859
 4688.00    1.20354   1.18778   94.868
 4689.00    1.20497   1.18795   95.574
 4690.00    1.19334   1.18760   95.759
 4691.00    1.19305   1.18707   94.584
 4692.00    1.19783   1.18749   93.165
 4693.00    1.20510   1.18909   91.063
 4694.00    1.20943   1.19113   89.926
 4695.00    1.21569   1.19260   90.416
 4696.00    1.21994   1.19185   93.099
 4697.00    1.21154   1.18741   95.925
 4698.00    1.20085   1.18034   96.991
 4699.00    1.20202   1.17345   96.155
 4700.00    1.20388   1.16786   96.921
 4701.00    1.19300   1.16267   98.676
 4702.00    1.17766   1.15807   99.153
 4703.00    1.16973   1.15658   97.197
 4704.00    1.18123   1.15963   95.774
 4705.00    1.19419   1.16418   97.198
 4706.00    1.18847   1.16539   99.177
 4707.00    1.17588   1.16212  100.104
 4708.00    1.17199   1.15835   99.533
 4709.00    1.17259   1.15903   96.520
 4710.00    1.17989   1.16506   93.876
 4711.00    1.19756   1.17259   92.999
 4712.00    1.20791   1.17688   93.950
 4713.00    1.20432   1.17673   95.766
 4714.00    1.19783   1.17528   95.710
 4715.00    1.20095   1.17671   93.745
 4716.00    1.20320   1.18213   91.942
 4717.00    1.21394   1.18905   91.414
 4718.00    1.20717   1.19455   91.098
 4719.00    1.21189   1.19773   90.786
 4720.00    1.21505   1.19899   91.600
 4721.00    1.20597   1.19903   92.247
 4722.00    1.19731   1.19912   91.665
 4723.00    1.20100   1.20050   90.652
 4724.00    1.21152   1.20249   90.832
 4725.00    1.21232   1.20273   93.120
 4726.00    1.20588   1.19945   96.726
 4727.00    1.19701   1.19283   98.841
 4728.00    1.19222   1.18518   98.387
 4729.00    1.19324   1.17902   97.357
 4730.00    1.19979   1.17550   96.600
 4731.00    1.19908   1.17548   95.418
 4732.00    1.20199   1.17911   94.602
 4733.00    1.19470   1.18415   94.074
 4734.00    1.19438   1.18743   93.550
 4735.00    1.19640   1.18763   94.618
 4736.00    1.19614   1.18603   94.704
 4737.00    1.18702   1.18507   93.424
 4738.00    1.19224   1.18586   93.514
 4739.00    1.20492   1.18755   94.080
 4740.00    1.20676   1.18909   94.187
 4741.00    1.20827   1.19086   93.396
 4742.00    1.20560   1.19393   92.364
 4743.00    1.21571   1.19798   92.598
 4744.00    1.21584   1.20133   92.675
 4745.00    1.20863   1.20335   91.951
 4746.00    1.20613   1.20560   91.008
 4747.00    1.21164   1.20954   90.846
 4748.00    1.21390   1.21419   90.998
 4749.00    1.21009   1.21789   91.055
 4750.00    1.21908   1.22048   91.745
 4751.00    1.21697   1.22175   92.805
 4752.00    1.20163   1.22079   93.572
 4753.00    1.19900   1.21788   94.208
 4754.00    1.20208   1.21491   94.009
 4755.00    1.20343   1.21353   94.399
 4756.00    1.20067   1.21393   95.116
 4757.00    1.19527   1.21528   95.194
 4758.00    1.19742   1.21628   94.365
 4759.00    1.20471   1.21559   94.221
 4760.00    1.20173   1.21207   95.766
 4761.00    1.19037   1.20533   98.211
 4762.00    1.18113   1.19682   99.426
 4763.00    1.17228   1.18986   99.529
 4764.00    1.16732   1.18740   99.308
 4765.00    1.18155   1.19025   98.588
 4766.00    1.19804   1.19701   97.193
 4767.00    1.20045   1.20554   94.943
 4768.00    1.20596   1.21398   93.662
 4769.00    1.20845   1.22050   93.881
 4770.00    1.20924   1.22323   94.707
 4771.00    1.20630   1.22212   95.548
 4772.00    1.20276   1.22001   94.357
 4773.00    1.20265   1.22042   92.292
 4774.00    1.21035   1.22397   91.722
 4775.00    1.22121   1.22795   91.824
 4776.00    1.22640   1.22967   92.103
 4777.00    1.22304   1.22848   92.720
 4778.00    1.21518   1.22506   93.788
 4779.00    1.20766   1.22097   94.318
 4780.00    1.20842   1.21852   94.541
 4781.00    1.21169   1.21860   95.015
 4782.00    1.20594   1.21932   95.798
 4783.00    1.20359   1.21856   95.720
 4784.00    1.20289   1.21626   96.061
 4785.00    1.19926   1.21327   97.051
 4786.00    1.19328   1.21040   97.592
 4787.00    1.19747   1.20871   97.464
 4788.00    1.18782   1.20902   96.967
 4789.00    1.19182   1.21142   96.363
 4790.00    1.19562   1.21607   95.337
 4791.00    1.21252   1.22310   93.744
 4792.00    1.21451   1.23139   91.623
 4793.00    1.21799   1.23903   90.074
 4794.00    1.22081   1.24436   89.800
 4795.00    1.22292   1.24611   90.763
 4796.00    1.22135   1.24393   92.646
 4797.00    1.22005   1.23888   94.376
 4798.00    1.20759   1.23355   -1.000
 4799.00    1.20185   1.23133   -1.000
 4800.00    1.20738   1.23394   -1.000
 4801.00    1.21808   1.23959   91.268
 4802.00    1.21695   1.24368   -1.000
 4803.00    1.22428   1.24196   92.752
 4804.00    1.21999   1.23478   93.937
 4805.00    1.20416   1.22746   -1.000
 4806.00    1.20372   1.22473   94.708
 4807.00    1.20957   1.22710   94.461
 4808.00    1.21216   1.23208   94.027
 4809.00    1.21805   1.23644   93.151
 4810.00    1.21719   1.23859   92.493
 4811.00    1.21485   1.23972   -1.000
 4812.00    1.22005   1.24196   91.956
 4813.00    1.21643   1.24590   -1.000
 4814.00    1.22391   1.25034   -1.000
 4815.00    1.23487   1.25372   90.799
 4816.00    1.23053   1.25560   -1.000
 4817.00    1.23266   1.25621   89.880
 4818.00    1.23277   1.25578   89.864
 4819.00    1.23109   1.25449   89.870
 4820.00    1.22713   1.25194   90.704
 4821.00    1.22555   1.24662   93.194
 4822.00    1.22092   1.23765   94.935
 4823.00    1.20521   1.22747   -1.000
 4824.00    1.20210   1.22114   92.906
 4825.00    1.20191   1.22149   91.481
 4826.00    1.21456   1.22614   91.954
 4827.00    1.21759   1.23014   93.081
 4828.00    1.22311   1.23084   93.632
 4829.00    1.22217   1.22923   93.577
 4830.00    1.21171   1.22742   94.496
 4831.00    1.21593   1.22633   94.617
 4832.00    1.21642   1.22601   93.013
 4833.00    1.22088   1.22653   91.793
 4834.00    1.21654   1.22767   91.498
 4835.00    1.21625   1.22874   91.674
 4836.00    1.21939   1.22929   92.127
 4837.00    1.22269   1.22933   93.435
 4838.00    1.21905   1.22847   95.135
 4839.00    1.20606   1.22646   95.104
 4840.00    1.20080   1.22432   94.891
 4841.00    1.20692   1.22291   94.400
 4842.00    1.20510   1.22166   93.682
 4843.00    1.20139   1.22018   92.733
 4844.00    1.20772   1.21916   91.245
 4845.00    1.21450   1.21894   90.826
 4846.00    1.21472   1.21803   92.801
 4847.00    1.20749   1.21448   94.158
 4848.00    1.19662   1.20912   94.077
 4849.00    1.18709   1.20467   92.686
 4850.00    1.18991   1.20197   92.529
 4851.00    1.19494   1.19919   93.097
 4852.00    1.18997   1.19364   93.904
 4853.00    1.17559   1.18265   96.831
 4854.00    1.15994   1.16554   99.574
 4855.00    1.14095   1.14556   99.193
 4856.00    1.12193   1.12573   98.144
 4857.00    1.10947   1.10111  101.038
 4858.00    1.08133   1.05899  110.111
 4859.00    1.00828   0.99182  123.351
 4860.00    0.90285   0.91413  128.869
 4861.00    0.82667   0.86183   -1.000
 4862.00    0.85073   0.86497  109.461
 4863.00    0.94796   0.92082  103.154
 4864.00    1.03794   0.99751   99.620
 4865.00    1.09066   1.06388   97.578
 4866.00    1.11544   1.10936   96.745
 4867.00    1.13242   1.13857   96.353
 4868.00    1.14602   1.15663   97.258
 4869.00    1.15617   1.16378  100.112
 4870.00    1.14385   1.16054  102.541
 4871.00    1.12278   1.15317   -1.000
 4872.00    1.12579   1.15111   -1.000
 4873.00    1.14400   1.15901   96.850
 4874.00    1.16284   1.17294   96.143
 4875.00    1.17596   1.18559   95.628
 4876.00    1.16776   1.19354   -1.000
 4877.00    1.16130   1.19880   -1.000
 4878.00    1.16976   1.20531   -1.000
 4879.00    1.18594   1.21443   -1.000
 4880.00    1.19493   1.22297   -1.000
 4881.00    1.19176   1.22613   -1.000
 4882.00    1.18897   1.22327   -1.000
 4883.00    1.18322   1.21866   -1.000
 4884.00    1.18328   1.21614   -1.000
 4885.00    1.18511   1.21628   -1.000
 4886.00    1.18855   1.21763   -1.000
 4887.00    1.18930   1.21799   -1.000
 4888.00    1.18333   1.21511   -1.000
 4889.00    1.17055   1.20820   -1.000
 4890.00    1.15433   1.20024   -1.000
 4891.00    1.15048   1.19795   -1.000
 4892.00    1.16916   1.20675   -1.000
 4893.00    1.20504   1.22464   89.052
 4894.00    1.22934   1.24413   87.427
 4895.00    1.23802   1.25908   87.061
 4896.00    1.24268   1.26757   87.288
 4897.00    1.23900   1.27003   -1.000
 4898.00    1.22970   1.26728   -1.000
 4899.00    1.21827   1.26083   -1.000
 4900.00    1.21184   1.25376   -1.000
 4901.00    1.21907   1.24878   -1.000
 4902.00    1.21676   1.24606   -1.000
 4903.00    1.21675   1.24525   -1.000
 4904.00    1.21668   1.24790   -1.000
 4905.00    1.22660   1.25451   89.400
 4906.00    1.24178   1.26113   90.304
 4907.00    1.24248   1.26272   92.555
 4908.00    1.23283   1.25831   95.251
 4909.00    1.21726   1.25057   -1.000
 4910.00    1.20803   1.24325   -1.000
 4911.00    1.21247   1.23983   -1.000
 4912.00    1.22401   1.24181   92.001
 4913.00    1.23002   1.24767   90.808
 4914.00    1.23445   1.25408   90.033
 4915.00    1.24168   1.25736   90.541
 4916.00    1.23919   1.25362   93.852
 4917.00    1.23339   1.24016   99.094
 4918.00    1.20240   1.21843  103.765
 4919.00    1.16445   1.19534   -1.000
 4920.00    1.15952   1.17990  101.180
 4921.00    1.17048   1.17699   97.511
 4922.00    1.18264   1.18348   96.158
 4923.00    1.19213   1.19234   96.100
 4924.00    1.19252   1.20113   94.813
 4925.00    1.20088   1.21271   92.287
 4926.00    1.22208   1.22822   90.677
 4927.00    1.23921   1.24424   89.855
 4928.00    1.24713   1.25692   89.248
 4929.00    1.24992   1.26466   88.732
 4930.00    1.24647   1.26638   89.684
 4931.00    1.25358   1.26049   92.210
 4932.00    1.23162   1.24705   95.570
 4933.00    1.20884   1.23087   95.663
 4934.00    1.19602   1.22007   93.892
 4935.00    1.20826   1.21846   93.933
 4936.00    1.22535   1.22088   96.820
 4937.00    1.21968   1.21985   99.437
 4938.00    1.20035   1.21503   98.406
 4939.00    1.18352   1.21331   -1.000
 4940.00    1.20593   1.22059   91.934
 4941.00    1.22912   1.23581   90.293
 4942.00    1.24144   1.25235   89.510
 4943.00    1.25069   1.26387   89.616
 4944.00    1.25457   1.26845   90.272
 4945.00    1.24722   1.26828   90.433
 4946.00    1.24381   1.26723   89.575
 4947.00    1.24973   1.26814   88.515
 4948.00    1.25523   1.27131   88.274
 4949.00    1.25567   1.27482   87.912
 4950.00    1.25750   1.27660   88.405
 4951.00    1.25829   1.27608   89.027
 4952.00    1.25740   1.27378   90.078
 4953.00    1.25511   1.26961   91.231
 4954.00    1.25489   1.26121   93.767
 4955.00    1.23908   1.24503   98.699
 4956.00    1.20826   1.22195  102.531
 4957.00    1.18215   1.20182  100.185
 4958.00    1.17708   1.19757   94.351
 4959.00    1.20376   1.21220   91.222
 4960.00    1.23840   1.23556   90.620
 4961.00    1.25780   1.25509   91.088
 4962.00    1.25254   1.26525   91.835
 4963.00    1.24835   1.26701   92.955
 4964.00    1.25205   1.26287   94.952
 4965.00    1.23962   1.25546   96.133
 4966.00    1.23424   1.24833   96.110
 4967.00    1.23190   1.24453   95.809
 4968.00    1.23994   1.24474   95.078
 4969.00    1.24135   1.24811   94.049
 4970.00    1.23657   1.25355   93.036
 4971.00    1.24200   1.25964   91.924
 4972.00    1.24596   1.26486   91.075
 4973.00    1.25351   1.26808   90.744
 4974.00    1.25621   1.26874   91.418
 4975.00    1.25577   1.26715   92.401
 4976.00    1.25243   1.26408   93.675
 4977.00    1.25205   1.26010   95.206
 4978.00    1.24667   1.25541   96.372
 4979.00    1.24103   1.24880   97.788
 4980.00    1.22704   1.23783  101.084
 4981.00    1.20705   1.22231  104.289
 4982.00    1.19282   1.20666  104.136
 4983.00    1.17064   1.19755   -1.000
 4984.00    1.18086   1.19890   99.178
 4985.00    1.19579   1.20933   96.030
 4986.00    1.20898   1.22440   93.733
 4987.00    1.22652   1.23894   93.923
 4988.00    1.23729   1.24770   95.344
 4989.00    1.23719   1.24789   96.288
 4990.00    1.22601   1.24217   96.277
 4991.00    1.22306   1.23665   95.399
 4992.00    1.22469   1.23560   95.021
 4993.00    1.22080   1.23904   94.975
 4994.00    1.22575   1.24491   94.470
 4995.00    1.23245   1.25100   94.030
 4996.00    1.23920   1.25453   94.654
 4997.00    1.24526   1.25229   95.966
 4998.00    1.23890   1.24299   97.913
 4999.00    1.22824   1.22970   99.085
 5000.00    1.21662   1.21903   99.089
 5001.00    1.21349   1.21598   98.124
 5002.00    1.22154   1.21917   97.546
 5003.00    1.22044   1.22240   99.044
 5004.00    1.21612   1.21982  101.560
 5005.00    1.20265   1.21116  101.973
 5006.00    1.18268   1.20313   99.360
 5007.00    1.19193   1.20354   96.366
 5008.00    1.21522   1.21264   95.466
 5009.00    1.23309   1.22263   96.838
 5010.00    1.23647   1.22572   99.835
 5011.00    1.22025   1.21982  103.574
 5012.00    1.20106   1.20852  105.853
 5013.00    1.18543   1.19817  105.192
 5014.00    1.18204   1.19384  102.806
 5015.00    1.19169   1.19562  100.713
 5016.00    1.20499   1.19858  100.354
 5017.00    1.20612   1.19853  100.351
 5018.00    1.20549   1.19749   99.181
 5019.00    1.20567   1.20100   98.421
 5020.00    1.21108   1.21015   98.891
 5021.00    1.22384   1.22036   99.075
 5022.00    1.22448   1.22826   98.466
 5023.00    1.22065   1.23489   97.419
 5024.00    1.23087   1.24179   96.816
 5025.00    1.23634   1.24748   97.315
 5026.00    1.24040   1.24963   97.734
 5027.00    1.23964   1.24881   96.762
 5028.00    1.24175   1.24799   94.920
 5029.00    1.24452   1.24913   93.573
 5030.00    1.24798   1.25227   92.059
 5031.00    1.25132   1.25682   91.056
 5032.00    1.25090   1.26111   91.343
 5033.00    1.25318   1.26178   94.402
 5034.00    1.25557   1.25642   98.113
 5035.00    1.22797   1.24692   99.620
 5036.00    1.21272   1.23818   99.962
 5037.00    1.22125   1.23222  101.329
 5038.00    1.22267   1.22518  105.430
 5039.00    1.20494   1.21289  109.580
 5040.00    1.17630   1.19817  109.274
 5041.00    1.16105   1.19042   -1.000
 5042.00    1.17329   1.19697   97.365
 5043.00    1.20704   1.21612   93.536
 5044.00    1.23491   1.23970   91.561
 5045.00    1.30874   1.25960   -1.000
 5046.00    0.71918   1.27070   -1.000
 5047.00   -0.02069   1.27081    0.000
 5048.00    0.56992   1.26113   -1.000
 5049.00    1.27541   1.24637   96.534
 5050.00    1.21319   1.23295   98.239
 5051.00    1.22131   1.22645   95.954
 5052.00    1.23126   1.23018   93.545
 5053.00    1.25326   1.24307   91.897
 5054.00    1.26996   1.25906   91.074
 5055.00    1.27195   1.27158   90.819
 5056.00    1.27852   1.27844   91.002
 5057.00    1.27223   1.28146   91.163
 5058.00    1.26489   1.28305   91.094
 5059.00    1.26851   1.28446   90.479
 5060.00    1.26766   1.28570   90.604
 5061.00    1.27336   1.28556   91.932
 5062.00    1.27423   1.28182   94.702
 5063.00    1.26400   1.27313   98.015
 5064.00    1.24702   1.26163   98.955
 5065.00    1.23554   1.25229   97.654
 5066.00    1.24602   1.24845   96.213
 5067.00    1.24615   1.24899   95.944
 5068.00    1.24849   1.25108   95.473
 5069.00    1.25462   1.25337   94.897
 5070.00    1.26638   1.25532   95.722
 5071.00    1.27006   1.25576   96.390
 5072.00    1.26737   1.25421   95.146
 5073.00    1.25674   1.25205   94.447
 5074.00    1.26074   1.25084   94.347
 5075.00    1.26579   1.25042   94.319
 5076.00    1.26241   1.24877   95.387
 5077.00    1.25689   1.24325   98.879
 5078.00    1.23891   1.23313  103.497
 5079.00    1.21413   1.22203  104.386
 5080.00    1.21004   1.21591  102.051
 5081.00    1.22147   1.21715   99.909
 5082.00    1.22908   1.22301   98.571
 5083.00    1.23940   1.23069   96.691
 5084.00    1.24769   1.23995   95.086
 5085.00    1.26397   1.25009   94.472
 5086.00    1.27060   1.25844   94.346
 5087.00    1.27604   1.26334   93.845
 5088.00    1.28016   1.26598   93.165
 5089.00    1.27754   1.26839   92.659
 5090.00    1.27801   1.27130   92.150
 5091.00    1.27789   1.27469   91.072
 5092.00    1.28325   1.27862   90.345
 5093.00    1.28941   1.28219   91.293
 5094.00    1.29086   1.28319   93.255
 5095.00    1.28664   1.27944   95.287
 5096.00    1.27517   1.27073   97.597
 5097.00    1.26621   1.25938   99.543
 5098.00    1.25232   1.24961   99.642
 5099.00    1.24250   1.24602   97.054
 5100.00    1.25387   1.25036   94.320
 5101.00    1.26330   1.25938   93.646
 5102.00    1.27827   1.26745   94.290
 5103.00    1.28240   1.27098   95.564
 5104.00    1.27345   1.26939   96.769
 5105.00    1.26532   1.26312   97.955
 5106.00    1.25026   1.25321   99.115
 5107.00    1.23758   1.24287   98.877
 5108.00    1.23492   1.23641   98.218
 5109.00    1.23905   1.23595   97.471
 5110.00    1.23499   1.24122   96.047
 5111.00    1.24898   1.25086   94.880
 5112.00    1.27180   1.26235   93.740
 5113.00    1.28217   1.27256   92.925
 5114.00    1.28253   1.27975   92.415
 5115.00    1.29176   1.28447   91.427
 5116.00    1.29428   1.28807   90.728
 5117.00    1.30166   1.29082   91.094
 5118.00    1.30287   1.29164   92.341
 5119.00    1.30085   1.28933   93.749
 5120.00    1.29100   1.28344   95.353
 5121.00    1.29000   1.27430   97.879
 5122.00    1.26890   1.26315  100.732
 5123.00    1.25464   1.25262  101.235
 5124.00    1.24007   1.24577  100.286
 5125.00    1.24406   1.24352   99.810
 5126.00    1.24944   1.24367   99.250
 5127.00    1.24488   1.24358   99.415
 5128.00    1.24247   1.24311   99.242
 5129.00    1.25045   1.24419   97.866
 5130.00    1.26203   1.24821   96.228
 5131.00    1.26934   1.25447   95.479
 5132.00    1.27014   1.26103   94.564
 5133.00    1.26950   1.26643   93.769
 5134.00    1.27478   1.26978   93.668
 5135.00    1.27566   1.26984   95.487
 5136.00    1.26877   1.26528   97.799
 5137.00    1.25886   1.25644   99.235
 5138.00    1.24278   1.24655   99.241
 5139.00    1.23573   1.24012   98.398
 5140.00    1.24006   1.23905   99.264
 5141.00    1.23610   1.24139  100.795
 5142.00    1.23595   1.24455  100.031
 5143.00    1.24218   1.24842   98.372
 5144.00    1.25630   1.25350   98.174
 5145.00    1.26247   1.25806   99.115
 5146.00    1.26465   1.25999   99.233
 5147.00    1.26804   1.25963   97.982
 5148.00    1.26726   1.25824   97.574
 5149.00    1.26611   1.25546   98.909
 5150.00    1.25600   1.25037  100.677
 5151.00    1.24531   1.24417  101.207
 5152.00    1.23839   1.24017  100.544
 5153.00    1.24203   1.24088   98.510
 5154.00    1.25778   1.24663   95.974
 5155.00    1.27692   1.25648   93.575
 5156.00    1.28668   1.26840   91.922
 5157.00    1.30065   1.27925   91.337
 5158.00    1.30061   1.28647   91.375
 5159.00    1.29979   1.28933   91.711
 5160.00    1.29464   1.28829   92.283
 5161.00    1.29578   1.28420   93.378
 5162.00    1.29118   1.27766   94.984
 5163.00    1.28681   1.26705   98.992
 5164.00    1.27607   1.24722  107.566
 5165.00    1.24585   1.21330  118.733
 5166.00    1.18393   1.16911  125.790
 5167.00    1.13239   1.13013  122.384
 5168.00    1.12458   1.11248  115.470
 5169.00    1.15587   1.11688   -1.000
 5170.00    1.18310   1.12723   -1.000
 5171.00    1.17774   1.12875   -1.000
 5172.00    1.14847   1.12558  123.442
 5173.00    1.15118   1.13514  109.882
 5174.00    1.20133   1.16596   -1.000
 5175.00    1.25526   1.20751   -1.000
 5176.00    1.29319   1.24255   -1.000
 5177.00    1.30782   1.26299   -1.000
 5178.00    1.30549   1.27060   98.087
 5179.00    1.30164   1.26789  101.903
 5180.00    1.29795   1.25308   -1.000
 5181.00    1.28120   1.22333   -1.000
 5182.00    1.22938   1.18343   -1.000
 5183.00    1.16867   1.14987  123.314
 5184.00    1.15255   1.14153  109.329
 5185.00    1.19630   1.16266  100.482
 5186.00    1.24527   1.19759   -1.000
 5187.00    1.26623   1.22623   -1.000
 5188.00    1.27316   1.24045   96.766
 5189.00    1.27231   1.24311   98.033
 5190.00    1.26450   1.23857  101.249
 5191.00    1.25176   1.22995  103.764
 5192.00    1.23706   1.22183  102.703
 5193.00    1.23020   1.21927  100.901
 5194.00    1.23919   1.22327   99.426
 5195.00    1.24600   1.23084   97.933
 5196.00    1.26421   1.23930   95.951
 5197.00    1.26735   1.24795   94.401
 5198.00    1.27278   1.25651   93.724
 5199.00    1.27925   1.26377   93.731
 5200.00    1.29165   1.26760   94.607
 5201.00    1.29464   1.26564   96.414
 5202.00    1.28446   1.25641   98.710
 5203.00    1.26296   1.24063  101.872
 5204.00    1.24798   1.22214  104.797
 5205.00    1.23431   1.20679  105.027
 5206.00    1.23101   1.19858  105.611
 5207.00    1.23214   1.19697  106.088
 5208.00    1.23857   1.19972   -1.000
 5209.00    1.23565   1.20747  100.686
 5210.00    1.25418   1.22236   96.599
 5211.00    1.28391   1.24238   -1.000
 5212.00    1.29865   1.26070   91.362
 5213.00    1.31562   1.27055   -1.000
 5214.00    1.31154   1.26989   -1.000
 5215.00    1.29047   1.26285   95.753
 5216.00    1.27443   1.25725   94.744
 5217.00    1.27828   1.25919   92.669
 5218.00    1.29533   1.26887   91.357
 5219.00    1.30990   1.28147   90.720
 5220.00    1.32101   1.29176   90.494
 5221.00    1.32797   1.29681   91.885
 5222.00    1.32697   1.29501   94.874
 5223.00    1.32044   1.28456   -1.000
 5224.00    1.29862   1.26445  103.434
 5225.00    1.25651   1.23803  105.765
 5226.00    1.22119   1.21522  102.910
 5227.00    1.21162   1.20785   97.095
 5228.00    1.24113   1.21952   93.399
 5229.00    1.28232   1.24120   -1.000
 5230.00    1.30908   1.25871   -1.000
 5231.00    1.30836   1.26371   -1.000
 5232.00    1.28438   1.25817   95.572
 5233.00    1.27827   1.25086   95.077
 5234.00    1.27791   1.25044   92.770
 5235.00    1.29016   1.25950   90.649
 5236.00    1.30305   1.27378   89.778
 5237.00    1.32038   1.28677   89.782
 5238.00    1.32647   1.29465   90.052
 5239.00    1.32829   1.29770   89.831
 5240.00    1.32400   1.29815   89.332
 5241.00    1.32939   1.29777   89.487
 5242.00    1.32062   1.29757   89.283
 5243.00    1.32551   1.29789   89.306
 5244.00    1.33182   1.29766   91.314
 5245.00    1.32525   1.29453   94.187
 5246.00    1.31212   1.28727   96.162
 5247.00    1.30352   1.27810   96.277
 5248.00    1.29546   1.27065   96.496
 5249.00    1.28780   1.26644   97.054
 5250.00    1.28456   1.26504   96.443
 5251.00    1.28331   1.26614   95.082
 5252.00    1.29273   1.26908   94.251
 5253.00    1.29901   1.27234   94.266
 5254.00    1.30043   1.27541   93.404
 5255.00    1.30512   1.27979   91.090
 5256.00    1.31500   1.28698   88.755
 5257.00    1.32668   1.29558   88.218
 5258.00    1.33305   1.30132   89.283
 5259.00    1.32984   1.29995   91.956
 5260.00    1.32362   1.28964   -1.000
 5261.00    1.30208   1.27177  100.500
 5262.00    1.27239   1.25038  103.770
 5263.00    1.25456   1.23032  105.655
 5264.00    1.23735   1.21551  105.633
 5265.00    1.22836   1.20793  103.654
 5266.00    1.23860   1.20591  102.170
 5267.00    1.25072   1.20363   -1.000
 5268.00    1.24259   1.19567   -1.000
 5269.00    1.21650   1.18504  106.005
 5270.00    1.21049   1.18313   99.542
 5271.00    1.23615   1.19732   -1.000
 5272.00    1.27470   1.22151   -1.000
 5273.00    1.28989   1.24271   -1.000
 5274.00    1.29137   1.25471   -1.000
 5275.00    1.29101   1.26149   92.634
 5276.00    1.30188   1.26972   89.508
 5277.00    1.31628   1.28134   88.139
 5278.00    1.34104   1.29220   -1.000
 5279.00    1.33923   1.29640   -1.000
 5280.00    1.32999   1.29168   -1.000
 5281.00    1.31613   1.28100   -1.000
 5282.00    1.29928   1.27021   95.257
 5283.00    1.29092   1.26535   93.080
 5284.00    1.29416   1.27021   90.162
 5285.00    1.32102   1.28380   -1.000
 5286.00    1.33408   1.30033   -1.000
 5287.00    1.35269   1.31344   -1.000
 5288.00    1.35067   1.32070   87.496
 5289.00    1.35019   1.32330   86.982
 5290.00    1.34940   1.32308   86.887
 5291.00    1.34902   1.32143   87.475
 5292.00    1.34492   1.31933   88.355
 5293.00    1.34801   1.31665   89.668
 5294.00    1.34514   1.31167   -1.000
 5295.00    1.33253   1.30255   95.815
 5296.00    1.31555   1.28993   97.999
 5297.00    1.29713   1.27805   96.989
 5298.00    1.29339   1.27211   94.474
 5299.00    1.30886   1.27398   -1.000
 5300.00    1.31788   1.28083   -1.000
 5301.00    1.31201   1.28874   90.990
 5302.00    1.32005   1.29636   88.522
 5303.00    1.32607   1.30400   87.089
 5304.00    1.33206   1.31079   87.060
 5305.00    1.34502   1.31467   87.972
 5306.00    1.34078   1.31500   88.593
 5307.00    1.33701   1.31383   87.887
 5308.00    1.34205   1.31407   86.980
 5309.00    1.34959   1.31669   -1.000
 5310.00    1.35470   1.32007   -1.000
 5311.00    1.35361   1.32186   87.187
 5312.00    1.35713   1.32096   -1.000
 5313.00    1.35589   1.31721   -1.000
 5314.00    1.34496   1.31070   -1.000
 5315.00    1.33706   1.30264   -1.000
 5316.00    1.32336   1.29611   89.753
 5317.00    1.32472   1.29455   89.069
 5318.00    1.33541   1.29864   -1.000
 5319.00    1.34016   1.30513   -1.000
 5320.00    1.33606   1.30916   89.880
 5321.00    1.34234   1.30746   -1.000
 5322.00    1.33631   1.29976   -1.000
 5323.00    1.32168   1.28872   -1.000
 5324.00    1.31091   1.27751   -1.000
 5325.00    1.30763   1.26580   -1.000
 5326.00    1.30043   1.25010   -1.000
 5327.00    1.26564   1.23118   -1.000
 5328.00    1.23688   1.21873  100.218
 5329.00    1.24907   1.22351   94.390
 5330.00    1.29217   1.24478   -1.000
 5331.00    1.32416   1.27011   -1.000
 5332.00    1.33036   1.28824   -1.000
 5333.00    1.33479   1.29725   -1.000
 5334.00    1.34295   1.30044   -1.000
 5335.00    1.34204   1.30058   -1.000
 5336.00    1.33692   1.29866   -1.000
 5337.00    1.33217   1.29477   -1.000
 5338.00    1.32702   1.28860   -1.000
 5339.00    1.31854   1.28089   -1.000
 5340.00    1.30586   1.27500   93.727
 5341.00    1.30855   1.27540   -1.000
 5342.00    1.32263   1.28268   -1.000
 5343.00    1.33599   1.29193   -1.000
 5344.00    1.34309   1.29744   -1.000
 5345.00    1.33769   1.29745   -1.000
 5346.00    1.33151   1.29395   -1.000
 5347.00    1.33565   1.28981   -1.000
 5348.00    1.33342   1.28714   -1.000
 5349.00    1.32315   1.28765   -1.000
 5350.00    1.33065   1.29238   -1.000
 5351.00    1.34630   1.30021   -1.000
 5352.00    1.35056   1.30831   -1.000
 5353.00    1.35517   1.31475   -1.000
 5354.00    1.36008   1.31984   -1.000
 5355.00    1.35943   1.32454   -1.000
 5356.00    1.36889   1.32874   -1.000
 5357.00    1.37085   1.33148   -1.000
 5358.00    1.36497   1.33211   -1.000
 5359.00    1.36483   1.33042   -1.000
 5360.00    1.36124   1.32634   -1.000
 5361.00    1.34909   1.32014   89.585
 5362.00    1.33838   1.31267   90.152
 5363.00    1.33618   1.30525   90.673
 5364.00    1.33130   1.29943   -1.000
 5365.00    1.32358   1.29634   90.815
 5366.00    1.32647   1.29546   -1.000
 5367.00    1.33596   1.29391   -1.000
 5368.00    1.33136   1.28790   -1.000
 5369.00    1.31757   1.27617   -1.000
 5370.00    1.30162   1.26283   -1.000
 5371.00    1.28843   1.25605   -1.000
 5372.00    1.29779   1.26201   -1.000
 5373.00    1.32863   1.27893   -1.000
 5374.00    1.35795   1.29838   -1.000
 5375.00    1.36865   1.31273   -1.000
 5376.00    1.36597   1.32010   -1.000
 5377.00    1.36790   1.32278   -1.000
 5378.00    1.37214   1.32286   -1.000
 5379.00    1.36157   1.32059   -1.000
 5380.00    1.34753   1.31605   -1.000
 5381.00    1.34249   1.31060   -1.000
 5382.00    1.34197   1.30647   -1.000
 5383.00    1.34449   1.30552   -1.000
 5384.00    1.35059   1.30838   -1.000
 5385.00    1.35821   1.31399   -1.000
 5386.00    1.35968   1.31974   -1.000
 5387.00    1.36444   1.32271   -1.000
 5388.00    1.36224   1.32139   -1.000
 5389.00    1.35525   1.31631   -1.000
 5390.00    1.35092   1.30941   -1.000
 5391.00    1.34893   1.30272   -1.000
 5392.00    1.34699   1.29729   -1.000
 5393.00    1.33922   1.29278   -1.000
 5394.00    1.33211   1.28755   -1.000
 5395.00    1.32624   1.27988   -1.000
 5396.00    1.31713   1.27107   -1.000
 5397.00    1.30830   1.26645   -1.000
 5398.00    1.31717   1.27058   -1.000
 5399.00    1.33696   1.28182   -1.000
 5400.00    1.34916   1.29342   -1.000
 5401.00    1.35405   1.29895   -1.000
 5402.00    1.34593   1.29527   -1.000
 5403.00    1.32592   1.28292   -1.000
 5404.00    1.30813   1.26674   -1.000
 5405.00    1.29112   1.25491   -1.000
 5406.00    1.29638   1.25349   -1.000
 5407.00    1.32224   1.26080   -1.000
 5408.00    1.33069   1.26953   -1.000
 5409.00    1.32211   1.27490   -1.000
 5410.00    1.32063   1.27896   -1.000
 5411.00    1.33041   1.28565   -1.000
 5412.00    1.34034   1.29439   -1.000
 5413.00    1.34327   1.30124   -1.000
 5414.00    1.34451   1.30453   -1.000
 5415.00    1.34433   1.30642   -1.000
 5416.00    1.34510   1.30935   -1.000
 5417.00    1.34658   1.31322   -1.000
 5418.00    1.34866   1.31634   -1.000
 5419.00    1.34779   1.31774   -1.000
 5420.00    1.35013   1.31742   -1.000
 5421.00    1.35823   1.31532   -1.000
 5422.00    1.35484   1.31146   -1.000
 5423.00    1.34442   1.30702   -1.000
 5424.00    1.33493   1.30469   -1.000
 5425.00    1.33380   1.30642   88.632
 5426.00    1.34888   1.31009   -1.000
 5427.00    1.35690   1.31006   -1.000
 5428.00    1.34148   1.30319   -1.000
 5429.00    1.31582   1.29334   94.357
 5430.00    1.30790   1.28736   92.732
 5431.00    1.32313   1.28694   -1.000
 5432.00    1.33872   1.28739   -1.000
 5433.00    1.33233   1.28466   -1.000
 5434.00    1.31600   1.28112   -1.000
 5435.00    1.31203   1.28278   92.519
 5436.00    1.32404   1.29223   -1.000
 5437.00    1.34806   1.30624   -1.000
 5438.00    1.36699   1.31951   -1.000
 5439.00    1.37348   1.32892   -1.000
 5440.00    1.37381   1.33440   -1.000
 5441.00    1.37568   1.33686   -1.000
 5442.00    1.37282   1.33588   -1.000
 5443.00    1.36523   1.32937   -1.000
 5444.00    1.34914   1.31566   -1.000
 5445.00    1.32340   1.29699   96.663
 5446.00    1.29716   1.28072   95.296
 5447.00    1.29515   1.27515   92.095
 5448.00    1.31723   1.28265   -1.000
 5449.00    1.34562   1.29765   -1.000
 5450.00    1.36160   1.31144   -1.000
 5451.00    1.36732   1.31800   -1.000
 5452.00    1.35919   1.31556   -1.000
 5453.00    1.35062   1.30525   -1.000
 5454.00    1.33589   1.29112   -1.000
 5455.00    1.30866   1.28064   94.862
 5456.00    1.30510   1.28106   91.516
 5457.00    1.33621   1.29305   -1.000
 5458.00    1.36118   1.30947   -1.000
 5459.00    1.37139   1.32150   -1.000
 5460.00    1.37547   1.32504   -1.000
 5461.00    1.36245   1.32151   -1.000
 5462.00    1.35313   1.31512   -1.000
 5463.00    1.34820   1.31055   -1.000
 5464.00    1.35567   1.31053   -1.000
 5465.00    1.36453   1.31445   -1.000
 5466.00    1.36694   1.31967   -1.000
 5467.00    1.36814   1.32412   -1.000
 5468.00    1.36859   1.32715   -1.000
 5469.00    1.37326   1.32859   -1.000
 5470.00    1.37570   1.32803   -1.000
 5471.00    1.36783   1.32530   -1.000
 5472.00    1.36397   1.32073   -1.000
 5473.00    1.36163   1.31422   -1.000
 5474.00    1.35408   1.30516   -1.000
 5475.00    1.33877   1.29433   -1.000
 5476.00    1.32255   1.28573   -1.000
 5477.00    1.32257   1.28458   -1.000
 5478.00    1.33560   1.29192   -1.000
 5479.00    1.35076   1.30246   -1.000
 5480.00    1.36127   1.30988   -1.000
 5481.00    1.36156   1.31268   -1.000
 5482.00    1.35337   1.31408   -1.000
 5483.00    1.35443   1.31731   -1.000
 5484.00    1.36234   1.32229   -1.000
 5485.00    1.35884   1.32632   -1.000
 5486.00    1.36082   1.32717   -1.000
 5487.00    1.36246   1.32510   -1.000
 5488.00    1.36172   1.32224   -1.000
 5489.00    1.36276   1.32074   -1.000
 5490.00    1.36311   1.32144   -1.000
 5491.00    1.36650   1.32365   -1.000
 5492.00    1.37073   1.32581   -1.000
 5493.00    1.37025   1.32646   -1.000
 5494.00    1.36707   1.32464   -1.000
 5495.00    1.36867   1.32016   -1.000
 5496.00    1.36412   1.31422   -1.000
 5497.00    1.35048   1.30946   -1.000
 5498.00    1.34812   1.30781   -1.000
 5499.00    1.35299   1.30795   -1.000
 5500.00    1.35295   1.30696   -1.000
 5501.00    1.34761   1.30447   -1.000
 5502.00    1.34787   1.30298   -1.000
 5503.00    1.35553   1.30368   -1.000
 5504.00    1.35753   1.30414   -1.000
 5505.00    1.35135   1.30189   -1.000
 5506.00    1.33820   1.29859   -1.000
 5507.00    1.33866   1.29849   -1.000
 5508.00    1.34929   1.30314   -1.000
 5509.00    1.36054   1.30925   -1.000
 5510.00    1.36757   1.31215   -1.000
 5511.00    1.36471   1.31031   -1.000
 5512.00    1.35197   1.30602   -1.000
 5513.00    1.34502   1.30278   -1.000
 5514.00    1.34955   1.30297   -1.000
 5515.00    1.35934   1.30710   -1.000
 5516.00    1.37064   1.31414   -1.000
 5517.00    1.38100   1.32215   -1.000
 5518.00    1.38299   1.32898   -1.000
 5519.00    1.38608   1.33319   -1.000
 5520.00    1.38648   1.33477   -1.000
 5521.00    1.38207   1.33495   -1.000
 5522.00    1.37727   1.33471   -1.000
 5523.00    1.37191   1.33333   -1.000
 5524.00    1.37151   1.32866   -1.000
 5525.00    1.36688   1.31901   -1.000
 5526.00    1.34603   1.30558   -1.000
 5527.00    1.31834   1.29334   96.001
 5528.00    1.31691   1.28850   93.624
 5529.00    1.33495   1.29383   -1.000
 5530.00    1.35733   1.30577   -1.000
 5531.00    1.37259   1.31690   -1.000
 5532.00    1.36996   1.32185   -1.000
 5533.00    1.36247   1.32078   -1.000
 5534.00    1.36112   1.31790   -1.000
 5535.00    1.35538   1.31745   -1.000
 5536.00    1.36435   1.32064   -1.000
 5537.00    1.37097   1.32583   -1.000
 5538.00    1.37119   1.33090   -1.000
 5539.00    1.38055   1.33472   -1.000
 5540.00    1.38345   1.33692   -1.000
 5541.00    1.38113   1.33724   -1.000
 5542.00    1.38196   1.33574   -1.000
 5543.00    1.36961   1.33339   -1.000
 5544.00    1.36915   1.33169   -1.000
 5545.00    1.37498   1.33156   -1.000
 5546.00    1.38150   1.33303   -1.000
 5547.00    1.38681   1.33591   -1.000
 5548.00    1.38735   1.33968   -1.000
 5549.00    1.39150   1.34308   -1.000
 5550.00    1.39014   1.34473   -1.000
 5551.00    1.38691   1.34423   -1.000
 5552.00    1.38471   1.34241   -1.000
 5553.00    1.38012   1.34039   -1.000
 5554.00    1.37962   1.33892   -1.000
 5555.00    1.37908   1.33828   -1.000
 5556.00    1.38389   1.33841   -1.000
 5557.00    1.38054   1.33909   -1.000
 5558.00    1.38104   1.33999   -1.000
 5559.00    1.38917   1.34065   -1.000
 5560.00    1.38945   1.34042   -1.000
 5561.00    1.38363   1.33884   -1.000
 5562.00    1.37877   1.33627   -1.000
 5563.00    1.38148   1.33375   -1.000
 5564.00    1.37845   1.33187   -1.000
 5565.00    1.37123   1.33028   -1.000
 5566.00    1.36814   1.32832   -1.000
 5567.00    1.36526   1.32593   -1.000
 5568.00    1.36395   1.32349   -1.000
 5569.00    1.35972   1.32136   -1.000
 5570.00    1.35746   1.31931   -1.000
 5571.00    1.34772   1.31703   -1.000
 5572.00    1.30774   1.31538   92.142
 5573.00    1.17751   1.31589   -1.000
 5574.00    0.79789   1.31897   -1.000
 5575.00    0.58567   1.32343   -1.000
 5576.00    1.05687   1.32796   -1.000
 5577.00    1.68987   1.33203   -1.000
 5578.00    2.21492   1.33545   -1.000
 5579.00    1.88860   1.33773   -1.000
 5580.00    1.54752   1.33830   -1.000
 5581.00    1.40485   1.33755   -1.000
 5582.00    1.38433   1.33637   -1.000
 5583.00    1.38080   1.33440   -1.000
 5584.00    1.37945   1.32932   -1.000
 5585.00    1.36668   1.31920   -1.000
 5586.00    1.34564   1.30547   -1.000
 5587.00    1.32878   1.29299   -1.000
 5588.00    1.31969   1.28670   -1.000
 5589.00    1.32099   1.28844   -1.000
 5590.00    1.33588   1.29605   -1.000
 5591.00    1.35418   1.30507   -1.000
 5592.00    1.36220   1.31162   -1.000
 5593.00    1.35286   1.31499   -1.000
 5594.00    1.35165   1.31727   -1.000
 5595.00    1.35902   1.31989   -1.000
 5596.00    1.36808   1.32140   -1.000
 5597.00    1.36672   1.31972   -1.000
 5598.00    1.35667   1.31530   -1.000
 5599.00    1.35824   1.31019   -1.000
 5600.00    1.35686   1.30576   -1.000
 5601.00    1.35436   1.30328   -1.000
 5602.00    1.34901   1.30504   -1.000
 5603.00    1.34506   1.31263   -1.000
 5604.00    1.36095   1.32458   -1.000
 5605.00    1.38540   1.33699   -1.000
 5606.00    1.39659   1.34642   -1.000
 5607.00    1.40026   1.35188   -1.000
 5608.00    1.39881   1.35448   -1.000
 5609.00    1.39766   1.35576   -1.000
 5610.00    1.40192   1.35617   -1.000
 5611.00    1.40204   1.35442   -1.000
 5612.00    1.39686   1.34829   -1.000
 5613.00    1.38528   1.33688   -1.000
 5614.00    1.36613   1.32318   -1.000
 5615.00    1.34524   1.31359   -1.000
 5616.00    1.34066   1.31303   93.027
 5617.00    1.36154   1.32044   -1.000
 5618.00    1.38259   1.33024   -1.000
 5619.00    1.39088   1.33765   -1.000
 5620.00    1.39286   1.34146   -1.000
 5621.00    1.39303   1.34236   -1.000
 5622.00    1.39278   1.34084   -1.000
 5623.00    1.38089   1.33743   -1.000
 5624.00    1.36743   1.33396   -1.000
 5625.00    1.37409   1.33282   -1.000
 5626.00    1.38056   1.33489   -1.000
 5627.00    1.38864   1.33896   -1.000
 5628.00    1.39542   1.34317   -1.000
 5629.00    1.40054   1.34644   -1.000
 5630.00    1.40021   1.34849   -1.000
 5631.00    1.39837   1.34930   -1.000
 5632.00    1.39631   1.34905   -1.000
 5633.00    1.39836   1.34807   -1.000
 5634.00    1.39481   1.34643   -1.000
 5635.00    1.39387   1.34403   -1.000
 5636.00    1.39607   1.34108   -1.000
 5637.00    1.39269   1.33838   -1.000
 5638.00    1.38840   1.33644   -1.000
 5639.00    1.38327   1.33503   -1.000
 5640.00    1.38013   1.33385   -1.000
 5641.00    1.38271   1.33334   -1.000
 5642.00    1.38213   1.33414   -1.000
 5643.00    1.38708   1.33605   -1.000
 5644.00    1.39476   1.33807   -1.000
 5645.00    1.39834   1.33944   -1.000
 5646.00    1.40200   1.34013   -1.000
 5647.00    1.40636   1.34054   -1.000
 5648.00    1.40544   1.34096   -1.000
 5649.00    1.39694   1.34159   -1.000
 5650.00    1.39614   1.34258   -1.000
 5651.00    1.39616   1.34381   -1.000
 5652.00    1.39487   1.34471   -1.000
 5653.00    1.39432   1.34434   -1.000
 5654.00    1.39467   1.34140   -1.000
 5655.00    1.39065   1.33447   -1.000
 5656.00    1.37691   1.32357   -1.000
 5657.00    1.35701   1.31205   -1.000
 5658.00    1.34274   1.30522   -1.000
 5659.00    1.35128   1.30585   -1.000
 5660.00    1.36784   1.31156   -1.000
 5661.00    1.37470   1.31810   -1.000
 5662.00    1.37935   1.32395   -1.000
 5663.00    1.38102   1.33002   -1.000
 5664.00    1.38635   1.33580   -1.000
 5665.00    1.39368   1.33864   -1.000
 5666.00    1.39093   1.33713   -1.000
 5667.00    1.38446   1.33333   -1.000
 5668.00    1.38503   1.33072   -1.000
 5669.00    1.38775   1.33123   -1.000
 5670.00    1.39072   1.33437   -1.000
 5671.00    1.39349   1.33862   -1.000
 5672.00    1.39904   1.34259   -1.000
 5673.00    1.40248   1.34550   -1.000
 5674.00    1.40123   1.34726   -1.000
 5675.00    1.40235   1.34830   -1.000
 5676.00    1.40292   1.34906   -1.000
 5677.00    1.40036   1.34943   -1.000
 5678.00    1.39944   1.34882   -1.000
 5679.00    1.39749   1.34658   -1.000
 5680.00    1.39767   1.34242   -1.000
 5681.00    1.40214   1.33674   -1.000
 5682.00    1.39396   1.33101   -1.000
 5683.00    1.38494   1.32727   -1.000
 5684.00    1.37743   1.32668   -1.000
 5685.00    1.38352   1.32829   -1.000
 5686.00    1.38015   1.32999   -1.000
 5687.00    1.38148   1.33049   -1.000
 5688.00    1.38414   1.33044   -1.000
 5689.00    1.38500   1.33148   -1.000
 5690.00    1.39295   1.33463   -1.000
 5691.00    1.39765   1.33931   -1.000
 5692.00    1.40217   1.34393   -1.000
 5693.00    1.40566   1.34722   -1.000
 5694.00    1.40314   1.34896   -1.000
 5695.00    1.40498   1.34944   -1.000
 5696.00    1.40293   1.34876   -1.000
 5697.00    1.40050   1.34673   -1.000
 5698.00    1.39412   1.34337   -1.000
 5699.00    1.38605   1.33919   -1.000
 5700.00    1.38291   1.33524   -1.000
 5701.00    1.37432   1.33292   -1.000
 5702.00    1.36844   1.33305   -1.000
 5703.00    1.37072   1.33496   -1.000
 5704.00    1.37570   1.33662   -1.000
 5705.00    1.37683   1.33588   -1.000
 5706.00    1.37280   1.33177   -1.000
 5707.00    1.36816   1.32483   -1.000
 5708.00    1.35861   1.31692   -1.000
 5709.00    1.34621   1.31073   -1.000
 5710.00    1.34135   1.30879   -1.000
 5711.00    1.34862   1.31212   -1.000
 5712.00    1.36471   1.31955   -1.000
 5713.00    1.38108   1.32827   -1.000
 5714.00    1.39375   1.33572   -1.000
 5715.00    1.40090   1.34100   -1.000
 5716.00    1.39856   1.34468   -1.000
 5717.00    1.40085   1.34765   -1.000
 5718.00    1.40049   1.35035   -1.000
 5719.00    1.39794   1.35283   -1.000
 5720.00    1.40924   1.35488   -1.000
 5721.00    1.40378   1.35633   -1.000
 5722.00    1.40080   1.35718   -1.000
 5723.00    1.40636   1.35727   -1.000
 5724.00    1.40718   1.35602   -1.000
 5725.00    1.40276   1.35305   -1.000
 5726.00    1.39511   1.34918   -1.000
 5727.00    1.40038   1.34619   -1.000
 5728.00    1.40388   1.34522   -1.000
 5729.00    1.40318   1.34598   -1.000
 5730.00    1.40884   1.34748   -1.000
 5731.00    1.40607   1.34913   -1.000
 5732.00    1.40134   1.35112   -1.000
 5733.00    1.41038   1.35360   -1.000
 5734.00    1.41435   1.35601   -1.000
 5735.00    1.41142   1.35773   -1.000
 5736.00    1.40863   1.35857   -1.000
 5737.00    1.40173   1.35883   -1.000
 5738.00    1.40901   1.35880   -1.000
 5739.00    1.40818   1.35866   -1.000
 5740.00    1.40388   1.35842   -1.000
 5741.00    1.40248   1.35805   -1.000
 5742.00    1.39756   1.35778   -1.000
 5743.00    1.39743   1.35809   -1.000
 5744.00    1.40144   1.35896   -1.000
 5745.00    1.40865   1.35957   -1.000
 5746.00    1.41138   1.35909   -1.000
 5747.00    1.40501   1.35798   -1.000
 5748.00    1.39785   1.35734   -1.000
 5749.00    1.39813   1.35742   -1.000
 5750.00    1.40041   1.35703   -1.000
 5751.00    1.40068   1.35477   -1.000
 5752.00    1.39652   1.35099   -1.000
 5753.00    1.38857   1.34800   -1.000
 5754.00    1.38282   1.34823   -1.000
 5755.00    1.38937   1.35214   -1.000
 5756.00    1.40395   1.35798   -1.000
 5757.00    1.40811   1.36313   -1.000
 5758.00    1.40932   1.36548   -1.000
 5759.00    1.41153   1.36418   -1.000
 5760.00    1.40672   1.36001   -1.000
 5761.00    1.39808   1.35529   -1.000
 5762.00    1.38976   1.35305   -1.000
 5763.00    1.39566   1.35501   -1.000
 5764.00    1.40235   1.36001   -1.000
 5765.00    1.40825   1.36515   -1.000
 5766.00    1.41047   1.36819   -1.000
 5767.00    1.40401   1.36901   -1.000
 5768.00    1.40513   1.36864   -1.000
 5769.00    1.40566   1.36783   -1.000
 5770.00    1.40046   1.36673   -1.000
 5771.00    1.39594   1.36526   -1.000
 5772.00    1.39909   1.36332   -1.000
 5773.00    1.39218   1.36086   -1.000
 5774.00    1.38547   1.35827   89.563
 5775.00    1.38354   1.35619   89.165
 5776.00    1.37233   1.35481   89.206
 5777.00    1.35671   1.35345   89.742
 5778.00    1.33712   1.35115   91.323
 5779.00    1.32740   1.34756   93.279
 5780.00    1.33552   1.34333   94.081
 5781.00    1.35362   1.33969   93.731
 5782.00    1.37195   1.33772   -1.000
 5783.00    1.39162   1.33766   -1.000
 5784.00    1.39386   1.33903   -1.000
 5785.00    1.38950   1.34118   -1.000
 5786.00    1.39534   1.34374   -1.000
 5787.00    1.39722   1.34657   -1.000
 5788.00    1.40199   1.34928   -1.000
 5789.00    1.40232   1.35133   -1.000
 5790.00    1.40335   1.35267   -1.000
 5791.00    1.40414   1.35410   -1.000
 5792.00    1.39992   1.35667   -1.000
 5793.00    1.39792   1.36046   -1.000
 5794.00    1.39830   1.36422   -1.000
 5795.00    1.39063   1.36625   88.974
 5796.00    1.39428   1.36594   -1.000
 5797.00    1.40282   1.36455   -1.000
 5798.00    1.40676   1.36416   -1.000
 5799.00    1.40957   1.36580   -1.000
 5800.00    1.41182   1.36865   -1.000
 5801.00    1.41394   1.37097   -1.000
 5802.00    1.41387   1.37156   -1.000
 5803.00    1.41440   1.37061   -1.000
 5804.00    1.41144   1.36927   -1.000
 5805.00    1.40913   1.36879   -1.000
 5806.00    1.41297   1.36960   -1.000
 5807.00    1.41058   1.37111   -1.000
 5808.00    1.40915   1.37246   -1.000
 5809.00    1.41526   1.37333   -1.000
 5810.00    1.41932   1.37391   -1.000
 5811.00    1.42132   1.37430   -1.000
 5812.00    1.42380   1.37410   -1.000
 5813.00    1.42437   1.37287   -1.000
 5814.00    1.42679   1.37077   -1.000
 5815.00    1.42833   1.36890   -1.000
 5816.00    1.42381   1.36854   -1.000
 5817.00    1.42617   1.36997   -1.000
 5818.00    1.42766   1.37229   -1.000
 5819.00    1.42946   1.37436   -1.000
 5820.00    1.42822   1.37579   -1.000
 5821.00    1.43240   1.37672   -1.000
 5822.00    1.43646   1.37723   -1.000
 5823.00    1.43128   1.37724   -1.000
 5824.00    1.43254   1.37699   -1.000
 5825.00    1.43377   1.37704   -1.000
 5826.00    1.43673   1.37783   -1.000
 5827.00    1.43432   1.37936   -1.000
 5828.00    1.43115   1.38102   -1.000
 5829.00    1.43215   1.38204   -1.000
 5830.00    1.43706   1.38205   -1.000
 5831.00    1.43445   1.38114   -1.000
 5832.00    1.43620   1.37970   -1.000
 5833.00    1.43052   1.37807   -1.000
 5834.00    1.42959   1.37676   -1.000
 5835.00    1.43668   1.37627   -1.000
 5836.00    1.43422   1.37683   -1.000
 5837.00    1.43283   1.37822   -1.000
 5838.00    1.43225   1.37997   -1.000
 5839.00    1.42438   1.38150   -1.000
 5840.00    1.42506   1.38234   -1.000
 5841.00    1.42655   1.38206   -1.000
 5842.00    1.42646   1.38054   -1.000
 5843.00    1.42933   1.37820   -1.000
 5844.00    1.43216   1.37576   -1.000
 5845.00    1.42865   1.37376   -1.000
 5846.00    1.42919   1.37236   -1.000
 5847.00    1.42284   1.37134   -1.000
 5848.00    1.42612   1.37035   -1.000
 5849.00    1.43182   1.36883   -1.000
 5850.00    1.43190   1.36600   -1.000
 5851.00    1.42880   1.36148   -1.000
 5852.00    1.42019   1.35618   -1.000
 5853.00    1.41145   1.35166   -1.000
 5854.00    1.40811   1.34832   -1.000
 5855.00    1.40925   1.34490   -1.000
 5856.00    1.40624   1.34068   -1.000
 5857.00    1.40266   1.33728   -1.000
 5858.00    1.40231   1.33736   -1.000
 5859.00    1.40963   1.34155   -1.000
 5860.00    1.41594   1.34779   -1.000
 5861.00    1.41795   1.35342   -1.000
 5862.00    1.41883   1.35708   -1.000
 5863.00    1.41672   1.35865   -1.000
 5864.00    1.42064   1.35835   -1.000
 5865.00    1.42057   1.35683   -1.000
 5866.00    1.41637   1.35559   -1.000
 5867.00    1.41994   1.35621   -1.000
 5868.00    1.42528   1.35908   -1.000
 5869.00    1.42981   1.36292   -1.000
 5870.00    1.43809   1.36582   -1.000
 5871.00    1.43407   1.36666   -1.000
 5872.00    1.42695   1.36562   -1.000
 5873.00    1.43161   1.36350   -1.000
 5874.00    1.43604   1.36110   -1.000
 5875.00    1.43437   1.35897   -1.000
 5876.00    1.42559   1.35711   -1.000
 5877.00    1.42516   1.35500   -1.000
 5878.00    1.42606   1.35232   -1.000
 5879.00    1.42743   1.34934   -1.000
 5880.00    1.42120   1.34663   -1.000
 5881.00    1.41422   1.34432   -1.000
 5882.00    1.41550   1.34186   -1.000
 5883.00    1.41265   1.33849   -1.000
 5884.00    1.39626   1.33355   -1.000
 5885.00    1.36422   1.32543   -1.000
 5886.00    1.29932   1.31065   96.901
 5887.00    1.20655   1.28607   -1.000
 5888.00    1.14739   1.25501   -1.000
 5889.00    1.18327   1.22894   -1.000
 5890.00    1.27875   1.21965   -1.000
 5891.00    1.34936   1.22820   -1.000
 5892.00    1.32155   1.24315   -1.000
 5893.00    1.25799   1.25057  102.602
 5894.00    1.21601   1.24615   -1.000
 5895.00    1.24415   1.23821  103.484
 5896.00    1.30248   1.23853   -1.000
 5897.00    1.35515   1.25131   -1.000
 5898.00    1.38233   1.27168   -1.000
 5899.00    1.39267   1.29219   -1.000
 5900.00    1.40009   1.30859   -1.000
 5901.00    1.40442   1.32056   -1.000
 5902.00    1.41388   1.32900   -1.000
 5903.00    1.41583   1.33464   -1.000
 5904.00    1.41522   1.33816   -1.000
 5905.00    1.41502   1.34033   -1.000
 5906.00    1.41307   1.34183   -1.000
 5907.00    1.41582   1.34311   -1.000
 5908.00    1.41383   1.34438   -1.000
 5909.00    1.41078   1.34538   -1.000
 5910.00    1.41058   1.34548   -1.000
 5911.00    1.41457   1.34392   -1.000
 5912.00    1.41270   1.34044   -1.000
 5913.00    1.40213   1.33579   -1.000
 5914.00    1.39578   1.33156   -1.000
 5915.00    1.39924   1.32926   -1.000
 5916.00    1.40381   1.32945   -1.000
 5917.00    1.39915   1.33159   -1.000
 5918.00    1.39567   1.33462   -1.000
 5919.00    1.40080   1.33752   -1.000
 5920.00    1.40335   1.33975   -1.000
 5921.00    1.40037   1.34119   -1.000
 5922.00    1.39774   1.34225   -1.000
 5923.00    1.40240   1.34369   -1.000
 5924.00    1.41307   1.34587   -1.000
 5925.00    1.42097   1.34830   -1.000
 5926.00    1.42260   1.34988   -1.000
 5927.00    1.41948   1.34966   -1.000
 5928.00    1.41272   1.34781   -1.000
 5929.00    1.40287   1.34582   -1.000
 5930.00    1.40314   1.34513   -1.000
 5931.00    1.40806   1.34594   -1.000
 5932.00    1.41360   1.34712   -1.000
 5933.00    1.41292   1.34743   -1.000
 5934.00    1.41135   1.34685   -1.000
 5935.00    1.41529   1.34642   -1.000
 5936.00    1.41246   1.34685   -1.000
 5937.00    1.41485   1.34754   -1.000
 5938.00    1.41251   1.34719   -1.000
 5939.00    1.40221   1.34526   -1.000
 5940.00    1.39758   1.34262   -1.000
 5941.00    1.39733   1.34067   -1.000
 5942.00    1.39567   1.34036   -1.000
 5943.00    1.40050   1.34171   -1.000
 5944.00    1.40928   1.34372   -1.000
 5945.00    1.40698   1.34516   -1.000
 5946.00    1.40135   1.34526   -1.000
 5947.00    1.39727   1.34439   -1.000
 5948.00    1.39663   1.34394   -1.000
 5949.00    1.39549   1.34465   -1.000
 5950.00    1.39994   1.34603   -1.000
 5951.00    1.40849   1.34713   -1.000
 5952.00    1.40948   1.34739   -1.000
 5953.00    1.40344   1.34678   -1.000
 5954.00    1.40106   1.34546   -1.000
 5955.00    1.39963   1.34381   -1.000
 5956.00    1.40115   1.34274   -1.000
 5957.00    1.39594   1.34332   -1.000
 5958.00    1.39942   1.34591   -1.000
 5959.00    1.41050   1.34973   -1.000
 5960.00    1.41263   1.35345   -1.000
 5961.00    1.41852   1.35594   -1.000
 5962.00    1.41897   1.35671   -1.000
 5963.00    1.41675   1.35585   -1.000
 5964.00    1.41189   1.35392   -1.000
 5965.00    1.40360   1.35192   -1.000
 5966.00    1.39538   1.35086   -1.000
 5967.00    1.39550   1.35113   -1.000
 5968.00    1.40072   1.35241   -1.000
 5969.00    1.40487   1.35407   -1.000
 5970.00    1.40618   1.35546   -1.000
 5971.00    1.41156   1.35614   -1.000
 5972.00    1.41098   1.35605   -1.000
 5973.00    1.40958   1.35522   -1.000
 5974.00    1.40496   1.35353   -1.000
 5975.00    1.39664   1.35123   -1.000
 5976.00    1.39316   1.34911   -1.000
 5977.00    1.39836   1.34821   -1.000
 5978.00    1.40551   1.34911   -1.000
 5979.00    1.40533   1.35114   -1.000
 5980.00    1.40548   1.35284   -1.000
 5981.00    1.40456   1.35282   -1.000
 5982.00    1.39800   1.35081   -1.000
 5983.00    1.39789   1.34804   -1.000
 5984.00    1.39665   1.34630   -1.000
 5985.00    1.39088   1.34661   -1.000
 5986.00    1.39217   1.34866   -1.000
 5987.00    1.39510   1.35135   -1.000
 5988.00    1.39803   1.35355   -1.000
 5989.00    1.40072   1.35469   -1.000
 5990.00    1.40436   1.35526   -1.000
 5991.00    1.40077   1.35644   -1.000
 5992.00    1.39516   1.35896   -1.000
 5993.00    1.39982   1.36221   -1.000
 5994.00    1.40882   1.36453   -1.000
 5995.00    1.40595   1.36482   -1.000
 5996.00    1.40419   1.36349   -1.000
 5997.00    1.40638   1.36191   -1.000
 5998.00    1.40315   1.36106   -1.000
 5999.00    1.40288   1.36071   -1.000
 6000.00    1.40461   1.36013   -1.000
 6001.00    1.39865   1.35897   -1.000
 6002.00    1.39349   1.35753   -1.000
 6003.00    1.39851   1.35625   -1.000
 6004.00    1.39550   1.35483   -1.000
 6005.00    1.39160   1.35267   -1.000
 6006.00    1.39115   1.34993   -1.000
 6007.00    1.38412   1.34791   -1.000
 6008.00    1.38304   1.34814   -1.000
 6009.00    1.38629   1.35069   -1.000
 6010.00    1.39335   1.35387   -1.000
 6011.00    1.39896   1.35604   -1.000
 6012.00    1.40057   1.35690   -1.000
 6013.00    1.39974   1.35723   -1.000
 6014.00    1.39394   1.35757   -1.000
 6015.00    1.39485   1.35759   -1.000
 6016.00    1.39653   1.35697   -1.000
 6017.00    1.39728   1.35569   -1.000
 6018.00    1.39795   1.35395   -1.000
 6019.00    1.39415   1.35220   -1.000
 6020.00    1.38965   1.35089   -1.000
 6021.00    1.38655   1.35028   -1.000
 6022.00    1.38404   1.35061   -1.000
 6023.00    1.38882   1.35210   -1.000
 6024.00    1.38402   1.35470   -1.000
 6025.00    1.38242   1.35789   -1.000
 6026.00    1.39258   1.36090   -1.000
 6027.00    1.39641   1.36329   -1.000
 6028.00    1.39821   1.36497   -1.000
 6029.00    1.39908   1.36612   -1.000
 6030.00    1.40139   1.36709   -1.000
 6031.00    1.39639   1.36809   -1.000
 6032.00    1.39754   1.36930   -1.000
 6033.00    1.39389   1.37079   89.664
 6034.00    1.40133   1.37221   -1.000
 6035.00    1.39841   1.37289   -1.000
 6036.00    1.39307   1.37212   89.747
 6037.00    1.39766   1.36984   -1.000
 6038.00    1.40042   1.36672   -1.000
 6039.00    1.40126   1.36385   -1.000
 6040.00    1.40186   1.36214   -1.000
 6041.00    1.39499   1.36150   -1.000
 6042.00    1.39442   1.36192   -1.000
 6043.00    1.39861   1.36392   -1.000
 6044.00    1.39578   1.36729   -1.000
 6045.00    1.39207   1.37099   89.101
 6046.00    1.39496   1.37380   89.004
 6047.00    1.40043   1.37507   -1.000
 6048.00    1.40089   1.37494   -1.000
 6049.00    1.40056   1.37392   -1.000
 6050.00    1.40058   1.37241   -1.000
 6051.00    1.40227   1.37071   -1.000
 6052.00    1.40062   1.36911   -1.000
 6053.00    1.39377   1.36749   -1.000
 6054.00    1.38969   1.36582   -1.000
 6055.00    1.38739   1.36428   91.257
 6056.00    1.38739   1.36318   -1.000
 6057.00    1.39084   1.36272   -1.000
 6058.00    1.39431   1.36299   -1.000
 6059.00    1.39486   1.36367   -1.000
 6060.00    1.38618   1.36379   90.877
 6061.00    1.37166   1.36210   92.455
 6062.00    1.36519   1.35785   92.859
 6063.00    1.30657   1.35202   -1.000
 6064.00    1.25813   1.34713   -1.000
 6065.00    1.31466   1.34585   32.860
 6066.00    1.33396   1.34910  101.432
 6067.00    1.34751   1.35531   90.362
 6068.00    1.36662   1.36186   89.772
 6069.00    1.47750   1.36698   -1.000
 6070.00    1.51347   1.37024   -1.000
 6071.00    1.39918   1.37217   -1.000
 6072.00    1.39937   1.37328   -1.000
 6073.00    1.39776   1.37354   -1.000
 6074.00    1.39541   1.37276   -1.000
 6075.00    1.39467   1.37086   -1.000
 6076.00    1.39418   1.36826   -1.000
 6077.00    1.39391   1.36568   -1.000
 6078.00    1.39048   1.36367   -1.000
 6079.00    1.38217   1.36227   92.120
 6080.00    1.38136   1.36109   92.269
 6081.00    1.38382   1.35987   -1.000
 6082.00    1.38267   1.35887   92.416
 6083.00    1.38123   1.35845   92.338
 6084.00    1.38372   1.35885   -1.000
 6085.00    1.38151   1.36001   91.869
 6086.00    1.38132   1.36166   91.650
 6087.00    1.38624   1.36316   -1.000
 6088.00    1.38918   1.36373   -1.000
 6089.00    1.38736   1.36301   -1.000
 6090.00    1.38357   1.36156   92.534
 6091.00    1.38514   1.36061   -1.000
 6092.00    1.38267   1.36103   91.470
 6093.00    1.38591   1.36290   90.976
 6094.00    1.38996   1.36554   -1.000
 6095.00    1.39477   1.36815   -1.000
 6096.00    1.38877   1.37021   91.050
 6097.00    1.38220   1.37117   91.072
 6098.00    1.38351   1.37014   91.393
 6099.00    1.38350   1.36608   92.944
 6100.00    1.37486   1.35867   95.116
 6101.00    1.36217   1.34964   95.883
 6102.00    1.34584   1.34287   94.631
 6103.00    1.34691   1.34141   92.846
 6104.00    1.35359   1.34541   91.817
 6105.00    1.36603   1.35219   91.802
 6106.00    1.37313   1.35888   92.173
 6107.00    1.37114   1.36409   92.300
 6108.00    1.36807   1.36767   92.188
 6109.00    1.37139   1.36970   91.913
 6110.00    1.37449   1.37030   91.602
 6111.00    1.37664   1.36998   91.488
 6112.00    1.37616   1.36958   91.023
 6113.00    1.37904   1.36958   91.010
 6114.00    1.37728   1.36993   91.493
 6115.00    1.36982   1.37012   91.978
 6116.00    1.37011   1.36944   92.146
 6117.00    1.37067   1.36634   92.900
 6118.00    1.36819   1.35941   94.300
 6119.00    1.36206   1.34953   95.400
 6120.00    1.34964   1.33895   96.031
 6121.00    1.33916   1.33161   95.530
 6122.00    1.33402   1.33099   93.920
 6123.00    1.33798   1.33681   93.118
 6124.00    1.35194   1.34572   93.375
 6125.00    1.36459   1.35362   93.766
 6126.00    1.36725   1.35811   93.545
 6127.00    1.36517   1.35971   93.173
 6128.00    1.36533   1.36082   92.316
 6129.00    1.36793   1.36324   91.644
 6130.00    1.36563   1.36674   91.635
 6131.00    1.36467   1.36952   92.047
 6132.00    1.37080   1.36910   93.352
 6133.00    1.36709   1.36338   95.789
 6134.00    1.35180   1.35177   98.563
 6135.00    1.33277   1.33683  100.329
 6136.00    1.31234   1.32459   99.539
 6137.00    1.30357   1.32005   96.692
 6138.00    1.30872   1.32322   94.460
 6139.00    1.32074   1.32936   93.948
 6140.00    1.33200   1.33437   94.211
 6141.00    1.33170   1.33847   94.012
 6142.00    1.33210   1.34367   92.894
 6143.00    1.34306   1.35036   92.072
 6144.00    1.35509   1.35653   92.206
 6145.00    1.36403   1.35992   92.726
 6146.00    1.36276   1.35997   93.353
 6147.00    1.35587   1.35767   93.997
 6148.00    1.35438   1.35492   94.365
 6149.00    1.35013   1.35336   94.209
 6150.00    1.34525   1.35372   93.737
 6151.00    1.34941   1.35550   93.217
 6152.00    1.35092   1.35742   93.442
 6153.00    1.35238   1.35805   94.230
 6154.00    1.35450   1.35700   94.539
 6155.00    1.35748   1.35478   94.669
 6156.00    1.35581   1.35200   95.293
 6157.00    1.34929   1.34842   96.615
 6158.00    1.34316   1.34238   98.875
 6159.00    1.33126   1.33194  101.954
 6160.00    1.31886   1.31765  104.276
 6161.00    1.30109   1.30389  104.279
 6162.00    1.28731   1.29644  102.076
 6163.00    1.28938   1.29769   99.539
 6164.00    1.30456   1.30512   98.501
 6165.00    1.31206   1.31357   98.382
 6166.00    1.31845   1.31909   99.016
 6167.00    1.31853   1.32037  100.326
 6168.00    1.31207   1.31897  100.744
 6169.00    1.30330   1.31798   99.440
 6170.00    1.30074   1.31992   97.576
 6171.00    1.31001   1.32493   96.741
 6172.00    1.31902   1.33114   96.973
 6173.00    1.31864   1.33673   96.926
 6174.00    1.31973   1.34106   96.674
 6175.00    1.32672   1.34414   96.476
 6176.00    1.32687   1.34627   96.135
 6177.00    1.32402   1.34761   95.677
 6178.00    1.32954   1.34829   95.361
 6179.00    1.33343   1.34878   95.014
 6180.00    1.32953   1.34957   94.619
 6181.00    1.33259   1.35074   94.541
 6182.00    1.33748   1.35196   94.820
 6183.00    1.33659   1.35276   95.298
 6184.00    1.33562   1.35259   96.198
 6185.00    1.33436   1.35087   97.259
 6186.00    1.33596   1.34745   98.228
 6187.00    1.32714   1.34221   99.084
 6188.00    1.31951   1.33503   99.962
 6189.00    1.31641   1.32675  101.136
 6190.00    1.30490   1.31983  101.121
 6191.00    1.29813   1.31760   99.360
 6192.00    1.29795   1.32150   97.036
 6193.00    1.31302   1.32966   95.885
 6194.00    1.32318   1.33838   95.527
 6195.00    1.32742   1.34486   95.667
 6196.00    1.33357   1.34790   96.533
 6197.00    1.32856   1.34777   97.594
 6198.00    1.31810   1.34571   98.056
 6199.00    1.31246   1.34412   97.579
 6200.00    1.30162   1.34457   -1.000
 6201.00    1.30670   1.34719   -1.000
 6202.00    1.31474   1.35077   -1.000
 6203.00    1.32041   1.35395   95.399
 6204.00    1.32492   1.35631   95.266
 6205.00    1.32672   1.35793   95.407
 6206.00    1.33539   1.35896   95.695
 6207.00    1.33901   1.35929   95.774
 6208.00    1.33472   1.35866   96.406
 6209.00    1.33319   1.35683   97.294
 6210.00    1.32903   1.35360   98.092
 6211.00    1.31873   1.34877   99.258
 6212.00    1.31684   1.34278  100.668
 6213.00    1.31270   1.33704  101.366
 6214.00    1.30733   1.33290  101.033
 6215.00    1.30893   1.33068   99.813
 6216.00    1.31068   1.32936   99.863
 6217.00    1.30950   1.32795  100.376
 6218.00    1.30407   1.32643   99.729
 6219.00    1.30643   1.32584   99.417
 6220.00    1.28514   1.32690   -1.000
 6221.00    1.20920   1.32918   -1.000
 6222.00    1.26852   1.33151   -1.000
 6223.00    1.33960   1.33336   98.503
 6224.00    1.32972   1.33467   98.838
 6225.00    1.32703   1.33528   99.016
 6226.00    1.32214   1.33425   99.901
 6227.00    1.31989   1.33022  101.445
 6228.00    1.31448   1.32302  103.028
 6229.00    1.30193   1.31469  103.716
 6230.00    1.28685   1.30893  102.740
 6231.00    1.28275   1.30866  101.021
 6232.00    1.28947   1.31402   99.159
 6233.00    1.30114   1.32225   97.962
 6234.00    1.31166   1.32963   97.994
 6235.00    1.31494   1.33336   98.866
 6236.00    1.31661   1.33312   99.890
 6237.00    1.31420   1.33019  100.919
 6238.00    1.31169   1.32670  101.787
 6239.00    1.30927   1.32406  101.983
 6240.00    1.30477   1.32254  102.167
 6241.00    1.30563   1.32116  102.986
 6242.00    1.30212   1.31880  103.394
 6243.00    1.29653   1.31537  103.055
 6244.00    1.29449   1.31197  102.224
 6245.00    1.28989   1.31060  101.082
 6246.00    1.29038   1.31267   99.845
 6247.00    1.29204   1.31763   99.144
 6248.00    1.29646   1.32299   99.473
 6249.00    1.30366   1.32576  100.796
 6250.00    1.30181   1.32405  102.547
 6251.00    1.28748   1.31877  103.543
 6252.00    1.27142   1.31275   -1.000
 6253.00    1.26690   1.30858   -1.000
 6254.00    1.27120   1.30711   -1.000
 6255.00    1.27333   1.30733   -1.000
 6256.00    1.27097   1.30807   -1.000
 6257.00    1.27018   1.30951   -1.000
 6258.00    1.27581   1.31251   -1.000
 6259.00    1.28607   1.31739  101.841
 6260.00    1.29193   1.32318  100.406
 6261.00    1.29146   1.32866   -1.000
 6262.00    1.29140   1.33264   -1.000
 6263.00    1.29520   1.33487   -1.000
 6264.00    1.29166   1.33577   -1.000
 6265.00    1.28576   1.33635   -1.000
 6266.00    1.28006   1.33711   -1.000
 6267.00    1.28203   1.33758   -1.000
 6268.00    1.28699   1.33728   -1.000
 6269.00    1.28470   1.33612   -1.000
 6270.00    1.28335   1.33455   -1.000
 6271.00    1.28473   1.33250   -1.000
 6272.00    1.28033   1.32904   -1.000
 6273.00    1.26918   1.32317   -1.000
 6274.00    1.25371   1.31478   -1.000
 6275.00    1.23370   1.30528   -1.000
 6276.00    1.20854   1.29658   -1.000
 6277.00    1.19502   1.29067   -1.000
 6278.00    1.18956   1.28823   -1.000
 6279.00    1.18279   1.28943   -1.000
 6280.00    1.17100   1.29406   -1.000
 6281.00    1.16971   1.30164   -1.000
 6282.00    1.18285   1.31097   -1.000
 6283.00    1.20096   1.32035   -1.000
 6284.00    1.21820   1.32799   -1.000
 6285.00    1.23501   1.33315   -1.000
 6286.00    1.25344   1.33579   -1.000
 6287.00    1.26791   1.33626   -1.000
 6288.00    1.27126   1.33490   -1.000
 6289.00    1.26783   1.33256   -1.000
 6290.00    1.26620   1.33011   -1.000
 6291.00    1.26898   1.32823   -1.000
 6292.00    1.27004   1.32666   -1.000
 6293.00    1.25984   1.32488   -1.000
 6294.00    1.24815   1.32227   -1.000
 6295.00    1.22637   1.31890   -1.000
 6296.00    1.17899   1.31556   -1.000
 6297.00    1.11862   1.31319   -1.000
 6298.00    1.06187   1.31232   -1.000
 6299.00    1.07425   1.31231   -1.000
 6300.00    1.15293   1.31270   -1.000
 6301.00    1.22813   1.31405   -1.000
 6302.00    1.25281   1.31701   -1.000
 6303.00    1.26301   1.32147   -1.000
 6304.00    1.26964   1.32630   -1.000
 6305.00    1.27188   1.33043   -1.000
 6306.00    1.27371   1.33366   -1.000
 6307.00    1.27927   1.33611   -1.000
 6308.00    1.27925   1.33803   -1.000
 6309.00    1.27663   1.33934   -1.000
 6310.00    1.27347   1.33974   -1.000
 6311.00    1.27492   1.33902   -1.000
 6312.00    1.27738   1.33724   -1.000
 6313.00    1.26768   1.33471   -1.000
 6314.00    1.25871   1.33198   -1.000
 6315.00    1.26275   1.32953   -1.000
 6316.00    1.26378   1.32747   -1.000
 6317.00    1.25635   1.32644   -1.000
 6318.00    1.25398   1.32746   -1.000
 6319.00    1.25711   1.33055   -1.000
 6320.00    1.26859   1.33476   -1.000
 6321.00    1.27391   1.33892   -1.000
 6322.00    1.27311   1.34264   -1.000
 6323.00    1.27694   1.34604   -1.000
 6324.00    1.28459   1.34892   -1.000
 6325.00    1.28853   1.35080   -1.000
 6326.00    1.28987   1.35152   -1.000
 6327.00    1.28613   1.35141   -1.000
 6328.00    1.28866   1.35118   -1.000
 6329.00    1.29325   1.35134   -1.000
 6330.00    1.29948   1.35191   -1.000
 6331.00    1.29526   1.35213   -1.000
 6332.00    1.29417   1.35065   -1.000
 6333.00    1.30142   1.34684   -1.000
 6334.00    1.28626   1.34143   -1.000
 6335.00    1.26873   1.33712   -1.000
 6336.00    1.26213   1.33603   -1.000
 6337.00    1.27004   1.33848   -1.000
 6338.00    1.28003   1.34301   -1.000
 6339.00    1.28727   1.34755   -1.000
 6340.00    1.29021   1.35061   -1.000
 6341.00    1.29195   1.35167   -1.000
 6342.00    1.29095   1.35078   -1.000
 6343.00    1.28633   1.34887   -1.000
 6344.00    1.28254   1.34726   -1.000
 6345.00    1.28589   1.34695   -1.000
 6346.00    1.28865   1.34848   -1.000
 6347.00    1.28760   1.35152   -1.000
 6348.00    1.29241   1.35537   -1.000
 6349.00    1.29355   1.35877   -1.000
 6350.00    1.29241   1.36062   -1.000
 6351.00    1.29382   1.36041   -1.000
 6352.00    1.29446   1.35846   -1.000
 6353.00    1.28967   1.35560   -1.000
 6354.00    1.28064   1.35287   -1.000
 6355.00    1.27860   1.35062   -1.000
 6356.00    1.27958   1.34866   -1.000
 6357.00    1.27830   1.34649   -1.000
 6358.00    1.26566   1.34438   -1.000
 6359.00    1.25327   1.34271   -1.000
 6360.00    1.24158   1.34154   -1.000
 6361.00    1.22738   1.34092   -1.000
 6362.00    1.22288   1.34107   -1.000
 6363.00    1.23653   1.34243   -1.000
 6364.00    1.26177   1.34485   -1.000
 6365.00    1.28005   1.34774   -1.000
 6366.00    1.28500   1.35027   -1.000
 6367.00    1.28446   1.35187   -1.000
 6368.00    1.28238   1.35199   -1.000
 6369.00    1.28161   1.35097   -1.000
 6370.00    1.27894   1.34976   -1.000
 6371.00    1.28194   1.34961   -1.000
 6372.00    1.28008   1.35108   -1.000
 6373.00    1.27362   1.35339   -1.000
 6374.00    1.27232   1.35531   -1.000
 6375.00    1.27240   1.35613   -1.000
 6376.00    1.26908   1.35568   -1.000
 6377.00    1.26270   1.35431   -1.000
 6378.00    1.26277   1.35238   -1.000
 6379.00    1.26014   1.35031   -1.000
 6380.00    1.25741   1.34859   -1.000
 6381.00    1.25575   1.34768   -1.000
 6382.00    1.25428   1.34768   -1.000
 6383.00    1.25208   1.34844   -1.000
 6384.00    1.24699   1.34959   -1.000
 6385.00    1.24098   1.35092   -1.000
 6386.00    1.23798   1.35203   -1.000
 6387.00    1.23727   1.35257   -1.000
 6388.00    1.23229   1.35214   -1.000
 6389.00    1.22895   1.35023   -1.000
 6390.00    1.22690   1.34645   -1.000
 6391.00    1.21350   1.34132   -1.000
 6392.00    1.19729   1.33668   -1.000
 6393.00    1.18642   1.33510   -1.000
 6394.00    1.18435   1.33726   -1.000
 6395.00    1.18764   1.34132   -1.000
 6396.00    1.18976   1.34401   -1.000
 6397.00    1.18663   1.34293   -1.000
 6398.00    1.16908   1.33889   -1.000
 6399.00    1.15231   1.33501   -1.000
 6400.00    1.14286   1.33493   -1.000
 6401.00    1.14505   1.33933   -1.000
 6402.00    1.15043   1.34610   -1.000
 6403.00    1.14839   1.35192   -1.000
 6404.00    1.14589   1.35447   -1.000
 6405.00    1.14126   1.35330   -1.000
 6406.00    1.13149   1.34998   -1.000
 6407.00    1.12276   1.34647   -1.000
 6408.00    1.11654   1.34464   -1.000
 6409.00    1.10782   1.34449   -1.000
 6410.00    1.09613   1.34490   -1.000
 6411.00    1.08790   1.34535   -1.000
 6412.00    1.08435   1.34583   -1.000
 6413.00    1.08514   1.34672   -1.000
 6414.00    1.07979   1.34780   -1.000
 6415.00    1.07045   1.34877   -1.000
 6416.00    1.06273   1.34878   -1.000
 6417.00    1.05358   1.34730   -1.000
 6418.00    1.04240   1.34412   -1.000
 6419.00    1.02919   1.34038   -1.000
 6420.00    1.01502   1.33842   -1.000
 6421.00    1.00680   1.33997   -1.000
 6422.00    1.00120   1.34494   -1.000
 6423.00    0.99408   1.35148   -1.000
 6424.00    0.99061   1.35729   -1.000
 6425.00    0.98494   1.36092   -1.000
 6426.00    0.97593   1.36162   -1.000
 6427.00    0.96699   1.35905   -1.000
 6428.00    0.95463   1.35361   -1.000
