###################################################################
## OUTPUT of StarlightChains_v04.for    [Cid@UFSC - 01/Apr/2007] ##
###################################################################

## Some input info
NGC6388_a_1.cxt                          [arq_obs]
Base.BC03.S                              [arq_base]
NGC6388_a_1.msk                          [arq_masks]
StCv04.C11.config                        [arq_config]
  150                                    [N_base]
    0                                    [N_YAV_components = # of components with extra extinction!]
    0                                    [i_FitPowerLaw (1/0 = Yes/No)]
-9.99                                    [alpha_PowerLaw]
CCM                                      [red_law_option]
 1.458241                                [q_norm = A(l_norm)/A(V)]

## (Re)Sampling Parameters
 3359.00                                 [l_ini (A)]
 6428.00                                 [l_fin (A)]
    1.00                                 [dl    (A)]     (OBS: dl_cushion =    50.00 A)

## Normalization info
 4020.00                                 [l_norm (A) - for base]
 4010.00                                 [llow_norm (A) - window for f_obs]
 4060.00                                 [lupp_norm (A) - window for f_obs]
4.539934E-14                             [fobs_norm (in input units)]

## S/N
 4730.00                                 [llow_SN (A) - window for S/N]
 4780.00                                 [lupp_SN (A) - window for S/N]
  38.687                                 [S/N in S/N window]
  24.472                                 [S/N in norm. window]
 271.099                                 [S/N_err in S/N window]
 171.489                                 [S/N_err in norm. window]
  1.0000                                 [fscale_chi2]

## etc...
  2147483610                             [idum_orig]
  3069                                   [NOl_eff]
   694                                   [Nl_eff]
  2375    NSIGMA                         [Ntot_cliped & clip_method]
  1988350                                [Nglobal_steps]
   7                                     [N_chains]
  25                                     [NEX0s_base = N_base in EX0s-fits]
 0   0   1      207   2.0   3.750E+02    [Clip-Bug, RC-Crash & Burn-In warning-flags, n_censored_weights, wei_nsig_threshold & wei_limit]
    75     75.585     75.573      0.012  [idt_all, wdt_TotTime, wdt_UsrTime & wdt_SysTime (sec)]

## Synthesis Results - Best model ##

 2.67794E+00                             [chi2/Nl_eff]
     1.14661                             [adev (%)]

   100.57680                             [sum-of-x (%)]
 1.68680E-13                             [Flux_tot (units of input spectrum!)]
 8.23806E-09                             [Mini_tot (???)]
 4.17984E-09                             [Mcor_tot (???)]

 -12.26                                  [v0_min  (km/s)]
  43.78                                  [vd_min  (km/s)]
 0.9729                                  [AV_min  (mag)]
 0.0000                                  [YAV_min (mag)]

# j     x_j(%)      Mini_j(%)     Mcor_j(%)     age_j(yr)     Z_j      (L/M)_j    YAV?  Mstars   component_j        a/Fe...       SSP_chi2r SSP_adev(%)   SSP_AV   SSP_x(%)
  1      0.0000     0.0000E+00    0.0000E+00    1.000000E+06  0.00010  8.160E-03    0   1.0000   age020_m22            0.0000     4.2585E+03    37.5429   4.0000    97.4956
  2      4.4844     1.9184E-03    3.7809E-03    3.160000E+06  0.00010  4.759E-02    0   1.0000   age045_m22            0.0000     4.3072E+02    10.8815   3.0111    97.5850
  3      2.1819     2.2992E-03    4.3420E-03    5.010000E+06  0.00010  1.932E-02    0   0.9582   age055_m22            0.0000     1.1502E+03    19.6364   3.2299    86.2172
  4      0.0000     0.0000E+00    0.0000E+00    6.610000E+06  0.00010  9.973E-03    0   0.9297   age061_m22            0.0000     4.0390E+03    36.4011   4.0000   100.2409
  5      0.0000     0.0000E+00    0.0000E+00    8.710000E+06  0.00010  7.690E-03    0   0.9030   age067_m22            0.0000     3.9438E+03    35.9966   4.0000   100.6398
  6      0.0000     0.0000E+00    0.0000E+00    1.000000E+07  0.00010  6.375E-03    0   0.8902   age070_m22            0.0000     3.9818E+03    36.0125   4.0000   101.0055
  7      0.0000     0.0000E+00    0.0000E+00    1.445000E+07  0.00010  4.874E-03    0   0.8589   age078_m22            0.0000     2.8026E+03    31.1099   4.0000   101.5708
  8      0.0000     0.0000E+00    0.0000E+00    2.512000E+07  0.00010  4.103E-03    0   0.8174   age090_m22            0.0000     1.1077E+03    20.3643   4.0000   100.5340
  9      0.0000     0.0000E+00    0.0000E+00    4.000000E+07  0.00010  3.654E-03    0   0.7830   age104_m22            0.0000     6.4980E+02    13.8697   4.0000    98.2520
 10      0.0000     0.0000E+00    0.0000E+00    5.500000E+07  0.00010  3.093E-03    0   0.7597   age110_m22            0.0000     5.9563E+02    12.3275   4.0000    97.1117
 11      0.0000     0.0000E+00    0.0000E+00    1.015200E+08  0.00010  2.431E-03    0   0.7138   age116_m22            0.0000     6.3710E+02    11.9418   3.6795    99.3336
 12      0.0000     0.0000E+00    0.0000E+00    1.609000E+08  0.00010  1.319E-03    0   0.6775   age120_m22            0.0000     5.8172E+02    11.0953   3.2030   101.6269
 13      0.0000     0.0000E+00    0.0000E+00    2.861200E+08  0.00010  1.075E-03    0   0.6412   age125_m22            0.0000     8.8867E+02    13.5443   3.3194   103.7596
 14      0.0000     0.0000E+00    0.0000E+00    5.088000E+08  0.00010  7.183E-04    0   0.6083   age130_m22            0.0000     9.8767E+02    14.3176   3.0977   105.1777
 15      0.0000     0.0000E+00    0.0000E+00    9.047900E+08  0.00010  4.524E-04    0   0.5785   age135_m22            0.0000     9.8295E+02    14.3019   2.8928   106.4699
 16      0.0000     0.0000E+00    0.0000E+00    1.278050E+09  0.00010  3.018E-04    0   0.5588   age138_m22            0.0000     5.9139E+02    10.7485   2.3341   105.5668
 17      0.0000     0.0000E+00    0.0000E+00    1.434000E+09  0.00010  2.691E-04    0   0.5532   age139_m22            0.0000     5.2150E+02    10.0367   2.1737   105.1572
 18      0.0000     0.0000E+00    0.0000E+00    2.500000E+09  0.00010  1.582E-04    0   0.5296   age150_m22            0.0000     4.9773E+02     9.8718   2.0445   106.3511
 19      0.0000     0.0000E+00    0.0000E+00    4.250000E+09  0.00010  1.007E-04    0   0.5110   age158_m22            0.0000     3.7854E+02     8.4244   1.8818   104.8961
 20      0.0818     2.4246E-02    2.3821E-02    6.250000E+09  0.00010  6.869E-05    0   0.4985   age166_m22            0.0000     3.0224E+02     7.5233   1.8161   102.2865
 21      0.4780     1.6568E-01    1.6102E-01    7.500000E+09  0.00010  5.873E-05    0   0.4931   age171_m22            0.0000     3.0751E+02     7.6513   1.7969   101.9315
 22      0.0000     0.0000E+00    0.0000E+00    1.000000E+10  0.00010  4.481E-05    0   0.4854   age181_m22            0.0000     2.9845E+02     7.5506   1.7590   101.5459
 23      0.0000     0.0000E+00    0.0000E+00    1.300000E+10  0.00010  3.489E-05    0   0.4791   age193_m22            0.0000     2.7999E+02     7.3210   1.7028   100.9729
 24      0.0000     0.0000E+00    0.0000E+00    1.500000E+10  0.00010  3.035E-05    0   0.4766   age201_m22            0.0000     2.7090E+02     7.2204   1.6636   100.7970
 25      0.7523     6.1022E-01    5.6947E-01    1.800000E+10  0.00010  2.510E-05    0   0.4735   age213_m22            0.0000     2.5410E+02     7.0360   1.5941   100.2221
 26      0.0000     0.0000E+00    0.0000E+00    1.000000E+06  0.00040  8.458E-03    0   1.0000   age020_m32            0.0000     4.3374E+03    37.6238   4.0000    98.4433
 27      0.0000     0.0000E+00    0.0000E+00    3.160000E+06  0.00040  3.973E-02    0   1.0000   age045_m32            0.0000     9.1037E+02    18.4824   4.0000    98.0801
 28      0.0000     0.0000E+00    0.0000E+00    5.010000E+06  0.00040  1.935E-02    0   0.9532   age055_m32            0.0000     1.7669E+03    25.8074   4.0000    96.6801
 29      0.0000     0.0000E+00    0.0000E+00    6.610000E+06  0.00040  1.204E-02    0   0.9243   age061_m32            0.0000     3.1161E+03    32.7640   4.0000   100.4549
 30      0.0000     0.0000E+00    0.0000E+00    8.710000E+06  0.00040  9.433E-03    0   0.9001   age067_m32            0.0000     2.9036E+03    31.7509   4.0000   101.0447
 31      0.0000     0.0000E+00    0.0000E+00    1.000000E+07  0.00040  8.053E-03    0   0.8877   age070_m32            0.0000     2.7023E+03    30.8144   4.0000   100.9536
 32      0.0000     0.0000E+00    0.0000E+00    1.445000E+07  0.00040  7.027E-03    0   0.8578   age078_m32            0.0000     9.4388E+02    18.9453   4.0000    95.5309
 33      0.0000     0.0000E+00    0.0000E+00    2.512000E+07  0.00040  4.707E-03    0   0.8166   age090_m32            0.0000     6.7250E+02    14.8494   3.9224    94.0425
 34      0.0000     0.0000E+00    0.0000E+00    4.000000E+07  0.00040  3.714E-03    0   0.7827   age104_m32            0.0000     6.0399E+02    13.0066   3.7442    96.9225
 35      0.0000     0.0000E+00    0.0000E+00    5.500000E+07  0.00040  2.982E-03    0   0.7593   age110_m32            0.0000     5.9767E+02    12.4115   3.6919    97.8968
 36      0.0000     0.0000E+00    0.0000E+00    1.015200E+08  0.00040  2.188E-03    0   0.7143   age116_m32            0.0000     6.8264E+02    12.0020   3.4678   101.2571
 37      0.0000     0.0000E+00    0.0000E+00    1.609000E+08  0.00040  1.690E-03    0   0.6856   age120_m32            0.0000     8.0195E+02    12.9316   3.2838   103.4792
 38      0.0000     0.0000E+00    0.0000E+00    2.861200E+08  0.00040  1.152E-03    0   0.6509   age125_m32            0.0000     8.9635E+02    13.6189   3.0758   104.7893
 39      0.0000     0.0000E+00    0.0000E+00    5.088000E+08  0.00040  7.331E-04    0   0.6182   age130_m32            0.0000     9.2687E+02    13.8024   2.9156   105.3691
 40      0.0000     0.0000E+00    0.0000E+00    9.047900E+08  0.00040  3.960E-04    0   0.5890   age135_m32            0.0000     5.9756E+02    10.8390   2.4369   104.4974
 41      0.0000     0.0000E+00    0.0000E+00    1.278050E+09  0.00040  2.854E-04    0   0.5687   age138_m32            0.0000     5.2508E+02    10.1754   2.1176   107.0920
 42      0.0000     0.0000E+00    0.0000E+00    1.434000E+09  0.00040  2.531E-04    0   0.5632   age139_m32            0.0000     5.1522E+02    10.1040   2.0546   107.1541
 43      0.0000     0.0000E+00    0.0000E+00    2.500000E+09  0.00040  1.488E-04    0   0.5386   age150_m32            0.0000     4.0700E+02     8.9357   1.7997   105.3532
 44      2.1193     4.7507E-01    4.8680E-01    4.250000E+09  0.00040  9.082E-05    0   0.5199   age158_m32            0.0000     2.6001E+02     6.8698   1.6859   102.3767
 45     11.9534     3.8251E+00    3.8267E+00    6.250000E+09  0.00040  6.362E-05    0   0.5076   age166_m32            0.0000     2.2922E+02     6.6391   1.6261    99.4332
 46      7.7065     2.9663E+00    2.9390E+00    7.500000E+09  0.00040  5.289E-05    0   0.5027   age171_m32            0.0000     2.1543E+02     6.5590   1.5896    98.1675
 47     15.7712     8.0834E+00    7.8830E+00    1.000000E+10  0.00040  3.972E-05    0   0.4948   age181_m32            0.0000     1.9551E+02     6.3645   1.5298    96.7415
 48      1.3175     8.1701E-01    7.8419E-01    1.300000E+10  0.00040  3.283E-05    0   0.4870   age193_m32            0.0000     1.9059E+02     6.0453   1.4954    99.3246
 49      0.0704     4.9017E-02    4.6894E-02    1.500000E+10  0.00040  2.925E-05    0   0.4854   age201_m32            0.0000     1.9942E+02     6.0812   1.4818   100.8482
 50      0.0000     0.0000E+00    0.0000E+00    1.800000E+10  0.00040  2.469E-05    0   0.4819   age213_m32            0.0000     1.9883E+02     6.0659   1.4457   101.3124
 51      0.0000     0.0000E+00    0.0000E+00    1.000000E+06  0.00400  1.114E-02    0   1.0000   age020_m42            0.0000     3.8602E+03    35.8997   4.0000    98.0290
 52      0.0000     0.0000E+00    0.0000E+00    3.160000E+06  0.00400  4.073E-02    0   0.9999   age045_m42            0.0000     5.2003E+02    12.9069   3.9904    93.4060
 53      0.0000     0.0000E+00    0.0000E+00    5.010000E+06  0.00400  2.534E-02    0   0.9488   age055_m42            0.0000     1.2070E+03    21.6926   4.0000    96.6085
 54      0.0000     0.0000E+00    0.0000E+00    6.610000E+06  0.00400  2.583E-02    0   0.9220   age061_m42            0.0000     5.3160E+02    12.7456   3.8086    94.3349
 55      0.0000     0.0000E+00    0.0000E+00    8.710000E+06  0.00400  1.706E-02    0   0.8983   age067_m42            0.0000     6.5825E+02    15.1019   3.5980    93.3904
 56      0.0000     0.0000E+00    0.0000E+00    1.000000E+07  0.00400  1.271E-02    0   0.8862   age070_m42            0.0000     8.1703E+02    17.1830   3.5661    92.3912
 57      0.0000     0.0000E+00    0.0000E+00    1.445000E+07  0.00400  7.666E-03    0   0.8571   age078_m42            0.0000     9.0420E+02    18.3285   3.9616    89.1133
 58      0.0000     0.0000E+00    0.0000E+00    2.512000E+07  0.00400  5.070E-03    0   0.8174   age090_m42            0.0000     7.3066E+02    16.4284   3.4413    94.0307
 59      0.0000     0.0000E+00    0.0000E+00    4.000000E+07  0.00400  3.505E-03    0   0.7851   age104_m42            0.0000     5.3475E+02    14.0828   3.1427    96.7114
 60      0.0000     0.0000E+00    0.0000E+00    5.500000E+07  0.00400  3.059E-03    0   0.7629   age110_m42            0.0000     4.5143E+02    10.9263   3.2431   100.2640
 61      0.0000     0.0000E+00    0.0000E+00    1.015200E+08  0.00400  2.268E-03    0   0.7207   age116_m42            0.0000     6.7622E+02    11.7670   3.2001   104.2196
 62      0.0000     0.0000E+00    0.0000E+00    1.609000E+08  0.00400  1.720E-03    0   0.6930   age120_m42            0.0000     6.9147E+02    11.8372   3.0758   105.3354
 63      0.0000     0.0000E+00    0.0000E+00    2.861200E+08  0.00400  1.079E-03    0   0.6613   age125_m42            0.0000     6.5406E+02    11.4613   2.7132   106.0817
 64      0.0000     0.0000E+00    0.0000E+00    5.088000E+08  0.00400  6.261E-04    0   0.6313   age130_m42            0.0000     7.1563E+02    12.2005   2.5100   109.3551
 65      0.0000     0.0000E+00    0.0000E+00    9.047900E+08  0.00400  3.535E-04    0   0.6024   age135_m42            0.0000     4.5941E+02     9.5452   2.0984   110.0057
 66      0.0000     0.0000E+00    0.0000E+00    1.278050E+09  0.00400  2.677E-04    0   0.5837   age138_m42            0.0000     1.4296E+02     5.4944   1.4411   106.8959
 67      0.0000     0.0000E+00    0.0000E+00    1.434000E+09  0.00400  1.910E-04    0   0.5716   age139_m42            0.0000     2.0295E+02     6.0886   1.6097   107.6817
 68      0.0000     0.0000E+00    0.0000E+00    2.500000E+09  0.00400  9.818E-05    0   0.5463   age150_m42            0.0000     4.9510E+01     2.8206   1.3474   102.6358
 69      0.0000     0.0000E+00    0.0000E+00    4.250000E+09  0.00400  5.491E-05    0   0.5269   age158_m42            0.0000     2.2153E+01     2.1851   1.2209   100.0279
 70      0.0000     0.0000E+00    0.0000E+00    6.250000E+09  0.00400  3.857E-05    0   0.5151   age166_m42            0.0000     1.9267E+01     2.2430   1.1075    98.4540
 71      0.0000     0.0000E+00    0.0000E+00    7.500000E+09  0.00400  3.243E-05    0   0.5110   age171_m42            0.0000     2.4785E+01     2.5172   1.0386    97.7272
 72      0.0000     0.0000E+00    0.0000E+00    1.000000E+10  0.00400  2.424E-05    0   0.5028   age181_m42            0.0000     3.8334E+01     3.0734   0.9691    96.9070
 73      0.0000     0.0000E+00    0.0000E+00    1.300000E+10  0.00400  1.883E-05    0   0.4927   age193_m42            0.0000     5.3554E+01     3.6517   0.9327    96.5610
 74      0.0000     0.0000E+00    0.0000E+00    1.500000E+10  0.00400  1.685E-05    0   0.4919   age201_m42            0.0000     5.0449E+01     3.5136   0.9372    96.6207
 75      0.0000     0.0000E+00    0.0000E+00    1.800000E+10  0.00400  1.452E-05    0   0.4874   age213_m42            0.0000     4.5385E+01     3.2928   0.9510    96.9705
 76      0.0000     0.0000E+00    0.0000E+00    1.000000E+06  0.00800  1.286E-02    0   1.0000   age020_m52            0.0000     3.6296E+03    34.7359   4.0000    99.7532
 77      0.0000     0.0000E+00    0.0000E+00    3.160000E+06  0.00800  3.147E-02    0   0.9966   age045_m52            0.0000     3.1460E+03    32.8653   4.0000   100.2844
 78      0.0000     0.0000E+00    0.0000E+00    5.010000E+06  0.00800  2.664E-02    0   0.9443   age055_m52            0.0000     1.6010E+03    24.7793   4.0000    98.1425
 79      0.0000     0.0000E+00    0.0000E+00    6.610000E+06  0.00800  2.151E-02    0   0.9177   age061_m52            0.0000     6.1183E+02    15.0980   3.1705    93.8136
 80      0.0000     0.0000E+00    0.0000E+00    8.710000E+06  0.00800  1.628E-02    0   0.8948   age067_m52            0.0000     6.8777E+02    15.8372   3.5514    94.0433
 81      0.0000     0.0000E+00    0.0000E+00    1.000000E+07  0.00800  1.215E-02    0   0.8827   age070_m52            0.0000     7.7838E+02    16.9332   3.8913    92.1674
 82      0.0000     0.0000E+00    0.0000E+00    1.445000E+07  0.00800  8.739E-03    0   0.8552   age078_m52            0.0000     7.1838E+02    16.0007   3.9416    93.2802
 83      0.0000     0.0000E+00    0.0000E+00    2.512000E+07  0.00800  5.676E-03    0   0.8162   age090_m52            0.0000     6.3597E+02    13.9663   3.5624    97.7953
 84      0.0000     0.0000E+00    0.0000E+00    4.000000E+07  0.00800  3.939E-03    0   0.7841   age104_m52            0.0000     5.6518E+02    12.2669   3.4190    99.7776
 85      0.0000     0.0000E+00    0.0000E+00    5.500000E+07  0.00800  3.155E-03    0   0.7627   age110_m52            0.0000     5.6012E+02    11.3687   3.3998   101.1420
 86      0.0000     0.0000E+00    0.0000E+00    1.015200E+08  0.00800  2.206E-03    0   0.7226   age116_m52            0.0000     6.0190E+02    10.9576   3.2417   104.3515
 87      0.0000     0.0000E+00    0.0000E+00    1.609000E+08  0.00800  1.596E-03    0   0.6963   age120_m52            0.0000     6.2428E+02    11.0777   3.0367   105.8692
 88      0.0000     0.0000E+00    0.0000E+00    2.861200E+08  0.00800  1.002E-03    0   0.6665   age125_m52            0.0000     7.3877E+02    12.2950   2.7717   107.9509
 89      0.0000     0.0000E+00    0.0000E+00    5.088000E+08  0.00800  5.759E-04    0   0.6377   age130_m52            0.0000     7.2448E+02    11.9533   2.4419   111.5327
 90      0.0000     0.0000E+00    0.0000E+00    9.047900E+08  0.00800  2.972E-04    0   0.6086   age135_m52            0.0000     4.0137E+02     8.3940   1.9202   109.7547
 91      0.0000     0.0000E+00    0.0000E+00    1.278050E+09  0.00800  2.242E-04    0   0.5907   age138_m52            0.0000     1.1843E+02     4.6812   1.3000   108.7441
 92      0.0000     0.0000E+00    0.0000E+00    1.434000E+09  0.00800  1.645E-04    0   0.5787   age139_m52            0.0000     1.0826E+02     4.2936   1.4397   108.3108
 93      0.0000     0.0000E+00    0.0000E+00    2.500000E+09  0.00800  7.723E-05    0   0.5519   age150_m52            0.0000     3.0605E+01     2.7847   1.1122   104.3384
 94      0.2358     1.1565E-01    1.2126E-01    4.250000E+09  0.00800  4.151E-05    0   0.5320   age158_m52            0.0000     2.0615E+01     2.6486   1.0445   101.7678
 95      1.2542     8.4827E-01    8.6887E-01    6.250000E+09  0.00800  3.010E-05    0   0.5197   age166_m52            0.0000     3.8278E+01     3.5041   0.8686   100.0432
 96      2.4527     2.0240E+00    2.0500E+00    7.500000E+09  0.00800  2.467E-05    0   0.5139   age171_m52            0.0000     4.6997E+01     3.8175   0.8317    99.5518
 97      0.9595     1.0490E+00    1.0449E+00    1.000000E+10  0.00800  1.862E-05    0   0.5054   age181_m52            0.0000     8.2180E+01     4.8662   0.7179    98.8243
 98      1.0142     1.4409E+00    1.4165E+00    1.300000E+10  0.00800  1.433E-05    0   0.4988   age193_m52            0.0000     1.2763E+02     5.9541   0.6340    99.2363
 99      1.2136     1.9860E+00    1.9321E+00    1.500000E+10  0.00800  1.244E-05    0   0.4936   age201_m52            0.0000     1.4704E+02     6.3448   0.6089    99.6303
100      0.6326     1.2037E+00    1.1596E+00    1.800000E+10  0.00800  1.070E-05    0   0.4888   age213_m52            0.0000     1.6371E+02     6.6655   0.5792    99.4101
101      0.0000     0.0000E+00    0.0000E+00    1.000000E+06  0.02000  1.989E-02    0   1.0000   age020_m62            0.0000     3.6107E+03    34.7032   4.0000    98.4325
102      0.0000     0.0000E+00    0.0000E+00    3.160000E+06  0.02000  3.772E-02    0   0.9858   age045_m62            0.0000     2.8436E+03    31.7308   4.0000    98.9240
103      0.0000     0.0000E+00    0.0000E+00    5.010000E+06  0.02000  3.227E-02    0   0.9342   age055_m62            0.0000     8.6385E+02    18.2231   4.0000    96.5656
104      0.0000     0.0000E+00    0.0000E+00    6.610000E+06  0.02000  2.387E-02    0   0.9090   age061_m62            0.0000     9.0213E+02    18.0369   3.9521    90.9665
105      0.0000     0.0000E+00    0.0000E+00    8.710000E+06  0.02000  1.102E-02    0   0.8861   age067_m62            0.0000     1.7612E+03    24.7351   3.5661    87.2572
106      0.0000     0.0000E+00    0.0000E+00    1.000000E+07  0.02000  1.011E-02    0   0.8751   age070_m62            0.0000     1.2957E+03    21.5872   3.5980    89.3728
107      0.0000     0.0000E+00    0.0000E+00    1.445000E+07  0.02000  7.331E-03    0   0.8472   age078_m62            0.0000     9.8415E+02    19.0755   3.6245    90.4885
108      0.0000     0.0000E+00    0.0000E+00    2.512000E+07  0.02000  4.206E-03    0   0.8099   age090_m62            0.0000     9.8966E+02    19.2552   3.5373    90.0482
109      0.0000     0.0000E+00    0.0000E+00    4.000000E+07  0.02000  3.373E-03    0   0.7799   age104_m62            0.0000     5.4773E+02    13.5856   3.3783    97.9599
110      0.0000     0.0000E+00    0.0000E+00    5.500000E+07  0.02000  2.747E-03    0   0.7595   age110_m62            0.0000     5.2146E+02    11.7617   3.3290   101.0241
111      0.0000     0.0000E+00    0.0000E+00    1.015200E+08  0.02000  1.878E-03    0   0.7221   age116_m62            0.0000     6.4915E+02    11.5038   3.2165   105.1836
112      0.0000     0.0000E+00    0.0000E+00    1.609000E+08  0.02000  1.378E-03    0   0.6978   age120_m62            0.0000     7.6405E+02    12.4267   3.0776   107.3697
113      0.0000     0.0000E+00    0.0000E+00    2.861200E+08  0.02000  8.869E-04    0   0.6700   age125_m62            0.0000     9.6274E+02    14.0321   2.7302   111.2089
114      0.0000     0.0000E+00    0.0000E+00    5.088000E+08  0.02000  4.834E-04    0   0.6430   age130_m62            0.0000     7.9225E+02    12.2890   2.3149   112.8833
115      0.0000     0.0000E+00    0.0000E+00    9.047900E+08  0.02000  2.312E-04    0   0.6152   age135_m62            0.0000     3.5314E+02     7.5407   1.7192   111.8767
116      0.0000     0.0000E+00    0.0000E+00    1.278050E+09  0.02000  1.387E-04    0   0.5927   age138_m62            0.0000     1.2302E+02     4.3481   1.3488   107.4058
117      0.0000     0.0000E+00    0.0000E+00    1.434000E+09  0.02000  1.168E-04    0   0.5865   age139_m62            0.0000     9.1241E+01     3.7950   1.3223   105.7933
118      0.0000     0.0000E+00    0.0000E+00    2.500000E+09  0.02000  5.505E-05    0   0.5610   age150_m62            0.0000     4.5246E+01     3.5883   0.9733   102.5180
119      0.1511     1.0023E-01    1.0681E-01    4.250000E+09  0.02000  3.070E-05    0   0.5407   age158_m62            0.0000     1.1095E+02     5.5554   0.7102   101.7689
120      4.6869     4.5350E+00    4.7166E+00    6.250000E+09  0.02000  2.104E-05    0   0.5277   age166_m62            0.0000     1.6641E+02     6.7280   0.5928   101.8926
121     19.0828     2.1949E+01    2.2594E+01    7.500000E+09  0.02000  1.770E-05    0   0.5223   age171_m62            0.0000     2.0324E+02     7.3622   0.5146   102.0570
122      7.7697     1.2196E+01    1.2309E+01    1.000000E+10  0.02000  1.297E-05    0   0.5121   age181_m62            0.0000     2.8888E+02     8.6519   0.3752   102.1475
123      3.7533     7.8848E+00    7.8431E+00    1.300000E+10  0.02000  9.691E-06    0   0.5047   age193_m62            0.0000     3.5322E+02     9.4720   0.3030   102.2954
124      6.1622     1.5006E+01    1.4785E+01    1.500000E+10  0.02000  8.360E-06    0   0.4999   age201_m62            0.0000     4.1382E+02    10.2065   0.2433   102.2978
125      4.2914     1.2641E+01    1.2323E+01    1.800000E+10  0.02000  6.911E-06    0   0.4946   age213_m62            0.0000     4.9491E+02    11.1331   0.1838   102.2274
126      0.0000     0.0000E+00    0.0000E+00    1.000000E+06  0.05000  2.651E-02    0   0.9998   age020_m72            0.0000     3.5599E+03    34.3278   4.0000    99.5712
127      0.0000     0.0000E+00    0.0000E+00    3.160000E+06  0.05000  4.817E-02    0   0.9577   age045_m72            0.0000     2.0279E+03    27.2948   4.0000   100.0920
128      0.0000     0.0000E+00    0.0000E+00    5.010000E+06  0.05000  3.101E-02    0   0.9147   age055_m72            0.0000     1.0600E+03    20.4529   4.0000    95.7119
129      0.0000     0.0000E+00    0.0000E+00    6.610000E+06  0.05000  1.472E-02    0   0.8877   age061_m72            0.0000     1.2713E+03    21.1861   3.8507    88.0945
130      0.0000     0.0000E+00    0.0000E+00    8.710000E+06  0.05000  1.050E-02    0   0.8638   age067_m72            0.0000     1.1684E+03    21.3625   4.0000    93.6989
131      0.0000     0.0000E+00    0.0000E+00    1.000000E+07  0.05000  8.954E-03    0   0.8524   age070_m72            0.0000     1.6118E+03    24.6721   4.0000    99.4908
132      0.0000     0.0000E+00    0.0000E+00    1.445000E+07  0.05000  6.392E-03    0   0.8262   age078_m72            0.0000     1.3658E+03    22.8968   4.0000    99.4416
133      0.0000     0.0000E+00    0.0000E+00    2.512000E+07  0.05000  4.207E-03    0   0.7902   age090_m72            0.0000     5.8965E+02    14.9080   4.0000    95.4205
134      0.0000     0.0000E+00    0.0000E+00    4.000000E+07  0.05000  3.198E-03    0   0.7618   age104_m72            0.0000     5.2208E+02    10.7390   3.6231   100.3591
135      0.0000     0.0000E+00    0.0000E+00    5.500000E+07  0.05000  2.593E-03    0   0.7432   age110_m72            0.0000     5.9103E+02    11.0624   3.5359   102.1783
136      0.0000     0.0000E+00    0.0000E+00    1.015200E+08  0.05000  1.716E-03    0   0.7092   age116_m72            0.0000     7.1958E+02    11.9534   3.3518   104.5911
137      0.0000     0.0000E+00    0.0000E+00    1.609000E+08  0.05000  1.218E-03    0   0.6876   age120_m72            0.0000     8.4037E+02    13.0343   3.0788   107.2825
138      0.0000     0.0000E+00    0.0000E+00    2.861200E+08  0.05000  7.047E-04    0   0.6618   age125_m72            0.0000     9.0917E+02    13.3472   2.5721   110.5190
139      0.0000     0.0000E+00    0.0000E+00    5.088000E+08  0.05000  3.590E-04    0   0.6356   age130_m72            0.0000     6.6311E+02    10.7537   2.0111   112.5702
140      0.0000     0.0000E+00    0.0000E+00    9.047900E+08  0.05000  1.484E-04    0   0.6088   age135_m72            0.0000     1.6995E+02     5.6813   1.2844   105.9544
141      0.0000     0.0000E+00    0.0000E+00    1.278050E+09  0.05000  9.435E-05    0   0.5924   age138_m72            0.0000     1.3349E+02     5.7522   0.9118   102.4722
142      0.0000     0.0000E+00    0.0000E+00    1.434000E+09  0.05000  7.827E-05    0   0.5847   age139_m72            0.0000     1.1755E+02     5.5313   0.9268   101.9193
143      0.0000     0.0000E+00    0.0000E+00    2.500000E+09  0.05000  3.759E-05    0   0.5583   age150_m72            0.0000     1.8109E+02     7.0056   0.6251   100.8087
144      0.0000     0.0000E+00    0.0000E+00    4.250000E+09  0.05000  1.842E-05    0   0.5374   age158_m72            0.0000     3.2900E+02     8.9494   0.3700    99.4728
145      0.0000     0.0000E+00    0.0000E+00    6.250000E+09  0.05000  1.207E-05    0   0.5242   age166_m72            0.0000     4.8835E+02    10.6790   0.1636    98.5081
146      0.0000     0.0000E+00    0.0000E+00    7.500000E+09  0.05000  9.993E-06    0   0.5183   age171_m72            0.0000     5.1902E+02    10.9311   0.1280    98.3170
147      0.0000     0.0000E+00    0.0000E+00    1.000000E+10  0.05000  7.291E-06    0   0.5081   age181_m72            0.0000     6.5007E+02    12.1905   0.0266    97.7145
148      0.0000     0.0000E+00    0.0000E+00    1.300000E+10  0.05000  5.316E-06    0   0.5018   age193_m72            0.0000     8.8102E+02    14.1652  -0.1192    96.7366
149      0.0000     0.0000E+00    0.0000E+00    1.500000E+10  0.05000  4.497E-06    0   0.4972   age201_m72            0.0000     1.0023E+03    15.1287  -0.1753    96.5558
150      0.0000     0.0000E+00    0.0000E+00    1.800000E+10  0.05000  3.739E-06    0   0.4924   age213_m72            0.0000     1.1643E+03    16.3660  -0.2584    96.1090


## Synthesis Results - Average & Chains ##

# j      x_j: min, <> & last-chain-values for 1 ...  7 chains
  1      0.0000      0.0049      0.0574      0.0000      0.0000      0.0000      0.0000      0.0000      0.0653
  2      4.4844      3.3408      3.4379      3.4612      3.3663      3.6169      3.3787      3.3363      3.3111
  3      2.1819      2.2649      2.2761      2.2154      2.3164      2.1431      2.2688      2.0948      2.2950
  4      0.0000      0.0047      0.0687      0.0000      0.0000      0.0000      0.0000      0.0481      0.0000
  5      0.0000      0.0148      0.0000      0.0000      0.0000      0.0227      0.0000      0.0000      0.0000
  6      0.0000      0.0042      0.0420      0.0220      0.0000      0.0000      0.0084      0.0000      0.0000
  7      0.0000      0.0097      0.0000      0.0000      0.0000      0.0000      0.0050      0.0000      0.0000
  8      0.0000      0.0112      0.0000      0.0000      0.0000      0.0000      0.0000      0.0000      0.0000
  9      0.0000      0.0170      0.0000      0.0000      0.0000      0.0000      0.0000      0.0000      0.0645
 10      0.0000      0.0195      0.0000      0.1598      0.0000      0.0521      0.0000      0.0000      0.0000
 11      0.0000      0.0145      0.0000      0.0000      0.0000      0.0000      0.0000      0.0000      0.0000
 12      0.0000      0.0093      0.0000      0.0000      0.0000      0.0000      0.0000      0.0000      0.0000
 13      0.0000      0.0070      0.0000      0.0000      0.0000      0.0000      0.0000      0.0000      0.0000
 14      0.0000      0.0053      0.0000      0.0000      0.0000      0.0000      0.0000      0.0000      0.0000
 15      0.0000      0.0069      0.0073      0.0000      0.0000      0.0000      0.0000      0.0000      0.0000
 16      0.0000      0.0126      0.0000      0.0249      0.0000      0.0000      0.0000      0.0000      0.0000
 17      0.0000      0.0134      0.0000      0.0000      0.0000      0.0000      0.0515      0.0000      0.0000
 18      0.0000      0.0231      0.0000      0.0000      0.0000      0.0000      0.0000      0.0000      0.0000
 19      0.0000      0.0479      0.0891      0.0000      0.0372      0.0000      0.0000      0.1073      0.0000
 20      0.0818      0.0854      0.0000      0.0000      0.3031      0.0162      0.2328      0.0000      0.0000
 21      0.4780      0.1986      0.0000      0.0389      0.3018      0.1995      0.3259      0.4883      0.1701
 22      0.0000      0.1073      0.0233      0.0000      0.1716      0.3560      0.0000      0.0128      0.2391
 23      0.0000      0.0904      0.1352      0.1468      0.1060      0.0000      0.0000      0.0000      0.0000
 24      0.0000      0.1436      0.0000      0.0977      0.0723      0.3178      0.2128      0.1125      0.3488
 25      0.7523      0.3529      0.4665      0.4515      0.3349      0.2894      0.3607      0.2478      0.7005
 26      0.0000      0.0087      0.0000      0.0000      0.0000      0.0287      0.0000      0.0000      0.0780
 27      0.0000      0.0236      0.0196      0.0000      0.1202      0.0019      0.1350      0.0000      0.0000
 28      0.0000      0.0097      0.0000      0.0000      0.0000      0.0000      0.0000      0.0000      0.0000
 29      0.0000      0.0151      0.0000      0.0000      0.0000      0.0000      0.0000      0.0000      0.0000
 30      0.0000      0.0036      0.0000      0.0000      0.0000      0.0000      0.0101      0.0000      0.0641
 31      0.0000      0.0064      0.0000      0.0000      0.0000      0.0000      0.0157      0.0000      0.0000
 32      0.0000      0.0194      0.0000      0.0909      0.0000      0.0000      0.0113      0.0000      0.0694
 33      0.0000      0.0095      0.0955      0.0000      0.0000      0.0000      0.0000      0.0024      0.0570
 34      0.0000      0.0194      0.0122      0.1027      0.0000      0.0000      0.0715      0.0000      0.0000
 35      0.0000      0.0176      0.0000      0.0000      0.0000      0.0000      0.0000      0.0000      0.0000
 36      0.0000      0.0104      0.0000      0.0000      0.1159      0.0000      0.0000      0.0000      0.0000
 37      0.0000      0.0129      0.0000      0.0229      0.0000      0.0000      0.0000      0.0915      0.0000
 38      0.0000      0.0096      0.0000      0.1049      0.0000      0.0694      0.0000      0.0070      0.0000
 39      0.0000      0.0084      0.0000      0.0000      0.0000      0.0000      0.0000      0.0000      0.0000
 40      0.0000      0.0079      0.0000      0.0000      0.0000      0.0000      0.0000      0.0000      0.0000
 41      0.0000      0.0110      0.0000      0.0141      0.0000      0.0000      0.0000      0.0000      0.0000
 42      0.0000      0.0206      0.0000      0.0135      0.0000      0.0000      0.0000      0.0000      0.0000
 43      0.0000      0.0336      0.0000      0.0000      0.0000      0.0000      0.0163      0.0000      0.1092
 44      2.1193      1.6869      2.2524      1.7076      1.7140      1.5759      1.6697      1.7829      1.4028
 45     11.9534     10.4367     10.7706     10.3676     10.4515     10.6699     10.5307     10.3657     10.6656
 46      7.7065      7.3601      7.3228      7.1764      7.2984      7.3161      8.0082      7.8871      7.5570
 47     15.7712     16.0428     16.1941     16.3919     16.1161     16.1996     16.0617     16.2814     16.2402
 48      1.3175      2.6725      2.6675      2.9455      2.5047      2.4345      2.4405      2.6037      1.8308
 49      0.0704      0.7638      0.9559      0.6019      0.8619      0.6651      0.4401      0.7117      0.7763
 50      0.0000      0.1326      0.2255      0.1513      0.1231      0.0000      0.1952      0.2386      0.0000
 51      0.0000      0.0092      0.0000      0.0475      0.0000      0.0000      0.0000      0.0000      0.0000
 52      0.0000      0.0316      0.0000      0.0000      0.1251      0.0000      0.0000      0.0311      0.0632
 53      0.0000      0.0207      0.0113      0.0000      0.0000      0.0094      0.0314      0.0000      0.0000
 54      0.0000      0.0187      0.0000      0.0000      0.1087      0.1264      0.0425      0.0485      0.0000
 55      0.0000      0.0162      0.0000      0.0000      0.0000      0.0000      0.0000      0.0749      0.0000
 56      0.0000      0.0168      0.0000      0.0325      0.0215      0.0354      0.0000      0.0000      0.0000
 57      0.0000      0.0076      0.0000      0.0000      0.0470      0.0000      0.0000      0.0000      0.0000
 58      0.0000      0.0181      0.1229      0.0443      0.0814      0.0000      0.0000      0.0000      0.0000
 59      0.0000      0.0134      0.0459      0.0000      0.1180      0.0080      0.0000      0.0224      0.0000
 60      0.0000      0.0157      0.0000      0.0838      0.0000      0.0000      0.0000      0.1352      0.0000
 61      0.0000      0.0111      0.0000      0.0000      0.0000      0.0000      0.0000      0.0988      0.0687
 62      0.0000      0.0054      0.0000      0.0128      0.0681      0.0000      0.0000      0.0000      0.0000
 63      0.0000      0.0135      0.0000      0.0000      0.0000      0.0000      0.0000      0.0495      0.0000
 64      0.0000      0.0213      0.0000      0.0000      0.0000      0.0324      0.0000      0.0000      0.0000
 65      0.0000      0.0201      0.0000      0.0000      0.0000      0.0000      0.0674      0.0000      0.1380
 66      0.0000      0.0223      0.0000      0.0000      0.0000      0.0000      0.0000      0.0000      0.0000
 67      0.0000      0.0294      0.0000      0.0000      0.0089      0.0180      0.0749      0.0000      0.0000
 68      0.0000      0.0632      0.0231      0.1072      0.0000      0.0000      0.0000      0.0000      0.1035
 69      0.0000      0.0847      0.0000      0.0312      0.0000      0.0000      0.0000      0.1637      0.0000
 70      0.0000      0.1154      0.0000      0.1816      0.0000      0.3481      0.0000      0.0000      0.2315
 71      0.0000      0.1331      0.0000      0.0000      0.0335      0.8013      0.0000      0.1701      0.0885
 72      0.0000      0.0805      0.1074      0.0000      0.1341      0.0000      0.0000      0.0000      0.0177
 73      0.0000      0.0622      0.2390      0.0000      0.0511      0.0000      0.0000      0.0000      0.0000
 74      0.0000      0.0804      0.0000      0.0000      0.1879      0.0537      0.0000      0.0000      0.0259
 75      0.0000      0.0696      0.0000      0.0000      0.0000      0.0000      0.0542      0.0709      0.0000
 76      0.0000      0.0059      0.0000      0.0000      0.0000      0.0000      0.0000      0.0416      0.0000
 77      0.0000      0.0124      0.0082      0.0954      0.0000      0.0000      0.0000      0.0000      0.0000
 78      0.0000      0.0043      0.0000      0.0000      0.0000      0.0000      0.0000      0.0000      0.0000
 79      0.0000      0.0211      0.0072      0.0000      0.0000      0.0347      0.1388      0.0134      0.0000
 80      0.0000      0.0087      0.0000      0.0300      0.0000      0.0000      0.0000      0.0000      0.0000
 81      0.0000      0.0071      0.0000      0.0000      0.0000      0.0521      0.0000      0.0000      0.0561
 82      0.0000      0.0126      0.0000      0.0000      0.0300      0.0000      0.0676      0.0000      0.0000
 83      0.0000      0.0090      0.0000      0.0000      0.0000      0.0714      0.0000      0.0000      0.0214
 84      0.0000      0.0147      0.0202      0.0114      0.0000      0.0832      0.0000      0.0000      0.0000
 85      0.0000      0.0097      0.0000      0.0000      0.0000      0.0578      0.0000      0.0000      0.0422
 86      0.0000      0.0179      0.0000      0.0000      0.0000      0.0075      0.0000      0.0000      0.0000
 87      0.0000      0.0096      0.0000      0.0053      0.0000      0.0000      0.0225      0.0000      0.0000
 88      0.0000      0.0099      0.0000      0.0000      0.0035      0.0000      0.0000      0.0426      0.0000
 89      0.0000      0.0080      0.0000      0.0000      0.0068      0.0000      0.0000      0.0000      0.0000
 90      0.0000      0.0082      0.0000      0.0000      0.0091      0.0000      0.0000      0.0000      0.0574
 91      0.0000      0.0371      0.0000      0.0000      0.0000      0.0178      0.0000      0.0000      0.0000
 92      0.0000      0.0266      0.0000      0.0000      0.0020      0.0000      0.0000      0.0262      0.0053
 93      0.0000      0.1402      0.1953      0.5273      0.0566      0.0310      0.1669      0.0000      0.2041
 94      0.2358      0.2864      0.6370      0.4610      0.6611      0.5025      0.3956      0.1395      0.1692
 95      1.2542      0.6437      0.4077      0.0000      0.0000      0.4825      0.6572      0.4028      0.8280
 96      2.4527      0.8498      0.8341      1.4770      1.0289      1.2010      1.1120      0.9268      1.4273
 97      0.9595      0.8730      0.8456      0.7251      1.0560      0.8484      1.0597      1.0343      0.8116
 98      1.0142      0.4023      0.2845      0.7411      0.8865      0.2662      1.1715      0.1959      0.3829
 99      1.2136      0.5683      0.8707      0.4078      0.4603      0.6455      0.4231      1.1555      0.4069
100      0.6326      0.5013      0.2354      0.5519      0.2042      0.8528      0.4455      0.3442      0.6234
101      0.0000      0.0100      0.0000      0.0000      0.0000      0.0000      0.0000      0.0589      0.0065
102      0.0000      0.0144      0.0000      0.0011      0.0000      0.0486      0.0044      0.0000      0.0000
103      0.0000      0.0125      0.0000      0.0000      0.0000      0.0000      0.0000      0.0000      0.0000
104      0.0000      0.0213      0.0000      0.0000      0.0000      0.0000      0.0000      0.1589      0.0000
105      0.0000      0.0113      0.0000      0.0536      0.0000      0.0000      0.0000      0.0000      0.0000
106      0.0000      0.0111      0.0000      0.0000      0.0000      0.0000      0.0000      0.0000      0.0535
107      0.0000      0.0117      0.0000      0.0000      0.0000      0.0000      0.0000      0.0000      0.0000
108      0.0000      0.0113      0.0000      0.0012      0.0247      0.0000      0.0000      0.0000      0.0000
109      0.0000      0.0079      0.0000      0.0000      0.0000      0.0000      0.0000      0.0150      0.0000
110      0.0000      0.0106      0.0000      0.0028      0.0000      0.0995      0.0699      0.0000      0.0000
111      0.0000      0.0078      0.0000      0.0000      0.0196      0.0000      0.0795      0.0222      0.0000
112      0.0000      0.0088      0.0073      0.0000      0.0000      0.0000      0.0000      0.0000      0.0000
113      0.0000      0.0077      0.0000      0.0015      0.0519      0.0000      0.0000      0.0000      0.0000
114      0.0000      0.0060      0.0000      0.0000      0.0000      0.0000      0.0000      0.0000      0.0000
115      0.0000      0.0174      0.0000      0.0000      0.0000      0.1138      0.0000      0.0000      0.0000
116      0.0000      0.0381      0.0000      0.0000      0.0000      0.0071      0.0000      0.0145      0.4700
117      0.0000      0.0297      0.0000      0.0391      0.0901      0.0843      0.0000      0.1060      0.0000
118      0.0000      0.1016      0.3982      0.0000      0.0428      0.0000      0.0000      0.0000      0.0000
119      0.1511      0.1400      0.0000      0.0831      0.0000      0.2037      0.4558      0.1236      0.0000
120      4.6869      5.8055      5.6554      5.9510      5.3859      5.3174      5.7348      6.0800      5.7307
121     19.0828     19.4560     19.2618     19.0459     19.6909     19.7388     18.6340     19.6353     19.3337
122      7.7697      8.0311      8.1796      8.3798      8.1527      8.0646      8.0250      7.9750      7.9777
123      3.7533      3.8374      3.8176      3.5456      3.9598      3.5974      3.8964      3.7743      4.0213
124      6.1622      6.3212      6.6720      6.5329      6.2440      6.4158      6.4657      6.2464      6.1761
125      4.2914      4.4062      4.2050      4.4444      4.5684      4.2176      4.4536      4.4082      4.2903
126      0.0000      0.0142      0.0000      0.0000      0.0000      0.0000      0.0000      0.0000      0.0000
127      0.0000      0.0199      0.0054      0.0000      0.1008      0.0000      0.0000      0.0000      0.0000
128      0.0000      0.0067      0.0000      0.0000      0.0000      0.0000      0.0000      0.0860      0.0029
129      0.0000      0.0125      0.0000      0.0000      0.0000      0.0000      0.0000      0.0000      0.0000
130      0.0000      0.0083      0.0000      0.0000      0.0000      0.0000      0.0000      0.0000      0.0000
131      0.0000      0.0040      0.0000      0.0000      0.0000      0.0000      0.0220      0.0000      0.0000
132      0.0000      0.0027      0.0000      0.0000      0.0000      0.0000      0.0000      0.0000      0.0000
133      0.0000      0.0063      0.0000      0.0000      0.0273      0.0000      0.0729      0.0132      0.0000
134      0.0000      0.0075      0.0000      0.0000      0.0000      0.0000      0.0000      0.0000      0.0000
135      0.0000      0.0082      0.0000      0.0000      0.0000      0.0000      0.0289      0.0215      0.0000
136      0.0000      0.0059      0.0000      0.0000      0.0000      0.0000      0.0000      0.0000      0.0000
137      0.0000      0.0077      0.0000      0.0852      0.0000      0.0000      0.0000      0.0000      0.0057
138      0.0000      0.0098      0.0000      0.0000      0.0000      0.0028      0.0000      0.0000      0.0000
139      0.0000      0.0150      0.0000      0.0000      0.0046      0.0000      0.0000      0.0000      0.0448
140      0.0000      0.0179      0.0000      0.0000      0.0000      0.0000      0.0000      0.0000      0.0000
141      0.0000      0.1118      0.0127      0.0000      0.0443      0.0000      0.0000      0.0938      0.4405
142      0.0000      0.0774      0.0000      0.1162      0.0000      0.0000      0.0817      0.0000      0.0802
143      0.0000      0.2010      0.3513      0.4688      0.3445      0.0925      0.0000      0.1910      0.2039
144      0.0000      0.0310      0.0000      0.0000      0.0000      0.0000      0.0878      0.0000      0.0000
145      0.0000      0.0231      0.0000      0.0000      0.1181      0.0000      0.0000      0.0138      0.0000
146      0.0000      0.0334      0.0000      0.0000      0.0613      0.0704      0.0019      0.0000      0.0000
147      0.0000      0.0509      0.0348      0.0023      0.0000      0.0000      0.0000      0.0000      0.0086
148      0.0000      0.0090      0.0000      0.0000      0.0000      0.0000      0.0616      0.0000      0.0000
149      0.0000      0.0129      0.0244      0.0000      0.0000      0.0000      0.0436      0.0000      0.0000
150      0.0000      0.0122      0.0000      0.0000      0.0000      0.0000      0.0000      0.0000      0.0000

# j      m_j: min, <> & last-chain-values for 1 ...  7 chains
  1  0.0000E+00  2.3991E-05  2.8057E-04  0.0000E+00  0.0000E+00  0.0000E+00  0.0000E+00  0.0000E+00  3.2142E-04
  2  3.7809E-03  2.7953E-03  2.8795E-03  2.8973E-03  2.8069E-03  3.0384E-03  2.8145E-03  2.7955E-03  2.7954E-03
  3  4.3420E-03  4.4730E-03  4.4997E-03  4.3770E-03  4.5588E-03  4.2493E-03  4.4608E-03  4.1428E-03  4.5731E-03
  4  0.0000E+00  1.7463E-05  2.5533E-04  0.0000E+00  0.0000E+00  0.0000E+00  0.0000E+00  1.7867E-04  0.0000E+00
  5  0.0000E+00  6.9119E-05  0.0000E+00  0.0000E+00  0.0000E+00  1.0657E-04  0.0000E+00  0.0000E+00  0.0000E+00
  6  0.0000E+00  2.3491E-05  2.3391E-04  1.2265E-04  0.0000E+00  0.0000E+00  4.6569E-05  0.0000E+00  0.0000E+00
  7  0.0000E+00  6.8246E-05  0.0000E+00  0.0000E+00  0.0000E+00  0.0000E+00  3.4835E-05  0.0000E+00  0.0000E+00
  8  0.0000E+00  8.9160E-05  0.0000E+00  0.0000E+00  0.0000E+00  0.0000E+00  0.0000E+00  0.0000E+00  0.0000E+00
  9  0.0000E+00  1.4537E-04  0.0000E+00  0.0000E+00  0.0000E+00  0.0000E+00  0.0000E+00  0.0000E+00  5.5499E-04
 10  0.0000E+00  1.9041E-04  0.0000E+00  1.5635E-03  0.0000E+00  5.1152E-04  0.0000E+00  0.0000E+00  0.0000E+00
 11  0.0000E+00  1.6983E-04  0.0000E+00  0.0000E+00  0.0000E+00  0.0000E+00  0.0000E+00  0.0000E+00  0.0000E+00
 12  0.0000E+00  1.9018E-04  0.0000E+00  0.0000E+00  0.0000E+00  0.0000E+00  0.0000E+00  0.0000E+00  0.0000E+00
 13  0.0000E+00  1.6718E-04  0.0000E+00  0.0000E+00  0.0000E+00  0.0000E+00  0.0000E+00  0.0000E+00  0.0000E+00
 14  0.0000E+00  1.7878E-04  0.0000E+00  0.0000E+00  0.0000E+00  0.0000E+00  0.0000E+00  0.0000E+00  0.0000E+00
 15  0.0000E+00  3.5085E-04  3.6984E-04  0.0000E+00  0.0000E+00  0.0000E+00  0.0000E+00  0.0000E+00  0.0000E+00
 16  0.0000E+00  9.3223E-04  0.0000E+00  1.8338E-03  0.0000E+00  0.0000E+00  0.0000E+00  0.0000E+00  0.0000E+00
 17  0.0000E+00  1.0968E-03  0.0000E+00  0.0000E+00  0.0000E+00  0.0000E+00  4.2002E-03  0.0000E+00  0.0000E+00
 18  0.0000E+00  3.0771E-03  0.0000E+00  0.0000E+00  0.0000E+00  0.0000E+00  0.0000E+00  0.0000E+00  0.0000E+00
 19  0.0000E+00  9.6741E-03  1.8032E-02  0.0000E+00  7.4833E-03  0.0000E+00  0.0000E+00  2.1706E-02  0.0000E+00
 20  2.3821E-02  2.4684E-02  0.0000E+00  0.0000E+00  8.7301E-02  4.7060E-03  6.6986E-02  0.0000E+00  0.0000E+00
 21  1.6102E-01  6.6383E-02  0.0000E+00  1.3024E-02  1.0054E-01  6.6971E-02  1.0849E-01  1.6348E-01  5.7390E-02
 22  0.0000E+00  4.6304E-02  1.0058E-02  0.0000E+00  7.3770E-02  1.5415E-01  0.0000E+00  5.5299E-03  1.0405E-01
 23  0.0000E+00  4.9439E-02  7.3986E-02  8.0283E-02  5.7767E-02  0.0000E+00  0.0000E+00  0.0000E+00  0.0000E+00
 24  0.0000E+00  8.9807E-02  0.0000E+00  6.1117E-02  4.5057E-02  1.9949E-01  1.3245E-01  7.0450E-02  2.2006E-01
 25  5.6947E-01  2.6508E-01  3.5081E-01  3.3928E-01  2.5068E-01  2.1826E-01  2.6976E-01  1.8644E-01  5.3089E-01
 26  0.0000E+00  4.0985E-05  0.0000E+00  0.0000E+00  0.0000E+00  1.3553E-04  0.0000E+00  0.0000E+00  3.7030E-04
 27  0.0000E+00  2.3675E-05  1.9713E-05  0.0000E+00  1.2001E-04  1.8631E-06  1.3473E-04  0.0000E+00  0.0000E+00
 28  0.0000E+00  1.8954E-05  0.0000E+00  0.0000E+00  0.0000E+00  0.0000E+00  0.0000E+00  0.0000E+00  0.0000E+00
 29  0.0000E+00  4.6058E-05  0.0000E+00  0.0000E+00  0.0000E+00  0.0000E+00  0.0000E+00  0.0000E+00  0.0000E+00
 30  0.0000E+00  1.3526E-05  0.0000E+00  0.0000E+00  0.0000E+00  0.0000E+00  3.8154E-05  0.0000E+00  2.4561E-04
 31  0.0000E+00  2.8212E-05  0.0000E+00  0.0000E+00  0.0000E+00  0.0000E+00  6.8412E-05  0.0000E+00  0.0000E+00
 32  0.0000E+00  9.4400E-05  0.0000E+00  4.4194E-04  0.0000E+00  0.0000E+00  5.4649E-05  0.0000E+00  3.4040E-04
 33  0.0000E+00  6.5411E-05  6.6064E-04  0.0000E+00  0.0000E+00  0.0000E+00  0.0000E+00  1.6588E-05  3.9696E-04
 34  0.0000E+00  1.6270E-04  1.0284E-04  8.6251E-04  0.0000E+00  0.0000E+00  5.9754E-04  0.0000E+00  0.0000E+00
 35  0.0000E+00  1.7814E-04  0.0000E+00  0.0000E+00  0.0000E+00  0.0000E+00  0.0000E+00  0.0000E+00  0.0000E+00
 36  0.0000E+00  1.3516E-04  0.0000E+00  0.0000E+00  1.5016E-03  0.0000E+00  0.0000E+00  0.0000E+00  0.0000E+00
 37  0.0000E+00  2.0790E-04  0.0000E+00  3.7035E-04  0.0000E+00  0.0000E+00  0.0000E+00  1.4809E-03  0.0000E+00
 38  0.0000E+00  2.1567E-04  0.0000E+00  2.3602E-03  0.0000E+00  1.5668E-03  0.0000E+00  1.5692E-04  0.0000E+00
 39  0.0000E+00  2.8121E-04  0.0000E+00  0.0000E+00  0.0000E+00  0.0000E+00  0.0000E+00  0.0000E+00  0.0000E+00
 40  0.0000E+00  4.6632E-04  0.0000E+00  0.0000E+00  0.0000E+00  0.0000E+00  0.0000E+00  0.0000E+00  0.0000E+00
 41  0.0000E+00  8.6998E-04  0.0000E+00  1.1204E-03  0.0000E+00  0.0000E+00  0.0000E+00  0.0000E+00  0.0000E+00
 42  0.0000E+00  1.8290E-03  0.0000E+00  1.1957E-03  0.0000E+00  0.0000E+00  0.0000E+00  0.0000E+00  0.0000E+00
 43  0.0000E+00  4.8365E-03  0.0000E+00  0.0000E+00  0.0000E+00  0.0000E+00  2.3318E-03  0.0000E+00  1.5879E-02
 44  4.8680E-01  3.8453E-01  5.1394E-01  3.8941E-01  3.8934E-01  3.6066E-01  3.7892E-01  4.0698E-01  3.2264E-01
 45  3.8267E+00  3.3158E+00  3.4254E+00  3.2953E+00  3.3090E+00  3.4034E+00  3.3308E+00  3.2979E+00  3.4190E+00
 46  2.9390E+00  2.7856E+00  2.7743E+00  2.7172E+00  2.7527E+00  2.7800E+00  3.0174E+00  2.9893E+00  2.8858E+00
 47  7.8830E+00  7.9579E+00  8.0412E+00  8.1345E+00  7.9666E+00  8.0676E+00  7.9319E+00  8.0877E+00  8.1282E+00
 48  7.8419E-01  1.5786E+00  1.5773E+00  1.7406E+00  1.4744E+00  1.4438E+00  1.4352E+00  1.5401E+00  1.0911E+00
 49  4.6894E-02  5.0475E-01  6.3230E-01  3.9788E-01  5.6756E-01  4.4125E-01  2.8952E-01  4.7098E-01  5.1762E-01
 50  0.0000E+00  1.0308E-01  1.7546E-01  1.1764E-01  9.5316E-02  0.0000E+00  1.5104E-01  1.8571E-01  0.0000E+00
 51  0.0000E+00  3.2873E-05  0.0000E+00  1.6997E-04  0.0000E+00  0.0000E+00  0.0000E+00  0.0000E+00  0.0000E+00
 52  0.0000E+00  3.0931E-05  0.0000E+00  0.0000E+00  1.2188E-04  0.0000E+00  0.0000E+00  3.0447E-05  6.2366E-05
 53  0.0000E+00  3.0796E-05  1.6924E-05  0.0000E+00  0.0000E+00  1.4022E-05  4.6558E-05  0.0000E+00  0.0000E+00
 54  0.0000E+00  2.6562E-05  0.0000E+00  0.0000E+00  1.5399E-04  1.8033E-04  6.0117E-05  6.9012E-05  0.0000E+00
 55  0.0000E+00  3.3869E-05  0.0000E+00  0.0000E+00  0.0000E+00  0.0000E+00  0.0000E+00  1.5721E-04  0.0000E+00
 56  0.0000E+00  4.6578E-05  0.0000E+00  9.0285E-05  5.9385E-05  9.8646E-05  0.0000E+00  0.0000E+00  0.0000E+00
 57  0.0000E+00  3.3830E-05  0.0000E+00  0.0000E+00  2.0857E-04  0.0000E+00  0.0000E+00  0.0000E+00  0.0000E+00
 58  0.0000E+00  1.1619E-04  7.8951E-04  2.8438E-04  5.2094E-04  0.0000E+00  0.0000E+00  0.0000E+00  0.0000E+00
 59  0.0000E+00  1.1954E-04  4.1009E-04  0.0000E+00  1.0492E-03  7.1267E-05  0.0000E+00  2.0026E-04  0.0000E+00
 60  0.0000E+00  1.5546E-04  0.0000E+00  8.3290E-04  0.0000E+00  0.0000E+00  0.0000E+00  1.3444E-03  0.0000E+00
 61  0.0000E+00  1.4032E-04  0.0000E+00  0.0000E+00  0.0000E+00  0.0000E+00  0.0000E+00  1.2518E-03  8.7749E-04
 62  0.0000E+00  8.7075E-05  0.0000E+00  2.0558E-04  1.0885E-03  0.0000E+00  0.0000E+00  0.0000E+00  0.0000E+00
 63  0.0000E+00  3.2990E-04  0.0000E+00  0.0000E+00  0.0000E+00  0.0000E+00  0.0000E+00  1.2094E-03  0.0000E+00
 64  0.0000E+00  8.5466E-04  0.0000E+00  0.0000E+00  0.0000E+00  1.3048E-03  0.0000E+00  0.0000E+00  0.0000E+00
 65  0.0000E+00  1.3629E-03  0.0000E+00  0.0000E+00  0.0000E+00  0.0000E+00  4.5517E-03  0.0000E+00  9.4460E-03
 66  0.0000E+00  1.9376E-03  0.0000E+00  0.0000E+00  0.0000E+00  0.0000E+00  0.0000E+00  0.0000E+00  0.0000E+00
 67  0.0000E+00  3.5051E-03  0.0000E+00  0.0000E+00  1.0515E-03  2.1542E-03  8.8812E-03  0.0000E+00  0.0000E+00
 68  0.0000E+00  1.4010E-02  5.1338E-03  2.3757E-02  0.0000E+00  0.0000E+00  0.0000E+00  0.0000E+00  2.3145E-02
 69  0.0000E+00  3.2380E-02  0.0000E+00  1.1945E-02  0.0000E+00  0.0000E+00  0.0000E+00  6.2627E-02  0.0000E+00
 70  0.0000E+00  6.1366E-02  0.0000E+00  9.6613E-02  0.0000E+00  1.8583E-01  0.0000E+00  0.0000E+00  1.2422E-01
 71  0.0000E+00  8.3515E-02  0.0000E+00  0.0000E+00  2.0970E-02  5.0477E-01  0.0000E+00  1.0691E-01  5.6013E-02
 72  0.0000E+00  6.6514E-02  8.8787E-02  0.0000E+00  1.1035E-01  0.0000E+00  0.0000E+00  0.0000E+00  1.4721E-02
 73  0.0000E+00  6.4833E-02  2.4925E-01  0.0000E+00  5.3106E-02  0.0000E+00  0.0000E+00  0.0000E+00  0.0000E+00
 74  0.0000E+00  9.3489E-02  0.0000E+00  0.0000E+00  2.1766E-01  6.2678E-02  0.0000E+00  0.0000E+00  3.0352E-02
 75  0.0000E+00  9.2999E-02  0.0000E+00  0.0000E+00  0.0000E+00  0.0000E+00  7.2107E-02  9.4885E-02  0.0000E+00
 76  0.0000E+00  1.8411E-05  0.0000E+00  0.0000E+00  0.0000E+00  0.0000E+00  0.0000E+00  1.2908E-04  0.0000E+00
 77  0.0000E+00  1.5677E-05  1.0315E-05  1.2031E-04  0.0000E+00  0.0000E+00  0.0000E+00  0.0000E+00  0.0000E+00
 78  0.0000E+00  6.1355E-06  0.0000E+00  0.0000E+00  0.0000E+00  0.0000E+00  0.0000E+00  0.0000E+00  0.0000E+00
 79  0.0000E+00  3.5810E-05  1.2240E-05  0.0000E+00  0.0000E+00  5.9250E-05  2.3476E-04  2.2722E-05  0.0000E+00
 80  0.0000E+00  1.9058E-05  0.0000E+00  6.5680E-05  0.0000E+00  0.0000E+00  0.0000E+00  0.0000E+00  0.0000E+00
 81  0.0000E+00  2.0648E-05  0.0000E+00  0.0000E+00  0.0000E+00  1.5132E-04  0.0000E+00  0.0000E+00  1.6382E-04
 82  0.0000E+00  4.9214E-05  0.0000E+00  0.0000E+00  1.1649E-04  0.0000E+00  2.6208E-04  0.0000E+00  0.0000E+00
 83  0.0000E+00  5.1552E-05  0.0000E+00  0.0000E+00  0.0000E+00  4.1020E-04  0.0000E+00  0.0000E+00  1.2363E-04
 84  0.0000E+00  1.1626E-04  1.6044E-04  9.0311E-05  0.0000E+00  6.6190E-04  0.0000E+00  0.0000E+00  0.0000E+00
 85  0.0000E+00  9.3191E-05  0.0000E+00  0.0000E+00  0.0000E+00  5.5892E-04  0.0000E+00  0.0000E+00  4.1022E-04
 86  0.0000E+00  2.3297E-04  0.0000E+00  0.0000E+00  0.0000E+00  9.8760E-05  0.0000E+00  0.0000E+00  0.0000E+00
 87  0.0000E+00  1.6760E-04  0.0000E+00  9.2325E-05  0.0000E+00  0.0000E+00  3.8861E-04  0.0000E+00  0.0000E+00
 88  0.0000E+00  2.6337E-04  0.0000E+00  0.0000E+00  9.2611E-05  0.0000E+00  0.0000E+00  1.1289E-03  0.0000E+00
 89  0.0000E+00  3.5346E-04  0.0000E+00  0.0000E+00  2.9722E-04  0.0000E+00  0.0000E+00  0.0000E+00  0.0000E+00
 90  0.0000E+00  6.6644E-04  0.0000E+00  0.0000E+00  7.3589E-04  0.0000E+00  0.0000E+00  0.0000E+00  4.7209E-03
 91  0.0000E+00  3.8955E-03  0.0000E+00  0.0000E+00  0.0000E+00  1.8797E-03  0.0000E+00  0.0000E+00  0.0000E+00
 92  0.0000E+00  3.7322E-03  0.0000E+00  0.0000E+00  2.8173E-04  0.0000E+00  0.0000E+00  3.6800E-03  7.4779E-04
 93  0.0000E+00  3.9887E-02  5.5638E-02  1.5013E-01  1.6041E-02  8.8453E-03  4.7281E-02  0.0000E+00  5.8587E-02
 94  1.2126E-01  1.4617E-01  3.2544E-01  2.3537E-01  3.3621E-01  2.5744E-01  2.0101E-01  7.1303E-02  8.7108E-02
 95  8.6887E-01  4.4256E-01  2.8059E-01  0.0000E+00  0.0000E+00  3.3303E-01  4.4982E-01  2.7734E-01  5.7435E-01
 96  2.0500E+00  7.0492E-01  6.9259E-01  1.2257E+00  8.5048E-01  1.0001E+00  9.1826E-01  7.6986E-01  1.1945E+00
 97  1.0449E+00  9.4359E-01  9.1483E-01  7.8401E-01  1.1374E+00  9.2059E-01  1.1403E+00  1.1195E+00  8.8509E-01
 98  1.4165E+00  5.5759E-01  3.9474E-01  1.0277E+00  1.2244E+00  3.7042E-01  1.6166E+00  2.7186E-01  5.3555E-01
 99  1.9321E+00  8.9794E-01  1.3771E+00  6.4459E-01  7.2482E-01  1.0240E+00  6.6555E-01  1.8282E+00  6.4869E-01
100  1.1596E+00  9.1193E-01  4.2869E-01  1.0043E+00  3.7019E-01  1.5575E+00  8.0683E-01  6.2698E-01  1.1441E+00
101  0.0000E+00  2.0115E-05  0.0000E+00  0.0000E+00  0.0000E+00  0.0000E+00  0.0000E+00  1.1815E-04  1.3123E-05
102  0.0000E+00  1.4994E-05  0.0000E+00  1.1141E-06  0.0000E+00  5.0782E-05  4.5607E-06  0.0000E+00  0.0000E+00
103  0.0000E+00  1.4464E-05  0.0000E+00  0.0000E+00  0.0000E+00  0.0000E+00  0.0000E+00  0.0000E+00  0.0000E+00
104  0.0000E+00  3.2297E-05  0.0000E+00  0.0000E+00  0.0000E+00  0.0000E+00  0.0000E+00  2.4129E-04  0.0000E+00
105  0.0000E+00  3.6147E-05  0.0000E+00  1.7161E-04  0.0000E+00  0.0000E+00  0.0000E+00  0.0000E+00  0.0000E+00
106  0.0000E+00  3.8207E-05  0.0000E+00  0.0000E+00  0.0000E+00  0.0000E+00  0.0000E+00  0.0000E+00  1.8597E-04
107  0.0000E+00  5.3693E-05  0.0000E+00  0.0000E+00  0.0000E+00  0.0000E+00  0.0000E+00  0.0000E+00  0.0000E+00
108  0.0000E+00  8.6503E-05  0.0000E+00  9.0592E-06  1.8842E-04  0.0000E+00  0.0000E+00  0.0000E+00  0.0000E+00
109  0.0000E+00  7.3183E-05  0.0000E+00  0.0000E+00  0.0000E+00  0.0000E+00  0.0000E+00  1.3848E-04  0.0000E+00
110  0.0000E+00  1.1635E-04  0.0000E+00  3.0511E-05  0.0000E+00  1.1002E-03  7.6583E-04  0.0000E+00  0.0000E+00
111  0.0000E+00  1.1946E-04  0.0000E+00  0.0000E+00  2.9967E-04  0.0000E+00  1.2115E-03  3.4006E-04  0.0000E+00
112  0.0000E+00  1.7722E-04  1.4636E-04  0.0000E+00  0.0000E+00  0.0000E+00  0.0000E+00  0.0000E+00  0.0000E+00
113  0.0000E+00  2.3157E-04  0.0000E+00  4.5911E-05  1.5559E-03  0.0000E+00  0.0000E+00  0.0000E+00  0.0000E+00
114  0.0000E+00  3.1984E-04  0.0000E+00  0.0000E+00  0.0000E+00  0.0000E+00  0.0000E+00  0.0000E+00  0.0000E+00
115  0.0000E+00  1.8479E-03  0.0000E+00  0.0000E+00  0.0000E+00  1.2106E-02  0.0000E+00  0.0000E+00  0.0000E+00
116  0.0000E+00  6.4753E-03  0.0000E+00  0.0000E+00  0.0000E+00  1.2057E-03  0.0000E+00  2.4639E-03  8.0687E-02
117  0.0000E+00  5.9319E-03  0.0000E+00  7.8212E-03  1.7955E-02  1.6920E-02  0.0000E+00  2.1230E-02  0.0000E+00
118  0.0000E+00  4.1245E-02  1.6176E-01  0.0000E+00  1.7302E-02  0.0000E+00  0.0000E+00  0.0000E+00  0.0000E+00
119  1.0681E-01  9.8154E-02  0.0000E+00  5.8335E-02  0.0000E+00  1.4341E-01  3.1823E-01  8.6833E-02  0.0000E+00
120  4.7166E+00  5.7980E+00  5.6539E+00  5.9458E+00  5.3603E+00  5.3317E+00  5.7020E+00  6.0808E+00  5.7747E+00
121  2.2594E+01  2.2861E+01  2.2656E+01  2.2389E+01  2.3057E+01  2.3286E+01  2.1798E+01  2.3105E+01  2.2921E+01
122  1.2309E+01  1.2627E+01  1.2873E+01  1.3181E+01  1.2774E+01  1.2730E+01  1.2561E+01  1.2556E+01  1.2655E+01
123  7.8431E+00  7.9579E+00  7.9250E+00  7.3559E+00  8.1834E+00  7.4900E+00  8.0444E+00  7.8382E+00  8.4142E+00
124  1.4785E+01  1.5051E+01  1.5903E+01  1.5562E+01  1.4816E+01  1.5337E+01  1.5327E+01  1.4894E+01  1.4838E+01
125  1.2323E+01  1.2557E+01  1.1995E+01  1.2671E+01  1.2974E+01  1.2067E+01  1.2636E+01  1.2580E+01  1.2336E+01
126  0.0000E+00  2.1264E-05  0.0000E+00  0.0000E+00  0.0000E+00  0.0000E+00  0.0000E+00  0.0000E+00  0.0000E+00
127  0.0000E+00  1.5770E-05  4.2941E-06  0.0000E+00  7.9550E-05  0.0000E+00  0.0000E+00  0.0000E+00  0.0000E+00
128  0.0000E+00  7.8128E-06  0.0000E+00  0.0000E+00  0.0000E+00  0.0000E+00  0.0000E+00  1.0110E-04  3.4810E-06
129  0.0000E+00  2.9999E-05  0.0000E+00  0.0000E+00  0.0000E+00  0.0000E+00  0.0000E+00  0.0000E+00  0.0000E+00
130  0.0000E+00  2.7218E-05  0.0000E+00  0.0000E+00  0.0000E+00  0.0000E+00  0.0000E+00  0.0000E+00  0.0000E+00
131  0.0000E+00  1.5230E-05  0.0000E+00  0.0000E+00  0.0000E+00  0.0000E+00  8.3005E-05  0.0000E+00  0.0000E+00
132  0.0000E+00  1.3874E-05  0.0000E+00  0.0000E+00  0.0000E+00  0.0000E+00  0.0000E+00  0.0000E+00  0.0000E+00
133  0.0000E+00  4.7364E-05  0.0000E+00  0.0000E+00  2.0359E-04  0.0000E+00  5.4310E-04  9.8521E-05  0.0000E+00
134  0.0000E+00  7.1536E-05  0.0000E+00  0.0000E+00  0.0000E+00  0.0000E+00  0.0000E+00  0.0000E+00  0.0000E+00
135  0.0000E+00  9.3357E-05  0.0000E+00  0.0000E+00  0.0000E+00  0.0000E+00  3.2871E-04  2.4565E-04  0.0000E+00
136  0.0000E+00  9.7017E-05  0.0000E+00  0.0000E+00  0.0000E+00  0.0000E+00  0.0000E+00  0.0000E+00  0.0000E+00
137  0.0000E+00  1.7307E-04  0.0000E+00  1.9161E-03  0.0000E+00  0.0000E+00  0.0000E+00  0.0000E+00  1.3011E-04
138  0.0000E+00  3.6774E-04  0.0000E+00  0.0000E+00  0.0000E+00  1.0572E-04  0.0000E+00  0.0000E+00  0.0000E+00
139  0.0000E+00  1.0569E-03  0.0000E+00  0.0000E+00  3.2347E-04  0.0000E+00  0.0000E+00  0.0000E+00  3.1859E-03
140  0.0000E+00  2.9317E-03  0.0000E+00  0.0000E+00  0.0000E+00  0.0000E+00  0.0000E+00  0.0000E+00  0.0000E+00
141  0.0000E+00  2.7961E-02  3.1730E-03  0.0000E+00  1.1037E-02  0.0000E+00  0.0000E+00  2.3495E-02  1.1112E-01
142  0.0000E+00  2.3038E-02  0.0000E+00  3.4590E-02  0.0000E+00  0.0000E+00  2.4209E-02  0.0000E+00  2.4062E-02
143  0.0000E+00  1.1888E-01  2.0799E-01  2.7740E-01  2.0306E-01  5.4909E-02  0.0000E+00  1.1310E-01  1.2168E-01
144  0.0000E+00  3.6018E-02  0.0000E+00  0.0000E+00  0.0000E+00  0.0000E+00  1.0152E-01  0.0000E+00  0.0000E+00
145  0.0000E+00  3.9997E-02  0.0000E+00  0.0000E+00  2.0353E-01  0.0000E+00  0.0000E+00  2.3885E-02  0.0000E+00
146  0.0000E+00  6.9045E-02  0.0000E+00  0.0000E+00  1.2610E-01  1.4603E-01  4.0063E-03  0.0000E+00  0.0000E+00
147  0.0000E+00  1.4121E-01  9.6720E-02  6.4017E-03  0.0000E+00  0.0000E+00  0.0000E+00  0.0000E+00  2.3943E-02
148  0.0000E+00  3.3949E-02  0.0000E+00  0.0000E+00  0.0000E+00  0.0000E+00  2.3065E-01  0.0000E+00  0.0000E+00
149  0.0000E+00  5.6852E-02  1.0758E-01  0.0000E+00  0.0000E+00  0.0000E+00  1.9114E-01  0.0000E+00  0.0000E+00
150  0.0000E+00  6.3958E-02  0.0000E+00  0.0000E+00  0.0000E+00  0.0000E+00  0.0000E+00  0.0000E+00  0.0000E+00

# AV, chi2 & Mass for <> & i_chain = 1 ...  7 solutions
AV       0.9729      0.9675      0.9674      0.9681      0.9688      0.9702      0.9678      0.9695      0.9705
chi2 2.6779E+00  2.7541E+00  2.7331E+00  2.7371E+00  2.7389E+00  2.7311E+00  2.7291E+00  2.7345E+00  2.7390E+00
Mass 4.1798E-09  4.1809E-09  4.1761E-09  4.1828E-09  4.2031E-09  4.1799E-09  4.2016E-09  4.1862E-09  4.1604E-09
 -12.26                                  [v0_min (km/s) before EX0s...]
  43.78                                  [vd_min (km/s) before EX0s...]


## Synthetic spectrum (Best Model) ##l_obs f_obs f_syn wei
 3070    [Nl_obs]
 3359.00    0.15692   0.35253   -1.000
 3360.00    0.19556   0.33113   -1.000
 3361.00    0.19788   0.34310   -1.000
 3362.00    0.20908   0.37835   -1.000
 3363.00    0.22362   0.41931   -1.000
 3364.00    0.24350   0.44360   -1.000
 3365.00    0.25806   0.44074   -1.000
 3366.00    0.26367   0.42247   -1.000
 3367.00    0.25836   0.40417   -1.000
 3368.00    0.24916   0.38741   -1.000
 3369.00    0.23892   0.37359   -1.000
 3370.00    0.23524   0.35753   -1.000
 3371.00    0.22970   0.34889   -1.000
 3372.00    0.23308   0.35731   -1.000
 3373.00    0.24803   0.38279   -1.000
 3374.00    0.26448   0.41617   -1.000
 3375.00    0.27600   0.44664   -1.000
 3376.00    0.28874   0.46106   -1.000
 3377.00    0.30085   0.45301   -1.000
 3378.00    0.30497   0.42869   -1.000
 3379.00    0.29976   0.40860   -1.000
 3380.00    0.28705   0.40405   -1.000
 3381.00    0.28540   0.41452   -1.000
 3382.00    0.28959   0.42847   -1.000
 3383.00    0.29533   0.44094   -1.000
 3384.00    0.29953   0.45128   -1.000
 3385.00    0.31091   0.45970   -1.000
 3386.00    0.31527   0.45772   -1.000
 3387.00    0.31513   0.44868   -1.000
 3388.00    0.32745   0.44361   -1.000
 3389.00    0.33775   0.44759   -1.000
 3390.00    0.33652   0.45004   -1.000
 3391.00    0.33163   0.44260   -1.000
 3392.00    0.33343   0.42830   -1.000
 3393.00    0.33168   0.42332   -1.000
 3394.00    0.33315   0.43463   -1.000
 3395.00    0.34549   0.45644   -1.000
 3396.00    0.36483   0.47726   -1.000
 3397.00    0.38199   0.49491   -1.000
 3398.00    0.39841   0.50933   -1.000
 3399.00    0.41242   0.51618   -1.000
 3400.00    0.41199   0.51254   -1.000
 3401.00    0.41461   0.49901   -1.000
 3402.00    0.40896   0.47912   -1.000
 3403.00    0.39919   0.46473   -1.000
 3404.00    0.39988   0.45644   -1.000
 3405.00    0.39331   0.45412   -1.000
 3406.00    0.38556   0.45030   -1.000
 3407.00    0.38128   0.44326   -1.000
 3408.00    0.37399   0.43966   -1.000
 3409.00    0.37720   0.44532   -1.000
 3410.00    0.37969   0.45592   -1.000
 3411.00    0.38504   0.45368   -1.000
 3412.00    0.38559   0.43743   53.989
 3413.00    0.38373   0.41830   55.279
 3414.00    0.37740   0.41163   55.382
 3415.00    0.37410   0.42556   54.248
 3416.00    0.37818   0.44819   -1.000
 3417.00    0.39098   0.47141   -1.000
 3418.00    0.41048   0.48931   -1.000
 3419.00    0.42082   0.50235   -1.000
 3420.00    0.42763   0.50580   -1.000
 3421.00    0.43664   0.49535   46.423
 3422.00    0.43113   0.47282   47.567
 3423.00    0.42697   0.45655   48.715
 3424.00    0.42297   0.45352   47.817
 3425.00    0.42155   0.45935   46.525
 3426.00    0.43275   0.46799   46.076
 3427.00    0.43380   0.48182   -1.000
 3428.00    0.44408   0.50315   -1.000
 3429.00    0.45667   0.52304   -1.000
 3430.00    0.46332   0.52305   -1.000
 3431.00    0.46243   0.50126   -1.000
 3432.00    0.45297   0.47581   57.445
 3433.00    0.44696   0.46763   45.965
 3434.00    0.44473   0.48048   -1.000
 3435.00    0.44613   0.49395   -1.000
 3436.00    0.45139   0.49194   56.979
 3437.00    0.44185   0.47361   47.572
 3438.00    0.42762   0.44635   50.308
 3439.00    0.40821   0.41501   54.114
 3440.00    0.37913   0.38831   56.753
 3441.00    0.36248   0.36943   57.295
 3442.00    0.35264   0.36700   57.115
 3443.00    0.36120   0.37763   55.246
 3444.00    0.37511   0.39447   52.377
 3445.00    0.39036   0.41339   49.480
 3446.00    0.40901   0.43679   47.556
 3447.00    0.42836   0.46180   -1.000
 3448.00    0.44808   0.48590   -1.000
 3449.00    0.46314   0.50102   -1.000
 3450.00    0.47044   0.49608   -1.000
 3451.00    0.47233   0.47613  375.031
 3452.00    0.46249   0.46128  375.031
 3453.00    0.45636   0.46112  375.031
 3454.00    0.46095   0.47301   -1.000
 3455.00    0.47252   0.48184   -1.000
 3456.00    0.47883   0.47731  375.031
 3457.00    0.46770   0.46301  375.031
 3458.00    0.45642   0.44447   56.802
 3459.00    0.45061   0.43014   46.516
 3460.00    0.44242   0.42047   46.396
 3461.00    0.43809   0.42336  158.045
 3462.00    0.44467   0.44060  375.031
 3463.00    0.45698   0.45960  375.031
 3464.00    0.47415   0.46446   -1.000
 3465.00    0.48386   0.45953   -1.000
 3466.00    0.48269   0.46044   -1.000
 3467.00    0.48121   0.47363  375.031
 3468.00    0.48459   0.49378   -1.000
 3469.00    0.50056   0.50859   -1.000
 3470.00    0.51535   0.51126  375.031
 3471.00    0.51454   0.49945   -1.000
 3472.00    0.49971   0.47691   -1.000
 3473.00    0.48094   0.44590   -1.000
 3474.00    0.45708   0.41984   57.046
 3475.00    0.43265   0.40683   47.791
 3476.00    0.42662   0.41496   47.301
 3477.00    0.44017   0.43986  160.660
 3478.00    0.46363   0.46642  375.031
 3479.00    0.49352   0.48427   -1.000
 3480.00    0.50715   0.49229   -1.000
 3481.00    0.51456   0.48910   -1.000
 3482.00    0.51038   0.47918   -1.000
 3483.00    0.50114   0.47057   -1.000
 3484.00    0.49553   0.47178   -1.000
 3485.00    0.49724   0.48664   -1.000
 3486.00    0.51742   0.50170   -1.000
 3487.00    0.52763   0.50298   -1.000
 3488.00    0.52324   0.48469   -1.000
 3489.00    0.49854   0.45726   -1.000
 3490.00    0.47489   0.43796   -1.000
 3491.00    0.46753   0.43812   -1.000
 3492.00    0.46906   0.45104   -1.000
 3493.00    0.47359   0.46180   -1.000
 3494.00    0.48128   0.46397   -1.000
 3495.00    0.48211   0.45548   -1.000
 3496.00    0.47184   0.44813   -1.000
 3497.00    0.46958   0.45455   -1.000
 3498.00    0.48253   0.47402  375.031
 3499.00    0.50992   0.49631   -1.000
 3500.00    0.53619   0.50704   -1.000
 3501.00    0.54954   0.51341   -1.000
 3502.00    0.55447   0.52228   -1.000
 3503.00    0.55699   0.52628   -1.000
 3504.00    0.55831   0.52066   -1.000
 3505.00    0.54582   0.50835   -1.000
 3506.00    0.53151   0.49853   -1.000
 3507.00    0.52669   0.49482   -1.000
 3508.00    0.52945   0.49103   -1.000
 3509.00    0.53478   0.48428   -1.000
 3510.00    0.52023   0.47619   -1.000
 3511.00    0.50078   0.46593   -1.000
 3512.00    0.50060   0.45325   -1.000
 3513.00    0.49501   0.44307   -1.000
 3514.00    0.48882   0.44551   -1.000
 3515.00    0.49224   0.46824   -1.000
 3516.00    0.51618   0.50449   -1.000
 3517.00    0.54386   0.53136   -1.000
 3518.00    0.55744   0.53526   -1.000
 3519.00    0.54517   0.51555   -1.000
 3520.00    0.52308   0.48922   -1.000
 3521.00    0.50795   0.46478   -1.000
 3522.00    0.48956   0.44646   -1.000
 3523.00    0.47171   0.42822   55.886
 3524.00    0.45706   0.41098   47.335
 3525.00    0.44219   0.40675   47.404
 3526.00    0.43931   0.42381  167.680
 3527.00    0.45624   0.45380  375.031
 3528.00    0.48044   0.48666  375.031
 3529.00    0.50923   0.50798  375.031
 3530.00    0.52340   0.51427   -1.000
 3531.00    0.51764   0.51015  375.031
 3532.00    0.51440   0.50429   -1.000
 3533.00    0.51541   0.50064   -1.000
 3534.00    0.52158   0.50341   -1.000
 3535.00    0.53102   0.51085   -1.000
 3536.00    0.53409   0.52285   -1.000
 3537.00    0.53484   0.53826  366.771
 3538.00    0.54030   0.55094   -1.000
 3539.00    0.55514   0.55441  363.885
 3540.00    0.55146   0.54775  370.166
 3541.00    0.53444   0.53850  374.072
 3542.00    0.53129   0.53867  372.679
 3543.00    0.53502   0.54942   -1.000
 3544.00    0.54023   0.55798   -1.000
 3545.00    0.54380   0.55744   -1.000
 3546.00    0.54181   0.54938  375.031
 3547.00    0.52901   0.54210   -1.000
 3548.00    0.52431   0.54130   -1.000
 3549.00    0.52731   0.54514   -1.000
 3550.00    0.52672   0.54765   -1.000
 3551.00    0.52457   0.54212   -1.000
 3552.00    0.51133   0.52713   -1.000
 3553.00    0.49942   0.51078   -1.000
 3554.00    0.49574   0.50548   -1.000
 3555.00    0.49356   0.51182   -1.000
 3556.00    0.49819   0.52019   -1.000
 3557.00    0.50101   0.52552   -1.000
 3558.00    0.49688   0.52556   -1.000
 3559.00    0.49386   0.52626   -1.000
 3560.00    0.49321   0.53274   -1.000
 3561.00    0.49624   0.54070   -1.000
 3562.00    0.50124   0.53998   -1.000
 3563.00    0.50503   0.51861   -1.000
 3564.00    0.48453   0.48269   55.822
 3565.00    0.44776   0.44933   48.015
 3566.00    0.42876   0.43803   47.908
 3567.00    0.42901   0.44047   47.585
 3568.00    0.42249   0.43839   48.872
 3569.00    0.41800   0.42915   49.916
 3570.00    0.40994   0.42060   48.776
 3571.00    0.41714   0.42352   46.696
 3572.00    0.43443   0.43771  171.158
 3573.00    0.45103   0.45153  375.031
 3574.00    0.45880   0.46351  375.031
 3575.00    0.46796   0.47246  375.031
 3576.00    0.47161   0.47462  375.031
 3577.00    0.46282   0.46809  375.031
 3578.00    0.45471   0.45265   57.522
 3579.00    0.43638   0.42733   51.128
 3580.00    0.41242   0.40414   54.172
 3581.00    0.38866   0.39163   54.980
 3582.00    0.37893   0.39234   55.224
 3583.00    0.37875   0.39590   56.416
 3584.00    0.37683   0.39176   58.209
 3585.00    0.36960   0.38054   59.225
 3586.00    0.36535   0.37282   56.859
 3587.00    0.37125   0.37919   53.843
 3588.00    0.38353   0.40152   51.196
 3589.00    0.40488   0.43660   46.943
 3590.00    0.43203   0.47007   -1.000
 3591.00    0.46382   0.49158   -1.000
 3592.00    0.48889   0.49666   -1.000
 3593.00    0.49094   0.49820  375.031
 3594.00    0.49640   0.50821   -1.000
 3595.00    0.50828   0.52761   -1.000
 3596.00    0.52749   0.54738   -1.000
 3597.00    0.54869   0.55883   -1.000
 3598.00    0.55982   0.56641  346.023
 3599.00    0.56316   0.57140  348.537
 3600.00    0.57425   0.56491   -1.000
 3601.00    0.56049   0.54236   -1.000
 3602.00    0.53455   0.51555   -1.000
 3603.00    0.50950   0.49501   -1.000
 3604.00    0.49436   0.48764  375.031
 3605.00    0.48862   0.48651  375.031
 3606.00    0.49035   0.48140   -1.000
 3607.00    0.49429   0.46851   -1.000
 3608.00    0.47947   0.45414   -1.000
 3609.00    0.45875   0.45110  375.031
 3610.00    0.45734   0.46227  375.031
 3611.00    0.48092   0.48210  375.031
 3612.00    0.49969   0.49833  375.031
 3613.00    0.50518   0.51263   -1.000
 3614.00    0.51650   0.52940   -1.000
 3615.00    0.53375   0.54078  375.031
 3616.00    0.53305   0.52908  375.031
 3617.00    0.50935   0.49568   -1.000
 3618.00    0.46841   0.45884   54.351
 3619.00    0.44451   0.45041  173.987
 3620.00    0.46301   0.47264   -1.000
 3621.00    0.49922   0.50839   -1.000
 3622.00    0.52837   0.53700   -1.000
 3623.00    0.54379   0.55651   -1.000
 3624.00    0.55328   0.57666   -1.000
 3625.00    0.57644   0.60557   -1.000
 3626.00    0.60220   0.63457   -1.000
 3627.00    0.61672   0.64688   -1.000
 3628.00    0.61633   0.62731   -1.000
 3629.00    0.58006   0.57834  375.031
 3630.00    0.52458   0.51811  375.031
 3631.00    0.48073   0.48328  375.031
 3632.00    0.46931   0.48153   -1.000
 3633.00    0.48484   0.50259   -1.000
 3634.00    0.50054   0.52366   -1.000
 3635.00    0.51083   0.53772   -1.000
 3636.00    0.53184   0.55007   -1.000
 3637.00    0.55049   0.57048   -1.000
 3638.00    0.56762   0.59479   -1.000
 3639.00    0.59290   0.61196   -1.000
 3640.00    0.59990   0.61597   -1.000
 3641.00    0.59242   0.60382   -1.000
 3642.00    0.58097   0.58175  368.321
 3643.00    0.55921   0.56012  375.031
 3644.00    0.53717   0.54156  375.031
 3645.00    0.51985   0.52607  375.031
 3646.00    0.51179   0.51219  375.031
 3647.00    0.50356   0.50098  375.031
 3648.00    0.49352   0.50058  375.031
 3649.00    0.50336   0.51260   -1.000
 3650.00    0.52699   0.53675   -1.000
 3651.00    0.55136   0.56604   -1.000
 3652.00    0.57667   0.59509   -1.000
 3653.00    0.59627   0.61292   -1.000
 3654.00    0.60562   0.62557   -1.000
 3655.00    0.61518   0.63796   -1.000
 3656.00    0.61966   0.65195   -1.000
 3657.00    0.63224   0.66524   -1.000
 3658.00    0.64439   0.67184   -1.000
 3659.00    0.64796   0.67320   -1.000
 3660.00    0.64692   0.66786   -1.000
 3661.00    0.63829   0.65440   -1.000
 3662.00    0.62346   0.63712   -1.000
 3663.00    0.61411   0.62643   -1.000
 3664.00    0.61174   0.62539   -1.000
 3665.00    0.61926   0.62982   -1.000
 3666.00    0.61983   0.63003   -1.000
 3667.00    0.61011   0.62101   -1.000
 3668.00    0.60208   0.60602  344.743
 3669.00    0.58793   0.59645   -1.000
 3670.00    0.59081   0.60373   -1.000
 3671.00    0.60797   0.62212   -1.000
 3672.00    0.62353   0.63824   -1.000
 3673.00    0.62868   0.64524   -1.000
 3674.00    0.62990   0.64219   -1.000
 3675.00    0.62717   0.63012  332.258
 3676.00    0.61461   0.60825  342.650
 3677.00    0.59189   0.58126   -1.000
 3678.00    0.57060   0.55801   -1.000
 3679.00    0.55730   0.54783   -1.000
 3680.00    0.55777   0.55397  354.456
 3681.00    0.56866   0.57021  344.292
 3682.00    0.58343   0.58518  340.129
 3683.00    0.59663   0.59056  346.797
 3684.00    0.59551   0.58106   -1.000
 3685.00    0.57809   0.55940   -1.000
 3686.00    0.54924   0.53770   -1.000
 3687.00    0.53557   0.53518  374.790
 3688.00    0.54006   0.55555   -1.000
 3689.00    0.57484   0.59219   -1.000
 3690.00    0.60790   0.62668   -1.000
 3691.00    0.63785   0.64559  317.556
 3692.00    0.64715   0.64150  325.539
 3693.00    0.63188   0.62664  330.672
 3694.00    0.62094   0.61720  330.036
 3695.00    0.61977   0.61648  327.278
 3696.00    0.62111   0.62259  323.412
 3697.00    0.63341   0.63605  313.660
 3698.00    0.65096   0.65783  305.353
 3699.00    0.66753   0.67619  300.776
 3700.00    0.68854   0.68227  305.189
 3701.00    0.68189   0.66535   -1.000
 3702.00    0.64237   0.62410   -1.000
 3703.00    0.60255   0.56867   -1.000
 3704.00    0.55922   0.52247   -1.000
 3705.00    0.52241   0.49590   -1.000
 3706.00    0.51725   0.49321   -1.000
 3707.00    0.52463   0.50201   -1.000
 3708.00    0.53013   0.51547   -1.000
 3709.00    0.54280   0.53269   -1.000
 3710.00    0.56875   0.55571   -1.000
 3711.00    0.59272   0.58287  323.979
 3712.00    0.61968   0.61530  308.046
 3713.00    0.65882   0.64621   -1.000
 3714.00    0.68205   0.66419   -1.000
 3715.00    0.68533   0.66504   -1.000
 3716.00    0.68117   0.64912   -1.000
 3717.00    0.65982   0.61287   -1.000
 3718.00    0.61337   0.55827   -1.000
 3719.00    0.54420   0.49521   -1.000
 3720.00    0.48266   0.44121   54.089
 3721.00    0.45259   0.42571   -1.000
 3722.00    0.46442   0.45279   -1.000
 3723.00    0.51647   0.50676  351.357
 3724.00    0.58470   0.56301   -1.000
 3725.00    0.62978   0.59484   -1.000
 3726.00    0.63444   0.59588   -1.000
 3727.00    0.61736   0.58731   -1.000
 3728.00    0.60804   0.58816   -1.000
 3729.00    0.60715   0.59174   -1.000
 3730.00    0.60251   0.58243   -1.000
 3731.00    0.57804   0.54613   -1.000
 3732.00    0.53543   0.48419   52.841
 3733.00    0.47763   0.42505   50.507
 3734.00    0.42557   0.38420   53.023
 3735.00    0.39876   0.37607   50.986
 3736.00    0.40820   0.40255   46.461
 3737.00    0.44914   0.45410  187.092
 3738.00    0.50792   0.51294  369.550
 3739.00    0.55901   0.56922   -1.000
 3740.00    0.59778   0.60131  341.751
 3741.00    0.61635   0.60137   -1.000
 3742.00    0.60556   0.57459   -1.000
 3743.00    0.57003   0.53982   -1.000
 3744.00    0.53755   0.50627   -1.000
 3745.00    0.50803   0.48334   -1.000
 3746.00    0.48055   0.46298   53.515
 3747.00    0.46172   0.43730   49.065
 3748.00    0.43669   0.41525   49.966
 3749.00    0.41841   0.41100  208.383
 3750.00    0.44053   0.43665  375.031
 3751.00    0.50071   0.48882   -1.000
 3752.00    0.56546   0.54847   -1.000
 3753.00    0.61729   0.60460   -1.000
 3754.00    0.65894   0.64436   -1.000
 3755.00    0.68042   0.64943   -1.000
 3756.00    0.66496   0.61854   -1.000
 3757.00    0.60738   0.57065   -1.000
 3758.00    0.54949   0.53584   -1.000
 3759.00    0.53549   0.53200  375.031
 3760.00    0.56102   0.54750   -1.000
 3761.00    0.58729   0.56498   -1.000
 3762.00    0.59676   0.57110   -1.000
 3763.00    0.59751   0.57007   -1.000
 3764.00    0.59537   0.56678   -1.000
 3765.00    0.59593   0.56001   -1.000
 3766.00    0.58633   0.55002   -1.000
 3767.00    0.57291   0.54098   -1.000
 3768.00    0.57557   0.53317   -1.000
 3769.00    0.57405   0.52775   -1.000
 3770.00    0.57342   0.53294   -1.000
 3771.00    0.58222   0.55566   -1.000
 3772.00    0.61251   0.58808   -1.000
 3773.00    0.64224   0.61826   -1.000
 3774.00    0.66161   0.63419   -1.000
 3775.00    0.66022   0.63976   -1.000
 3776.00    0.66513   0.64489   -1.000
 3777.00    0.67739   0.65601   -1.000
 3778.00    0.68321   0.67501  302.144
 3779.00    0.69794   0.69551  294.710
 3780.00    0.71619   0.71215  292.153
 3781.00    0.72868   0.72049  290.367
 3782.00    0.73259   0.72147   -1.000
 3783.00    0.73413   0.71567   -1.000
 3784.00    0.73223   0.69759   -1.000
 3785.00    0.70634   0.66551   -1.000
 3786.00    0.65779   0.63021   -1.000
 3787.00    0.62399   0.60020   -1.000
 3788.00    0.60605   0.58383   -1.000
 3789.00    0.59258   0.58545  354.115
 3790.00    0.59290   0.59600  350.153
 3791.00    0.60879   0.60241  354.517
 3792.00    0.61256   0.59560   -1.000
 3793.00    0.58849   0.57296   -1.000
 3794.00    0.55868   0.54510   -1.000
 3795.00    0.53751   0.51567   -1.000
 3796.00    0.51559   0.48565   -1.000
 3797.00    0.49345   0.45948   -1.000
 3798.00    0.47843   0.45299   -1.000
 3799.00    0.49358   0.48108   -1.000
 3800.00    0.53322   0.53769  350.455
 3801.00    0.57654   0.59451   -1.000
 3802.00    0.61948   0.63881   -1.000
 3803.00    0.65460   0.66143  323.077
 3804.00    0.66380   0.66492  327.305
 3805.00    0.65333   0.65339  339.013
 3806.00    0.63769   0.64064  346.386
 3807.00    0.63200   0.64034  339.014
 3808.00    0.63516   0.65636   -1.000
 3809.00    0.65634   0.67753   -1.000
 3810.00    0.67531   0.68767   -1.000
 3811.00    0.67569   0.67423  343.266
 3812.00    0.65107   0.63839   -1.000
 3813.00    0.61116   0.59839   -1.000
 3814.00    0.57804   0.56685   -1.000
 3815.00    0.55385   0.55745  375.031
 3816.00    0.55423   0.56716   -1.000
 3817.00    0.57138   0.57814  375.031
 3818.00    0.57241   0.57041  375.031
 3819.00    0.54734   0.54583  375.031
 3820.00    0.51990   0.52909   -1.000
 3821.00    0.52286   0.53214   -1.000
 3822.00    0.54435   0.54456  375.031
 3823.00    0.54378   0.53994  375.031
 3824.00    0.51222   0.51396   54.304
 3825.00    0.47983   0.48975   48.959
 3826.00    0.46301   0.47796   48.693
 3827.00    0.46833   0.47710   47.940
 3828.00    0.47717   0.48141   47.151
 3829.00    0.48334   0.48421   47.593
 3830.00    0.48324   0.47768   49.605
 3831.00    0.46354   0.45853   53.419
 3832.00    0.43876   0.42983   55.352
 3833.00    0.41284   0.40197   54.539
 3834.00    0.40542   0.38757   52.430
 3835.00    0.41307   0.38874   51.179
 3836.00    0.42561   0.39945   52.043
 3837.00    0.43511   0.41144   53.300
 3838.00    0.43196   0.42391   52.578
 3839.00    0.43692   0.44171   49.759
 3840.00    0.45715   0.47073   -1.000
 3841.00    0.49102   0.51323   -1.000
 3842.00    0.54174   0.55724   -1.000
 3843.00    0.57824   0.59440   -1.000
 3844.00    0.59994   0.61611   -1.000
 3845.00    0.59617   0.62652   -1.000
 3846.00    0.59508   0.63422   -1.000
 3847.00    0.59526   0.63684   -1.000
 3848.00    0.59348   0.62931   -1.000
 3849.00    0.57852   0.61741   -1.000
 3850.00    0.56765   0.61426   -1.000
 3851.00    0.57719   0.62574   -1.000
 3852.00    0.59515   0.63895   -1.000
 3853.00    0.59297   0.64176   -1.000
 3854.00    0.58407   0.63128   -1.000
 3855.00    0.57149   0.61449   -1.000
 3856.00    0.55855   0.59657   -1.000
 3857.00    0.54928   0.57655   51.043
 3858.00    0.52834   0.55598   48.061
 3859.00    0.50413   0.54971   47.400
 3860.00    0.49793   0.56622   -1.000
 3861.00    0.53289   0.60133   -1.000
 3862.00    0.58389   0.63447   -1.000
 3863.00    0.61620   0.64999   -1.000
 3864.00    0.62465   0.64697   -1.000
 3865.00    0.61265   0.63895   -1.000
 3866.00    0.59851   0.63609   -1.000
 3867.00    0.59305   0.63613   -1.000
 3868.00    0.58362   0.63191   -1.000
 3869.00    0.56662   0.61806   -1.000
 3870.00    0.54386   0.59582   51.581
 3871.00    0.52440   0.57940   -1.000
 3872.00    0.52658   0.57834   -1.000
 3873.00    0.55832   0.59674   -1.000
 3874.00    0.60108   0.62180   -1.000
 3875.00    0.63401   0.63535  364.795
 3876.00    0.62795   0.62275  375.031
 3877.00    0.58880   0.59569  375.031
 3878.00    0.55559   0.57754   -1.000
 3879.00    0.54837   0.57537   -1.000
 3880.00    0.54181   0.58151   -1.000
 3881.00    0.52845   0.58517   -1.000
 3882.00    0.53449   0.58700   -1.000
 3883.00    0.56101   0.58988   -1.000
 3884.00    0.59223   0.57999   -1.000
 3885.00    0.58527   0.54799   -1.000
 3886.00    0.54961   0.50757   -1.000
 3887.00    0.52951   0.47548   -1.000
 3888.00    0.52503   0.46980   -1.000
 3889.00    0.53785   0.49619   -1.000
 3890.00    0.58595   0.54586   -1.000
 3891.00    0.64614   0.59948   -1.000
 3892.00    0.68583   0.63814   -1.000
 3893.00    0.69929   0.65053   -1.000
 3894.00    0.69315   0.65000   -1.000
 3895.00    0.69514   0.65315   -1.000
 3896.00    0.70571   0.66249   -1.000
 3897.00    0.71404   0.67205   -1.000
 3898.00    0.71511   0.67440   -1.000
 3899.00    0.71161   0.67370   -1.000
 3900.00    0.71831   0.67853   -1.000
 3901.00    0.73109   0.68312   -1.000
 3902.00    0.73448   0.67874   -1.000
 3903.00    0.72227   0.66594   -1.000
 3904.00    0.70097   0.65065   -1.000
 3905.00    0.68451   0.64690   -1.000
 3906.00    0.68312   0.66172   -1.000
 3907.00    0.70890   0.69346   -1.000
 3908.00    0.74804   0.72836   -1.000
 3909.00    0.78061   0.75508   -1.000
 3910.00    0.79723   0.76888   -1.000
 3911.00    0.80612   0.77532   -1.000
 3912.00    0.80849   0.77628   -1.000
 3913.00    0.80113   0.77061   -1.000
 3914.00    0.78168   0.75901   -1.000
 3915.00    0.76873   0.74739   -1.000
 3916.00    0.76562   0.73678   -1.000
 3917.00    0.75702   0.72375   -1.000
 3918.00    0.73747   0.70374   -1.000
 3919.00    0.71206   0.67899   -1.000
 3920.00    0.68730   0.65927   -1.000
 3921.00    0.67209   0.64993   -1.000
 3922.00    0.67023   0.65395   -1.000
 3923.00    0.67647   0.66223   -1.000
 3924.00    0.67705   0.66185   -1.000
 3925.00    0.66311   0.64476   -1.000
 3926.00    0.62481   0.60827   -1.000
 3927.00    0.56420   0.56197   56.102
 3928.00    0.50365   0.50915   58.621
 3929.00    0.44746   0.45518   68.601
 3930.00    0.38181   0.39687   81.100
 3931.00    0.31746   0.33100   94.987
 3932.00    0.26015   0.27277  104.492
 3933.00    0.24008   0.23989  101.328
 3934.00    0.25692   0.24839   88.623
 3935.00    0.28980   0.29765   73.536
 3936.00    0.34411   0.36967   60.401
 3937.00    0.40636   0.44405   50.681
 3938.00    0.46772   0.51512   -1.000
 3939.00    0.52429   0.56853   -1.000
 3940.00    0.57122   0.60341   -1.000
 3941.00    0.59342   0.61968   -1.000
 3942.00    0.59686   0.62213   -1.000
 3943.00    0.58846   0.62425   -1.000
 3944.00    0.60572   0.64006   -1.000
 3945.00    0.65152   0.66769   -1.000
 3946.00    0.70695   0.69328   -1.000
 3947.00    0.72095   0.70859   -1.000
 3948.00    0.72072   0.71769  300.651
 3949.00    0.73989   0.72842   -1.000
 3950.00    0.76290   0.73800   -1.000
 3951.00    0.76486   0.73897   -1.000
 3952.00    0.75609   0.74060   -1.000
 3953.00    0.76532   0.74911   -1.000
 3954.00    0.78281   0.75475   -1.000
 3955.00    0.78084   0.74975   -1.000
 3956.00    0.75466   0.73774   -1.000
 3957.00    0.74229   0.72955   -1.000
 3958.00    0.74767   0.72614   -1.000
 3959.00    0.73933   0.70680   -1.000
 3960.00    0.68780   0.66154   -1.000
 3961.00    0.61523   0.61069  375.031
 3962.00    0.56207   0.56605  375.031
 3963.00    0.53209   0.53383   52.419
 3964.00    0.49930   0.49679   55.310
 3965.00    0.43328   0.43722   67.932
 3966.00    0.35449   0.36387   83.201
 3967.00    0.28470   0.29241   92.810
 3968.00    0.24933   0.25276   87.421
 3969.00    0.25841   0.25978   72.659
 3970.00    0.30313   0.30886   59.690
 3971.00    0.36692   0.38052   49.871
 3972.00    0.43499   0.45835   -1.000
 3973.00    0.50272   0.52650   -1.000
 3974.00    0.56749   0.58782   -1.000
 3975.00    0.62821   0.64037   -1.000
 3976.00    0.68074   0.68623  294.378
 3977.00    0.72588   0.72939  278.805
 3978.00    0.77758   0.76732  263.791
 3979.00    0.81884   0.79753   -1.000
 3980.00    0.84479   0.80940   -1.000
 3981.00    0.84259   0.80721   -1.000
 3982.00    0.83080   0.80207   -1.000
 3983.00    0.82861   0.80448   -1.000
 3984.00    0.84376   0.81726   -1.000
 3985.00    0.86409   0.83507   -1.000
 3986.00    0.87966   0.85479   -1.000
 3987.00    0.89642   0.87272   -1.000
 3988.00    0.90744   0.88175   -1.000
 3989.00    0.90880   0.88245   -1.000
 3990.00    0.90713   0.88430   -1.000
 3991.00    0.92327   0.89342   -1.000
 3992.00    0.94530   0.90568   -1.000
 3993.00    0.94635   0.91115   -1.000
 3994.00    0.93218   0.90390   -1.000
 3995.00    0.90972   0.88644   -1.000
 3996.00    0.89071   0.86836   -1.000
 3997.00    0.87478   0.86531  246.147
 3998.00    0.88550   0.88194  235.094
 3999.00    0.92256   0.91049  226.941
 4000.00    0.95869   0.93538   -1.000
 4001.00    0.98480   0.95085   -1.000
 4002.00    0.99234   0.95003   -1.000
 4003.00    0.98024   0.92687   -1.000
 4004.00    0.92945   0.88737   -1.000
 4005.00    0.87962   0.85964   -1.000
 4006.00    0.87424   0.86460  236.159
 4007.00    0.91197   0.89655   -1.000
 4008.00    0.95274   0.93270   -1.000
 4009.00    0.97371   0.95402   -1.000
 4010.00    0.98385   0.96315   -1.000
 4011.00    0.98256   0.96674   -1.000
 4012.00    0.98577   0.96893   -1.000
 4013.00    0.99592   0.97313   -1.000
 4014.00    1.00000   0.97932   -1.000
 4015.00    1.01025   0.98285   -1.000
 4016.00    1.00772   0.98165   -1.000
 4017.00    0.99545   0.98256  221.498
 4018.00    1.00238   0.99032  218.162
 4019.00    1.01628   0.99927   -1.000
 4020.00    1.02676   1.00223   -1.000
 4021.00    1.02340   0.99620   -1.000
 4022.00    1.01313   0.98636   -1.000
 4023.00    1.00038   0.97712   -1.000
 4024.00    0.98832   0.97348   -1.000
 4025.00    0.99751   0.98184   -1.000
 4026.00    1.03062   1.00253   -1.000
 4027.00    1.05908   1.02037   -1.000
 4028.00    1.05952   1.01313   -1.000
 4029.00    1.02115   0.97398   -1.000
 4030.00    0.95674   0.91911   -1.000
 4031.00    0.90202   0.87815   -1.000
 4032.00    0.88627   0.86046   -1.000
 4033.00    0.89497   0.86697   -1.000
 4034.00    0.91691   0.89642   -1.000
 4035.00    0.96186   0.94495   -1.000
 4036.00    1.01691   0.99666   -1.000
 4037.00    1.05976   1.03593   -1.000
 4038.00    1.07744   1.04610   -1.000
 4039.00    1.06096   1.03434   -1.000
 4040.00    1.03275   1.01884  216.421
 4041.00    1.02649   1.00818   -1.000
 4042.00    1.02103   0.98556   -1.000
 4043.00    0.98827   0.93412   -1.000
 4044.00    0.91117   0.86602   -1.000
 4045.00    0.82762   0.82250  259.624
 4046.00    0.82445   0.84019   -1.000
 4047.00    0.90993   0.90470  220.150
 4048.00    0.99759   0.96975   -1.000
 4049.00    1.02952   1.01218   -1.000
 4050.00    1.04812   1.02650   -1.000
 4051.00    1.04892   1.02252   -1.000
 4052.00    1.02993   1.00627   -1.000
 4053.00    1.00145   0.98630   -1.000
 4054.00    0.97790   0.96877  229.010
 4055.00    0.97219   0.95452   -1.000
 4056.00    0.97311   0.94223   -1.000
 4057.00    0.96362   0.93688   -1.000
 4058.00    0.95500   0.94912  222.263
 4059.00    0.97588   0.97255  217.676
 4060.00    1.00429   0.98014   -1.000
 4061.00    1.00430   0.95159   -1.000
 4062.00    0.95080   0.89878   -1.000
 4063.00    0.87787   0.86313   -1.000
 4064.00    0.87357   0.86080   -1.000
 4065.00    0.92163   0.88231   -1.000
 4066.00    0.94525   0.91169   -1.000
 4067.00    0.95777   0.93825   -1.000
 4068.00    0.99087   0.95540   -1.000
 4069.00    1.02433   0.95308   -1.000
 4070.00    0.99867   0.92710   -1.000
 4071.00    0.94598   0.90048   -1.000
 4072.00    0.93206   0.90217   -1.000
 4073.00    0.96143   0.92366   -1.000
 4074.00    0.98878   0.93320   -1.000
 4075.00    0.96263   0.90918   -1.000
 4076.00    0.89846   0.86997   -1.000
 4077.00    0.85828   0.85241  253.468
 4078.00    0.86595   0.87327  236.290
 4079.00    0.91229   0.92525   -1.000
 4080.00    0.98801   0.97619  212.936
 4081.00    1.02665   1.00316   -1.000
 4082.00    1.01604   0.99796   -1.000
 4083.00    0.99121   0.97710  227.114
 4084.00    0.97063   0.96340  223.977
 4085.00    0.97177   0.97167  216.513
 4086.00    1.00202   0.99991  208.189
 4087.00    1.04276   1.03138  201.427
 4088.00    1.07951   1.05243   -1.000
 4089.00    1.08137   1.05235   -1.000
 4090.00    1.07564   1.03701   -1.000
 4091.00    1.04939   1.02021   -1.000
 4092.00    1.02711   1.00970   -1.000
 4093.00    1.03137   0.99608   -1.000
 4094.00    1.02734   0.97230   -1.000
 4095.00    0.98868   0.93909   -1.000
 4096.00    0.94930   0.90766   -1.000
 4097.00    0.92381   0.88346   -1.000
 4098.00    0.91346   0.85356   -1.000
 4099.00    0.87484   0.80627   -1.000
 4100.00    0.81038   0.74947   -1.000
 4101.00    0.74349   0.71463   -1.000
 4102.00    0.73898   0.72741  266.342
 4103.00    0.79709   0.78561  245.458
 4104.00    0.87247   0.85522   -1.000
 4105.00    0.92897   0.91335   -1.000
 4106.00    0.96715   0.94751   -1.000
 4107.00    0.98203   0.96131   -1.000
 4108.00    0.97728   0.96135   -1.000
 4109.00    0.96930   0.95515   -1.000
 4110.00    0.95121   0.95225  230.676
 4111.00    0.95781   0.95897  225.491
 4112.00    0.97674   0.97518  221.573
 4113.00    1.00031   0.99679  218.153
 4114.00    1.02186   1.01704  215.987
 4115.00    1.03154   1.02858  216.968
 4116.00    1.03545   1.02312  221.523
 4117.00    1.02188   1.00336   -1.000
 4118.00    0.99202   0.98178  231.836
 4119.00    0.97436   0.97132  229.069
 4120.00    0.98120   0.97534  226.667
 4121.00    0.98657   0.98424  226.836
 4122.00    0.98374   0.99160  224.467
 4123.00    0.98621   0.99928  220.496
 4124.00    1.01682   1.00874  219.666
 4125.00    1.02676   1.01391  222.550
 4126.00    1.01705   1.00897  227.351
 4127.00    0.99555   0.99774  229.315
 4128.00    0.97865   0.98845  230.482
 4129.00    0.97898   0.97888  233.353
 4130.00    0.97402   0.96059   -1.000
 4131.00    0.94461   0.93531  248.294
 4132.00    0.92273   0.91679  249.135
 4133.00    0.91322   0.92408  241.104
 4134.00    0.93750   0.95604   -1.000
 4135.00    0.97554   0.99484   -1.000
 4136.00    1.01371   1.02690  217.728
 4137.00    1.03259   1.04871   -1.000
 4138.00    1.05427   1.06139  213.418
 4139.00    1.06098   1.06352  217.700
 4140.00    1.04778   1.04337  229.084
 4141.00    1.01281   0.99631   -1.000
 4142.00    0.95384   0.94087   -1.000
 4143.00    0.89231   0.91179   -1.000
 4144.00    0.89416   0.92377   -1.000
 4145.00    0.94367   0.96253   -1.000
 4146.00    0.99312   0.99832  226.023
 4147.00    1.00677   1.01018  230.224
 4148.00    0.99628   1.00451  236.687
 4149.00    0.97332   0.99548   -1.000
 4150.00    0.96093   0.99107   -1.000
 4151.00    0.96114   0.98873   -1.000
 4152.00    0.96104   0.98345   -1.000
 4153.00    0.95742   0.97491   -1.000
 4154.00    0.94772   0.96689   -1.000
 4155.00    0.93942   0.96677   -1.000
 4156.00    0.97755   0.97896  237.741
 4157.00    0.97758   0.99980   -1.000
 4158.00    0.98132   1.02469   -1.000
 4159.00    0.98660   1.04563   -1.000
 4160.00    0.98989   1.05911   -1.000
 4161.00    1.02736   1.06954   -1.000
 4162.00    1.04001   1.07731   -1.000
 4163.00    1.04675   1.07995   -1.000
 4164.00    1.03814   1.07289   -1.000
 4165.00    1.01959   1.05533   -1.000
 4166.00    0.99713   1.03479   -1.000
 4167.00    0.97991   1.02622   -1.000
 4168.00    0.98710   1.02888   -1.000
 4169.00    1.00052   1.03053   -1.000
 4170.00    0.99954   1.01345   -1.000
 4171.00    0.95668   0.97648   -1.000
 4172.00    0.89654   0.94492   -1.000
 4173.00    0.87613   0.93677   -1.000
 4174.00    0.89804   0.95181   -1.000
 4175.00    0.92422   0.97290   -1.000
 4176.00    0.93257   0.98431   -1.000
 4177.00    0.93386   0.99077   -1.000
 4178.00    0.93399   1.00036   -1.000
 4179.00    0.94617   1.00979   -1.000
 4180.00    0.96274   1.01248   -1.000
 4181.00    0.96326   1.00699   -1.000
 4182.00    0.97304   1.00980   -1.000
 4183.00    0.98957   1.02837   -1.000
 4184.00    1.01107   1.04328   -1.000
 4185.00    1.02143   1.03898   -1.000
 4186.00    0.99641   1.01768   -1.000
 4187.00    0.96151   1.00150   -1.000
 4188.00    0.95785   1.00590   -1.000
 4189.00    0.97957   1.02186   -1.000
 4190.00    0.99886   1.03613   -1.000
 4191.00    1.00298   1.04609   -1.000
 4192.00    1.01953   1.05549   -1.000
 4193.00    1.04061   1.05935   -1.000
 4194.00    1.03266   1.04460  239.513
 4195.00    0.98757   1.00994   -1.000
 4196.00    0.94637   0.97434   -1.000
 4197.00    0.92251   0.94960   -1.000
 4198.00    0.91799   0.94032   -1.000
 4199.00    0.93302   0.94213  245.590
 4200.00    0.95287   0.94982  244.928
 4201.00    0.95402   0.95741  243.348
 4202.00    0.95479   0.96896   -1.000
 4203.00    0.96558   0.99085   -1.000
 4204.00    0.98402   1.02036   -1.000
 4205.00    0.99550   1.04784   -1.000
 4206.00    1.01953   1.06824   -1.000
 4207.00    1.03712   1.08089   -1.000
 4208.00    1.04790   1.08257   -1.000
 4209.00    1.05681   1.07863   -1.000
 4210.00    1.05035   1.07828   -1.000
 4211.00    1.05619   1.08373   -1.000
 4212.00    1.06208   1.08274   -1.000
 4213.00    1.04419   1.05889   -1.000
 4214.00    1.00039   1.02234   -1.000
 4215.00    0.95483   1.00386   -1.000
 4216.00    0.96723   1.02273   -1.000
 4217.00    1.04434   1.06985   -1.000
 4218.00    1.10572   1.11287  207.020
 4219.00    1.13167   1.13892  204.807
 4220.00    1.14949   1.14199  206.691
 4221.00    1.15374   1.12275   -1.000
 4222.00    1.11848   1.07994   -1.000
 4223.00    1.05625   1.01058   -1.000
 4224.00    0.98110   0.91945   -1.000
 4225.00    0.88520   0.84169   -1.000
 4226.00    0.80108   0.81105  291.642
 4227.00    0.80705   0.85148   -1.000
 4228.00    0.91448   0.94511   -1.000
 4229.00    1.03209   1.04386  214.520
 4230.00    1.10019   1.09598  212.928
 4231.00    1.11981   1.10317   -1.000
 4232.00    1.09828   1.08384   -1.000
 4233.00    1.06300   1.05571  225.758
 4234.00    1.04600   1.03252   -1.000
 4235.00    1.03048   1.02358  235.321
 4236.00    1.01826   1.02358  233.498
 4237.00    1.02596   1.03251  227.947
 4238.00    1.03385   1.05054   -1.000
 4239.00    1.04658   1.07228   -1.000
 4240.00    1.06690   1.09555   -1.000
 4241.00    1.09056   1.11909   -1.000
 4242.00    1.11046   1.13915   -1.000
 4243.00    1.12344   1.15749   -1.000
 4244.00    1.13827   1.16757   -1.000
 4245.00    1.14132   1.15638   -1.000
 4246.00    1.10820   1.12165   -1.000
 4247.00    1.06479   1.07766   -1.000
 4248.00    1.03385   1.03931  236.695
 4249.00    1.01594   1.01987  236.384
 4250.00    1.00997   1.02220   -1.000
 4251.00    1.02992   1.04072  222.938
 4252.00    1.06503   1.05266  224.357
 4253.00    1.06437   1.04809   -1.000
 4254.00    1.04173   1.04242  227.486
 4255.00    1.04057   1.05743   -1.000
 4256.00    1.07223   1.08631   -1.000
 4257.00    1.09668   1.09255  225.339
 4258.00    1.07729   1.06135   -1.000
 4259.00    1.01768   1.01978  244.119
 4260.00    0.97517   1.00662   -1.000
 4261.00    0.99363   1.03981   -1.000
 4262.00    1.06242   1.10086   -1.000
 4263.00    1.12877   1.15814   -1.000
 4264.00    1.16765   1.18579   -1.000
 4265.00    1.18575   1.18715  207.692
 4266.00    1.17114   1.17121  214.722
 4267.00    1.14010   1.13915  221.234
 4268.00    1.10824   1.09172   -1.000
 4269.00    1.07479   1.03388   -1.000
 4270.00    1.00984   0.97301   -1.000
 4271.00    0.93490   0.93325  262.855
 4272.00    0.91167   0.92329   -1.000
 4273.00    0.93767   0.94056  250.254
 4274.00    0.96312   0.97630   -1.000
 4275.00    0.99403   1.02623   -1.000
 4276.00    1.05756   1.08254   -1.000
 4277.00    1.11795   1.12791  213.015
 4278.00    1.14228   1.13875  222.881
 4279.00    1.11910   1.12029  230.604
 4280.00    1.07812   1.09459   -1.000
 4281.00    1.05832   1.08514   -1.000
 4282.00    1.06893   1.08930   -1.000
 4283.00    1.08063   1.09162  228.650
 4284.00    1.06910   1.08480   -1.000
 4285.00    1.04649   1.07071   -1.000
 4286.00    1.03014   1.05322   -1.000
 4287.00    1.01916   1.02656  254.474
 4288.00    0.98724   0.98883  267.387
 4289.00    0.93178   0.95398   -1.000
 4290.00    0.90573   0.94919   -1.000
 4291.00    0.94639   0.98046   -1.000
 4292.00    1.01078   1.02145  233.150
 4293.00    1.04923   1.04055  235.520
 4294.00    1.04992   1.03656  239.480
 4295.00    1.03054   1.02236  245.018
 4296.00    1.01089   0.99767  257.709
 4297.00    0.98113   0.95369   -1.000
 4298.00    0.91880   0.89953   -1.000
 4299.00    0.85334   0.85275  304.622
 4300.00    0.82476   0.83364   -1.000
 4301.00    0.83402   0.84030  290.783
 4302.00    0.85533   0.85730  286.357
 4303.00    0.87121   0.87129  282.922
 4304.00    0.88869   0.87754  284.299
 4305.00    0.89068   0.86665   -1.000
 4306.00    0.86670   0.83743   -1.000
 4307.00    0.82491   0.80762   -1.000
 4308.00    0.79774   0.79920  311.366
 4309.00    0.80388   0.82120   -1.000
 4310.00    0.85763   0.86455  274.755
 4311.00    0.90987   0.91590  261.007
 4312.00    0.94811   0.96425   -1.000
 4313.00    0.98724   1.01803   -1.000
 4314.00    1.02735   1.08646   -1.000
 4315.00    1.09713   1.16402   -1.000
 4316.00    1.19535   1.23861   -1.000
 4317.00    1.26436   1.27863   -1.000
 4318.00    1.26777   1.27923  195.582
 4319.00    1.24827   1.25716  200.091
 4320.00    1.21962   1.22595  206.998
 4321.00    1.18904   1.18225  217.376
 4322.00    1.15059   1.12042   -1.000
 4323.00    1.08567   1.04027   -1.000
 4324.00    0.99529   0.97224   -1.000
 4325.00    0.93193   0.95778   -1.000
 4326.00    0.95158   1.01125   -1.000
 4327.00    1.05175   1.10300   -1.000
 4328.00    1.16004   1.18636   -1.000
 4329.00    1.20247   1.22373   -1.000
 4330.00    1.20098   1.22779   -1.000
 4331.00    1.19486   1.22693   -1.000
 4332.00    1.20629   1.23565   -1.000
 4333.00    1.21596   1.24566   -1.000
 4334.00    1.22346   1.23997   -1.000
 4335.00    1.21606   1.20304  211.897
 4336.00    1.16071   1.12909   -1.000
 4337.00    1.06299   1.02771   -1.000
 4338.00    0.96621   0.92617   -1.000
 4339.00    0.88836   0.86781   -1.000
 4340.00    0.84528   0.86727   -1.000
 4341.00    0.88148   0.92219   -1.000
 4342.00    0.98337   1.00842   -1.000
 4343.00    1.05743   1.08995   -1.000
 4344.00    1.10740   1.14392   -1.000
 4345.00    1.14758   1.18160   -1.000
 4346.00    1.18217   1.21137   -1.000
 4347.00    1.18958   1.23796   -1.000
 4348.00    1.21444   1.25274   -1.000
 4349.00    1.23105   1.23367  210.792
 4350.00    1.19202   1.17819  226.952
 4351.00    1.11044   1.12155   -1.000
 4352.00    1.06468   1.10233   -1.000
 4353.00    1.10250   1.13066   -1.000
 4354.00    1.16450   1.17975   -1.000
 4355.00    1.20392   1.22174   -1.000
 4356.00    1.22866   1.24174   -1.000
 4357.00    1.23814   1.24168  203.874
 4358.00    1.21731   1.23092   -1.000
 4359.00    1.19459   1.22836   -1.000
 4360.00    1.21029   1.24508   -1.000
 4361.00    1.25138   1.27233   -1.000
 4362.00    1.27895   1.29731   -1.000
 4363.00    1.28592   1.31365   -1.000
 4364.00    1.29879   1.32177   -1.000
 4365.00    1.31003   1.31386  196.950
 4366.00    1.28183   1.28404  204.258
 4367.00    1.22905   1.24759   -1.000
 4368.00    1.19884   1.22685   -1.000
 4369.00    1.19956   1.22260   -1.000
 4370.00    1.21825   1.22300  202.586
 4371.00    1.21971   1.21327  204.757
 4372.00    1.21539   1.18646   -1.000
 4373.00    1.17817   1.14826   -1.000
 4374.00    1.12488   1.11723  221.681
 4375.00    1.10798   1.11965   -1.000
 4376.00    1.14553   1.15998   -1.000
 4377.00    1.21274   1.21143  198.031
 4378.00    1.25578   1.23765   -1.000
 4379.00    1.25560   1.22854   -1.000
 4380.00    1.23321   1.18325   -1.000
 4381.00    1.19407   1.10211   -1.000
 4382.00    1.09187   1.00636   -1.000
 4383.00    0.96002   0.94362   -1.000
 4384.00    0.90519   0.94650   -1.000
 4385.00    0.98033   1.01026   -1.000
 4386.00    1.08874   1.08930  211.141
 4387.00    1.15195   1.13651   -1.000
 4388.00    1.16978   1.14755   -1.000
 4389.00    1.16080   1.14502   -1.000
 4390.00    1.15770   1.14819  210.226
 4391.00    1.17105   1.16094  205.448
 4392.00    1.19242   1.17386   -1.000
 4393.00    1.21102   1.17732   -1.000
 4394.00    1.18918   1.17757  210.927
 4395.00    1.17684   1.19451   -1.000
 4396.00    1.22167   1.22943  195.085
 4397.00    1.27173   1.25325   -1.000
 4398.00    1.27781   1.24476   -1.000
 4399.00    1.23059   1.21577  212.118
 4400.00    1.17780   1.19396   -1.000
 4401.00    1.18303   1.18369  205.195
 4402.00    1.21112   1.16677   -1.000
 4403.00    1.18368   1.12753   -1.000
 4404.00    1.11327   1.08627   -1.000
 4405.00    1.08348   1.07687  218.889
 4406.00    1.12095   1.10105   -1.000
 4407.00    1.14821   1.13580  214.148
 4408.00    1.15095   1.17314   -1.000
 4409.00    1.18298   1.21910   -1.000
 4410.00    1.23887   1.27352   -1.000
 4411.00    1.29331   1.30945   -1.000
 4412.00    1.31379   1.30055  193.849
 4413.00    1.28867   1.25420   -1.000
 4414.00    1.22288   1.19922   -1.000
 4415.00    1.15673   1.16721  210.677
 4416.00    1.14446   1.18106   -1.000
 4417.00    1.18601   1.23124   -1.000
 4418.00    1.23730   1.28756   -1.000
 4419.00    1.27801   1.31817   -1.000
 4420.00    1.29420   1.31451   -1.000
 4421.00    1.26629   1.28683   -1.000
 4422.00    1.22693   1.26056   -1.000
 4423.00    1.20643   1.25270   -1.000
 4424.00    1.21901   1.25962   -1.000
 4425.00    1.22589   1.26697   -1.000
 4426.00    1.21368   1.27153   -1.000
 4427.00    1.21744   1.27784   -1.000
 4428.00    1.23468   1.28241   -1.000
 4429.00    1.23212   1.27975   -1.000
 4430.00    1.21641   1.27357   -1.000
 4431.00    1.21786   1.27086   -1.000
 4432.00    1.23783   1.26451   -1.000
 4433.00    1.22595   1.23875  212.577
 4434.00    1.18243   1.20669   -1.000
 4435.00    1.15102   1.20182   -1.000
 4436.00    1.17832   1.24206   -1.000
 4437.00    1.25597   1.30873   -1.000
 4438.00    1.32619   1.35632   -1.000
 4439.00    1.34460   1.36005   -1.000
 4440.00    1.31776   1.32082  200.108
 4441.00    1.25992   1.26828  208.385
 4442.00    1.21058   1.23557   -1.000
 4443.00    1.19145   1.24641   -1.000
 4444.00    1.22878   1.29231   -1.000
 4445.00    1.29514   1.34067   -1.000
 4446.00    1.32932   1.36834   -1.000
 4447.00    1.33255   1.37399   -1.000
 4448.00    1.33221   1.37185   -1.000
 4449.00    1.33618   1.36833   -1.000
 4450.00    1.32162   1.36134   -1.000
 4451.00    1.31063   1.34848   -1.000
 4452.00    1.31440   1.32398  200.543
 4453.00    1.29141   1.28294  209.890
 4454.00    1.23037   1.23606  213.719
 4455.00    1.18952   1.21151   -1.000
 4456.00    1.19919   1.21405   -1.000
 4457.00    1.21691   1.22661  206.312
 4458.00    1.21704   1.22986  207.459
 4459.00    1.21064   1.22253  209.717
 4460.00    1.20473   1.21667  211.452
 4461.00    1.19341   1.22460   -1.000
 4462.00    1.21368   1.25210   -1.000
 4463.00    1.25598   1.28901   -1.000
 4464.00    1.29751   1.31632   -1.000
 4465.00    1.31163   1.32454  194.231
 4466.00    1.30100   1.31778   -1.000
 4467.00    1.29649   1.30504  200.513
 4468.00    1.28114   1.29469  201.445
 4469.00    1.26189   1.29489   -1.000
 4470.00    1.26841   1.31553   -1.000
 4471.00    1.30299   1.35373   -1.000
 4472.00    1.35190   1.39152   -1.000
 4473.00    1.38667   1.41858   -1.000
 4474.00    1.42003   1.43172  179.430
 4475.00    1.42316   1.44138   -1.000
 4476.00    1.42511   1.45400   -1.000
 4477.00    1.44690   1.45623  178.674
 4478.00    1.44588   1.43010  185.717
 4479.00    1.39647   1.37681   -1.000
 4480.00    1.32462   1.32430  199.303
 4481.00    1.28124   1.30503   -1.000
 4482.00    1.28079   1.33062   -1.000
 4483.00    1.33343   1.38699   -1.000
 4484.00    1.39470   1.44189   -1.000
 4485.00    1.43304   1.47331   -1.000
 4486.00    1.44598   1.46958   -1.000
 4487.00    1.42233   1.43432  189.371
 4488.00    1.37264   1.38688  193.364
 4489.00    1.32558   1.36084   -1.000
 4490.00    1.31529   1.36799   -1.000
 4491.00    1.34757   1.39277   -1.000
 4492.00    1.38214   1.40289   -1.000
 4493.00    1.37301   1.38331  191.924
 4494.00    1.33384   1.35500   -1.000
 4495.00    1.30572   1.34419   -1.000
 4496.00    1.30973   1.36296   -1.000
 4497.00    1.34665   1.39812   -1.000
 4498.00    1.38546   1.42658   -1.000
 4499.00    1.40017   1.43523   -1.000
 4500.00    1.38587   1.42954   -1.000
 4501.00    1.36681   1.43113   -1.000
 4502.00    1.39244   1.45210   -1.000
 4503.00    1.46273   1.48610   -1.000
 4504.00    1.51622   1.51692  170.161
 4505.00    1.51591   1.52720  173.774
 4506.00    1.49802   1.51633   -1.000
 4507.00    1.47989   1.50078   -1.000
 4508.00    1.46225   1.49450   -1.000
 4509.00    1.47592   1.49809   -1.000
 4510.00    1.48913   1.50193  174.442
 4511.00    1.48040   1.49429  178.037
 4512.00    1.46312   1.47433  181.128
 4513.00    1.43127   1.45222   -1.000
 4514.00    1.40776   1.43701   -1.000
 4515.00    1.40408   1.43154   -1.000
 4516.00    1.41391   1.43163   -1.000
 4517.00    1.41118   1.43146   -1.000
 4518.00    1.40551   1.43372   -1.000
 4519.00    1.42029   1.44532   -1.000
 4520.00    1.44471   1.46183   -1.000
 4521.00    1.45559   1.46901   -1.000
 4522.00    1.42388   1.45752   -1.000
 4523.00    1.39054   1.43293   -1.000
 4524.00    1.38547   1.40605   -1.000
 4525.00    1.36297   1.37629   -1.000
 4526.00    1.32728   1.33879  202.665
 4527.00    1.28989   1.30004  204.747
 4528.00    1.25415   1.27435   -1.000
 4529.00    1.25888   1.27175  199.224
 4530.00    1.27579   1.28961  195.669
 4531.00    1.30550   1.31311  195.100
 4532.00    1.32917   1.32467  201.064
 4533.00    1.31805   1.31831  207.646
 4534.00    1.28311   1.30842   -1.000
 4535.00    1.27225   1.31887   -1.000
 4536.00    1.32322   1.35986   -1.000
 4537.00    1.41381   1.41530  176.394
 4538.00    1.46487   1.45437  178.602
 4539.00    1.45476   1.46066  182.930
 4540.00    1.42203   1.44560   -1.000
 4541.00    1.40036   1.43283   -1.000
 4542.00    1.41225   1.43320   -1.000
 4543.00    1.42604   1.43790   -1.000
 4544.00    1.38722   1.43514   -1.000
 4545.00    0.32652   1.42459   -1.000
 4546.00   -0.05794   1.41440    0.000
 4547.00    0.04525   1.40443   -1.000
 4548.00    1.05504   1.38969   -1.000
 4549.00    0.45064   1.37700   -1.000
 4550.00    0.88775   1.37918   -1.000
 4551.00    1.44676   1.39387   -1.000
 4552.00    1.37657   1.40072   -1.000
 4553.00    1.36223   1.39091   -1.000
 4554.00    1.34092   1.37955   -1.000
 4555.00    1.34798   1.38670   -1.000
 4556.00    1.38457   1.41916   -1.000
 4557.00    1.44170   1.46391   -1.000
 4558.00    1.48477   1.49990   -1.000
 4559.00    1.49369   1.51788   -1.000
 4560.00    1.49058   1.52239   -1.000
 4561.00    1.49084   1.51607   -1.000
 4562.00    1.48277   1.49669   -1.000
 4563.00    1.44897   1.46571   -1.000
 4564.00    1.40769   1.43841   -1.000
 4565.00    1.39790   1.43278   -1.000
 4566.00    1.43083   1.45410   -1.000
 4567.00    1.47691   1.48829  172.835
 4568.00    1.50215   1.51192  175.064
 4569.00    1.50350   1.50952  179.683
 4570.00    1.47032   1.48719   -1.000
 4571.00    1.42329   1.46337   -1.000
 4572.00    1.42064   1.45923   -1.000
 4573.00    1.45871   1.47996   -1.000
 4574.00    1.49274   1.50578  174.689
 4575.00    1.49618   1.51694   -1.000
 4576.00    1.48959   1.51215   -1.000
 4577.00    1.48125   1.49711   -1.000
 4578.00    1.45918   1.47150  185.402
 4579.00    1.42440   1.43817   -1.000
 4580.00    1.39389   1.41008   -1.000
 4581.00    1.38533   1.40110   -1.000
 4582.00    1.39609   1.40884  184.123
 4583.00    1.40857   1.41903  184.812
 4584.00    1.40574   1.42247   -1.000
 4585.00    1.40603   1.42332   -1.000
 4586.00    1.41882   1.43387   -1.000
 4587.00    1.45018   1.45894  174.475
 4588.00    1.48495   1.48713  174.548
 4589.00    1.49833   1.50299  177.306
 4590.00    1.49001   1.49966  180.651
 4591.00    1.45881   1.48095   -1.000
 4592.00    1.43164   1.45871   -1.000
 4593.00    1.42495   1.44451   -1.000
 4594.00    1.42762   1.43951  180.548
 4595.00    1.42967   1.43968  180.126
 4596.00    1.43261   1.44331  179.750
 4597.00    1.45180   1.45040  179.443
 4598.00    1.45623   1.45756  181.147
 4599.00    1.45342   1.46029  182.719
 4600.00    1.44307   1.45787   -1.000
 4601.00    1.43047   1.45502   -1.000
 4602.00    1.43782   1.45574   -1.000
 4603.00    1.45561   1.45836  179.434
 4604.00    1.46383   1.46069  179.007
 4605.00    1.46393   1.46636  176.876
 4606.00    1.46994   1.48321  173.269
 4607.00    1.50732   1.51385  169.628
 4608.00    1.54898   1.54881  167.868
 4609.00    1.58011   1.57118  168.858
 4610.00    1.57930   1.56971  171.257
 4611.00    1.55037   1.55207  173.088
 4612.00    1.53026   1.53455  174.058
 4613.00    1.52057   1.52767  173.045
 4614.00    1.52859   1.53220  171.509
 4615.00    1.53694   1.54235  170.973
 4616.00    1.53681   1.55078  172.234
 4617.00    1.53509   1.55419   -1.000
 4618.00    1.52947   1.55323   -1.000
 4619.00    1.52311   1.55194   -1.000
 4620.00    1.53298   1.55575   -1.000
 4621.00    1.55381   1.56430  168.793
 4622.00    1.56621   1.56985  169.237
 4623.00    1.56123   1.56706  169.633
 4624.00    1.56025   1.55908  171.208
 4625.00    1.55192   1.55215  171.526
 4626.00    1.54685   1.54821  171.477
 4627.00    1.54961   1.54734  172.621
 4628.00    1.54497   1.54843  172.871
 4629.00    1.53071   1.55134   -1.000
 4630.00    1.53465   1.55748   -1.000
 4631.00    1.55970   1.56314  170.995
 4632.00    1.56372   1.55962  173.569
 4633.00    1.53548   1.54529  175.322
 4634.00    1.51429   1.52963   -1.000
 4635.00    1.51689   1.51989  176.712
 4636.00    1.51086   1.51082  179.019
 4637.00    1.49730   1.49723  179.595
 4638.00    1.48406   1.48366  179.114
 4639.00    1.48150   1.47862  175.822
 4640.00    1.49834   1.48671  171.548
 4641.00    1.53066   1.50412   -1.000
 4642.00    1.55461   1.51837   -1.000
 4643.00    1.55504   1.51648   -1.000
 4644.00    1.54235   1.49510   -1.000
 4645.00    1.50042   1.46247   -1.000
 4646.00    1.44937   1.42973   -1.000
 4647.00    1.42898   1.41304   -1.000
 4648.00    1.44217   1.42412   -1.000
 4649.00    1.47643   1.45697   -1.000
 4650.00    1.50862   1.49419  173.828
 4651.00    1.52654   1.52132  173.612
 4652.00    1.53186   1.53190  175.956
 4653.00    1.52737   1.52496  180.043
 4654.00    1.50334   1.50604  181.750
 4655.00    1.47918   1.49123  179.700
 4656.00    1.47553   1.49585   -1.000
 4657.00    1.50508   1.52415   -1.000
 4658.00    1.56295   1.56814  163.742
 4659.00    1.61727   1.60674  163.920
 4660.00    1.63137   1.62007  166.221
 4661.00    1.60655   1.60435  170.388
 4662.00    1.56368   1.57155  173.499
 4663.00    1.53709   1.53646  173.886
 4664.00    1.52279   1.50420   -1.000
 4665.00    1.50133   1.46732   -1.000
 4666.00    1.44505   1.42408   -1.000
 4667.00    1.37868   1.38926  191.647
 4668.00    1.35912   1.38517   -1.000
 4669.00    1.40469   1.41756  177.566
 4670.00    1.46922   1.46672  173.178
 4671.00    1.52230   1.50665  172.441
 4672.00    1.54937   1.52519   -1.000
 4673.00    1.53724   1.52855  172.268
 4674.00    1.53849   1.53274  169.873
 4675.00    1.56047   1.54335  167.528
 4676.00    1.58560   1.55301   -1.000
 4677.00    1.59023   1.54784   -1.000
 4678.00    1.56110   1.52572   -1.000
 4679.00    1.52673   1.49836   -1.000
 4680.00    1.49446   1.47692  180.116
 4681.00    1.48540   1.46970  177.469
 4682.00    1.50347   1.47938   -1.000
 4683.00    1.52958   1.50009   -1.000
 4684.00    1.56333   1.51920   -1.000
 4685.00    1.57433   1.52789   -1.000
 4686.00    1.55946   1.52647   -1.000
 4687.00    1.54978   1.51996   -1.000
 4688.00    1.54801   1.51421   -1.000
 4689.00    1.54799   1.51110   -1.000
 4690.00    1.54240   1.50933   -1.000
 4691.00    1.53740   1.50821   -1.000
 4692.00    1.54894   1.51115   -1.000
 4693.00    1.57322   1.52102   -1.000
 4694.00    1.60158   1.53586   -1.000
 4695.00    1.62150   1.54905   -1.000
 4696.00    1.62322   1.55061   -1.000
 4697.00    1.59945   1.53352   -1.000
 4698.00    1.55345   1.50380   -1.000
 4699.00    1.51847   1.47723   -1.000
 4700.00    1.51052   1.46170   -1.000
 4701.00    1.50785   1.45224   -1.000
 4702.00    1.49576   1.44704   -1.000
 4703.00    1.49358   1.45122   -1.000
 4704.00    1.50970   1.46684   -1.000
 4705.00    1.53194   1.48215   -1.000
 4706.00    1.53025   1.48334   -1.000
 4707.00    1.50277   1.47162   -1.000
 4708.00    1.47822   1.46184  180.852
 4709.00    1.46998   1.46723  175.294
 4710.00    1.50213   1.48750  170.754
 4711.00    1.55104   1.50947   -1.000
 4712.00    1.58383   1.51908   -1.000
 4713.00    1.56799   1.51327   -1.000
 4714.00    1.54460   1.50523   -1.000
 4715.00    1.53736   1.51259   -1.000
 4716.00    1.56727   1.53844   -1.000
 4717.00    1.59329   1.57078   -1.000
 4718.00    1.60891   1.59704  165.887
 4719.00    1.62106   1.61371  165.476
 4720.00    1.62983   1.62079  166.993
 4721.00    1.61832   1.61807  167.987
 4722.00    1.60212   1.61145  166.804
 4723.00    1.60422   1.61132  165.112
 4724.00    1.62139   1.61627  165.794
 4725.00    1.62155   1.61032  170.246
 4726.00    1.59191   1.58232  176.673
 4727.00    1.53526   1.53660  180.082
 4728.00    1.49516   1.49364  179.049
 4729.00    1.48668   1.47323  177.190
 4730.00    1.49953   1.47746   -1.000
 4731.00    1.52811   1.49758   -1.000
 4732.00    1.54560   1.52242   -1.000
 4733.00    1.55784   1.54334  171.268
 4734.00    1.58320   1.55397   -1.000
 4735.00    1.58614   1.55458   -1.000
 4736.00    1.57342   1.55261   -1.000
 4737.00    1.56402   1.55611  170.143
 4738.00    1.57789   1.56709  170.437
 4739.00    1.59209   1.57842  171.418
 4740.00    1.58629   1.58203  171.458
 4741.00    1.57860   1.58110  169.944
 4742.00    1.58882   1.58425  168.246
 4743.00    1.60562   1.59120  168.702
 4744.00    1.61227   1.59807  168.712
 4745.00    1.60929   1.60582  167.327
 4746.00    1.60972   1.61655  165.722
 4747.00    1.62534   1.62950  165.506
 4748.00    1.63578   1.64025  165.780
 4749.00    1.63415   1.64654  165.975
 4750.00    1.63269   1.64892   -1.000
 4751.00    1.62696   1.64455   -1.000
 4752.00    1.61111   1.63066   -1.000
 4753.00    1.58767   1.61158   -1.000
 4754.00    1.57314   1.59590   -1.000
 4755.00    1.56589   1.58922   -1.000
 4756.00    1.56726   1.59095   -1.000
 4757.00    1.56556   1.59864   -1.000
 4758.00    1.56511   1.61057   -1.000
 4759.00    1.57599   1.62145   -1.000
 4760.00    1.57531   1.62273   -1.000
 4761.00    1.55051   1.60747   -1.000
 4762.00    1.51291   1.57876   -1.000
 4763.00    1.49968   1.54947   -1.000
 4764.00    1.49488   1.52980   -1.000
 4765.00    1.49217   1.51927   -1.000
 4766.00    1.50364   1.51799  176.638
 4767.00    1.52460   1.53380  172.672
 4768.00    1.55190   1.56931  170.613
 4769.00    1.59015   1.60848   -1.000
 4770.00    1.60774   1.63018   -1.000
 4771.00    1.59302   1.62873   -1.000
 4772.00    1.58496   1.62155   -1.000
 4773.00    1.59477   1.62885   -1.000
 4774.00    1.62074   1.65106   -1.000
 4775.00    1.63911   1.67432   -1.000
 4776.00    1.64199   1.68677   -1.000
 4777.00    1.63619   1.69034   -1.000
 4778.00    1.62299   1.68885   -1.000
 4779.00    1.61250   1.68080   -1.000
 4780.00    1.60880   1.66789   -1.000
 4781.00    1.60825   1.65453   -1.000
 4782.00    1.60112   1.63936   -1.000
 4783.00    1.58379   1.62239   -1.000
 4784.00    1.57925   1.61101   -1.000
 4785.00    1.57443   1.60639   -1.000
 4786.00    1.55693   1.60247   -1.000
 4787.00    1.54378   1.59860   -1.000
 4788.00    1.55041   1.59788   -1.000
 4789.00    1.55469   1.59997   -1.000
 4790.00    1.55594   1.60572   -1.000
 4791.00    1.57474   1.62149   -1.000
 4792.00    1.60677   1.65102   -1.000
 4793.00    1.64339   1.68823   -1.000
 4794.00    1.67247   1.72264   -1.000
 4795.00    1.68627   1.74172   -1.000
 4796.00    1.68125   1.73779   -1.000
 4797.00    1.65389   1.71264   -1.000
 4798.00    1.61583   1.67908   -1.000
 4799.00    1.58876   1.65411   -1.000
 4800.00    1.58709   1.65038   -1.000
 4801.00    1.61225   1.66957   -1.000
 4802.00    1.64233   1.69900   -1.000
 4803.00    1.65311   1.71555   -1.000
 4804.00    1.63754   1.70586   -1.000
 4805.00    1.61308   1.68087   -1.000
 4806.00    1.60047   1.65772   -1.000
 4807.00    1.59602   1.64559   -1.000
 4808.00    1.60046   1.64589   -1.000
 4809.00    1.60976   1.65630   -1.000
 4810.00    1.62269   1.67106   -1.000
 4811.00    1.63104   1.68382   -1.000
 4812.00    1.63664   1.69046   -1.000
 4813.00    1.63940   1.69387   -1.000
 4814.00    1.64693   1.69939   -1.000
 4815.00    1.65806   1.70872   -1.000
 4816.00    1.67360   1.72154   -1.000
 4817.00    1.67951   1.73591   -1.000
 4818.00    1.68717   1.74865   -1.000
 4819.00    1.69256   1.75634   -1.000
 4820.00    1.68976   1.75457   -1.000
 4821.00    1.67366   1.73791   -1.000
 4822.00    1.64304   1.70559   -1.000
 4823.00    1.59999   1.66849   -1.000
 4824.00    1.57993   1.64667   -1.000
 4825.00    1.61196   1.65290   -1.000
 4826.00    1.64938   1.67556   -1.000
 4827.00    1.66095   1.68903   -1.000
 4828.00    1.64073   1.68583   -1.000
 4829.00    1.62512   1.67616   -1.000
 4830.00    1.61961   1.66660   -1.000
 4831.00    1.61342   1.65558   -1.000
 4832.00    1.60671   1.64689   -1.000
 4833.00    1.61806   1.65033   -1.000
 4834.00    1.64193   1.66695   -1.000
 4835.00    1.65188   1.68654   -1.000
 4836.00    1.65262   1.69629   -1.000
 4837.00    1.64909   1.69375   -1.000
 4838.00    1.63956   1.68042   -1.000
 4839.00    1.60756   1.66032   -1.000
 4840.00    1.58784   1.64415   -1.000
 4841.00    1.59301   1.63869   -1.000
 4842.00    1.60267   1.63971   -1.000
 4843.00    1.60609   1.64364   -1.000
 4844.00    1.61924   1.65513   -1.000
 4845.00    1.64682   1.67532   -1.000
 4846.00    1.66116   1.69187   -1.000
 4847.00    1.64324   1.68947   -1.000
 4848.00    1.61331   1.67095   -1.000
 4849.00    1.60186   1.65766   -1.000
 4850.00    1.61878   1.66023   -1.000
 4851.00    1.63465   1.66922   -1.000
 4852.00    1.63152   1.66950   -1.000
 4853.00    1.61192   1.64962   -1.000
 4854.00    1.56895   1.60920   -1.000
 4855.00    1.52373   1.56455   -1.000
 4856.00    1.49887   1.53872   -1.000
 4857.00    1.50630   1.52898   -1.000
 4858.00    1.49326   1.50255  202.928
 4859.00    1.40664   1.42338   -1.000
 4860.00    1.26521   1.30164   -1.000
 4861.00    1.15764   1.20873   -1.000
 4862.00    1.18862   1.20574   -1.000
 4863.00    1.30757   1.29146   -1.000
 4864.00    1.41272   1.40344  181.063
 4865.00    1.47543   1.49125  177.586
 4866.00    1.51388   1.54708   -1.000
 4867.00    1.53561   1.58099   -1.000
 4868.00    1.55250   1.59724   -1.000
 4869.00    1.55316   1.59005   -1.000
 4870.00    1.51705   1.55586   -1.000
 4871.00    1.46350   1.51097   -1.000
 4872.00    1.44840   1.48902   -1.000
 4873.00    1.48740   1.51265   -1.000
 4874.00    1.53042   1.56147   -1.000
 4875.00    1.55000   1.60164   -1.000
 4876.00    1.55384   1.62517   -1.000
 4877.00    1.56512   1.64257   -1.000
 4878.00    1.59202   1.66354   -1.000
 4879.00    1.61889   1.68563   -1.000
 4880.00    1.62681   1.69763   -1.000
 4881.00    1.59933   1.69016   -1.000
 4882.00    1.57786   1.67128   -1.000
 4883.00    1.58192   1.65679   -1.000
 4884.00    1.57682   1.64360   -1.000
 4885.00    1.54910   1.62264   -1.000
 4886.00    1.53370   1.60246   -1.000
 4887.00    1.54033   1.59525   -1.000
 4888.00    1.54801   1.59323   -1.000
 4889.00    1.53532   1.57917   -1.000
 4890.00    1.50333   1.55125   -1.000
 4891.00    1.48672   1.53563   -1.000
 4892.00    1.52836   1.56446   -1.000
 4893.00    1.61959   1.63752  161.891
 4894.00    1.69756   1.72323   -1.000
 4895.00    1.73214   1.78401   -1.000
 4896.00    1.74639   1.80902   -1.000
 4897.00    1.74568   1.80869   -1.000
 4898.00    1.72985   1.79344   -1.000
 4899.00    1.69810   1.76991   -1.000
 4900.00    1.66569   1.74719   -1.000
 4901.00    1.66178   1.73204   -1.000
 4902.00    1.66290   1.72114   -1.000
 4903.00    1.65266   1.71255   -1.000
 4904.00    1.65605   1.71577   -1.000
 4905.00    1.68325   1.73943   -1.000
 4906.00    1.71703   1.76757   -1.000
 4907.00    1.71457   1.76926   -1.000
 4908.00    1.67529   1.73837   -1.000
 4909.00    1.63477   1.69295   -1.000
 4910.00    1.59782   1.65669   -1.000
 4911.00    1.59712   1.64771   -1.000
 4912.00    1.63197   1.66780   -1.000
 4913.00    1.67066   1.70361   -1.000
 4914.00    1.69913   1.73828   -1.000
 4915.00    1.72022   1.76074   -1.000
 4916.00    1.72520   1.75694   -1.000
 4917.00    1.67505   1.70984   -1.000
 4918.00    1.58746   1.62209   -1.000
 4919.00    1.49889   1.52937   -1.000
 4920.00    1.45358   1.47490   -1.000
 4921.00    1.48834   1.48309  177.353
 4922.00    1.54832   1.53477  175.157
 4923.00    1.59279   1.58838  174.804
 4924.00    1.60278   1.62021   -1.000
 4925.00    1.61947   1.64424   -1.000
 4926.00    1.65830   1.68052   -1.000
 4927.00    1.69763   1.72473   -1.000
 4928.00    1.72377   1.76386   -1.000
 4929.00    1.74170   1.79324   -1.000
 4930.00    1.75413   1.80722   -1.000
 4931.00    1.75010   1.79682   -1.000
 4932.00    1.71491   1.76101   -1.000
 4933.00    1.65810   1.71474   -1.000
 4934.00    1.62927   1.68440   -1.000
 4935.00    1.64465   1.68037   -1.000
 4936.00    1.65870   1.67921   -1.000
 4937.00    1.63104   1.65460   -1.000
 4938.00    1.58260   1.61411   -1.000
 4939.00    1.57093   1.59713   -1.000
 4940.00    1.61972   1.62853  167.134
 4941.00    1.68697   1.69180  164.319
 4942.00    1.72974   1.75263   -1.000
 4943.00    1.74465   1.78750   -1.000
 4944.00    1.74861   1.79665   -1.000
 4945.00    1.73912   1.79045   -1.000
 4946.00    1.72720   1.78313   -1.000
 4947.00    1.73517   1.78613   -1.000
 4948.00    1.75835   1.80043   -1.000
 4949.00    1.77849   1.81608   -1.000
 4950.00    1.77980   1.82459   -1.000
 4951.00    1.77714   1.82507   -1.000
 4952.00    1.77109   1.81778   -1.000
 4953.00    1.75614   1.80448   -1.000
 4954.00    1.73695   1.78156   -1.000
 4955.00    1.70228   1.73545   -1.000
 4956.00    1.62450   1.65827   -1.000
 4957.00    1.54799   1.57881   -1.000
 4958.00    1.53804   1.55816   -1.000
 4959.00    1.62011   1.61434  166.047
 4960.00    1.70746   1.70103  165.167
 4961.00    1.73328   1.76485   -1.000
 4962.00    1.73334   1.78631   -1.000
 4963.00    1.72916   1.77897   -1.000
 4964.00    1.71559   1.75408   -1.000
 4965.00    1.67719   1.71861   -1.000
 4966.00    1.64806   1.68775   -1.000
 4967.00    1.63951   1.67476   -1.000
 4968.00    1.65290   1.67768   -1.000
 4969.00    1.66030   1.69006   -1.000
 4970.00    1.67120   1.70896   -1.000
 4971.00    1.69304   1.73335   -1.000
 4972.00    1.72151   1.75983   -1.000
 4973.00    1.74063   1.78077   -1.000
 4974.00    1.75304   1.78965   -1.000
 4975.00    1.75420   1.78634   -1.000
 4976.00    1.73737   1.77222   -1.000
 4977.00    1.71146   1.74868   -1.000
 4978.00    1.68533   1.72199   -1.000
 4979.00    1.66199   1.69794   -1.000
 4980.00    1.64103   1.67083   -1.000
 4981.00    1.59904   1.63006   -1.000
 4982.00    1.53950   1.57870   -1.000
 4983.00    1.50632   1.54030   -1.000
 4984.00    1.52351   1.53900  180.011
 4985.00    1.57056   1.57503  174.446
 4986.00    1.62452   1.63179  170.778
 4987.00    1.67436   1.68726  171.378
 4988.00    1.69430   1.72181   -1.000
 4989.00    1.68529   1.72464   -1.000
 4990.00    1.66627   1.70952   -1.000
 4991.00    1.66078   1.69867   -1.000
 4992.00    1.67266   1.70103   -1.000
 4993.00    1.67901   1.71029   -1.000
 4994.00    1.67961   1.71841   -1.000
 4995.00    1.69181   1.72738   -1.000
 4996.00    1.70643   1.73783   -1.000
 4997.00    1.70178   1.73694   -1.000
 4998.00    1.68531   1.71408   -1.000
 4999.00    1.65070   1.67494   -1.000
 5000.00    1.62311   1.63698  180.305
 5001.00    1.61551   1.61837  178.617
 5002.00    1.62699   1.61878  177.983
 5003.00    1.63401   1.62232  180.931
 5004.00    1.62820   1.61004   -1.000
 5005.00    1.59329   1.57993  185.223
 5006.00    1.56346   1.55542  180.366
 5007.00    1.58406   1.56623   -1.000
 5008.00    1.64393   1.61284   -1.000
 5009.00    1.68607   1.65919   -1.000
 5010.00    1.68173   1.67367  182.598
 5011.00    1.63623   1.64933  189.143
 5012.00    1.58074   1.60122   -1.000
 5013.00    1.53928   1.55516  191.129
 5014.00    1.52368   1.53558  186.835
 5015.00    1.55559   1.54732  183.386
 5016.00    1.59245   1.56974   -1.000
 5017.00    1.59966   1.58314   -1.000
 5018.00    1.59097   1.58711  180.507
 5019.00    1.60086   1.59640  179.382
 5020.00    1.62714   1.61275  180.184
 5021.00    1.63496   1.62244  180.358
 5022.00    1.62542   1.62577  179.152
 5023.00    1.63411   1.63704  177.331
 5024.00    1.65845   1.66115  176.463
 5025.00    1.67551   1.68367  177.366
 5026.00    1.67279   1.68674  177.844
 5027.00    1.65498   1.67428   -1.000
 5028.00    1.64968   1.66900   -1.000
 5029.00    1.68222   1.68407  170.140
 5030.00    1.71750   1.71466  167.484
 5031.00    1.73947   1.74951  165.908
 5032.00    1.76489   1.78010  166.989
 5033.00    1.77866   1.79350  172.706
 5034.00    1.74962   1.77620   -1.000
 5035.00    1.68870   1.73274   -1.000
 5036.00    1.63899   1.68937   -1.000
 5037.00    1.62958   1.66458   -1.000
 5038.00    1.62942   1.64334  192.899
 5039.00    1.58326   1.60186   -1.000
 5040.00    1.50812   1.54400   -1.000
 5041.00    1.47103   1.50980   -1.000
 5042.00    1.52431   1.53670  176.541
 5043.00    1.63205   1.61775  169.995
 5044.00    1.72136   1.71404  166.041
 5045.00    1.77601   1.78505  161.310
 5046.00    1.66543   1.81234   -1.000
 5047.00    1.30862   1.79514   -1.000
 5048.00    0.73937   1.74652   -1.000
 5049.00    0.48876   1.69161   -1.000
 5050.00    1.51530   1.65656   -1.000
 5051.00    1.56203   1.64938   -1.000
 5052.00    1.67105   1.66557  170.058
 5053.00    1.72025   1.70096   -1.000
 5054.00    1.75675   1.74444  165.846
 5055.00    1.78666   1.77825  165.475
 5056.00    1.79753   1.79639  165.807
 5057.00    1.80038   1.80491  166.055
 5058.00    1.80194   1.81223  165.807
 5059.00    1.80201   1.82440   -1.000
 5060.00    1.80537   1.84035   -1.000
 5061.00    1.82035   1.85229   -1.000
 5062.00    1.81893   1.84510   -1.000
 5063.00    1.78052   1.80790   -1.000
 5064.00    1.71066   1.75140   -1.000
 5065.00    1.66822   1.70446   -1.000
 5066.00    1.67016   1.68683  175.211
 5067.00    1.69468   1.69154  174.679
 5068.00    1.70512   1.70394  173.785
 5069.00    1.72205   1.71836  173.035
 5070.00    1.74324   1.73144  174.523
 5071.00    1.73447   1.73431  175.326
 5072.00    1.71808   1.72577  173.171
 5073.00    1.71840   1.71854  172.027
 5074.00    1.73506   1.72224  171.851
 5075.00    1.74336   1.73132  172.010
 5076.00    1.74347   1.73591  174.440
 5077.00    1.73489   1.72562  181.061
 5078.00    1.69149   1.69028  188.744
 5079.00    1.62177   1.63554  189.665
 5080.00    1.57826   1.59348  185.445
 5081.00    1.59615   1.59098  181.725
 5082.00    1.63947   1.61628   -1.000
 5083.00    1.66725   1.64736   -1.000
 5084.00    1.69799   1.67803   -1.000
 5085.00    1.73449   1.70920   -1.000
 5086.00    1.75859   1.73606   -1.000
 5087.00    1.76807   1.75355  170.809
 5088.00    1.76868   1.76324  169.607
 5089.00    1.77737   1.77102  168.692
 5090.00    1.78809   1.78015  167.638
 5091.00    1.79247   1.79340  165.732
 5092.00    1.81148   1.81240  164.757
 5093.00    1.83060   1.83012  166.697
 5094.00    1.83486   1.83163  170.283
 5095.00    1.80631   1.80836  174.045
 5096.00    1.76531   1.76533  178.194
 5097.00    1.71899   1.71428  181.379
 5098.00    1.66579   1.67039  180.969
 5099.00    1.64545   1.65383  176.199
 5100.00    1.68177   1.67695  171.664
 5101.00    1.73359   1.72348  170.713
 5102.00    1.76757   1.76217  172.022
 5103.00    1.76884   1.77255  174.328
 5104.00    1.75325   1.76132  176.519
 5105.00    1.73022   1.74198  178.688
 5106.00    1.70813   1.71879  180.506
 5107.00    1.68554   1.69453  179.982
 5108.00    1.67437   1.67568  178.771
 5109.00    1.67403   1.66868  177.258
 5110.00    1.68989   1.67850  174.719
 5111.00    1.71971   1.70503  172.595
 5112.00    1.74905   1.73981  170.586
 5113.00    1.77381   1.76866  169.176
 5114.00    1.78840   1.78791  168.139
 5115.00    1.80366   1.80430  166.388
 5116.00    1.82032   1.82236  165.338
 5117.00    1.84114   1.83877  166.192
 5118.00    1.84823   1.84541  168.496
 5119.00    1.83250   1.83656  171.093
 5120.00    1.80118   1.81253  174.204
 5121.00    1.76705   1.77682  178.899
 5122.00    1.72780   1.73331  183.616
 5123.00    1.68498   1.68973  184.209
 5124.00    1.65821   1.65985  182.587
 5125.00    1.66105   1.65311  181.692
 5126.00    1.68320   1.66225   -1.000
 5127.00    1.69043   1.67121   -1.000
 5128.00    1.68623   1.67472  180.499
 5129.00    1.68955   1.68015  177.922
 5130.00    1.69978   1.69516  175.138
 5131.00    1.71962   1.71828  173.735
 5132.00    1.74314   1.74045  172.087
 5133.00    1.76375   1.75756  170.768
 5134.00    1.77552   1.77132  170.991
 5135.00    1.78999   1.77953  174.421
 5136.00    1.77929   1.77135  178.464
 5137.00    1.74080   1.73908  180.783
 5138.00    1.69881   1.69925  180.584
 5139.00    1.67788   1.67880  179.413
 5140.00    1.68783   1.68050  181.164
 5141.00    1.69771   1.68701  183.465
 5142.00    1.68430   1.68642  181.852
 5143.00    1.67150   1.68732  179.142
 5144.00    1.69224   1.69877  179.040
 5145.00    1.70850   1.70653  180.594
 5146.00    1.70154   1.69749  180.494
 5147.00    1.69626   1.68529  178.380
 5148.00    1.70170   1.68563   -1.000
 5149.00    1.71642   1.69501   -1.000
 5150.00    1.71622   1.69797   -1.000
 5151.00    1.69046   1.68821  184.242
 5152.00    1.67152   1.67608  182.735
 5153.00    1.67236   1.67319  178.911
 5154.00    1.69670   1.68464  174.311
 5155.00    1.73757   1.71242   -1.000
 5156.00    1.78570   1.75195   -1.000
 5157.00    1.82615   1.78972   -1.000
 5158.00    1.84676   1.81400   -1.000
 5159.00    1.85077   1.82343   -1.000
 5160.00    1.84600   1.82021   -1.000
 5161.00    1.82902   1.80465   -1.000
 5162.00    1.81205   1.77638   -1.000
 5163.00    1.79335   1.73555   -1.000
 5164.00    1.74640   1.68001   -1.000
 5165.00    1.64678   1.59676   -1.000
 5166.00    1.50330   1.48018   -1.000
 5167.00    1.38841   1.37412   -1.000
 5168.00    1.37161   1.34195   -1.000
 5169.00    1.44362   1.38280   -1.000
 5170.00    1.50586   1.42736   -1.000
 5171.00    1.46809   1.40727   -1.000
 5172.00    1.37901   1.34901   -1.000
 5173.00    1.37609   1.34103   -1.000
 5174.00    1.50669   1.42509   -1.000
 5175.00    1.65314   1.55968   -1.000
 5176.00    1.73756   1.66538   -1.000
 5177.00    1.77207   1.71635   -1.000
 5178.00    1.77935   1.73235   -1.000
 5179.00    1.76900   1.72636   -1.000
 5180.00    1.73614   1.68972   -1.000
 5181.00    1.66342   1.60199   -1.000
 5182.00    1.53151   1.47053   -1.000
 5183.00    1.39729   1.35632   -1.000
 5184.00    1.37990   1.33404   -1.000
 5185.00    1.50916   1.42673   -1.000
 5186.00    1.66640   1.56685   -1.000
 5187.00    1.74837   1.67522   -1.000
 5188.00    1.76858   1.72837   -1.000
 5189.00    1.77046   1.74261   -1.000
 5190.00    1.76339   1.72816   -1.000
 5191.00    1.72008   1.68571   -1.000
 5192.00    1.65514   1.63710   -1.000
 5193.00    1.64981   1.61958   -1.000
 5194.00    1.68194   1.63694   -1.000
 5195.00    1.70359   1.66351   -1.000
 5196.00    1.72135   1.69101   -1.000
 5197.00    1.75060   1.72294   -1.000
 5198.00    1.78234   1.75733   -1.000
 5199.00    1.81007   1.78635   -1.000
 5200.00    1.82522   1.80134   -1.000
 5201.00    1.82276   1.79771   -1.000
 5202.00    1.80161   1.77418   -1.000
 5203.00    1.76149   1.72957   -1.000
 5204.00    1.70319   1.66736   -1.000
 5205.00    1.64425   1.60620   -1.000
 5206.00    1.61937   1.56611   -1.000
 5207.00    1.61992   1.55219   -1.000
 5208.00    1.61464   1.55640   -1.000
 5209.00    1.62931   1.57864   -1.000
 5210.00    1.68330   1.62885   -1.000
 5211.00    1.75513   1.70074   -1.000
 5212.00    1.82193   1.76789   -1.000
 5213.00    1.86138   1.80495   -1.000
 5214.00    1.85382   1.79956   -1.000
 5215.00    1.80781   1.76684   -1.000
 5216.00    1.77528   1.73922   -1.000
 5217.00    1.78442   1.74439   -1.000
 5218.00    1.82680   1.78091   -1.000
 5219.00    1.86743   1.82520   -1.000
 5220.00    1.89066   1.85726   -1.000
 5221.00    1.90454   1.86793   -1.000
 5222.00    1.89199   1.85350   -1.000
 5223.00    1.84175   1.81143   -1.000
 5224.00    1.77487   1.74337   -1.000
 5225.00    1.69347   1.66062   -1.000
 5226.00    1.62395   1.59354   -1.000
 5227.00    1.62351   1.58186   -1.000
 5228.00    1.70850   1.63704   -1.000
 5229.00    1.80230   1.72603   -1.000
 5230.00    1.85293   1.79461   -1.000
 5231.00    1.86401   1.80806   -1.000
 5232.00    1.84240   1.77859   -1.000
 5233.00    1.79979   1.74284   -1.000
 5234.00    1.78239   1.73689   -1.000
 5235.00    1.81256   1.76921   -1.000
 5236.00    1.86285   1.82052   -1.000
 5237.00    1.90664   1.86642   -1.000
 5238.00    1.92641   1.89060   -1.000
 5239.00    1.92459   1.89493   -1.000
 5240.00    1.92136   1.89011   -1.000
 5241.00    1.92037   1.88390   -1.000
 5242.00    1.92327   1.88181   -1.000
 5243.00    1.92061   1.88728   -1.000
 5244.00    1.92572   1.89357   -1.000
 5245.00    1.92021   1.88332   -1.000
 5246.00    1.87291   1.84751   -1.000
 5247.00    1.81454   1.80252  175.419
 5248.00    1.79402   1.77237   -1.000
 5249.00    1.79550   1.76046   -1.000
 5250.00    1.78542   1.75857   -1.000
 5251.00    1.78380   1.76733  173.010
 5252.00    1.81086   1.78525   -1.000
 5253.00    1.83561   1.79831   -1.000
 5254.00    1.83297   1.80104   -1.000
 5255.00    1.83365   1.80829   -1.000
 5256.00    1.86854   1.84051   -1.000
 5257.00    1.92690   1.89159   -1.000
 5258.00    1.97005   1.92956   -1.000
 5259.00    1.96591   1.93240   -1.000
 5260.00    1.92497   1.89577   -1.000
 5261.00    1.85376   1.82751   -1.000
 5262.00    1.77170   1.74373   -1.000
 5263.00    1.69544   1.66364   -1.000
 5264.00    1.64124   1.60205   -1.000
 5265.00    1.62257   1.57125   -1.000
 5266.00    1.63889   1.57295   -1.000
 5267.00    1.67992   1.58611   -1.000
 5268.00    1.66657   1.57340   -1.000
 5269.00    1.59926   1.53367   -1.000
 5270.00    1.58155   1.51759   -1.000
 5271.00    1.66713   1.56925   -1.000
 5272.00    1.77269   1.66706   -1.000
 5273.00    1.81090   1.73830   -1.000
 5274.00    1.80701   1.75900   -1.000
 5275.00    1.80701   1.76824   -1.000
 5276.00    1.83805   1.80042   -1.000
 5277.00    1.91077   1.85614   -1.000
 5278.00    1.96704   1.90402   -1.000
 5279.00    1.97265   1.91480   -1.000
 5280.00    1.93397   1.88716   -1.000
 5281.00    1.88371   1.83993   -1.000
 5282.00    1.84479   1.79528   -1.000
 5283.00    1.82296   1.77457   -1.000
 5284.00    1.83778   1.79618   -1.000
 5285.00    1.87990   1.85789   -1.000
 5286.00    1.97178   1.92863   -1.000
 5287.00    2.01498   1.97068   -1.000
 5288.00    2.00936   1.98267   -1.000
 5289.00    2.01192   1.98521   -1.000
 5290.00    2.02435   1.99010   -1.000
 5291.00    2.02868   1.99330   -1.000
 5292.00    2.01273   1.98663   -1.000
 5293.00    1.99511   1.97195   -1.000
 5294.00    1.97528   1.95113   -1.000
 5295.00    1.93774   1.91277   -1.000
 5296.00    1.87400   1.85137   -1.000
 5297.00    1.80450   1.78869  176.112
 5298.00    1.78240   1.75950   -1.000
 5299.00    1.82119   1.77798   -1.000
 5300.00    1.87463   1.81830   -1.000
 5301.00    1.89942   1.85209   -1.000
 5302.00    1.91624   1.88111   -1.000
 5303.00    1.96077   1.91940   -1.000
 5304.00    2.00423   1.96483   -1.000
 5305.00    2.02703   1.99533   -1.000
 5306.00    2.02132   1.99775   -1.000
 5307.00    2.00141   1.98739  159.894
 5308.00    2.00680   1.98524  158.331
 5309.00    2.02935   1.99807   -1.000
 5310.00    2.04421   2.01344   -1.000
 5311.00    2.04580   2.01576   -1.000
 5312.00    2.03942   2.00550   -1.000
 5313.00    2.03088   1.98974   -1.000
 5314.00    2.01854   1.97154   -1.000
 5315.00    1.99829   1.95176   -1.000
 5316.00    1.97801   1.93376   -1.000
 5317.00    1.96660   1.92620   -1.000
 5318.00    1.97306   1.93252   -1.000
 5319.00    1.99018   1.94296   -1.000
 5320.00    1.99404   1.94748   -1.000
 5321.00    1.98172   1.94089   -1.000
 5322.00    1.96548   1.91860   -1.000
 5323.00    1.93247   1.88206   -1.000
 5324.00    1.90142   1.84447   -1.000
 5325.00    1.89049   1.80954   -1.000
 5326.00    1.85982   1.75762   -1.000
 5327.00    1.76631   1.68232   -1.000
 5328.00    1.68090   1.62396   -1.000
 5329.00    1.70271   1.63879   -1.000
 5330.00    1.81903   1.72972   -1.000
 5331.00    1.91891   1.82874   -1.000
 5332.00    1.95483   1.88806   -1.000
 5333.00    1.96690   1.91549   -1.000
 5334.00    1.98692   1.93729   -1.000
 5335.00    2.00690   1.96029   -1.000
 5336.00    2.00610   1.97119   -1.000
 5337.00    1.99227   1.96091   -1.000
 5338.00    1.97053   1.92909   -1.000
 5339.00    1.92954   1.87978   -1.000
 5340.00    1.88679   1.83322   -1.000
 5341.00    1.87907   1.82227   -1.000
 5342.00    1.92255   1.85509   -1.000
 5343.00    1.97846   1.89877   -1.000
 5344.00    1.99590   1.92198   -1.000
 5345.00    1.97933   1.91983   -1.000
 5346.00    1.96447   1.90540   -1.000
 5347.00    1.95930   1.88937   -1.000
 5348.00    1.94779   1.87514   -1.000
 5349.00    1.93310   1.87146   -1.000
 5350.00    1.95837   1.89107   -1.000
 5351.00    2.00454   1.92948   -1.000
 5352.00    2.03391   1.96883   -1.000
 5353.00    2.04556   1.99791   -1.000
 5354.00    2.06240   2.01991   -1.000
 5355.00    2.08168   2.04190   -1.000
 5356.00    2.09943   2.05905   -1.000
 5357.00    2.11032   2.06480   -1.000
 5358.00    2.10700   2.06196   -1.000
 5359.00    2.10250   2.05257   -1.000
 5360.00    2.07835   2.03448   -1.000
 5361.00    2.04054   2.00949   -1.000
 5362.00    2.00559   1.98380  164.334
 5363.00    1.98569   1.96087   -1.000
 5364.00    1.97644   1.94107   -1.000
 5365.00    1.97131   1.92537   -1.000
 5366.00    1.97268   1.91669   -1.000
 5367.00    1.97134   1.91283   -1.000
 5368.00    1.95863   1.89539   -1.000
 5369.00    1.91740   1.85017   -1.000
 5370.00    1.85736   1.79314   -1.000
 5371.00    1.82929   1.76304   -1.000
 5372.00    1.87510   1.79213   -1.000
 5373.00    1.96760   1.86842   -1.000
 5374.00    2.04378   1.94675   -1.000
 5375.00    2.07571   1.99291   -1.000
 5376.00    2.07845   2.00325   -1.000
 5377.00    2.07382   1.99963   -1.000
 5378.00    2.07023   1.99862   -1.000
 5379.00    2.06251   1.99914   -1.000
 5380.00    2.04515   1.99177   -1.000
 5381.00    2.03028   1.97401   -1.000
 5382.00    2.01910   1.95578   -1.000
 5383.00    2.01057   1.94861   -1.000
 5384.00    2.02052   1.95666   -1.000
 5385.00    2.04277   1.97443   -1.000
 5386.00    2.05647   1.98949   -1.000
 5387.00    2.05434   1.98888   -1.000
 5388.00    2.03513   1.96932   -1.000
 5389.00    1.99794   1.93847   -1.000
 5390.00    1.97291   1.90791   -1.000
 5391.00    1.96027   1.88772   -1.000
 5392.00    1.95655   1.87978   -1.000
 5393.00    1.95384   1.87911   -1.000
 5394.00    1.94328   1.87548   -1.000
 5395.00    1.92481   1.85766   -1.000
 5396.00    1.88735   1.82613   -1.000
 5397.00    1.86599   1.80453   -1.000
 5398.00    1.89890   1.81830   -1.000
 5399.00    1.95793   1.86140   -1.000
 5400.00    1.99026   1.90516   -1.000
 5401.00    1.99679   1.92740   -1.000
 5402.00    1.99284   1.92036   -1.000
 5403.00    1.94642   1.88015   -1.000
 5404.00    1.87019   1.81335   -1.000
 5405.00    1.81973   1.75324   -1.000
 5406.00    1.82849   1.74305   -1.000
 5407.00    1.87528   1.77884   -1.000
 5408.00    1.90529   1.81677   -1.000
 5409.00    1.89686   1.83116   -1.000
 5410.00    1.90082   1.83681   -1.000
 5411.00    1.94523   1.86660   -1.000
 5412.00    1.99784   1.91574   -1.000
 5413.00    2.02735   1.95160   -1.000
 5414.00    2.03277   1.96549   -1.000
 5415.00    2.02826   1.97304   -1.000
 5416.00    2.04484   1.98966   -1.000
 5417.00    2.06102   2.00895   -1.000
 5418.00    2.05445   2.01241   -1.000
 5419.00    2.03607   1.99913   -1.000
 5420.00    2.02342   1.98311   -1.000
 5421.00    2.02980   1.97341   -1.000
 5422.00    2.03509   1.96623   -1.000
 5423.00    2.01431   1.95344   -1.000
 5424.00    1.99043   1.94477   -1.000
 5425.00    2.00545   1.96005   -1.000
 5426.00    2.04611   1.99223   -1.000
 5427.00    2.06122   2.00568   -1.000
 5428.00    2.02075   1.97068   -1.000
 5429.00    1.95024   1.90824   -1.000
 5430.00    1.92263   1.87196   -1.000
 5431.00    1.94980   1.87681   -1.000
 5432.00    1.96446   1.89233   -1.000
 5433.00    1.94233   1.88412   -1.000
 5434.00    1.91402   1.85796   -1.000
 5435.00    1.90621   1.85008   -1.000
 5436.00    1.93911   1.87831   -1.000
 5437.00    1.99823   1.93402   -1.000
 5438.00    2.05468   1.99544   -1.000
 5439.00    2.10356   2.04277   -1.000
 5440.00    2.13203   2.06883   -1.000
 5441.00    2.13643   2.07840   -1.000
 5442.00    2.12326   2.07809   -1.000
 5443.00    2.10563   2.06246   -1.000
 5444.00    2.05751   2.01934   -1.000
 5445.00    1.97870   1.94791   -1.000
 5446.00    1.90589   1.87649   -1.000
 5447.00    1.89318   1.84927   -1.000
 5448.00    1.94242   1.88050   -1.000
 5449.00    2.01756   1.94445   -1.000
 5450.00    2.05952   1.99513   -1.000
 5451.00    2.06330   2.00925   -1.000
 5452.00    2.05537   1.99416   -1.000
 5453.00    2.02680   1.95569   -1.000
 5454.00    1.96747   1.90010   -1.000
 5455.00    1.91321   1.85395   -1.000
 5456.00    1.91909   1.85291   -1.000
 5457.00    1.98789   1.90652   -1.000
 5458.00    2.05759   1.97802   -1.000
 5459.00    2.08182   2.01642   -1.000
 5460.00    2.06407   2.01012   -1.000
 5461.00    2.02654   1.97597   -1.000
 5462.00    1.99068   1.93864   -1.000
 5463.00    1.97426   1.92025   -1.000
 5464.00    1.98969   1.92953   -1.000
 5465.00    2.02467   1.95492   -1.000
 5466.00    2.04715   1.97854   -1.000
 5467.00    2.05623   1.99322   -1.000
 5468.00    2.06266   1.99839   -1.000
 5469.00    2.05860   1.99436   -1.000
 5470.00    2.04649   1.98317   -1.000
 5471.00    2.03328   1.96896   -1.000
 5472.00    2.02034   1.95609   -1.000
 5473.00    2.00334   1.94248   -1.000
 5474.00    1.98301   1.91831   -1.000
 5475.00    1.95273   1.88028   -1.000
 5476.00    1.90950   1.84336   -1.000
 5477.00    1.90314   1.83757   -1.000
 5478.00    1.95067   1.87459   -1.000
 5479.00    2.00267   1.91808   -1.000
 5480.00    2.00247   1.93038   -1.000
 5481.00    1.97172   1.91477   -1.000
 5482.00    1.96318   1.90679   -1.000
 5483.00    1.98948   1.93322   -1.000
 5484.00    2.03493   1.97793   -1.000
 5485.00    2.05837   2.00716   -1.000
 5486.00    2.04663   2.00365   -1.000
 5487.00    2.01442   1.97802   -1.000
 5488.00    2.00529   1.95633   -1.000
 5489.00    2.02525   1.95474   -1.000
 5490.00    2.04345   1.97053   -1.000
 5491.00    2.05022   1.98622   -1.000
 5492.00    2.05793   1.99161   -1.000
 5493.00    2.05815   1.98909   -1.000
 5494.00    2.05481   1.98582   -1.000
 5495.00    2.05765   1.98348   -1.000
 5496.00    2.05040   1.97671   -1.000
 5497.00    2.03405   1.96998   -1.000
 5498.00    2.04205   1.97627   -1.000
 5499.00    2.06521   1.98986   -1.000
 5500.00    2.06640   1.98974   -1.000
 5501.00    2.04120   1.96918   -1.000
 5502.00    2.01824   1.94513   -1.000
 5503.00    2.02551   1.93816   -1.000
 5504.00    2.03616   1.94071   -1.000
 5505.00    2.01604   1.93336   -1.000
 5506.00    1.98898   1.92078   -1.000
 5507.00    1.99453   1.92229   -1.000
 5508.00    2.03031   1.94527   -1.000
 5509.00    2.05837   1.97073   -1.000
 5510.00    2.04817   1.97054   -1.000
 5511.00    2.01455   1.94346   -1.000
 5512.00    1.98381   1.91008   -1.000
 5513.00    1.96803   1.89129   -1.000
 5514.00    1.97844   1.89522   -1.000
 5515.00    2.00689   1.91549   -1.000
 5516.00    2.04180   1.94435   -1.000
 5517.00    2.07523   1.97757   -1.000
 5518.00    2.10668   2.01148   -1.000
 5519.00    2.13062   2.03759   -1.000
 5520.00    2.13277   2.04722   -1.000
 5521.00    2.12408   2.04409   -1.000
 5522.00    2.11944   2.04045   -1.000
 5523.00    2.11334   2.03925   -1.000
 5524.00    2.09861   2.03318   -1.000
 5525.00    2.07850   2.01069   -1.000
 5526.00    2.03833   1.96808   -1.000
 5527.00    1.99386   1.91840   -1.000
 5528.00    1.97435   1.88948   -1.000
 5529.00    2.00013   1.90482   -1.000
 5530.00    2.04855   1.95189   -1.000
 5531.00    2.08130   1.99602   -1.000
 5532.00    2.07624   2.01267   -1.000
 5533.00    2.06193   2.00588   -1.000
 5534.00    2.04827   1.99293   -1.000
 5535.00    2.04146   1.98485   -1.000
 5536.00    2.05239   1.98565   -1.000
 5537.00    2.06783   1.99482   -1.000
 5538.00    2.08145   2.00930   -1.000
 5539.00    2.10151   2.02693   -1.000
 5540.00    2.13224   2.04474   -1.000
 5541.00    2.14153   2.05384   -1.000
 5542.00    2.11758   2.04759   -1.000
 5543.00    2.09320   2.03208   -1.000
 5544.00    2.08964   2.02054   -1.000
 5545.00    2.09240   2.01831   -1.000
 5546.00    2.10360   2.02401   -1.000
 5547.00    2.12067   2.03812   -1.000
 5548.00    2.13751   2.06024   -1.000
 5549.00    2.16105   2.08124   -1.000
 5550.00    2.17220   2.09126   -1.000
 5551.00    2.16383   2.08763   -1.000
 5552.00    2.14595   2.07259   -1.000
 5553.00    2.12370   2.05247   -1.000
 5554.00    2.10429   2.03749   -1.000
 5555.00    2.09999   2.03358   -1.000
 5556.00    2.10721   2.03726   -1.000
 5557.00    2.11120   2.04094   -1.000
 5558.00    2.11437   2.04166   -1.000
 5559.00    2.12029   2.04258   -1.000
 5560.00    2.12482   2.04198   -1.000
 5561.00    2.11579   2.03350   -1.000
 5562.00    2.09819   2.01886   -1.000
 5563.00    2.08159   2.00702   -1.000
 5564.00    2.07226   2.00154   -1.000
 5565.00    2.06546   1.99808   -1.000
 5566.00    2.05793   1.99206   -1.000
 5567.00    2.05890   1.98563   -1.000
 5568.00    2.05966   1.98326   -1.000
 5569.00    2.05618   1.98618   -1.000
 5570.00    2.06211   1.99155   -1.000
 5571.00    2.06904   1.99309   -1.000
 5572.00    2.06533   1.98876   -1.000
 5573.00    2.05208   1.98583   -1.000
 5574.00    2.00984   1.99493  164.179
 5575.00    1.95191   2.01555   -1.000
 5576.00    1.92835   2.03119   -1.000
 5577.00    1.99722   2.03643   -1.000
 5578.00    2.10404   2.04197   -1.000
 5579.00    2.12588   2.04986   -1.000
 5580.00    2.12689   2.05342   -1.000
 5581.00    2.12272   2.04958   -1.000
 5582.00    2.11119   2.04112   -1.000
 5583.00    2.10860   2.03257   -1.000
 5584.00    2.10009   2.01660   -1.000
 5585.00    2.06396   1.97973   -1.000
 5586.00    2.00717   1.92488   -1.000
 5587.00    1.95357   1.87339   -1.000
 5588.00    1.93222   1.85027   -1.000
 5589.00    1.94814   1.86203   -1.000
 5590.00    1.98537   1.89470   -1.000
 5591.00    2.02153   1.92859   -1.000
 5592.00    2.03745   1.94854   -1.000
 5593.00    2.03156   1.95743   -1.000
 5594.00    2.03263   1.96984   -1.000
 5595.00    2.06065   1.99494   -1.000
 5596.00    2.09070   2.01886   -1.000
 5597.00    2.08189   2.01876   -1.000
 5598.00    2.04730   1.99361   -1.000
 5599.00    2.02435   1.96043   -1.000
 5600.00    2.01624   1.93359   -1.000
 5601.00    2.00545   1.91632   -1.000
 5602.00    1.99369   1.91438   -1.000
 5603.00    2.01406   1.94060   -1.000
 5604.00    2.06761   1.99433   -1.000
 5605.00    2.12481   2.05232   -1.000
 5606.00    2.16235   2.09235   -1.000
 5607.00    2.17091   2.10919   -1.000
 5608.00    2.16624   2.11041   -1.000
 5609.00    2.16773   2.10781   -1.000
 5610.00    2.17431   2.11020   -1.000
 5611.00    2.17791   2.11626   -1.000
 5612.00    2.16822   2.11031   -1.000
 5613.00    2.13765   2.07302   -1.000
 5614.00    2.07400   2.00392   -1.000
 5615.00    2.00609   1.93821   -1.000
 5616.00    1.99658   1.91736   -1.000
 5617.00    2.04219   1.94579   -1.000
 5618.00    2.08255   1.98979   -1.000
 5619.00    2.09231   2.01577   -1.000
 5620.00    2.10191   2.02887   -1.000
 5621.00    2.11774   2.04092   -1.000
 5622.00    2.11756   2.03951   -1.000
 5623.00    2.08786   2.01316   -1.000
 5624.00    2.04494   1.97561   -1.000
 5625.00    2.03122   1.95590   -1.000
 5626.00    2.05494   1.97139   -1.000
 5627.00    2.09697   2.00714   -1.000
 5628.00    2.12632   2.04257   -1.000
 5629.00    2.15036   2.07125   -1.000
 5630.00    2.16960   2.09011   -1.000
 5631.00    2.17557   2.09566   -1.000
 5632.00    2.16940   2.08917   -1.000
 5633.00    2.15663   2.07542   -1.000
 5634.00    2.14031   2.05788   -1.000
 5635.00    2.12212   2.03801   -1.000
 5636.00    2.10385   2.01946   -1.000
 5637.00    2.08537   2.00851   -1.000
 5638.00    2.08292   2.00796   -1.000
 5639.00    2.08905   2.01173   -1.000
 5640.00    2.08769   2.01045   -1.000
 5641.00    2.08122   2.00261   -1.000
 5642.00    2.08062   1.99893   -1.000
 5643.00    2.09641   2.00726   -1.000
 5644.00    2.11113   2.02062   -1.000
 5645.00    2.11855   2.03190   -1.000
 5646.00    2.13041   2.04022   -1.000
 5647.00    2.13495   2.04403   -1.000
 5648.00    2.13049   2.04213   -1.000
 5649.00    2.12958   2.03820   -1.000
 5650.00    2.12964   2.03985   -1.000
 5651.00    2.13742   2.05087   -1.000
 5652.00    2.14854   2.06146   -1.000
 5653.00    2.14187   2.05780   -1.000
 5654.00    2.12602   2.04258   -1.000
 5655.00    2.10147   2.02506   -1.000
 5656.00    2.07325   2.00180   -1.000
 5657.00    2.02768   1.96727   -1.000
 5658.00    1.98556   1.93199   -1.000
 5659.00    1.99066   1.92140   -1.000
 5660.00    2.03349   1.94408   -1.000
 5661.00    2.05756   1.97098   -1.000
 5662.00    2.05600   1.98315   -1.000
 5663.00    2.06738   1.99809   -1.000
 5664.00    2.09778   2.02388   -1.000
 5665.00    2.12315   2.04358   -1.000
 5666.00    2.11653   2.04383   -1.000
 5667.00    2.09577   2.02963   -1.000
 5668.00    2.08415   2.01863   -1.000
 5669.00    2.09004   2.02065   -1.000
 5670.00    2.10686   2.03260   -1.000
 5671.00    2.12586   2.05205   -1.000
 5672.00    2.15456   2.07693   -1.000
 5673.00    2.17522   2.09812   -1.000
 5674.00    2.18046   2.10745   -1.000
 5675.00    2.17460   2.10746   -1.000
 5676.00    2.17538   2.10586   -1.000
 5677.00    2.17821   2.10594   -1.000
 5678.00    2.17265   2.10206   -1.000
 5679.00    2.16211   2.09015   -1.000
 5680.00    2.15286   2.07280   -1.000
 5681.00    2.13406   2.05106   -1.000
 5682.00    2.10614   2.02734   -1.000
 5683.00    2.08994   2.01429   -1.000
 5684.00    2.09626   2.01935   -1.000
 5685.00    2.10707   2.02833   -1.000
 5686.00    2.09692   2.02655   -1.000
 5687.00    2.07854   2.01765   -1.000
 5688.00    2.07605   2.01554   -1.000
 5689.00    2.09545   2.02907   -1.000
 5690.00    2.13369   2.05439   -1.000
 5691.00    2.16707   2.08096   -1.000
 5692.00    2.18069   2.09993   -1.000
 5693.00    2.18253   2.10747   -1.000
 5694.00    2.17940   2.10567   -1.000
 5695.00    2.17325   2.10019   -1.000
 5696.00    2.16608   2.09275   -1.000
 5697.00    2.15318   2.07995   -1.000
 5698.00    2.13053   2.06116   -1.000
 5699.00    2.10346   2.04066   -1.000
 5700.00    2.07830   2.02155   -1.000
 5701.00    2.06232   2.00757   -1.000
 5702.00    2.05820   2.00816   -1.000
 5703.00    2.06952   2.02342   -1.000
 5704.00    2.08640   2.03632   -1.000
 5705.00    2.08295   2.03157   -1.000
 5706.00    2.05674   2.00675   -1.000
 5707.00    2.02640   1.97384   -1.000
 5708.00    2.00622   1.94676   -1.000
 5709.00    1.99037   1.93021   -1.000
 5710.00    1.99423   1.92785   -1.000
 5711.00    2.01730   1.94324   -1.000
 5712.00    2.05140   1.97556   -1.000
 5713.00    2.09974   2.01853   -1.000
 5714.00    2.14098   2.05696   -1.000
 5715.00    2.15920   2.08068   -1.000
 5716.00    2.16533   2.09400   -1.000
 5717.00    2.16435   2.10316   -1.000
 5718.00    2.17382   2.11178   -1.000
 5719.00    2.19020   2.12302   -1.000
 5720.00    2.21065   2.13674   -1.000
 5721.00    2.22241   2.14968   -1.000
 5722.00    2.22675   2.15985   -1.000
 5723.00    2.23042   2.16530   -1.000
 5724.00    2.22212   2.16130   -1.000
 5725.00    2.20158   2.14444   -1.000
 5726.00    2.17672   2.12067   -1.000
 5727.00    2.16232   2.10537   -1.000
 5728.00    2.16864   2.10865   -1.000
 5729.00    2.18386   2.11913   -1.000
 5730.00    2.18416   2.11920   -1.000
 5731.00    2.17178   2.11049   -1.000
 5732.00    2.17660   2.10897   -1.000
 5733.00    2.20139   2.12454   -1.000
 5734.00    2.22009   2.14558   -1.000
 5735.00    2.21973   2.15392   -1.000
 5736.00    2.20960   2.14871   -1.000
 5737.00    2.19945   2.13971   -1.000
 5738.00    2.19567   2.13542   -1.000
 5739.00    2.19685   2.13663   -1.000
 5740.00    2.19548   2.13751   -1.000
 5741.00    2.18691   2.13466   -1.000
 5742.00    2.17923   2.13090   -1.000
 5743.00    2.18542   2.13453   -1.000
 5744.00    2.19791   2.14753   -1.000
 5745.00    2.20934   2.15883   -1.000
 5746.00    2.21209   2.15476   -1.000
 5747.00    2.20035   2.13612   -1.000
 5748.00    2.18601   2.12317   -1.000
 5749.00    2.18841   2.12856   -1.000
 5750.00    2.20277   2.13913   -1.000
 5751.00    2.19121   2.13236   -1.000
 5752.00    2.15753   2.10120   -1.000
 5753.00    2.12740   2.06818   -1.000
 5754.00    2.12538   2.06196   -1.000
 5755.00    2.15840   2.09013   -1.000
 5756.00    2.20005   2.13384   -1.000
 5757.00    2.22984   2.16479   -1.000
 5758.00    2.23174   2.17044   -1.000
 5759.00    2.21377   2.15150   -1.000
 5760.00    2.18066   2.11661   -1.000
 5761.00    2.15026   2.08168   -1.000
 5762.00    2.13250   2.06577   -1.000
 5763.00    2.14392   2.08134   -1.000
 5764.00    2.18345   2.12299   -1.000
 5765.00    2.21809   2.16492   -1.000
 5766.00    2.22960   2.18776   -1.000
 5767.00    2.23351   2.19398   -1.000
 5768.00    2.22902   2.19137   -1.000
 5769.00    2.22425   2.18427   -1.000
 5770.00    2.21304   2.17512   -1.000
 5771.00    2.19571   2.16529   -1.000
 5772.00    2.18419   2.15474   -1.000
 5773.00    2.17590   2.14529   -1.000
 5774.00    2.16913   2.14017   -1.000
 5775.00    2.15956   2.14226  162.420
 5776.00    2.14391   2.15095  162.576
 5777.00    2.11050   2.15570   -1.000
 5778.00    2.06625   2.14345   -1.000
 5779.00    2.03068   2.10963   -1.000
 5780.00    2.01598   2.06280   -1.000
 5781.00    2.02511   2.02171  170.656
 5782.00    2.05151   2.00218   -1.000
 5783.00    2.07650   2.00231   -1.000
 5784.00    2.08840   2.00639   -1.000
 5785.00    2.09610   2.01382   -1.000
 5786.00    2.11775   2.03666   -1.000
 5787.00    2.15331   2.07189   -1.000
 5788.00    2.18139   2.10285   -1.000
 5789.00    2.18913   2.11709   -1.000
 5790.00    2.18286   2.11572   -1.000
 5791.00    2.17525   2.11250   -1.000
 5792.00    2.17859   2.12203   -1.000
 5793.00    2.19239   2.14606   -1.000
 5794.00    2.20197   2.17090   -1.000
 5795.00    2.19821   2.18080  162.208
 5796.00    2.19010   2.17005  162.579
 5797.00    2.18966   2.15086   -1.000
 5798.00    2.20231   2.14601   -1.000
 5799.00    2.23329   2.16656   -1.000
 5800.00    2.27119   2.20006   -1.000
 5801.00    2.29148   2.22208   -1.000
 5802.00    2.28282   2.22079   -1.000
 5803.00    2.25523   2.20038   -1.000
 5804.00    2.22689   2.17426   -1.000
 5805.00    2.21046   2.15772   -1.000
 5806.00    2.21393   2.15645   -1.000
 5807.00    2.22026   2.16517   -1.000
 5808.00    2.22718   2.17575   -1.000
 5809.00    2.23877   2.18552   -1.000
 5810.00    2.24947   2.19489   -1.000
 5811.00    2.26090   2.20130   -1.000
 5812.00    2.26353   2.20035   -1.000
 5813.00    2.25548   2.18945   -1.000
 5814.00    2.24010   2.16955   -1.000
 5815.00    2.22408   2.14876   -1.000
 5816.00    2.21938   2.14216   -1.000
 5817.00    2.23484   2.15859   -1.000
 5818.00    2.26128   2.18895   -1.000
 5819.00    2.28261   2.21491   -1.000
 5820.00    2.29430   2.22455   -1.000
 5821.00    2.29038   2.22073   -1.000
 5822.00    2.28420   2.21253   -1.000
 5823.00    2.28385   2.20761   -1.000
 5824.00    2.28784   2.20840   -1.000
 5825.00    2.28773   2.21196   -1.000
 5826.00    2.28502   2.21563   -1.000
 5827.00    2.28768   2.21888   -1.000
 5828.00    2.29605   2.22337   -1.000
 5829.00    2.29979   2.22839   -1.000
 5830.00    2.30397   2.22987   -1.000
 5831.00    2.30602   2.22658   -1.000
 5832.00    2.29897   2.21959   -1.000
 5833.00    2.28485   2.20996   -1.000
 5834.00    2.27726   2.20058   -1.000
 5835.00    2.27349   2.19639   -1.000
 5836.00    2.28022   2.19807   -1.000
 5837.00    2.28471   2.20004   -1.000
 5838.00    2.27752   2.20203   -1.000
 5839.00    2.27709   2.20981   -1.000
 5840.00    2.28512   2.22405   -1.000
 5841.00    2.29253   2.23789   -1.000
 5842.00    2.29854   2.24311   -1.000
 5843.00    2.29630   2.23709   -1.000
 5844.00    2.28948   2.22272   -1.000
 5845.00    2.28020   2.20419   -1.000
 5846.00    2.26164   2.18603   -1.000
 5847.00    2.24147   2.17376   -1.000
 5848.00    2.23863   2.17096   -1.000
 5849.00    2.24973   2.17414   -1.000
 5850.00    2.24886   2.17243   -1.000
 5851.00    2.23115   2.15831   -1.000
 5852.00    2.20871   2.13703   -1.000
 5853.00    2.19050   2.12142   -1.000
 5854.00    2.18754   2.11682   -1.000
 5855.00    2.19207   2.11073   -1.000
 5856.00    2.17505   2.09002   -1.000
 5857.00    2.14885   2.06397   -1.000
 5858.00    2.15003   2.05591   -1.000
 5859.00    2.17572   2.07677   -1.000
 5860.00    2.20031   2.11047   -1.000
 5861.00    2.21787   2.13424   -1.000
 5862.00    2.22374   2.14381   -1.000
 5863.00    2.22918   2.14644   -1.000
 5864.00    2.23399   2.14720   -1.000
 5865.00    2.22889   2.14309   -1.000
 5866.00    2.21781   2.13393   -1.000
 5867.00    2.21804   2.13292   -1.000
 5868.00    2.23521   2.14907   -1.000
 5869.00    2.26067   2.17201   -1.000
 5870.00    2.27784   2.18718   -1.000
 5871.00    2.27506   2.18922   -1.000
 5872.00    2.26533   2.18280   -1.000
 5873.00    2.26356   2.17673   -1.000
 5874.00    2.26455   2.17550   -1.000
 5875.00    2.26043   2.17561   -1.000
 5876.00    2.25371   2.17003   -1.000
 5877.00    2.24179   2.15600   -1.000
 5878.00    2.22799   2.13662   -1.000
 5879.00    2.20735   2.11852   -1.000
 5880.00    2.19335   2.10884   -1.000
 5881.00    2.19337   2.11002   -1.000
 5882.00    2.19651   2.11487   -1.000
 5883.00    2.18182   2.11352   -1.000
 5884.00    2.14163   2.10765   -1.000
 5885.00    2.05686   2.09885   -1.000
 5886.00    1.87773   2.06867   -1.000
 5887.00    1.61653   1.98856   -1.000
 5888.00    1.40445   1.85200   -1.000
 5889.00    1.37156   1.70601   -1.000
 5890.00    1.50317   1.62976   -1.000
 5891.00    1.65918   1.66332  184.753
 5892.00    1.70793   1.75938   -1.000
 5893.00    1.62739   1.82455   -1.000
 5894.00    1.53494   1.81602   -1.000
 5895.00    1.54769   1.76395   -1.000
 5896.00    1.68506   1.74612   -1.000
 5897.00    1.87282   1.80566   -1.000
 5898.00    2.01759   1.90348   -1.000
 5899.00    2.09708   1.98899   -1.000
 5900.00    2.14113   2.04723   -1.000
 5901.00    2.17719   2.08398   -1.000
 5902.00    2.20251   2.10475   -1.000
 5903.00    2.20973   2.11404   -1.000
 5904.00    2.21095   2.11607   -1.000
 5905.00    2.20726   2.11489   -1.000
 5906.00    2.19977   2.11640   -1.000
 5907.00    2.20391   2.12399   -1.000
 5908.00    2.21516   2.13416   -1.000
 5909.00    2.21903   2.14319   -1.000
 5910.00    2.22273   2.14995   -1.000
 5911.00    2.22121   2.15000   -1.000
 5912.00    2.20289   2.13687   -1.000
 5913.00    2.17907   2.11012   -1.000
 5914.00    2.15821   2.08183   -1.000
 5915.00    2.15051   2.06982   -1.000
 5916.00    2.15553   2.07833   -1.000
 5917.00    2.16795   2.09858   -1.000
 5918.00    2.18404   2.12089   -1.000
 5919.00    2.20261   2.13711   -1.000
 5920.00    2.21430   2.14358   -1.000
 5921.00    2.20729   2.14172   -1.000
 5922.00    2.20413   2.13745   -1.000
 5923.00    2.21254   2.13873   -1.000
 5924.00    2.22455   2.14882   -1.000
 5925.00    2.23679   2.16131   -1.000
 5926.00    2.23952   2.16647   -1.000
 5927.00    2.23254   2.15798   -1.000
 5928.00    2.21971   2.13851   -1.000
 5929.00    2.20907   2.12073   -1.000
 5930.00    2.20550   2.11832   -1.000
 5931.00    2.21134   2.13187   -1.000
 5932.00    2.22525   2.14489   -1.000
 5933.00    2.22555   2.14416   -1.000
 5934.00    2.21803   2.13422   -1.000
 5935.00    2.21680   2.13211   -1.000
 5936.00    2.22719   2.14604   -1.000
 5937.00    2.23509   2.16337   -1.000
 5938.00    2.23244   2.17026   -1.000
 5939.00    2.22010   2.16390   -1.000
 5940.00    2.20249   2.14753   -1.000
 5941.00    2.19371   2.13031   -1.000
 5942.00    2.19829   2.12437   -1.000
 5943.00    2.21435   2.13415   -1.000
 5944.00    2.22906   2.15178   -1.000
 5945.00    2.23871   2.16505   -1.000
 5946.00    2.23645   2.16492   -1.000
 5947.00    2.22538   2.15062   -1.000
 5948.00    2.20813   2.13330   -1.000
 5949.00    2.20149   2.12882   -1.000
 5950.00    2.21108   2.13664   -1.000
 5951.00    2.22279   2.14143   -1.000
 5952.00    2.22204   2.13722   -1.000
 5953.00    2.21584   2.13209   -1.000
 5954.00    2.21352   2.13412   -1.000
 5955.00    2.20896   2.13723   -1.000
 5956.00    2.19674   2.13200   -1.000
 5957.00    2.19624   2.12608   -1.000
 5958.00    2.21687   2.13290   -1.000
 5959.00    2.24190   2.15234   -1.000
 5960.00    2.26028   2.17468   -1.000
 5961.00    2.27742   2.19013   -1.000
 5962.00    2.28460   2.19456   -1.000
 5963.00    2.27810   2.18957   -1.000
 5964.00    2.26438   2.17872   -1.000
 5965.00    2.24764   2.16810   -1.000
 5966.00    2.24379   2.16613   -1.000
 5967.00    2.25272   2.17497   -1.000
 5968.00    2.26769   2.18745   -1.000
 5969.00    2.28269   2.19814   -1.000
 5970.00    2.29251   2.20649   -1.000
 5971.00    2.29356   2.21124   -1.000
 5972.00    2.28516   2.21033   -1.000
 5973.00    2.27496   2.20241   -1.000
 5974.00    2.25611   2.18582   -1.000
 5975.00    2.23443   2.16206   -1.000
 5976.00    2.21890   2.14060   -1.000
 5977.00    2.21581   2.13164   -1.000
 5978.00    2.22759   2.13806   -1.000
 5979.00    2.24544   2.15557   -1.000
 5980.00    2.25740   2.17276   -1.000
 5981.00    2.25959   2.17535   -1.000
 5982.00    2.24370   2.15659   -1.000
 5983.00    2.21763   2.12677   -1.000
 5984.00    2.19914   2.10714   -1.000
 5985.00    2.20255   2.11219   -1.000
 5986.00    2.22632   2.13359   -1.000
 5987.00    2.24612   2.15419   -1.000
 5988.00    2.25688   2.16878   -1.000
 5989.00    2.26434   2.17737   -1.000
 5990.00    2.26843   2.17935   -1.000
 5991.00    2.26439   2.17996   -1.000
 5992.00    2.26790   2.18818   -1.000
 5993.00    2.28198   2.20403   -1.000
 5994.00    2.29374   2.21488   -1.000
 5995.00    2.29302   2.20824   -1.000
 5996.00    2.27765   2.18657   -1.000
 5997.00    2.25638   2.16482   -1.000
 5998.00    2.25443   2.15694   -1.000
 5999.00    2.26510   2.16436   -1.000
 6000.00    2.26662   2.17457   -1.000
 6001.00    2.26207   2.17680   -1.000
 6002.00    2.25256   2.17111   -1.000
 6003.00    2.24581   2.16679   -1.000
 6004.00    2.24385   2.16825   -1.000
 6005.00    2.23638   2.16374   -1.000
 6006.00    2.21404   2.14493   -1.000
 6007.00    2.18719   2.12268   -1.000
 6008.00    2.17764   2.11812   -1.000
 6009.00    2.19196   2.13986   -1.000
 6010.00    2.22421   2.16711   -1.000
 6011.00    2.24754   2.17464   -1.000
 6012.00    2.24331   2.16248   -1.000
 6013.00    2.23149   2.14871   -1.000
 6014.00    2.22896   2.14640   -1.000
 6015.00    2.23383   2.14966   -1.000
 6016.00    2.23599   2.14914   -1.000
 6017.00    2.23210   2.14754   -1.000
 6018.00    2.22702   2.14569   -1.000
 6019.00    2.22157   2.13791   -1.000
 6020.00    2.22040   2.12857   -1.000
 6021.00    2.22057   2.12765   -1.000
 6022.00    2.22740   2.13629   -1.000
 6023.00    2.23684   2.15060   -1.000
 6024.00    2.24266   2.16704   -1.000
 6025.00    2.25928   2.18256   -1.000
 6026.00    2.27592   2.19462   -1.000
 6027.00    2.27961   2.20459   -1.000
 6028.00    2.28781   2.21544   -1.000
 6029.00    2.30000   2.22532   -1.000
 6030.00    2.30605   2.23166   -1.000
 6031.00    2.30715   2.23677   -1.000
 6032.00    2.30963   2.24411   -1.000
 6033.00    2.31509   2.25600   -1.000
 6034.00    2.31723   2.27050   -1.000
 6035.00    2.31435   2.27916   -1.000
 6036.00    2.31324   2.27658   -1.000
 6037.00    2.31286   2.26533   -1.000
 6038.00    2.30651   2.25055   -1.000
 6039.00    2.30364   2.23716   -1.000
 6040.00    2.29835   2.23038   -1.000
 6041.00    2.29170   2.23325   -1.000
 6042.00    2.30034   2.24297   -1.000
 6043.00    2.31737   2.25510   -1.000
 6044.00    2.32620   2.26485   -1.000
 6045.00    2.33144   2.27021   -1.000
 6046.00    2.33562   2.27333   -1.000
 6047.00    2.33518   2.27519   -1.000
 6048.00    2.33705   2.27629   -1.000
 6049.00    2.34251   2.27690   -1.000
 6050.00    2.34291   2.27532   -1.000
 6051.00    2.33806   2.26793   -1.000
 6052.00    2.33439   2.25438   -1.000
 6053.00    2.32320   2.23860   -1.000
 6054.00    2.31049   2.22369   -1.000
 6055.00    2.30182   2.21171   -1.000
 6056.00    2.29544   2.20726   -1.000
 6057.00    2.29356   2.21332   -1.000
 6058.00    2.30564   2.22618   -1.000
 6059.00    2.31520   2.23860   -1.000
 6060.00    2.31098   2.24322   -1.000
 6061.00    2.33657   2.23612   -1.000
 6062.00    2.29091   2.21754   -1.000
 6063.00    2.17904   2.19236  196.101
 6064.00    2.06857   2.17188   -1.000
 6065.00    1.27678   2.17061   -1.000
 6066.00    0.64062   2.19450   -1.000
 6067.00    1.47453   2.23151   -1.000
 6068.00    2.32872   2.26134   -1.000
 6069.00    2.43861   2.27624   -1.000
 6070.00    2.31299   2.28304   -1.000
 6071.00    2.28554   2.28745  162.568
 6072.00    2.35221   2.28898   -1.000
 6073.00    2.36228   2.28687   -1.000
 6074.00    2.35113   2.28131   -1.000
 6075.00    2.34567   2.27028   -1.000
 6076.00    2.33072   2.25299   -1.000
 6077.00    2.31001   2.23320   -1.000
 6078.00    2.29337   2.21715   -1.000
 6079.00    2.28317   2.20802   -1.000
 6080.00    2.28348   2.20224   -1.000
 6081.00    2.27788   2.19606   -1.000
 6082.00    2.26535   2.19210   -1.000
 6083.00    2.26549   2.19367   -1.000
 6084.00    2.27127   2.19834   -1.000
 6085.00    2.27640   2.20423   -1.000
 6086.00    2.28283   2.21173   -1.000
 6087.00    2.28992   2.21773   -1.000
 6088.00    2.28719   2.21609   -1.000
 6089.00    2.27219   2.20477   -1.000
 6090.00    2.26384   2.19134   -1.000
 6091.00    2.26020   2.18618   -1.000
 6092.00    2.26392   2.19275   -1.000
 6093.00    2.28054   2.20814   -1.000
 6094.00    2.30108   2.22573   -1.000
 6095.00    2.31222   2.23769   -1.000
 6096.00    2.31562   2.24173   -1.000
 6097.00    2.31292   2.24452   -1.000
 6098.00    2.31005   2.24885   -1.000
 6099.00    2.30470   2.24372   -1.000
 6100.00    2.28255   2.21623   -1.000
 6101.00    2.24076   2.16892   -1.000
 6102.00    2.19660   2.12908   -1.000
 6103.00    2.18870   2.12652   -1.000
 6104.00    2.22684   2.15944   -1.000
 6105.00    2.27027   2.19949   -1.000
 6106.00    2.28924   2.22429   -1.000
 6107.00    2.29121   2.23574   -1.000
 6108.00    2.29137   2.24411   -1.000
 6109.00    2.29631   2.25025   -1.000
 6110.00    2.29725   2.25043   -1.000
 6111.00    2.29309   2.24883   -1.000
 6112.00    2.29926   2.25299   -1.000
 6113.00    2.31325   2.26181   -1.000
 6114.00    2.32083   2.26607   -1.000
 6115.00    2.31588   2.26112   -1.000
 6116.00    2.30159   2.25288   -1.000
 6117.00    2.28994   2.24496   -1.000
 6118.00    2.28161   2.22988   -1.000
 6119.00    2.26321   2.20053   -1.000
 6120.00    2.23443   2.16216   -1.000
 6121.00    2.20632   2.13132   -1.000
 6122.00    2.20029   2.12774   -1.000
 6123.00    2.22600   2.15618   -1.000
 6124.00    2.26029   2.19362   -1.000
 6125.00    2.27876   2.21422   -1.000
 6126.00    2.27036   2.21552   -1.000
 6127.00    2.25484   2.20979   -1.000
 6128.00    2.25321   2.21085   -1.000
 6129.00    2.27025   2.22517   -1.000
 6130.00    2.29128   2.24721   -1.000
 6131.00    2.30186   2.26488   -1.000
 6132.00    2.30145   2.26675   -1.000
 6133.00    2.27628   2.24289   -1.000
 6134.00    2.23053   2.18853   -1.000
 6135.00    2.17206   2.11567   -1.000
 6136.00    2.11224   2.05966   -1.000
 6137.00    2.09152   2.05535   -1.000
 6138.00    2.12860   2.10146   -1.000
 6139.00    2.19681   2.15915   -1.000
 6140.00    2.23549   2.19027   -1.000
 6141.00    2.23827   2.19787   -1.000
 6142.00    2.24142   2.20843   -1.000
 6143.00    2.26140   2.23094   -1.000
 6144.00    2.28734   2.25283   -1.000
 6145.00    2.29783   2.26079   -1.000
 6146.00    2.28650   2.25337   -1.000
 6147.00    2.26414   2.23646   -1.000
 6148.00    2.24407   2.21750   -1.000
 6149.00    2.23026   2.20404   -1.000
 6150.00    2.22798   2.20214   -1.000
 6151.00    2.23658   2.21056   -1.000
 6152.00    2.24622   2.21920   -1.000
 6153.00    2.25001   2.21780   -1.000
 6154.00    2.24529   2.20618   -1.000
 6155.00    2.23025   2.19454   -1.000
 6156.00    2.22078   2.18879   -1.000
 6157.00    2.21028   2.18298   -1.000
 6158.00    2.19014   2.16415   -1.000
 6159.00    2.15589   2.12033   -1.000
 6160.00    2.10269   2.05351   -1.000
 6161.00    2.03619   1.98949   -1.000
 6162.00    1.99991   1.96375   -1.000
 6163.00    2.01836   1.98686   -1.000
 6164.00    2.06548   2.03792   -1.000
 6165.00    2.10467   2.08647   -1.000
 6166.00    2.12227   2.11187  180.727
 6167.00    2.12015   2.10800  182.990
 6168.00    2.09702   2.08379  183.269
 6169.00    2.07361   2.06385  180.619
 6170.00    2.07602   2.07148  177.432
 6171.00    2.10679   2.10454  176.301
 6172.00    2.13918   2.13842  176.659
 6173.00    2.15303   2.15738  176.492
 6174.00    2.15643   2.16436  176.062
 6175.00    2.16033   2.16618  175.674
 6176.00    2.16254   2.16796  174.996
 6177.00    2.16983   2.17404  174.208
 6178.00    2.18193   2.18329  173.638
 6179.00    2.19218   2.19119  172.964
 6180.00    2.19772   2.19870  172.310
 6181.00    2.20436   2.20817  172.281
 6182.00    2.21181   2.21492  172.814
 6183.00    2.21398   2.21329  173.804
 6184.00    2.20703   2.20251  175.507
 6185.00    2.19184   2.18456  177.415
 6186.00    2.17347   2.16365  179.164
 6187.00    2.15226   2.14485  180.664
 6188.00    2.13365   2.12735  182.446
 6189.00    2.12028   2.10432   -1.000
 6190.00    2.09668   2.07933   -1.000
 6191.00    2.07418   2.07123  180.322
 6192.00    2.09027   2.09271  176.409
 6193.00    2.13266   2.13400  174.551
 6194.00    2.16888   2.17278  173.993
 6195.00    2.19001   2.19596  174.455
 6196.00    2.19804   2.20242  176.141
 6197.00    2.18950   2.19299  177.960
 6198.00    2.16322   2.17256  178.565
 6199.00    2.13177   2.15737   -1.000
 6200.00    2.11383   2.16272   -1.000
 6201.00    2.12412   2.18476   -1.000
 6202.00    2.15482   2.20822   -1.000
 6203.00    2.18344   2.22283   -1.000
 6204.00    2.19761   2.22905   -1.000
 6205.00    2.20717   2.23221   -1.000
 6206.00    2.21534   2.23499   -1.000
 6207.00    2.21846   2.23614   -1.000
 6208.00    2.22035   2.23273  175.854
 6209.00    2.20845   2.22305  177.413
 6210.00    2.18774   2.20650   -1.000
 6211.00    2.17165   2.18068  181.210
 6212.00    2.14585   2.14528  183.606
 6213.00    2.11219   2.10891  184.691
 6214.00    2.09293   2.08613  183.646
 6215.00    2.09156   2.08470  181.749
 6216.00    2.10356   2.09736  182.148
 6217.00    2.12037   2.10845  182.697
 6218.00    2.12512   2.10723   -1.000
 6219.00    2.11468   2.09922   -1.000
 6220.00    2.12065   2.09881   -1.000
 6221.00    2.07399   2.11021   -1.000
 6222.00    1.91588   2.12503   -1.000
 6223.00    1.96834   2.13497   -1.000
 6224.00    2.16109   2.14068   -1.000
 6225.00    2.15284   2.14584  180.535
 6226.00    2.15448   2.14728  182.352
 6227.00    2.14479   2.13645  185.223
 6228.00    2.12136   2.10731  187.988
 6229.00    2.09359   2.06654   -1.000
 6230.00    2.06302   2.03518   -1.000
 6231.00    2.04815   2.03288   -1.000
 6232.00    2.07221   2.06217  180.237
 6233.00    2.11560   2.10886  178.382
 6234.00    2.15293   2.15214  178.711
 6235.00    2.17071   2.17408  180.355
 6236.00    2.16934   2.16994  182.215
 6237.00    2.15645   2.14826  184.109
 6238.00    2.13123   2.12193  185.497
 6239.00    2.10571   2.10135  185.752
 6240.00    2.08882   2.08969  186.332
 6241.00    2.07858   2.08186  187.762
 6242.00    2.07450   2.07167  188.300
 6243.00    2.06818   2.06124  187.542
 6244.00    2.06620   2.05770  185.946
 6245.00    2.07790   2.06567  183.798
 6246.00    2.09621   2.08670  181.628
 6247.00    2.11308   2.11660  180.613
 6248.00    2.13441   2.14241  181.470
 6249.00    2.14319   2.15058  184.109
 6250.00    2.12724   2.13591  187.088
 6251.00    2.10360   2.10477  188.779
 6252.00    2.07422   2.07331  189.630
 6253.00    2.05163   2.05469  189.809
 6254.00    2.04328   2.04800  190.576
 6255.00    2.04008   2.04206  192.448
 6256.00    2.02949   2.03056  192.888
 6257.00    2.01821   2.02213  190.840
 6258.00    2.02331   2.03018  187.836
 6259.00    2.05352   2.05826  185.171
 6260.00    2.08836   2.09714  182.496
 6261.00    2.12045   2.13386  180.580
 6262.00    2.14242   2.15890  180.976
 6263.00    2.15070   2.16716  182.460
 6264.00    2.14514   2.16185  182.630
 6265.00    2.13283   2.15533   -1.000
 6266.00    2.12859   2.15717   -1.000
 6267.00    2.13264   2.16250   -1.000
 6268.00    2.13180   2.16277   -1.000
 6269.00    2.12814   2.15989   -1.000
 6270.00    2.13484   2.16106   -1.000
 6271.00    2.14352   2.16769   -1.000
 6272.00    2.14852   2.17339   -1.000
 6273.00    2.13813   2.17065   -1.000
 6274.00    2.10829   2.15727   -1.000
 6275.00    2.06844   2.13761   -1.000
 6276.00    2.02860   2.11713   -1.000
 6277.00    2.00566   2.09850   -1.000
 6278.00    1.99206   2.08273   -1.000
 6279.00    1.97180   2.07174   -1.000
 6280.00    1.94504   2.07123   -1.000
 6281.00    1.93095   2.08687   -1.000
 6282.00    1.94477   2.11553   -1.000
 6283.00    1.98686   2.14641   -1.000
 6284.00    2.03764   2.17041   -1.000
 6285.00    2.08488   2.18666   -1.000
 6286.00    2.12067   2.20009   -1.000
 6287.00    2.14826   2.21137   -1.000
 6288.00    2.16183   2.21431   -1.000
 6289.00    2.16338   2.20436   -1.000
 6290.00    2.15517   2.18579   -1.000
 6291.00    2.13810   2.16912   -1.000
 6292.00    2.12831   2.16097   -1.000
 6293.00    2.13125   2.15913   -1.000
 6294.00    2.13157   2.15494   -1.000
 6295.00    2.12177   2.14147   -1.000
 6296.00    2.10695   2.12331  187.184
 6297.00    2.09033   2.11232   -1.000
 6298.00    2.08242   2.11282   -1.000
 6299.00    2.09046   2.11552   -1.000
 6300.00    2.09309   2.11086   -1.000
 6301.00    2.09021   2.10487  188.484
 6302.00    2.09291   2.10925  185.941
 6303.00    2.10535   2.12548   -1.000
 6304.00    2.12345   2.14668   -1.000
 6305.00    2.13848   2.16762   -1.000
 6306.00    2.15550   2.18785   -1.000
 6307.00    2.17271   2.20525   -1.000
 6308.00    2.17681   2.21304   -1.000
 6309.00    2.16801   2.20810   -1.000
 6310.00    2.15665   2.19570   -1.000
 6311.00    2.14457   2.18313   -1.000
 6312.00    2.13540   2.17277   -1.000
 6313.00    2.12492   2.16089   -1.000
 6314.00    2.10776   2.14557   -1.000
 6315.00    2.09322   2.13092   -1.000
 6316.00    2.08718   2.11897   -1.000
 6317.00    2.08887   2.11002   -1.000
 6318.00    2.09427   2.11220  182.913
 6319.00    2.10927   2.13112   -1.000
 6320.00    2.13401   2.15716   -1.000
 6321.00    2.15191   2.17860   -1.000
 6322.00    2.15834   2.19463   -1.000
 6323.00    2.16275   2.20987   -1.000
 6324.00    2.17667   2.22394   -1.000
 6325.00    2.19426   2.23211   -1.000
 6326.00    2.19783   2.23403   -1.000
 6327.00    2.19330   2.23405   -1.000
 6328.00    2.19345   2.23420   -1.000
 6329.00    2.19456   2.23385   -1.000
 6330.00    2.19212   2.23568   -1.000
 6331.00    2.19247   2.24117   -1.000
 6332.00    2.19684   2.24199   -1.000
 6333.00    2.18351   2.22685   -1.000
 6334.00    2.15094   2.19547   -1.000
 6335.00    2.12638   2.16468   -1.000
 6336.00    2.11728   2.15355   -1.000
 6337.00    2.12594   2.16456   -1.000
 6338.00    2.14988   2.18710   -1.000
 6339.00    2.17237   2.21025   -1.000
 6340.00    2.18387   2.22449   -1.000
 6341.00    2.18716   2.22312   -1.000
 6342.00    2.18172   2.20815   -1.000
 6343.00    2.16442   2.19181   -1.000
 6344.00    2.15232   2.18850   -1.000
 6345.00    2.16016   2.20113   -1.000
 6346.00    2.17523   2.22136   -1.000
 6347.00    2.18777   2.24118   -1.000
 6348.00    2.19754   2.25698   -1.000
 6349.00    2.20149   2.26768   -1.000
 6350.00    2.20238   2.27257   -1.000
 6351.00    2.19949   2.26981   -1.000
 6352.00    2.18780   2.25729   -1.000
 6353.00    2.17330   2.23716   -1.000
 6354.00    2.15446   2.21791   -1.000
 6355.00    2.13420   2.20562   -1.000
 6356.00    2.12550   2.19573   -1.000
 6357.00    2.11795   2.18016   -1.000
 6358.00    2.10029   2.15969   -1.000
 6359.00    2.08281   2.14167   -1.000
 6360.00    2.08090   2.12928   -1.000
 6361.00    2.08713   2.12239   -1.000
 6362.00    2.08875   2.12418   -1.000
 6363.00    2.09299   2.13820   -1.000
 6364.00    2.10626   2.16204   -1.000
 6365.00    2.12575   2.18928   -1.000
 6366.00    2.14155   2.21537   -1.000
 6367.00    2.15050   2.23690   -1.000
 6368.00    2.15866   2.24968   -1.000
 6369.00    2.16439   2.25397   -1.000
 6370.00    2.16658   2.25659   -1.000
 6371.00    2.16929   2.26420   -1.000
 6372.00    2.17527   2.27572   -1.000
 6373.00    2.17773   2.28422   -1.000
 6374.00    2.17243   2.28639   -1.000
 6375.00    2.16563   2.28413   -1.000
 6376.00    2.15896   2.27790   -1.000
 6377.00    2.14811   2.26737   -1.000
 6378.00    2.13341   2.25575   -1.000
 6379.00    2.12307   2.24775   -1.000
 6380.00    2.11933   2.24612   -1.000
 6381.00    2.12230   2.25019   -1.000
 6382.00    2.12700   2.25598   -1.000
 6383.00    2.12517   2.25987   -1.000
 6384.00    2.12193   2.26290   -1.000
 6385.00    2.12211   2.26847   -1.000
 6386.00    2.11647   2.27597   -1.000
 6387.00    2.10528   2.28148   -1.000
 6388.00    2.09559   2.28330   -1.000
 6389.00    2.08563   2.27979   -1.000
 6390.00    2.06843   2.26540   -1.000
 6391.00    2.04505   2.23756   -1.000
 6392.00    2.01828   2.20626   -1.000
 6393.00    1.99466   2.19222   -1.000
 6394.00    1.99313   2.20656   -1.000
 6395.00    2.01209   2.23719   -1.000
 6396.00    2.02300   2.25965   -1.000
 6397.00    2.01256   2.25532   -1.000
 6398.00    1.98537   2.22504   -1.000
 6399.00    1.94457   2.19254   -1.000
 6400.00    1.92033   2.18845   -1.000
 6401.00    1.93175   2.21857   -1.000
 6402.00    1.95920   2.26006   -1.000
 6403.00    1.97885   2.28891   -1.000
 6404.00    1.97960   2.29541   -1.000
 6405.00    1.96400   2.28141   -1.000
 6406.00    1.94102   2.25778   -1.000
 6407.00    1.91203   2.23980   -1.000
 6408.00    1.88894   2.23549   -1.000
 6409.00    1.88049   2.23917   -1.000
 6410.00    1.86836   2.23960   -1.000
 6411.00    1.84525   2.23524   -1.000
 6412.00    1.82916   2.23434   -1.000
 6413.00    1.82464   2.24085   -1.000
 6414.00    1.81927   2.25143   -1.000
 6415.00    1.81323   2.26160   -1.000
 6416.00    1.80559   2.26592   -1.000
 6417.00    1.78746   2.25854   -1.000
 6418.00    1.76369   2.23842   -1.000
 6419.00    1.73411   2.21364   -1.000
 6420.00    1.70009   2.20073   -1.000
 6421.00    1.68270   2.21217   -1.000
 6422.00    1.68490   2.24184   -1.000
 6423.00    1.69275   2.27201   -1.000
 6424.00    1.69503   2.29201   -1.000
 6425.00    1.68727   2.30324   -1.000
 6426.00    1.67456   2.30870   -1.000
 6427.00    1.65980   2.30306   -1.000
 6428.00    1.63505   2.27983   -1.000
