###################################################################
## OUTPUT of StarlightChains_v04.for    [Cid@UFSC - 01/Apr/2007] ##
###################################################################

## Some input info
NGC6522_a_1.cxt                          [arq_obs]
Base.BC03.S                              [arq_base]
NGC6522_a_1.msk                          [arq_masks]
StCv04.C11.config                        [arq_config]
  150                                    [N_base]
    0                                    [N_YAV_components = # of components with extra extinction!]
    0                                    [i_FitPowerLaw (1/0 = Yes/No)]
-9.99                                    [alpha_PowerLaw]
CCM                                      [red_law_option]
 1.458241                                [q_norm = A(l_norm)/A(V)]

## (Re)Sampling Parameters
 3359.00                                 [l_ini (A)]
 6428.00                                 [l_fin (A)]
    1.00                                 [dl    (A)]     (OBS: dl_cushion =    50.00 A)

## Normalization info
 4020.00                                 [l_norm (A) - for base]
 4010.00                                 [llow_norm (A) - window for f_obs]
 4060.00                                 [lupp_norm (A) - window for f_obs]
8.861070E-15                             [fobs_norm (in input units)]

## S/N
 4730.00                                 [llow_SN (A) - window for S/N]
 4780.00                                 [lupp_SN (A) - window for S/N]
  58.057                                 [S/N in S/N window]
  38.566                                 [S/N in norm. window]
  50.435                                 [S/N_err in S/N window]
  33.502                                 [S/N_err in norm. window]
  1.0000                                 [fscale_chi2]

## etc...
  2147483607                             [idum_orig]
  3068                                   [NOl_eff]
  1658                                   [Nl_eff]
  1410    NSIGMA                         [Ntot_cliped & clip_method]
  2086490                                [Nglobal_steps]
   7                                     [N_chains]
  32                                     [NEX0s_base = N_base in EX0s-fits]
 0   0   1      235   2.0   7.149E+02    [Clip-Bug, RC-Crash & Burn-In warning-flags, n_censored_weights, wei_nsig_threshold & wei_limit]
    75     74.168     74.156      0.012  [idt_all, wdt_TotTime, wdt_UsrTime & wdt_SysTime (sec)]

## Synthesis Results - Best model ##

 2.11703E+00                             [chi2/Nl_eff]
     1.78346                             [adev (%)]

    99.50253                             [sum-of-x (%)]
 9.38944E-14                             [Flux_tot (units of input spectrum!)]
 2.69169E-09                             [Mini_tot (???)]
 1.34391E-09                             [Mcor_tot (???)]

  -7.47                                  [v0_min  (km/s)]
  65.52                                  [vd_min  (km/s)]
 1.7612                                  [AV_min  (mag)]
 0.0000                                  [YAV_min (mag)]

# j     x_j(%)      Mini_j(%)     Mcor_j(%)     age_j(yr)     Z_j      (L/M)_j    YAV?  Mstars   component_j        a/Fe...       SSP_chi2r SSP_adev(%)   SSP_AV   SSP_x(%)
  1      0.0000     0.0000E+00    0.0000E+00    1.000000E+06  0.00010  8.160E-03    0   1.0000   age020_m22            0.0000     1.5995E+03    33.7739   4.0000    75.2735
  2     14.1808     1.0446E-02    2.0923E-02    3.160000E+06  0.00010  4.759E-02    0   1.0000   age045_m22            0.0000     5.1516E+01     3.5202   3.1964    95.0301
  3      0.0000     0.0000E+00    0.0000E+00    5.010000E+06  0.00010  1.932E-02    0   0.9582   age055_m22            0.0000     3.5556E+02     9.6678   3.6612    80.9146
  4      0.0000     0.0000E+00    0.0000E+00    6.610000E+06  0.00010  9.973E-03    0   0.9297   age061_m22            0.0000     1.4748E+03    33.4268   4.0000    77.7014
  5      0.0000     0.0000E+00    0.0000E+00    8.710000E+06  0.00010  7.690E-03    0   0.9030   age067_m22            0.0000     1.4226E+03    33.0288   4.0000    78.2454
  6      0.0000     0.0000E+00    0.0000E+00    1.000000E+07  0.00010  6.375E-03    0   0.8902   age070_m22            0.0000     1.4058E+03    33.1115   4.0000    78.4729
  7      0.0000     0.0000E+00    0.0000E+00    1.445000E+07  0.00010  4.874E-03    0   0.8589   age078_m22            0.0000     1.0006E+03    28.1115   4.0000    82.1830
  8      0.0000     0.0000E+00    0.0000E+00    2.512000E+07  0.00010  4.103E-03    0   0.8174   age090_m22            0.0000     3.3456E+02    16.5466   4.0000    89.6348
  9      5.2784     5.0643E-02    7.9420E-02    4.000000E+07  0.00010  3.654E-03    0   0.7830   age104_m22            0.0000     1.5258E+02     8.2770   4.0000    94.1061
 10      3.8760     4.3932E-02    6.6847E-02    5.500000E+07  0.00010  3.093E-03    0   0.7597   age110_m22            0.0000     1.5598E+02     5.8519   4.0000    95.5752
 11      8.2569     1.1907E-01    1.7023E-01    1.015200E+08  0.00010  2.431E-03    0   0.7138   age116_m22            0.0000     2.4347E+02     5.6265   3.6766    98.4817
 12      0.0000     0.0000E+00    0.0000E+00    1.609000E+08  0.00010  1.319E-03    0   0.6775   age120_m22            0.0000     2.5876E+02     6.1153   3.1508   101.3537
 13      0.0000     0.0000E+00    0.0000E+00    2.861200E+08  0.00010  1.075E-03    0   0.6412   age125_m22            0.0000     7.2630E+02    10.9476   3.0097   107.0194
 14      0.0000     0.0000E+00    0.0000E+00    5.088000E+08  0.00010  7.183E-04    0   0.6083   age130_m22            0.0000     9.0040E+02    12.8499   2.6895   109.7860
 15      0.0000     0.0000E+00    0.0000E+00    9.047900E+08  0.00010  4.524E-04    0   0.5785   age135_m22            0.0000     9.1523E+02    13.2256   2.4716   111.1808
 16      0.0000     0.0000E+00    0.0000E+00    1.278050E+09  0.00010  3.018E-04    0   0.5588   age138_m22            0.0000     4.3922E+02     9.2866   2.1020   107.6063
 17      0.0000     0.0000E+00    0.0000E+00    1.434000E+09  0.00010  2.691E-04    0   0.5532   age139_m22            0.0000     3.5724E+02     8.4823   1.9764   106.7128
 18      0.0000     0.0000E+00    0.0000E+00    2.500000E+09  0.00010  1.582E-04    0   0.5296   age150_m22            0.0000     3.0447E+02     7.7689   1.9038   106.8321
 19      0.0000     0.0000E+00    0.0000E+00    4.250000E+09  0.00010  1.007E-04    0   0.5110   age158_m22            0.0000     1.6123E+02     5.6892   1.8271   104.4534
 20      0.0000     0.0000E+00    0.0000E+00    6.250000E+09  0.00010  6.869E-05    0   0.4985   age166_m22            0.0000     6.4574E+01     3.8313   1.8403   101.1089
 21      0.0000     0.0000E+00    0.0000E+00    7.500000E+09  0.00010  5.873E-05    0   0.4931   age171_m22            0.0000     5.3076E+01     3.4980   1.8463   100.3797
 22      0.0056     4.3563E-03    4.2352E-03    1.000000E+10  0.00010  4.481E-05    0   0.4854   age181_m22            0.0000     5.0668E+01     3.4507   1.8065   100.0910
 23      0.0087     8.7898E-03    8.4345E-03    1.300000E+10  0.00010  3.489E-05    0   0.4791   age193_m22            0.0000     4.3943E+01     3.2898   1.7525    99.6071
 24      0.3597     4.1548E-01    3.9661E-01    1.500000E+10  0.00010  3.035E-05    0   0.4766   age201_m22            0.0000     3.9187E+01     3.1593   1.7175    99.4237
 25      9.0482     1.2638E+01    1.1985E+01    1.800000E+10  0.00010  2.510E-05    0   0.4735   age213_m22            0.0000     2.9065E+01     2.8602   1.6608    98.7855
 26      0.0000     0.0000E+00    0.0000E+00    1.000000E+06  0.00040  8.458E-03    0   1.0000   age020_m32            0.0000     1.5925E+03    34.1593   4.0000    75.7890
 27      0.0000     0.0000E+00    0.0000E+00    3.160000E+06  0.00040  3.973E-02    0   1.0000   age045_m32            0.0000     2.9258E+02    14.3332   4.0000    89.4162
 28      0.0000     0.0000E+00    0.0000E+00    5.010000E+06  0.00040  1.935E-02    0   0.9532   age055_m32            0.0000     7.4902E+02    22.4190   4.0000    82.5832
 29      0.0000     0.0000E+00    0.0000E+00    6.610000E+06  0.00040  1.204E-02    0   0.9243   age061_m32            0.0000     1.1642E+03    29.7271   4.0000    80.2639
 30      0.0000     0.0000E+00    0.0000E+00    8.710000E+06  0.00040  9.433E-03    0   0.9001   age067_m32            0.0000     1.0608E+03    28.7059   4.0000    81.3764
 31      0.0000     0.0000E+00    0.0000E+00    1.000000E+07  0.00040  8.053E-03    0   0.8877   age070_m32            0.0000     9.9407E+02    27.7399   4.0000    81.9741
 32      0.0000     0.0000E+00    0.0000E+00    1.445000E+07  0.00040  7.027E-03    0   0.8578   age078_m32            0.0000     3.1995E+02    14.1040   4.0000    87.7377
 33      0.0000     0.0000E+00    0.0000E+00    2.512000E+07  0.00040  4.707E-03    0   0.8166   age090_m32            0.0000     1.1366E+02     5.8909   4.0000    91.3075
 34      1.4805     1.3975E-02    2.1908E-02    4.000000E+07  0.00040  3.714E-03    0   0.7827   age104_m32            0.0000     1.0707E+02     4.1956   3.8853    94.4232
 35      0.3160     3.7146E-03    5.6491E-03    5.500000E+07  0.00040  2.982E-03    0   0.7593   age110_m32            0.0000     1.3567E+02     4.3389   3.7871    95.8830
 36      0.0000     0.0000E+00    0.0000E+00    1.015200E+08  0.00040  2.188E-03    0   0.7143   age116_m32            0.0000     3.7148E+02     7.1295   3.3710   101.6059
 37      0.0000     0.0000E+00    0.0000E+00    1.609000E+08  0.00040  1.690E-03    0   0.6856   age120_m32            0.0000     5.7793E+02     9.2858   3.0732   105.1279
 38      0.0000     0.0000E+00    0.0000E+00    2.861200E+08  0.00040  1.152E-03    0   0.6509   age125_m32            0.0000     7.6888E+02    11.5295   2.7384   108.3668
 39      0.0000     0.0000E+00    0.0000E+00    5.088000E+08  0.00040  7.331E-04    0   0.6182   age130_m32            0.0000     8.4110E+02    12.4684   2.5241   109.7590
 40      0.0000     0.0000E+00    0.0000E+00    9.047900E+08  0.00040  3.960E-04    0   0.5890   age135_m32            0.0000     4.5258E+02     9.5074   2.1692   107.4030
 41      0.0000     0.0000E+00    0.0000E+00    1.278050E+09  0.00040  2.854E-04    0   0.5687   age138_m32            0.0000     3.5956E+02     8.4145   1.9408   108.1862
 42      0.0000     5.8726E-06    6.6244E-06    1.434000E+09  0.00040  2.531E-04    0   0.5632   age139_m32            0.0000     3.4733E+02     8.3226   1.8855   108.0439
 43      3.4828     8.2055E-01    8.8517E-01    2.500000E+09  0.00040  1.488E-04    0   0.5386   age150_m32            0.0000     2.3154E+02     6.9936   1.6740   105.7813
 44     10.1168     3.9052E+00    4.0664E+00    4.250000E+09  0.00040  9.082E-05    0   0.5199   age158_m32            0.0000     6.5632E+01     3.9392   1.6864   101.5985
 45      6.4072     3.5306E+00    3.5895E+00    6.250000E+09  0.00040  6.362E-05    0   0.5076   age166_m32            0.0000     1.2670E+01     2.3542   1.7316    97.6532
 46      0.0000     0.0000E+00    0.0000E+00    7.500000E+09  0.00040  5.289E-05    0   0.5027   age171_m32            0.0000     1.1797E+01     2.3123   1.7051    96.4722
 47      0.0033     2.8704E-03    2.8446E-03    1.000000E+10  0.00040  3.972E-05    0   0.4948   age181_m32            0.0000     1.3853E+01     2.3578   1.6453    95.2784
 48      0.0000     0.0000E+00    0.0000E+00    1.300000E+10  0.00040  3.283E-05    0   0.4870   age193_m32            0.0000     1.7753E+01     2.6189   1.5571    98.3195
 49      1.5149     1.8156E+00    1.7652E+00    1.500000E+10  0.00040  2.925E-05    0   0.4854   age201_m32            0.0000     3.1895E+01     3.1122   1.5123   100.0975
 50      4.9354     7.0078E+00    6.7639E+00    1.800000E+10  0.00040  2.469E-05    0   0.4819   age213_m32            0.0000     3.9527E+01     3.3484   1.4598   100.7516
 51      0.0000     0.0000E+00    0.0000E+00    1.000000E+06  0.00400  1.114E-02    0   1.0000   age020_m42            0.0000     1.4739E+03    32.4185   4.0000    76.5523
 52      0.0000     0.0000E+00    0.0000E+00    3.160000E+06  0.00400  4.073E-02    0   0.9999   age045_m42            0.0000     1.0296E+02     6.0291   4.0000    91.8713
 53      0.0000     0.0000E+00    0.0000E+00    5.010000E+06  0.00400  2.534E-02    0   0.9488   age055_m42            0.0000     4.8821E+02    17.8224   4.0000    85.5842
 54      0.0498     6.7580E-05    1.2480E-04    6.610000E+06  0.00400  2.583E-02    0   0.9220   age061_m42            0.0000     8.3032E+01     4.0773   3.9881    91.9332
 55      0.0000     0.0000E+00    0.0000E+00    8.710000E+06  0.00400  1.706E-02    0   0.8983   age067_m42            0.0000     1.0276E+02     5.3153   3.8747    89.4946
 56      0.0000     0.0000E+00    0.0000E+00    1.000000E+07  0.00400  1.271E-02    0   0.8862   age070_m42            0.0000     1.5069E+02     6.4536   3.8958    87.6611
 57      0.0000     0.0000E+00    0.0000E+00    1.445000E+07  0.00400  7.666E-03    0   0.8571   age078_m42            0.0000     3.0441E+02     9.0216   4.0000    85.5430
 58      0.0000     0.0000E+00    0.0000E+00    2.512000E+07  0.00400  5.070E-03    0   0.8174   age090_m42            0.0000     1.2600E+02     5.7085   3.7428    89.6906
 59      0.0000     0.0000E+00    0.0000E+00    4.000000E+07  0.00400  3.505E-03    0   0.7851   age104_m42            0.0000     7.5856E+01     3.9211   3.3696    93.4638
 60      0.0000     0.0000E+00    0.0000E+00    5.500000E+07  0.00400  3.059E-03    0   0.7629   age110_m42            0.0000     1.2448E+02     3.5696   3.2881    99.2016
 61      0.0000     0.0000E+00    0.0000E+00    1.015200E+08  0.00400  2.268E-03    0   0.7207   age116_m42            0.0000     4.9436E+02     8.3839   2.9992   106.2248
 62      0.0000     0.0000E+00    0.0000E+00    1.609000E+08  0.00400  1.720E-03    0   0.6930   age120_m42            0.0000     5.5219E+02     9.1148   2.8183   108.3675
 63      0.0000     0.0000E+00    0.0000E+00    2.861200E+08  0.00400  1.079E-03    0   0.6613   age125_m42            0.0000     5.5649E+02     9.8398   2.4332   109.2695
 64      0.0000     0.0000E+00    0.0000E+00    5.088000E+08  0.00400  6.261E-04    0   0.6313   age130_m42            0.0000     6.5418E+02    10.9829   2.2003   112.4606
 65      0.0000     0.0000E+00    0.0000E+00    9.047900E+08  0.00400  3.535E-04    0   0.6024   age135_m42            0.0000     3.7722E+02     8.5828   1.8892   111.8308
 66      0.0000     0.0000E+00    0.0000E+00    1.278050E+09  0.00400  2.677E-04    0   0.5837   age138_m42            0.0000     1.3245E+02     7.0179   1.2963   109.3978
 67      0.0000     0.0000E+00    0.0000E+00    1.434000E+09  0.00400  1.910E-04    0   0.5716   age139_m42            0.0000     1.7064E+02     7.1770   1.4352   110.2982
 68      0.0000     0.0000E+00    0.0000E+00    2.500000E+09  0.00400  9.818E-05    0   0.5463   age150_m42            0.0000     5.8900E+01     5.6099   1.2802   104.6867
 69      0.0000     0.0000E+00    0.0000E+00    4.250000E+09  0.00400  5.491E-05    0   0.5269   age158_m42            0.0000     6.3827E+01     5.1205   1.2099   101.5706
 70      0.0000     0.0000E+00    0.0000E+00    6.250000E+09  0.00400  3.857E-05    0   0.5151   age166_m42            0.0000     9.2167E+01     5.6364   1.0972   100.3609
 71      2.8056     3.0329E+00    3.1041E+00    7.500000E+09  0.00400  3.243E-05    0   0.5110   age171_m42            0.0000     1.1480E+02     6.0302   1.0219    99.9253
 72      1.4156     2.0473E+00    2.0618E+00    1.000000E+10  0.00400  2.424E-05    0   0.5028   age181_m42            0.0000     1.5335E+02     6.5306   0.9482    99.4118
 73      0.0000     0.0000E+00    0.0000E+00    1.300000E+10  0.00400  1.883E-05    0   0.4927   age193_m42            0.0000     1.9125E+02     6.8473   0.9158    99.1727
 74      0.0000     0.0000E+00    0.0000E+00    1.500000E+10  0.00400  1.685E-05    0   0.4919   age201_m42            0.0000     1.8070E+02     6.7062   0.9203    99.1634
 75      0.0000     0.0000E+00    0.0000E+00    1.800000E+10  0.00400  1.452E-05    0   0.4874   age213_m42            0.0000     1.6301E+02     6.4655   0.9355    99.3934
 76      0.0000     0.0000E+00    0.0000E+00    1.000000E+06  0.00800  1.286E-02    0   1.0000   age020_m52            0.0000     1.3254E+03    31.4215   4.0000    78.5337
 77      0.0000     0.0000E+00    0.0000E+00    3.160000E+06  0.00800  3.147E-02    0   0.9966   age045_m52            0.0000     1.1741E+03    29.5642   4.0000    80.1453
 78      0.0000     0.0000E+00    0.0000E+00    5.010000E+06  0.00800  2.664E-02    0   0.9443   age055_m52            0.0000     6.5364E+02    20.8494   4.0000    84.5985
 79      0.0000     0.0000E+00    0.0000E+00    6.610000E+06  0.00800  2.151E-02    0   0.9177   age061_m52            0.0000     1.2665E+02     5.6805   3.4738    90.1117
 80      0.0000     0.0000E+00    0.0000E+00    8.710000E+06  0.00800  1.628E-02    0   0.8948   age067_m52            0.0000     1.1667E+02     5.4191   3.8301    90.1621
 81      0.0000     0.0000E+00    0.0000E+00    1.000000E+07  0.00800  1.215E-02    0   0.8827   age070_m52            0.0000     1.7851E+02     6.3265   4.0000    88.7988
 82      0.0000     0.0000E+00    0.0000E+00    1.445000E+07  0.00800  8.739E-03    0   0.8552   age078_m52            0.0000     1.5264E+02     6.4845   4.0000    90.2806
 83      0.0000     0.0000E+00    0.0000E+00    2.512000E+07  0.00800  5.676E-03    0   0.8162   age090_m52            0.0000     1.1454E+02     4.1638   3.7346    94.4605
 84      0.6251     5.5636E-03    8.7373E-03    4.000000E+07  0.00800  3.939E-03    0   0.7841   age104_m52            0.0000     1.4692E+02     3.9961   3.5026    97.6362
 85      0.1880     2.0893E-03    3.1916E-03    5.500000E+07  0.00800  3.155E-03    0   0.7627   age110_m52            0.0000     2.0890E+02     4.9420   3.4103   100.0684
 86      0.0000     0.0000E+00    0.0000E+00    1.015200E+08  0.00800  2.206E-03    0   0.7226   age116_m52            0.0000     3.7524E+02     7.2005   3.1102   105.3843
 87      0.0000     0.0000E+00    0.0000E+00    1.609000E+08  0.00800  1.596E-03    0   0.6963   age120_m52            0.0000     4.6000E+02     8.3427   2.8375   107.8252
 88      0.0000     0.0000E+00    0.0000E+00    2.861200E+08  0.00800  1.002E-03    0   0.6665   age125_m52            0.0000     7.0400E+02    11.3628   2.4035   112.5450
 89      0.0000     0.0000E+00    0.0000E+00    5.088000E+08  0.00800  5.759E-04    0   0.6377   age130_m52            0.0000     7.4944E+02    12.6277   1.9883   117.6527
 90      0.0000     0.0000E+00    0.0000E+00    9.047900E+08  0.00800  2.972E-04    0   0.6086   age135_m52            0.0000     3.9218E+02    10.5628   1.5507   115.5532
 91      0.0000     0.0000E+00    0.0000E+00    1.278050E+09  0.00800  2.242E-04    0   0.5907   age138_m52            0.0000     1.5628E+02     8.1188   1.0995   112.9805
 92      0.0000     0.0000E+00    0.0000E+00    1.434000E+09  0.00800  1.645E-04    0   0.5787   age139_m52            0.0000     1.3049E+02     7.3957   1.2698   112.0141
 93      0.0000     0.0000E+00    0.0000E+00    2.500000E+09  0.00800  7.723E-05    0   0.5519   age150_m52            0.0000     1.1082E+02     6.9032   1.0182   107.6898
 94      0.0000     0.0000E+00    0.0000E+00    4.250000E+09  0.00800  4.151E-05    0   0.5320   age158_m52            0.0000     1.1764E+02     6.6733   0.9824   104.7060
 95      1.1854     1.3807E+00    1.4371E+00    6.250000E+09  0.00800  3.010E-05    0   0.5197   age166_m52            0.0000     1.8031E+02     7.4457   0.8003   103.5432
 96      3.7562     5.3378E+00    5.4941E+00    7.500000E+09  0.00800  2.467E-05    0   0.5139   age171_m52            0.0000     2.0020E+02     7.6985   0.7591   103.2289
 97      7.2006     1.3557E+01    1.3723E+01    1.000000E+10  0.00800  1.862E-05    0   0.5054   age181_m52            0.0000     2.6252E+02     8.5335   0.6207   103.2292
 98      5.1401     1.2575E+01    1.2563E+01    1.300000E+10  0.00800  1.433E-05    0   0.4988   age193_m52            0.0000     3.4722E+02     9.3103   0.5237   104.2498
 99      1.9916     5.6125E+00    5.5486E+00    1.500000E+10  0.00800  1.244E-05    0   0.4936   age201_m52            0.0000     3.8459E+02     9.5741   0.4946   104.8585
100      1.7386     5.6964E+00    5.5768E+00    1.800000E+10  0.00800  1.070E-05    0   0.4888   age213_m52            0.0000     4.0706E+02     9.8043   0.4572   104.8333
101      0.0000     0.0000E+00    0.0000E+00    1.000000E+06  0.02000  1.989E-02    0   1.0000   age020_m62            0.0000     1.4232E+03    31.5745   4.0000    77.4079
102      0.0000     0.0000E+00    0.0000E+00    3.160000E+06  0.02000  3.772E-02    0   0.9858   age045_m62            0.0000     1.1514E+03    28.2520   4.0000    79.9293
103      0.0000     0.0000E+00    0.0000E+00    5.010000E+06  0.02000  3.227E-02    0   0.9342   age055_m62            0.0000     2.8044E+02    13.3009   4.0000    88.7574
104      0.0000     0.0000E+00    0.0000E+00    6.610000E+06  0.02000  2.387E-02    0   0.9090   age061_m62            0.0000     2.5251E+02     8.6038   4.0000    87.1550
105      0.0000     0.0000E+00    0.0000E+00    8.710000E+06  0.02000  1.102E-02    0   0.8861   age067_m62            0.0000     5.5875E+02    12.0086   4.0000    80.5835
106      0.0000     0.0000E+00    0.0000E+00    1.000000E+07  0.02000  1.011E-02    0   0.8751   age070_m62            0.0000     3.8573E+02     9.8184   4.0000    83.4848
107      0.0000     0.0000E+00    0.0000E+00    1.445000E+07  0.02000  7.331E-03    0   0.8472   age078_m62            0.0000     2.7320E+02     8.2891   3.9845    85.5151
108      0.0000     0.0000E+00    0.0000E+00    2.512000E+07  0.02000  4.206E-03    0   0.8099   age090_m62            0.0000     2.8343E+02     8.0062   3.8841    85.2790
109      0.0000     0.0000E+00    0.0000E+00    4.000000E+07  0.02000  3.373E-03    0   0.7799   age104_m62            0.0000     9.9930E+01     3.8383   3.5254    95.3909
110      0.0000     0.0000E+00    0.0000E+00    5.500000E+07  0.02000  2.747E-03    0   0.7595   age110_m62            0.0000     1.6303E+02     4.1594   3.3614    99.7724
111      0.0000     0.0000E+00    0.0000E+00    1.015200E+08  0.02000  1.878E-03    0   0.7221   age116_m62            0.0000     4.2897E+02     7.7808   3.0636   106.2886
112      0.0000     0.0000E+00    0.0000E+00    1.609000E+08  0.02000  1.378E-03    0   0.6978   age120_m62            0.0000     6.4144E+02    10.1936   2.8050   110.1160
113      0.0000     0.0000E+00    0.0000E+00    2.861200E+08  0.02000  8.869E-04    0   0.6700   age125_m62            0.0000     9.9248E+02    13.6581   2.2793   116.5562
114      0.0000     0.0000E+00    0.0000E+00    5.088000E+08  0.02000  4.834E-04    0   0.6430   age130_m62            0.0000     8.3515E+02    13.7252   1.8056   119.8477
115      0.0000     0.0000E+00    0.0000E+00    9.047900E+08  0.02000  2.312E-04    0   0.6152   age135_m62            0.0000     3.3903E+02    10.0410   1.3821   117.1353
116      0.0000     0.0000E+00    0.0000E+00    1.278050E+09  0.02000  1.387E-04    0   0.5927   age138_m62            0.0000     1.2542E+02     7.5681   1.1433   111.7889
117      0.0000     0.0000E+00    0.0000E+00    1.434000E+09  0.02000  1.168E-04    0   0.5865   age139_m62            0.0000     1.0664E+02     7.2040   1.1456   109.9730
118      0.0000     0.0000E+00    0.0000E+00    2.500000E+09  0.02000  5.505E-05    0   0.5610   age150_m62            0.0000     1.3802E+02     7.6734   0.8341   106.9114
119      0.0000     0.0000E+00    0.0000E+00    4.250000E+09  0.02000  3.070E-05    0   0.5407   age158_m62            0.0000     2.6775E+02     9.3673   0.5279   107.6908
120      0.0000     0.0000E+00    0.0000E+00    6.250000E+09  0.02000  2.104E-05    0   0.5277   age166_m62            0.0000     3.6489E+02    10.1721   0.3887   108.6003
121      0.0000     0.0000E+00    0.0000E+00    7.500000E+09  0.02000  1.770E-05    0   0.5223   age171_m62            0.0000     4.1066E+02    10.6589   0.2912   109.3242
122      0.0000     0.0000E+00    0.0000E+00    1.000000E+10  0.02000  1.297E-05    0   0.5121   age181_m62            0.0000     5.1798E+02    11.6307   0.1112   110.5279
123      0.0000     0.0000E+00    0.0000E+00    1.300000E+10  0.02000  9.691E-06    0   0.5047   age193_m62            0.0000     5.9818E+02    12.3093   0.0000   111.4242
124      0.0000     0.0000E+00    0.0000E+00    1.500000E+10  0.02000  8.360E-06    0   0.4999   age201_m62            0.0000     6.6268E+02    12.8058  -0.0728   112.0577
125      0.0000     0.0000E+00    0.0000E+00    1.800000E+10  0.02000  6.911E-06    0   0.4946   age213_m62            0.0000     7.4072E+02    13.5533  -0.1753   112.9921
126      0.0000     0.0000E+00    0.0000E+00    1.000000E+06  0.05000  2.651E-02    0   0.9998   age020_m72            0.0000     1.3714E+03    31.1182   4.0000    78.5133
127      0.0000     0.0000E+00    0.0000E+00    3.160000E+06  0.05000  4.817E-02    0   0.9577   age045_m72            0.0000     7.8957E+02    23.5906   4.0000    84.0303
128      0.0000     0.0000E+00    0.0000E+00    5.010000E+06  0.05000  3.101E-02    0   0.9147   age055_m72            0.0000     4.3699E+02    14.8818   4.0000    86.7251
129      0.0000     0.0000E+00    0.0000E+00    6.610000E+06  0.05000  1.472E-02    0   0.8877   age061_m72            0.0000     4.8945E+02     9.9105   4.0000    83.2191
130      0.0000     0.0000E+00    0.0000E+00    8.710000E+06  0.05000  1.050E-02    0   0.8638   age067_m72            0.0000     5.5523E+02    14.6843   4.0000    84.9862
131      0.0000     0.0000E+00    0.0000E+00    1.000000E+07  0.05000  8.954E-03    0   0.8524   age070_m72            0.0000     6.6740E+02    20.0645   4.0000    85.7858
132      0.0000     0.0000E+00    0.0000E+00    1.445000E+07  0.05000  6.392E-03    0   0.8262   age078_m72            0.0000     5.5573E+02    18.1361   4.0000    87.2035
133      0.0000     0.0000E+00    0.0000E+00    2.512000E+07  0.05000  4.207E-03    0   0.7902   age090_m72            0.0000     1.8199E+02     7.3384   4.0000    91.9627
134      0.0000     0.0000E+00    0.0000E+00    4.000000E+07  0.05000  3.198E-03    0   0.7618   age104_m72            0.0000     2.4258E+02     5.1746   3.5359   101.2632
135      0.0000     0.0000E+00    0.0000E+00    5.500000E+07  0.05000  2.593E-03    0   0.7432   age110_m72            0.0000     3.3595E+02     6.4765   3.3902   103.4817
136      0.0000     0.0000E+00    0.0000E+00    1.015200E+08  0.05000  1.716E-03    0   0.7092   age116_m72            0.0000     5.3387E+02     8.8075   3.1042   106.9974
137      0.0000     0.0000E+00    0.0000E+00    1.609000E+08  0.05000  1.218E-03    0   0.6876   age120_m72            0.0000     7.6546E+02    11.1069   2.7265   111.3246
138      0.0000     0.0000E+00    0.0000E+00    2.861200E+08  0.05000  7.047E-04    0   0.6618   age125_m72            0.0000     9.4848E+02    13.6308   2.0518   117.5205
139      0.0000     0.0000E+00    0.0000E+00    5.088000E+08  0.05000  3.590E-04    0   0.6356   age130_m72            0.0000     6.7415E+02    13.1037   1.4908   120.4008
140      0.0000     0.0000E+00    0.0000E+00    9.047900E+08  0.05000  1.484E-04    0   0.6088   age135_m72            0.0000     1.8084E+02     9.1929   0.9925   111.8659
141      0.0000     0.0000E+00    0.0000E+00    1.278050E+09  0.05000  9.435E-05    0   0.5924   age138_m72            0.0000     1.8999E+02     9.6116   0.6512   109.1426
142      0.0000     0.0000E+00    0.0000E+00    1.434000E+09  0.05000  7.827E-05    0   0.5847   age139_m72            0.0000     1.9194E+02     9.2298   0.6914   108.1988
143      0.0000     0.0000E+00    0.0000E+00    2.500000E+09  0.05000  3.759E-05    0   0.5583   age150_m72            0.0000     3.3219E+02    10.2083   0.3946   107.8033
144      0.8902     1.6942E+00    1.8235E+00    4.250000E+09  0.05000  1.842E-05    0   0.5374   age158_m72            0.0000     4.8003E+02    11.6641   0.0000   108.4576
145      0.0000     0.0000E+00    0.0000E+00    6.250000E+09  0.05000  1.207E-05    0   0.5242   age166_m72            0.0000     6.1220E+02    12.8890  -0.2306   109.2395
146      1.4727     5.1666E+00    5.3634E+00    7.500000E+09  0.05000  9.993E-06    0   0.5183   age171_m72            0.0000     6.2596E+02    13.1424  -0.2868   109.4825
147      0.0000     0.0000E+00    0.0000E+00    1.000000E+10  0.05000  7.291E-06    0   0.5081   age181_m72            0.0000     7.1092E+02    14.3677  -0.4652   110.5997
148      0.2595     1.7112E+00    1.7198E+00    1.300000E+10  0.05000  5.316E-06    0   0.5018   age193_m72            0.0000     8.5018E+02    16.2322  -0.7458   112.4703
149      1.5123     1.1790E+01    1.1740E+01    1.500000E+10  0.05000  4.497E-06    0   0.4972   age201_m72            0.0000     9.2174E+02    17.2175  -0.8742   113.8047
150      0.0000     0.0000E+00    0.0000E+00    1.800000E+10  0.05000  3.739E-06    0   0.4924   age213_m72            0.0000     1.0190E+03    18.0902  -1.0000   115.1079


## Synthesis Results - Average & Chains ##

# j      x_j: min, <> & last-chain-values for 1 ...  7 chains
  1      0.0000      0.0037      0.0000      0.0000      0.0000      0.0000      0.0000      0.0000      0.0000
  2     14.1808     10.8114     11.3575     11.5261     11.5143     10.9653     11.4624     11.3684     11.8683
  3      0.0000      0.0129      0.0000      0.0000      0.0034      0.0000      0.0000      0.0000      0.0000
  4      0.0000      0.0025      0.0241      0.0000      0.0000      0.0000      0.0130      0.0000      0.0000
  5      0.0000      0.0026      0.0000      0.0000      0.0000      0.0000      0.0000      0.0000      0.0000
  6      0.0000      0.0088      0.0000      0.0000      0.0703      0.0000      0.0000      0.0012      0.0000
  7      0.0000      0.0021      0.0000      0.0000      0.0000      0.0000      0.0000      0.0000      0.0339
  8      0.0000      0.0221      0.0326      0.0000      0.2381      0.0000      0.0000      0.0000      0.0000
  9      5.2784      5.0755      5.1228      5.0342      5.4802      5.1808      5.2196      5.1762      4.9083
 10      3.8760      3.6920      3.7962      3.9757      3.2674      3.4909      3.9164      3.7908      3.7894
 11      8.2569      8.4894      8.4033      8.5374      8.4034      8.4433      8.8971      8.3972      8.7147
 12      0.0000      0.0211      0.0000      0.0000      0.0000      0.0492      0.1353      0.0385      0.0000
 13      0.0000      0.0156      0.0000      0.0000      0.0000      0.0361      0.0000      0.0000      0.0000
 14      0.0000      0.0088      0.0000      0.0000      0.0000      0.0000      0.0000      0.0000      0.0000
 15      0.0000      0.0225      0.0000      0.0000      0.0833      0.0000      0.0072      0.3192      0.0016
 16      0.0000      0.0209      0.0000      0.0000      0.0000      0.2678      0.0000      0.0000      0.0000
 17      0.0000      0.0189      0.0000      0.0000      0.0000      0.0000      0.0334      0.0000      0.0000
 18      0.0000      0.0443      0.2460      0.0000      0.0000      0.0000      0.0000      0.0000      0.0208
 19      0.0000      0.1507      0.1411      0.0447      0.0000      0.0000      0.0709      0.0000      0.0297
 20      0.0000      0.1874      0.0583      0.0000      0.0000      0.3839      0.6117      0.0104      0.0000
 21      0.0000      0.2035      0.4167      0.0000      0.0503      0.0000      0.3752      0.0000      0.6677
 22      0.0056      0.1624      0.2170      0.2118      0.3209      0.0627      0.0000      0.0000      0.0000
 23      0.0087      0.2981      0.5461      1.0144      0.0273      0.0000      0.0000      0.7521      0.0000
 24      0.3597      2.8406      1.2381      2.9291      1.4338      3.0380      3.0267      0.9846      3.0704
 25      9.0482      7.2403      7.5947      7.3762      7.3387      7.0755      7.4951      8.7080      7.1509
 26      0.0000      0.0032      0.0000      0.0674      0.0000      0.0000      0.0000      0.0000      0.0000
 27      0.0000      0.0340      0.0000      0.0750      0.0000      0.0331      0.0060      0.1794      0.0000
 28      0.0000      0.0142      0.0000      0.0000      0.0000      0.0000      0.0000      0.0000      0.0000
 29      0.0000      0.0110      0.0000      0.0000      0.0000      0.0000      0.0000      0.0000      0.0000
 30      0.0000      0.0046      0.0000      0.0000      0.0000      0.0000      0.0000      0.0000      0.0000
 31      0.0000      0.0048      0.0000      0.0000      0.0000      0.0000      0.0000      0.0000      0.0000
 32      0.0000      0.0100      0.0000      0.0126      0.0000      0.0000      0.0000      0.0000      0.0000
 33      0.0000      0.0218      0.0000      0.0000      0.0000      0.0000      0.0000      0.0000      0.0000
 34      1.4805      1.8311      1.8713      1.3920      1.7160      1.9778      1.7539      1.7312      1.7758
 35      0.3160      0.8876      0.0980      1.0360      0.8540      1.0217      0.8147      0.7830      0.8476
 36      0.0000      0.0700      0.0000      0.0662      0.0000      0.0588      0.0000      0.0000      0.0000
 37      0.0000      0.0626      0.0293      0.1035      0.2916      0.0000      0.0047      0.1601      0.0000
 38      0.0000      0.0173      0.0000      0.0000      0.0000      0.0253      0.0000      0.0000      0.0000
 39      0.0000      0.0127      0.0000      0.0000      0.0000      0.0000      0.0000      0.0388      0.0000
 40      0.0000      0.0140      0.0000      0.0000      0.0000      0.0000      0.0000      0.0000      0.0136
 41      0.0000      0.0587      0.3402      0.0011      0.0000      0.0000      0.0000      0.0000      0.1387
 42      0.0000      0.0848      0.0000      0.1971      0.5056      0.0000      0.0000      0.0000      0.0000
 43      3.4828      2.9617      3.1604      3.4310      2.8076      2.8237      3.4881      2.2465      3.2430
 44     10.1168      8.7201      9.8530      9.1017      8.7548      9.5247      7.8042      9.3095      8.1788
 45      6.4072      6.2856      6.1973      6.0022      7.2319      7.4629      6.3953      6.5642      6.5366
 46      0.0000      0.2661      0.0000      0.0000      0.0000      0.1526      0.0000      0.0000      0.0377
 47      0.0033      0.1946      0.0000      0.2131      0.0000      0.0000      0.0412      0.0000      0.1533
 48      0.0000      0.4091      0.4841      0.0140      0.0000      0.4015      0.0000      0.1106      0.7953
 49      1.5149      1.5962      1.5623      0.9201      3.2742      0.4047      2.1204      2.4674      0.8429
 50      4.9354      4.4260      4.3885      4.4533      4.3887      4.4036      4.0855      4.8248      5.2615
 51      0.0000      0.0065      0.0000      0.0000      0.0000      0.0000      0.0000      0.0000      0.0000
 52      0.0000      0.1646      0.4519      0.0297      0.2395      0.1540      0.0924      0.0964      0.1340
 53      0.0000      0.0120      0.0238      0.0000      0.0000      0.1242      0.0000      0.0000      0.0007
 54      0.0498      1.0996      1.0712      1.0957      0.7832      1.1855      0.9324      1.3532      0.6934
 55      0.0000      0.0299      0.1872      0.0000      0.0000      0.0000      0.1018      0.0000      0.0000
 56      0.0000      0.0161      0.1355      0.0000      0.0000      0.0000      0.0000      0.0000      0.0000
 57      0.0000      0.0068      0.0000      0.0000      0.0000      0.0000      0.0000      0.0000      0.0000
 58      0.0000      0.0109      0.0000      0.0000      0.0000      0.0000      0.0000      0.0000      0.0322
 59      0.0000      0.0183      0.0000      0.0000      0.0000      0.0000      0.0000      0.0000      0.0000
 60      0.0000      0.0200      0.0000      0.0000      0.0000      0.0000      0.0000      0.0000      0.0000
 61      0.0000      0.0478      0.0000      0.0000      0.0102      0.3711      0.0000      0.0000      0.0000
 62      0.0000      0.0291      0.0000      0.0000      0.0000      0.0000      0.1582      0.0039      0.0000
 63      0.0000      0.0270      0.1196      0.0000      0.0000      0.0504      0.0000      0.0000      0.0000
 64      0.0000      0.0399      0.0192      0.0000      0.0688      0.0000      0.0000      0.0000      0.0000
 65      0.0000      0.0837      0.1134      0.0000      0.0069      0.3053      0.0000      0.5094      0.0000
 66      0.0000      0.0818      0.0000      0.0000      0.0000      0.0000      0.3237      0.0114      0.2087
 67      0.0000      0.1010      0.0000      0.1351      0.0000      0.0000      0.0000      0.2683      0.2094
 68      0.0000      0.1690      0.0000      0.0000      0.0613      0.0716      0.3006      0.0000      0.1023
 69      0.0000      0.1268      0.0000      0.0733      0.0000      0.0000      0.0000      0.0000      0.0000
 70      0.0000      0.1500      0.1139      0.0000      0.2069      0.4855      0.0609      0.0000      0.0000
 71      2.8056      3.1256      3.3825      3.0372      2.9397      3.1884      3.0858      2.7612      2.8177
 72      1.4156      0.8394      0.9936      0.7768      1.3882      0.8741      1.0431      0.6250      0.9869
 73      0.0000      0.2527      0.1943      0.1909      0.2260      0.3357      0.1630      0.1418      0.4615
 74      0.0000      0.2456      0.4765      0.0000      0.0000      0.0000      0.2606      0.5430      0.2395
 75      0.0000      0.0851      0.3444      0.0754      0.0718      0.0000      0.1685      0.0819      0.2634
 76      0.0000      0.0039      0.0000      0.0000      0.0000      0.0000      0.0000      0.0000      0.0000
 77      0.0000      0.0193      0.0000      0.0000      0.0000      0.0000      0.1589      0.0000      0.0000
 78      0.0000      0.0046      0.0000      0.0000      0.0000      0.0000      0.0000      0.0000      0.0000
 79      0.0000      0.0114      0.0000      0.0000      0.0000      0.0000      0.0000      0.0000      0.0000
 80      0.0000      0.0337      0.0000      0.0045      0.0000      0.0000      0.0000      0.0000      0.0000
 81      0.0000      0.0104      0.0000      0.0000      0.0000      0.0000      0.0000      0.0000      0.0000
 82      0.0000      0.0062      0.0000      0.0000      0.0223      0.0287      0.0000      0.0000      0.0000
 83      0.0000      0.0368      0.0000      0.0000      0.0000      0.0008      0.0000      0.0000      0.0180
 84      0.6251      0.0463      0.1157      0.2513      0.0358      0.0000      0.0860      0.0000      0.0000
 85      0.1880      0.0428      0.0000      0.1986      0.0000      0.0000      0.0000      0.0000      0.1262
 86      0.0000      0.0270      0.0000      0.0000      0.0000      0.0000      0.0000      0.0000      0.0405
 87      0.0000      0.0314      0.2601      0.1023      0.0000      0.0000      0.0020      0.0000      0.0000
 88      0.0000      0.0173      0.0000      0.0000      0.0000      0.0000      0.0000      0.0000      0.0000
 89      0.0000      0.0092      0.0000      0.0000      0.0000      0.0000      0.0000      0.0000      0.0000
 90      0.0000      0.0160      0.0000      0.0000      0.0000      0.0000      0.0000      0.0510      0.0000
 91      0.0000      0.0202      0.1262      0.0180      0.0000      0.0000      0.0000      0.0000      0.0000
 92      0.0000      0.0281      0.0000      0.0000      0.0000      0.0000      0.0080      0.0000      0.0000
 93      0.0000      0.0425      0.0000      0.0000      0.0000      0.1023      0.0000      0.0326      0.0000
 94      0.0000      0.1208      0.0000      0.1630      0.2459      0.3861      0.0000      0.0000      0.2037
 95      1.1854      0.7367      0.5597      0.9503      0.7338      0.9469      0.4411      0.6667      0.5224
 96      3.7562      3.2366      3.3288      3.5737      2.8973      3.3353      3.3795      3.5325      3.2161
 97      7.2006      7.0983      7.2217      7.3721      7.3559      7.1196      7.0535      7.2006      6.9687
 98      5.1401      5.0072      5.1470      4.8610      5.1227      5.0194      4.9515      5.2326      5.1612
 99      1.9916      2.4033      2.2854      2.4963      2.5513      2.6147      2.2507      2.4950      2.3195
100      1.7386      2.2156      2.2366      2.1549      1.9740      1.9966      2.7192      2.3897      2.3377
101      0.0000      0.0025      0.0000      0.0000      0.0000      0.0000      0.0000      0.0081      0.0000
102      0.0000      0.0059      0.0000      0.0397      0.0000      0.0000      0.0000      0.0035      0.0000
103      0.0000      0.0088      0.0000      0.0000      0.0000      0.0000      0.0000      0.0000      0.0000
104      0.0000      0.0124      0.0000      0.0000      0.0037      0.0000      0.0000      0.0000      0.1005
105      0.0000      0.0071      0.0000      0.0007      0.0000      0.0000      0.0000      0.0000      0.0000
106      0.0000      0.0083      0.0000      0.0620      0.0000      0.0065      0.0000      0.0052      0.0000
107      0.0000      0.0057      0.0000      0.0000      0.0000      0.0000      0.0000      0.0000      0.0024
108      0.0000      0.0032      0.0000      0.0000      0.0000      0.0000      0.0000      0.0000      0.0000
109      0.0000      0.0095      0.0000      0.0000      0.0000      0.0000      0.0000      0.0000      0.0000
110      0.0000      0.0106      0.0547      0.0433      0.0000      0.0000      0.0217      0.0000      0.0000
111      0.0000      0.0303      0.0000      0.0000      0.4675      0.0000      0.0000      0.0000      0.2883
112      0.0000      0.0175      0.0000      0.0000      0.0000      0.0000      0.0000      0.0000      0.0000
113      0.0000      0.0110      0.0000      0.0000      0.0000      0.0000      0.0000      0.0000      0.0415
114      0.0000      0.0087      0.0000      0.0000      0.0000      0.0000      0.0000      0.0000      0.0000
115      0.0000      0.0209      0.0000      0.0000      0.0322      0.0037      0.0000      0.0000      0.0000
116      0.0000      0.0191      0.0000      0.0000      0.0000      0.0000      0.0000      0.0000      0.0000
117      0.0000      0.0186      0.0000      0.0000      0.0000      0.0000      0.0000      0.0000      0.0000
118      0.0000      0.0338      0.0000      0.0000      0.1908      0.0000      0.0000      0.0000      0.0000
119      0.0000      0.0451      0.0435      0.0000      0.0000      0.0000      0.0000      0.0000      0.0000
120      0.0000      0.0289      0.0000      0.1360      0.0000      0.0000      0.0000      0.0000      0.0173
121      0.0000      0.0406      0.0000      0.0000      0.0000      0.0174      0.0229      0.0000      0.0000
122      0.0000      0.0174      0.0000      0.0000      0.0000      0.0147      0.0000      0.0000      0.0000
123      0.0000      0.0410      0.1512      0.0000      0.1152      0.0000      0.0000      0.0133      0.0000
124      0.0000      0.0144      0.0000      0.1241      0.0000      0.0260      0.1084      0.0000      0.0000
125      0.0000      0.0324      0.0000      0.0318      0.1563      0.0000      0.0000      0.0000      0.2521
126      0.0000      0.0022      0.0000      0.0027      0.0000      0.0000      0.0000      0.0000      0.0000
127      0.0000      0.0049      0.0000      0.0000      0.0000      0.0572      0.0000      0.0000      0.0000
128      0.0000      0.0076      0.0000      0.0000      0.0000      0.0000      0.0000      0.0000      0.0323
129      0.0000      0.0060      0.0000      0.0000      0.0000      0.0000      0.0000      0.0000      0.0428
130      0.0000      0.0040      0.0130      0.0359      0.0000      0.0000      0.0000      0.0000      0.0000
131      0.0000      0.0029      0.0000      0.0000      0.0000      0.0000      0.0000      0.0000      0.0000
132      0.0000      0.0041      0.0000      0.0000      0.0000      0.0000      0.0000      0.0000      0.0000
133      0.0000      0.0025      0.0000      0.0000      0.0000      0.0000      0.0000      0.0000      0.0000
134      0.0000      0.0081      0.0000      0.0000      0.0167      0.0000      0.0000      0.0000      0.0604
135      0.0000      0.0136      0.0000      0.0000      0.0000      0.0000      0.0000      0.0000      0.0000
136      0.0000      0.0154      0.0000      0.0000      0.1245      0.0000      0.0114      0.0000      0.0000
137      0.0000      0.0105      0.0050      0.0000      0.0000      0.0095      0.0000      0.0000      0.0000
138      0.0000      0.0113      0.0000      0.0000      0.0237      0.0000      0.0000      0.0000      0.0076
139      0.0000      0.0155      0.0000      0.0000      0.0000      0.0000      0.0000      0.0730      0.0000
140      0.0000      0.0328      0.0000      0.0000      0.0000      0.0000      0.2468      0.0000      0.0000
141      0.0000      0.0211      0.0000      0.1617      0.0171      0.0000      0.0000      0.0000      0.0890
142      0.0000      0.0416      0.0000      0.0000      0.0000      0.0000      0.1804      0.0000      0.0000
143      0.0000      0.0232      0.0057      0.0513      0.0000      0.0000      0.0000      0.1496      0.0138
144      0.8902      0.0668      0.0000      0.5628      0.1879      0.0000      0.1583      0.0155      0.2300
145      0.0000      0.0803      0.0632      0.0000      0.0000      0.1213      0.1072      0.0000      0.1234
146      1.4727      0.4856      0.4106      0.5852      0.5734      0.4533      0.5443      0.4483      0.5501
147      0.0000      0.0923      0.2003      0.0000      0.1026      0.0342      0.0259      0.0000      0.0000
148      0.2595      0.5378      0.4142      0.5250      0.4907      0.5123      0.5203      0.6307      0.3683
149      1.5123      1.9494      1.7600      1.8965      1.8137      1.9520      1.9448      1.9669      1.8205
150      0.0000      0.2877      0.3265      0.0000      0.2540      0.3351      0.0924      0.3038      0.3789

# j      m_j: min, <> & last-chain-values for 1 ...  7 chains
  1  0.0000E+00  2.9535E-05  0.0000E+00  0.0000E+00  0.0000E+00  0.0000E+00  0.0000E+00  0.0000E+00  0.0000E+00
  2  2.0923E-02  1.4974E-02  1.5940E-02  1.6382E-02  1.6083E-02  1.5399E-02  1.6080E-02  1.5492E-02  1.6377E-02
  3  0.0000E+00  4.2073E-05  0.0000E+00  0.0000E+00  1.1090E-05  0.0000E+00  0.0000E+00  0.0000E+00  0.0000E+00
  4  0.0000E+00  1.5444E-05  1.5013E-04  0.0000E+00  0.0000E+00  0.0000E+00  8.0824E-05  0.0000E+00  0.0000E+00
  5  0.0000E+00  1.9928E-05  0.0000E+00  0.0000E+00  0.0000E+00  0.0000E+00  0.0000E+00  0.0000E+00  0.0000E+00
  6  0.0000E+00  8.0694E-05  0.0000E+00  0.0000E+00  6.5275E-04  0.0000E+00  0.0000E+00  1.1274E-05  0.0000E+00
  7  0.0000E+00  2.3842E-05  0.0000E+00  0.0000E+00  0.0000E+00  0.0000E+00  0.0000E+00  0.0000E+00  3.9200E-04
  8  0.0000E+00  2.8969E-04  4.3367E-04  0.0000E+00  3.1527E-03  0.0000E+00  0.0000E+00  0.0000E+00  0.0000E+00
  9  7.9420E-02  7.1688E-02  7.3319E-02  7.2967E-02  7.8062E-02  7.4197E-02  7.4670E-02  7.1931E-02  6.9068E-02
 10  6.6847E-02  5.9772E-02  6.2278E-02  6.6051E-02  5.3347E-02  5.7305E-02  6.4219E-02  6.0383E-02  6.1121E-02
 11  1.7023E-01  1.6430E-01  1.6480E-01  1.6956E-01  1.6402E-01  1.6569E-01  1.7440E-01  1.5990E-01  1.6804E-01
 12  0.0000E+00  7.1456E-04  0.0000E+00  0.0000E+00  0.0000E+00  1.6882E-03  4.6405E-03  1.2818E-03  0.0000E+00
 13  0.0000E+00  6.1280E-04  0.0000E+00  0.0000E+00  0.0000E+00  1.4390E-03  0.0000E+00  0.0000E+00  0.0000E+00
 14  0.0000E+00  4.8877E-04  0.0000E+00  0.0000E+00  0.0000E+00  0.0000E+00  0.0000E+00  0.0000E+00  0.0000E+00
 15  0.0000E+00  1.8968E-03  0.0000E+00  0.0000E+00  7.0791E-03  0.0000E+00  6.1603E-04  2.6468E-02  1.3407E-04
 16  0.0000E+00  2.5492E-03  0.0000E+00  0.0000E+00  0.0000E+00  3.3144E-02  0.0000E+00  0.0000E+00  0.0000E+00
 17  0.0000E+00  2.5656E-03  0.0000E+00  0.0000E+00  0.0000E+00  0.0000E+00  4.5896E-03  0.0000E+00  0.0000E+00
 18  0.0000E+00  9.7860E-03  5.5007E-02  0.0000E+00  0.0000E+00  0.0000E+00  0.0000E+00  0.0000E+00  4.5656E-03
 19  0.0000E+00  5.0397E-02  4.7831E-02  1.5352E-02  0.0000E+00  0.0000E+00  2.4026E-02  0.0000E+00  9.9007E-03
 20  0.0000E+00  8.9660E-02  2.8263E-02  0.0000E+00  0.0000E+00  1.8622E-01  2.9635E-01  4.8849E-03  0.0000E+00
 21  0.0000E+00  1.1261E-01  2.3366E-01  0.0000E+00  2.8057E-02  0.0000E+00  2.1033E-01  0.0000E+00  3.6816E-01
 22  4.2352E-03  1.1595E-01  1.5703E-01  1.5522E-01  2.3108E-01  4.5406E-02  0.0000E+00  0.0000E+00  0.0000E+00
 23  8.4345E-03  2.6979E-01  5.0082E-01  9.4222E-01  2.4937E-02  0.0000E+00  0.0000E+00  6.6972E-01  0.0000E+00
 24  3.9661E-01  2.9402E+00  1.2986E+00  3.1113E+00  1.4966E+00  3.1885E+00  3.1731E+00  1.0027E+00  3.1663E+00
 25  1.1985E+01  9.0027E+00  9.5692E+00  9.4121E+00  9.2027E+00  8.9207E+00  9.4393E+00  1.0653E+01  8.8586E+00
 26  0.0000E+00  2.5294E-05  0.0000E+00  5.3920E-04  0.0000E+00  0.0000E+00  0.0000E+00  0.0000E+00  0.0000E+00
 27  0.0000E+00  5.6481E-05  0.0000E+00  1.2770E-04  0.0000E+00  5.5736E-05  1.0141E-05  2.9278E-04  0.0000E+00
 28  0.0000E+00  4.5955E-05  0.0000E+00  0.0000E+00  0.0000E+00  0.0000E+00  0.0000E+00  0.0000E+00  0.0000E+00
 29  0.0000E+00  5.5804E-05  0.0000E+00  0.0000E+00  0.0000E+00  0.0000E+00  0.0000E+00  0.0000E+00  0.0000E+00
 30  0.0000E+00  2.9191E-05  0.0000E+00  0.0000E+00  0.0000E+00  0.0000E+00  0.0000E+00  0.0000E+00  0.0000E+00
 31  0.0000E+00  3.5148E-05  0.0000E+00  0.0000E+00  0.0000E+00  0.0000E+00  0.0000E+00  0.0000E+00  0.0000E+00
 32  0.0000E+00  8.0243E-05  0.0000E+00  1.0434E-04  0.0000E+00  0.0000E+00  0.0000E+00  0.0000E+00  0.0000E+00
 33  0.0000E+00  2.4944E-04  0.0000E+00  0.0000E+00  0.0000E+00  0.0000E+00  0.0000E+00  0.0000E+00  0.0000E+00
 34  2.1908E-02  2.5435E-02  2.6340E-02  1.9842E-02  2.4039E-02  2.7857E-02  2.4676E-02  2.3660E-02  2.4576E-02
 35  5.6491E-03  1.4897E-02  1.6669E-03  1.7843E-02  1.4454E-02  1.7387E-02  1.3849E-02  1.2930E-02  1.4172E-02
 36  0.0000E+00  1.5073E-03  0.0000E+00  1.4625E-03  0.0000E+00  1.2836E-03  0.0000E+00  0.0000E+00  0.0000E+00
 37  0.0000E+00  1.6736E-03  7.9411E-04  2.8393E-03  7.8635E-03  0.0000E+00  1.2703E-04  4.2125E-03  0.0000E+00
 38  0.0000E+00  6.4479E-04  0.0000E+00  0.0000E+00  0.0000E+00  9.5671E-04  0.0000E+00  0.0000E+00  0.0000E+00
 39  0.0000E+00  7.0469E-04  0.0000E+00  0.0000E+00  0.0000E+00  0.0000E+00  0.0000E+00  2.1225E-03  0.0000E+00
 40  0.0000E+00  1.3729E-03  0.0000E+00  0.0000E+00  0.0000E+00  0.0000E+00  0.0000E+00  0.0000E+00  1.3241E-03
 41  0.0000E+00  7.7124E-03  4.5281E-02  1.4608E-04  0.0000E+00  0.0000E+00  0.0000E+00  0.0000E+00  1.8152E-02
 42  6.6244E-06  1.2442E-02  0.0000E+00  2.9673E-02  7.4783E-02  0.0000E+00  0.0000E+00  0.0000E+00  0.0000E+00
 43  8.8517E-01  7.0661E-01  7.6405E-01  8.4003E-01  6.7553E-01  6.8308E-01  8.4289E-01  5.2734E-01  7.7084E-01
 44  4.0664E+00  3.2903E+00  3.7673E+00  3.5242E+00  3.3315E+00  3.6441E+00  2.9825E+00  3.4560E+00  3.0746E+00
 45  3.5895E+00  3.3056E+00  3.3025E+00  3.2392E+00  3.8356E+00  3.9796E+00  3.4065E+00  3.3965E+00  3.4248E+00
 46  0.0000E+00  1.6671E-01  0.0000E+00  0.0000E+00  0.0000E+00  9.6954E-02  0.0000E+00  0.0000E+00  2.3507E-02
 47  2.8446E-03  1.5979E-01  0.0000E+00  1.7954E-01  0.0000E+00  0.0000E+00  3.4283E-02  0.0000E+00  1.2545E-01
 48  0.0000E+00  4.0004E-01  4.7967E-01  1.4052E-02  0.0000E+00  3.9801E-01  0.0000E+00  1.0643E-01  7.7473E-01
 49  1.7652E+00  1.7460E+00  1.7317E+00  1.0328E+00  3.6118E+00  4.4884E-01  2.3491E+00  2.6554E+00  9.1853E-01
 50  6.7639E+00  5.6941E+00  5.7210E+00  5.8792E+00  5.6940E+00  5.7443E+00  5.3235E+00  6.1071E+00  6.7437E+00
 51  0.0000E+00  3.8393E-05  0.0000E+00  0.0000E+00  0.0000E+00  0.0000E+00  0.0000E+00  0.0000E+00  0.0000E+00
 52  0.0000E+00  2.6642E-04  7.4097E-04  4.9324E-05  3.9078E-04  2.5264E-04  1.5151E-04  1.5340E-04  2.1606E-04
 53  0.0000E+00  2.9654E-05  5.9587E-05  0.0000E+00  0.0000E+00  3.1071E-04  0.0000E+00  0.0000E+00  1.6648E-06
 54  1.2480E-04  2.5871E-03  2.5540E-03  2.6454E-03  1.8583E-03  2.8282E-03  2.2219E-03  3.1323E-03  1.6253E-03
 55  0.0000E+00  1.0391E-04  6.5834E-04  0.0000E+00  0.0000E+00  0.0000E+00  3.5783E-04  0.0000E+00  0.0000E+00
 56  0.0000E+00  7.3805E-05  6.3109E-04  0.0000E+00  0.0000E+00  0.0000E+00  0.0000E+00  0.0000E+00  0.0000E+00
 57  0.0000E+00  5.0324E-05  0.0000E+00  0.0000E+00  0.0000E+00  0.0000E+00  0.0000E+00  0.0000E+00  0.0000E+00
 58  0.0000E+00  1.1635E-04  0.0000E+00  0.0000E+00  0.0000E+00  0.0000E+00  0.0000E+00  0.0000E+00  3.4111E-04
 59  0.0000E+00  2.6981E-04  0.0000E+00  0.0000E+00  0.0000E+00  0.0000E+00  0.0000E+00  0.0000E+00  0.0000E+00
 60  0.0000E+00  3.2840E-04  0.0000E+00  0.0000E+00  0.0000E+00  0.0000E+00  0.0000E+00  0.0000E+00  0.0000E+00
 61  0.0000E+00  1.0021E-03  0.0000E+00  0.0000E+00  2.1564E-04  7.8806E-03  0.0000E+00  0.0000E+00  0.0000E+00
 62  0.0000E+00  7.7350E-04  0.0000E+00  0.0000E+00  0.0000E+00  0.0000E+00  4.2541E-03  1.0097E-04  0.0000E+00
 63  0.0000E+00  1.0912E-03  4.8948E-03  0.0000E+00  0.0000E+00  2.0662E-03  0.0000E+00  0.0000E+00  0.0000E+00
 64  0.0000E+00  2.6509E-03  1.2943E-03  0.0000E+00  4.6107E-03  0.0000E+00  0.0000E+00  0.0000E+00  0.0000E+00
 65  0.0000E+00  9.3999E-03  1.2902E-02  0.0000E+00  7.7740E-04  3.4769E-02  0.0000E+00  5.6290E-02  0.0000E+00
 66  0.0000E+00  1.1757E-02  0.0000E+00  0.0000E+00  0.0000E+00  0.0000E+00  4.7119E-02  1.6084E-03  2.9879E-02
 67  0.0000E+00  1.9914E-02  0.0000E+00  2.7347E-02  0.0000E+00  0.0000E+00  0.0000E+00  5.2064E-02  4.1150E-02
 68  0.0000E+00  6.1967E-02  0.0000E+00  0.0000E+00  2.2673E-02  2.6633E-02  1.1168E-01  0.0000E+00  3.7374E-02
 69  0.0000E+00  8.0168E-02  0.0000E+00  4.7590E-02  0.0000E+00  0.0000E+00  0.0000E+00  0.0000E+00  0.0000E+00
 70  0.0000E+00  1.3208E-01  1.0162E-01  0.0000E+00  1.8370E-01  4.3337E-01  5.4276E-02  0.0000E+00  0.0000E+00
 71  3.1041E+00  3.2462E+00  3.5599E+00  3.2370E+00  3.0791E+00  3.3577E+00  3.2461E+00  2.8216E+00  2.9156E+00
 72  2.0618E+00  1.1476E+00  1.3766E+00  1.0899E+00  1.9142E+00  1.2117E+00  1.4445E+00  8.4076E-01  1.3443E+00
 73  0.0000E+00  4.3575E-01  3.3958E-01  3.3783E-01  3.9309E-01  5.8699E-01  2.8473E-01  2.4055E-01  7.9297E-01
 74  0.0000E+00  4.7263E-01  9.2909E-01  0.0000E+00  0.0000E+00  0.0000E+00  5.0789E-01  1.0280E+00  4.5906E-01
 75  0.0000E+00  1.8827E-01  7.7224E-01  1.7109E-01  1.6028E-01  0.0000E+00  3.7755E-01  1.7836E-01  5.8064E-01
 76  0.0000E+00  1.9881E-05  0.0000E+00  0.0000E+00  0.0000E+00  0.0000E+00  0.0000E+00  0.0000E+00  0.0000E+00
 77  0.0000E+00  4.0355E-05  0.0000E+00  0.0000E+00  0.0000E+00  0.0000E+00  3.3597E-04  0.0000E+00  0.0000E+00
 78  0.0000E+00  1.0833E-05  0.0000E+00  0.0000E+00  0.0000E+00  0.0000E+00  0.0000E+00  0.0000E+00  0.0000E+00
 79  0.0000E+00  3.2180E-05  0.0000E+00  0.0000E+00  0.0000E+00  0.0000E+00  0.0000E+00  0.0000E+00  0.0000E+00
 80  0.0000E+00  1.2208E-04  0.0000E+00  1.6802E-05  0.0000E+00  0.0000E+00  0.0000E+00  0.0000E+00  0.0000E+00
 81  0.0000E+00  4.9866E-05  0.0000E+00  0.0000E+00  0.0000E+00  0.0000E+00  0.0000E+00  0.0000E+00  0.0000E+00
 82  0.0000E+00  4.0229E-05  0.0000E+00  0.0000E+00  1.4509E-04  1.8743E-04  0.0000E+00  0.0000E+00  0.0000E+00
 83  0.0000E+00  3.4861E-04  0.0000E+00  0.0000E+00  0.0000E+00  7.2340E-06  0.0000E+00  0.0000E+00  1.6979E-04
 84  8.7373E-03  6.0685E-04  1.5385E-03  3.3837E-03  4.7330E-04  0.0000E+00  1.1423E-03  0.0000E+00  0.0000E+00
 85  3.1916E-03  6.8159E-04  0.0000E+00  3.2474E-03  0.0000E+00  0.0000E+00  0.0000E+00  0.0000E+00  2.0037E-03
 86  0.0000E+00  5.8310E-04  0.0000E+00  0.0000E+00  0.0000E+00  0.0000E+00  0.0000E+00  0.0000E+00  8.7065E-04
 87  0.0000E+00  9.0186E-04  7.5807E-03  3.0191E-03  0.0000E+00  0.0000E+00  5.7533E-05  0.0000E+00  0.0000E+00
 88  0.0000E+00  7.5681E-04  0.0000E+00  0.0000E+00  0.0000E+00  0.0000E+00  0.0000E+00  0.0000E+00  0.0000E+00
 89  0.0000E+00  6.7417E-04  0.0000E+00  0.0000E+00  0.0000E+00  0.0000E+00  0.0000E+00  0.0000E+00  0.0000E+00
 90  0.0000E+00  2.1643E-03  0.0000E+00  0.0000E+00  0.0000E+00  0.0000E+00  0.0000E+00  6.7756E-03  0.0000E+00
 91  0.0000E+00  3.5164E-03  2.2217E-02  3.2064E-03  0.0000E+00  0.0000E+00  0.0000E+00  0.0000E+00  0.0000E+00
 92  0.0000E+00  6.5252E-03  0.0000E+00  0.0000E+00  0.0000E+00  0.0000E+00  1.8747E-03  0.0000E+00  0.0000E+00
 93  0.0000E+00  2.0002E-02  0.0000E+00  0.0000E+00  0.0000E+00  4.8877E-02  0.0000E+00  1.5111E-02  0.0000E+00
 94  0.0000E+00  1.0208E-01  0.0000E+00  1.4127E-01  2.0953E-01  3.3070E-01  0.0000E+00  0.0000E+00  1.7143E-01
 95  1.4371E+00  8.3840E-01  6.4543E-01  1.1098E+00  8.4219E-01  1.0927E+00  5.0842E-01  7.4651E-01  5.9233E-01
 96  5.4941E+00  4.4440E+00  4.6315E+00  5.0354E+00  4.0120E+00  4.6434E+00  4.6997E+00  4.7721E+00  4.3994E+00
 97  1.3723E+01  1.2699E+01  1.3092E+01  1.3535E+01  1.3272E+01  1.2915E+01  1.2781E+01  1.2675E+01  1.2421E+01
 98  1.2563E+01  1.1488E+01  1.1966E+01  1.1445E+01  1.1853E+01  1.1677E+01  1.1506E+01  1.1812E+01  1.1797E+01
 99  5.5486E+00  6.2856E+00  6.0567E+00  6.6998E+00  6.7292E+00  6.9338E+00  5.9619E+00  6.4200E+00  6.0437E+00
100  5.5768E+00  6.6714E+00  6.8242E+00  6.6585E+00  5.9943E+00  6.0958E+00  8.2929E+00  7.0796E+00  7.0128E+00
101  0.0000E+00  8.1331E-06  0.0000E+00  0.0000E+00  0.0000E+00  0.0000E+00  0.0000E+00  2.6325E-05  0.0000E+00
102  0.0000E+00  1.0233E-05  0.0000E+00  7.0263E-05  0.0000E+00  0.0000E+00  0.0000E+00  6.0053E-06  0.0000E+00
103  0.0000E+00  1.6794E-05  0.0000E+00  0.0000E+00  0.0000E+00  0.0000E+00  0.0000E+00  0.0000E+00  0.0000E+00
104  0.0000E+00  3.1162E-05  0.0000E+00  0.0000E+00  9.3564E-06  0.0000E+00  0.0000E+00  0.0000E+00  2.5144E-04
105  0.0000E+00  3.7543E-05  0.0000E+00  3.7660E-06  0.0000E+00  0.0000E+00  0.0000E+00  0.0000E+00  0.0000E+00
106  0.0000E+00  4.7584E-05  0.0000E+00  3.6326E-04  0.0000E+00  3.7583E-05  0.0000E+00  2.9277E-05  0.0000E+00
107  0.0000E+00  4.3338E-05  0.0000E+00  0.0000E+00  0.0000E+00  0.0000E+00  0.0000E+00  0.0000E+00  1.8248E-05
108  0.0000E+00  4.0665E-05  0.0000E+00  0.0000E+00  0.0000E+00  0.0000E+00  0.0000E+00  0.0000E+00  0.0000E+00
109  0.0000E+00  1.4514E-04  0.0000E+00  0.0000E+00  0.0000E+00  0.0000E+00  0.0000E+00  0.0000E+00  0.0000E+00
110  0.0000E+00  1.9250E-04  1.0096E-03  8.0988E-04  0.0000E+00  0.0000E+00  3.9972E-04  0.0000E+00  0.0000E+00
111  0.0000E+00  7.6772E-04  0.0000E+00  0.0000E+00  1.1948E-02  0.0000E+00  0.0000E+00  0.0000E+00  7.2793E-03
112  0.0000E+00  5.8414E-04  0.0000E+00  0.0000E+00  0.0000E+00  0.0000E+00  0.0000E+00  0.0000E+00  0.0000E+00
113  0.0000E+00  5.4862E-04  0.0000E+00  0.0000E+00  0.0000E+00  0.0000E+00  0.0000E+00  0.0000E+00  2.0579E-03
114  0.0000E+00  7.6680E-04  0.0000E+00  0.0000E+00  0.0000E+00  0.0000E+00  0.0000E+00  0.0000E+00  0.0000E+00
115  0.0000E+00  3.6628E-03  0.0000E+00  0.0000E+00  5.6878E-03  6.5092E-04  0.0000E+00  0.0000E+00  0.0000E+00
116  0.0000E+00  5.3696E-03  0.0000E+00  0.0000E+00  0.0000E+00  0.0000E+00  0.0000E+00  0.0000E+00  0.0000E+00
117  0.0000E+00  6.1694E-03  0.0000E+00  0.0000E+00  0.0000E+00  0.0000E+00  0.0000E+00  0.0000E+00  0.0000E+00
118  0.0000E+00  2.2736E-02  0.0000E+00  0.0000E+00  1.2922E-01  0.0000E+00  0.0000E+00  0.0000E+00  0.0000E+00
119  0.0000E+00  5.2367E-02  5.1130E-02  0.0000E+00  0.0000E+00  0.0000E+00  0.0000E+00  0.0000E+00  0.0000E+00
120  0.0000E+00  4.7740E-02  0.0000E+00  2.3073E-01  0.0000E+00  0.0000E+00  0.0000E+00  0.0000E+00  2.8568E-02
121  0.0000E+00  7.8972E-02  0.0000E+00  0.0000E+00  0.0000E+00  3.4241E-02  4.5161E-02  0.0000E+00  0.0000E+00
122  0.0000E+00  4.5171E-02  0.0000E+00  0.0000E+00  0.0000E+00  3.8904E-02  0.0000E+00  0.0000E+00  0.0000E+00
123  0.0000E+00  1.4073E-01  5.2600E-01  0.0000E+00  3.9875E-01  0.0000E+00  0.0000E+00  4.5001E-02  0.0000E+00
124  0.0000E+00  5.6700E-02  0.0000E+00  5.0178E-01  0.0000E+00  1.0376E-01  4.3259E-01  0.0000E+00  0.0000E+00
125  0.0000E+00  1.5261E-01  0.0000E+00  1.5403E-01  7.4375E-01  0.0000E+00  0.0000E+00  0.0000E+00  1.1848E+00
126  0.0000E+00  5.5135E-06  0.0000E+00  6.9700E-06  0.0000E+00  0.0000E+00  0.0000E+00  0.0000E+00  0.0000E+00
127  0.0000E+00  6.4230E-06  0.0000E+00  0.0000E+00  0.0000E+00  7.6070E-05  0.0000E+00  0.0000E+00  0.0000E+00
128  0.0000E+00  1.4804E-05  0.0000E+00  0.0000E+00  0.0000E+00  0.0000E+00  0.0000E+00  0.0000E+00  6.2544E-05
129  0.0000E+00  2.3935E-05  0.0000E+00  0.0000E+00  0.0000E+00  0.0000E+00  0.0000E+00  0.0000E+00  1.6947E-04
130  0.0000E+00  2.1492E-05  7.1445E-05  1.9956E-04  0.0000E+00  0.0000E+00  0.0000E+00  0.0000E+00  0.0000E+00
131  0.0000E+00  1.8265E-05  0.0000E+00  0.0000E+00  0.0000E+00  0.0000E+00  0.0000E+00  0.0000E+00  0.0000E+00
132  0.0000E+00  3.5164E-05  0.0000E+00  0.0000E+00  0.0000E+00  0.0000E+00  0.0000E+00  0.0000E+00  0.0000E+00
133  0.0000E+00  3.1431E-05  0.0000E+00  0.0000E+00  0.0000E+00  0.0000E+00  0.0000E+00  0.0000E+00  0.0000E+00
134  0.0000E+00  1.2748E-04  0.0000E+00  0.0000E+00  2.6488E-04  0.0000E+00  0.0000E+00  0.0000E+00  9.4411E-04
135  0.0000E+00  2.5786E-04  0.0000E+00  0.0000E+00  0.0000E+00  0.0000E+00  0.0000E+00  0.0000E+00  0.0000E+00
136  0.0000E+00  4.1905E-04  0.0000E+00  0.0000E+00  3.4203E-03  0.0000E+00  3.1496E-04  0.0000E+00  0.0000E+00
137  0.0000E+00  3.9171E-04  1.8777E-04  0.0000E+00  0.0000E+00  3.5986E-04  0.0000E+00  0.0000E+00  0.0000E+00
138  0.0000E+00  7.0164E-04  0.0000E+00  0.0000E+00  1.4818E-03  0.0000E+00  0.0000E+00  0.0000E+00  4.7081E-04
139  0.0000E+00  1.8131E-03  0.0000E+00  0.0000E+00  0.0000E+00  0.0000E+00  0.0000E+00  8.3861E-03  0.0000E+00
140  0.0000E+00  8.8607E-03  0.0000E+00  0.0000E+00  0.0000E+00  0.0000E+00  6.7605E-02  0.0000E+00  0.0000E+00
141  0.0000E+00  8.7323E-03  0.0000E+00  6.8691E-02  7.1189E-03  0.0000E+00  0.0000E+00  0.0000E+00  3.6714E-02
142  0.0000E+00  2.0472E-02  0.0000E+00  0.0000E+00  0.0000E+00  0.0000E+00  8.9971E-02  0.0000E+00  0.0000E+00
143  0.0000E+00  2.2676E-02  5.6536E-03  5.1508E-02  0.0000E+00  0.0000E+00  0.0000E+00  1.4408E-01  1.3446E-02
144  1.8235E+00  1.2844E-01  0.0000E+00  1.1105E+00  3.6438E-01  0.0000E+00  3.0837E-01  2.9330E-02  4.4064E-01
145  0.0000E+00  2.2987E-01  1.8332E-01  0.0000E+00  0.0000E+00  3.5205E-01  3.1095E-01  0.0000E+00  3.5198E-01
146  5.3634E+00  1.6600E+00  1.4223E+00  2.0529E+00  1.9769E+00  1.5712E+00  1.8846E+00  1.5080E+00  1.8737E+00
147  0.0000E+00  4.2375E-01  9.3212E-01  0.0000E+00  4.7508E-01  1.5940E-01  1.2040E-01  0.0000E+00  0.0000E+00
148  1.7198E+00  3.3461E+00  2.6112E+00  3.3521E+00  3.0789E+00  3.2317E+00  3.2785E+00  3.8608E+00  2.2828E+00
149  1.1740E+01  1.4206E+01  1.2997E+01  1.4183E+01  1.3330E+01  1.4424E+01  1.4354E+01  1.4103E+01  1.3217E+01
150  0.0000E+00  2.4971E+00  2.8721E+00  0.0000E+00  2.2239E+00  2.9496E+00  8.1211E-01  2.5943E+00  3.2770E+00

# AV, chi2 & Mass for <> & i_chain = 1 ...  7 solutions
AV       1.7612      1.7511      1.7573      1.7585      1.7539      1.7565      1.7633      1.7495      1.7521
chi2 2.1170E+00  2.1658E+00  2.1499E+00  2.1492E+00  2.1542E+00  2.1536E+00  2.1519E+00  2.1546E+00  2.1523E+00
Mass 1.3439E-09  1.4122E-09  1.4054E-09  1.3900E-09  1.4057E-09  1.4030E-09  1.4174E-09  1.4323E-09  1.4194E-09
  -7.47                                  [v0_min (km/s) before EX0s...]
  65.52                                  [vd_min (km/s) before EX0s...]


## Synthetic spectrum (Best Model) ##l_obs f_obs f_syn wei
 3070    [Nl_obs]
 3359.00    0.00000   0.39997   -2.000
 3360.00    0.13438   0.38689   -1.000
 3361.00    0.19762   0.39065   -1.000
 3362.00    0.21780   0.40816   -1.000
 3363.00    0.24169   0.42982   -1.000
 3364.00    0.24316   0.44407   -1.000
 3365.00    0.24350   0.44504   -1.000
 3366.00    0.24226   0.43686   -1.000
 3367.00    0.25125   0.42598   -1.000
 3368.00    0.26110   0.41614   -1.000
 3369.00    0.24844   0.40854   -1.000
 3370.00    0.24616   0.40165   -1.000
 3371.00    0.24809   0.39688   -1.000
 3372.00    0.24973   0.39868   -1.000
 3373.00    0.25398   0.41011   -1.000
 3374.00    0.27685   0.42896   -1.000
 3375.00    0.29034   0.44855   -1.000
 3376.00    0.28388   0.45886   -1.000
 3377.00    0.29521   0.45516   -1.000
 3378.00    0.31351   0.44260   -1.000
 3379.00    0.30985   0.43163   -1.000
 3380.00    0.28743   0.42932   -1.000
 3381.00    0.28991   0.43533   -1.000
 3382.00    0.29368   0.44474   -1.000
 3383.00    0.30004   0.45256   -1.000
 3384.00    0.29509   0.45796   -1.000
 3385.00    0.30157   0.46137   -1.000
 3386.00    0.32088   0.46057   -1.000
 3387.00    0.32806   0.45681   -1.000
 3388.00    0.32702   0.45502   -1.000
 3389.00    0.32252   0.45725   -1.000
 3390.00    0.32263   0.46004   -1.000
 3391.00    0.33442   0.45856   -1.000
 3392.00    0.33667   0.45238   -1.000
 3393.00    0.32849   0.44880   -1.000
 3394.00    0.33434   0.45358   -1.000
 3395.00    0.34356   0.46486   -1.000
 3396.00    0.35639   0.47733   -1.000
 3397.00    0.36294   0.48730   -1.000
 3398.00    0.38398   0.49339   -1.000
 3399.00    0.39207   0.49378   -1.000
 3400.00    0.40357   0.48933   -1.000
 3401.00    0.39880   0.48118   -1.000
 3402.00    0.39129   0.47008   -1.000
 3403.00    0.38164   0.46127   -1.000
 3404.00    0.36714   0.45709   -1.000
 3405.00    0.36327   0.45612   -1.000
 3406.00    0.37603   0.45467   -1.000
 3407.00    0.37892   0.45227   -1.000
 3408.00    0.37278   0.45121   -1.000
 3409.00    0.37324   0.45380   -1.000
 3410.00    0.37998   0.45769   -1.000
 3411.00    0.38418   0.45719   -1.000
 3412.00    0.38521   0.45223   -1.000
 3413.00    0.38431   0.44645   -1.000
 3414.00    0.37222   0.44536   -1.000
 3415.00    0.37486   0.45151   -1.000
 3416.00    0.38416   0.46205   -1.000
 3417.00    0.39661   0.47368   -1.000
 3418.00    0.40302   0.48472   -1.000
 3419.00    0.41627   0.49356   -1.000
 3420.00    0.41685   0.49728   -1.000
 3421.00    0.41399   0.49304   -1.000
 3422.00    0.41332   0.48228   -1.000
 3423.00    0.41141   0.47278   -1.000
 3424.00    0.41542   0.47015   -1.000
 3425.00    0.41569   0.47314   -1.000
 3426.00    0.42613   0.47859   -1.000
 3427.00    0.43035   0.48644   -1.000
 3428.00    0.43669   0.49763   -1.000
 3429.00    0.43873   0.50791   -1.000
 3430.00    0.43525   0.50917   -1.000
 3431.00    0.43761   0.49963   -1.000
 3432.00    0.44097   0.48722   -1.000
 3433.00    0.43593   0.48184   -1.000
 3434.00    0.42862   0.48639   -1.000
 3435.00    0.43306   0.49376   -1.000
 3436.00    0.44496   0.49508   -1.000
 3437.00    0.44327   0.48828   -1.000
 3438.00    0.42887   0.47567   -1.000
 3439.00    0.41346   0.45892   -1.000
 3440.00    0.39389   0.44113   -1.000
 3441.00    0.37878   0.42753   -1.000
 3442.00    0.39007   0.42279   -1.000
 3443.00    0.39691   0.42679   -1.000
 3444.00    0.40006   0.43580   -1.000
 3445.00    0.41274   0.44742   -1.000
 3446.00    0.41869   0.46203   -1.000
 3447.00    0.43093   0.47831   -1.000
 3448.00    0.45018   0.49305   -1.000
 3449.00    0.45061   0.50063   -1.000
 3450.00    0.46043   0.49599   -1.000
 3451.00    0.46587   0.48314   -1.000
 3452.00    0.44993   0.47220   -1.000
 3453.00    0.43673   0.46947   -1.000
 3454.00    0.45081   0.47377   -1.000
 3455.00    0.45993   0.47878   -1.000
 3456.00    0.46319   0.47882   -1.000
 3457.00    0.46110   0.47288   -1.000
 3458.00    0.45170   0.46386   -1.000
 3459.00    0.44853   0.45529  125.999
 3460.00    0.45846   0.44935   90.656
 3461.00    0.45649   0.45017   90.625
 3462.00    0.45343   0.45945  231.159
 3463.00    0.45979   0.47058   -1.000
 3464.00    0.46904   0.47508   -1.000
 3465.00    0.47204   0.47386  714.915
 3466.00    0.47117   0.47412  714.915
 3467.00    0.48231   0.48010  714.915
 3468.00    0.49129   0.49027  714.915
 3469.00    0.49670   0.49945  714.915
 3470.00    0.51187   0.50256   -1.000
 3471.00    0.50796   0.49747   -1.000
 3472.00    0.49756   0.48548   -1.000
 3473.00    0.48182   0.46932   -1.000
 3474.00    0.46653   0.45416   -1.000
 3475.00    0.45943   0.44530  127.227
 3476.00    0.45022   0.44640   92.879
 3477.00    0.44730   0.45608   92.562
 3478.00    0.46096   0.46827  232.394
 3479.00    0.49007   0.47889   -1.000
 3480.00    0.50485   0.48637   -1.000
 3481.00    0.50447   0.48799   -1.000
 3482.00    0.50321   0.48360   -1.000
 3483.00    0.49507   0.47821   -1.000
 3484.00    0.48979   0.47867   -1.000
 3485.00    0.49768   0.48760   -1.000
 3486.00    0.51780   0.49849   -1.000
 3487.00    0.51647   0.50233   -1.000
 3488.00    0.51114   0.49565   -1.000
 3489.00    0.49917   0.48223   -1.000
 3490.00    0.48224   0.47123   -1.000
 3491.00    0.47955   0.46946   -1.000
 3492.00    0.48339   0.47474   -1.000
 3493.00    0.48008   0.47940  714.915
 3494.00    0.48377   0.47856   -1.000
 3495.00    0.48315   0.47278   -1.000
 3496.00    0.48092   0.46835   -1.000
 3497.00    0.47376   0.47176  714.915
 3498.00    0.48707   0.48189   -1.000
 3499.00    0.50901   0.49186   -1.000
 3500.00    0.52357   0.49656   -1.000
 3501.00    0.52992   0.49936   -1.000
 3502.00    0.52913   0.50370   -1.000
 3503.00    0.52747   0.50628   -1.000
 3504.00    0.52887   0.50342   -1.000
 3505.00    0.52153   0.49629   -1.000
 3506.00    0.51387   0.48986   -1.000
 3507.00    0.51175   0.48740   -1.000
 3508.00    0.50811   0.48735   -1.000
 3509.00    0.52125   0.48648   -1.000
 3510.00    0.52067   0.48362   -1.000
 3511.00    0.50780   0.47885   -1.000
 3512.00    0.49418   0.47204   -1.000
 3513.00    0.49699   0.46572   -1.000
 3514.00    0.49963   0.46609   -1.000
 3515.00    0.50110   0.47755   -1.000
 3516.00    0.50549   0.49646   -1.000
 3517.00    0.52066   0.51210   -1.000
 3518.00    0.52136   0.51581   -1.000
 3519.00    0.51506   0.50722   -1.000
 3520.00    0.50848   0.49359   -1.000
 3521.00    0.49004   0.48130   -1.000
 3522.00    0.49168   0.47171   -1.000
 3523.00    0.49110   0.46263   -1.000
 3524.00    0.47847   0.45382   -1.000
 3525.00    0.46460   0.45031   91.957
 3526.00    0.46163   0.45690   92.608
 3527.00    0.48885   0.47196   -1.000
 3528.00    0.51444   0.48990   -1.000
 3529.00    0.52356   0.50406   -1.000
 3530.00    0.51629   0.51096   -1.000
 3531.00    0.50872   0.51153  714.915
 3532.00    0.50903   0.50858  714.915
 3533.00    0.52535   0.50505   -1.000
 3534.00    0.53062   0.50376   -1.000
 3535.00    0.52263   0.50631   -1.000
 3536.00    0.52356   0.51280   -1.000
 3537.00    0.53277   0.52137   -1.000
 3538.00    0.53296   0.52939  714.915
 3539.00    0.53494   0.53370  708.097
 3540.00    0.53571   0.53272  709.371
 3541.00    0.52657   0.52942  714.915
 3542.00    0.52401   0.52903   -1.000
 3543.00    0.53421   0.53314  714.915
 3544.00    0.53197   0.53771   -1.000
 3545.00    0.52803   0.53878   -1.000
 3546.00    0.53387   0.53654   -1.000
 3547.00    0.53539   0.53367  714.915
 3548.00    0.53500   0.53253  714.915
 3549.00    0.53122   0.53363  714.915
 3550.00    0.51633   0.53538   -1.000
 3551.00    0.50714   0.53452   -1.000
 3552.00    0.50909   0.52874   -1.000
 3553.00    0.50633   0.52041   -1.000
 3554.00    0.50088   0.51533   -1.000
 3555.00    0.50647   0.51640   -1.000
 3556.00    0.51809   0.52085  714.915
 3557.00    0.51006   0.52466   -1.000
 3558.00    0.49876   0.52565   -1.000
 3559.00    0.49132   0.52536   -1.000
 3560.00    0.49110   0.52704   -1.000
 3561.00    0.50875   0.53101   -1.000
 3562.00    0.51565   0.53199   -1.000
 3563.00    0.50595   0.52306   -1.000
 3564.00    0.48935   0.50408   -1.000
 3565.00    0.47676   0.48445  128.536
 3566.00    0.46583   0.47420   93.171
 3567.00    0.46769   0.47315   93.669
 3568.00    0.46799   0.47310   92.951
 3569.00    0.45900   0.46842   94.917
 3570.00    0.45244   0.46151   97.172
 3571.00    0.45619   0.45831   95.644
 3572.00    0.47112   0.46123   91.744
 3573.00    0.48122   0.46722   -1.000
 3574.00    0.47902   0.47340   -1.000
 3575.00    0.47801   0.47925  714.915
 3576.00    0.48411   0.48348  714.915
 3577.00    0.48542   0.48368  714.915
 3578.00    0.47638   0.47830  714.915
 3579.00    0.47723   0.46729  133.240
 3580.00    0.46144   0.45450   98.645
 3581.00    0.44697   0.44523  104.897
 3582.00    0.43993   0.44267  107.217
 3583.00    0.44264   0.44396  107.721
 3584.00    0.43824   0.44180  109.698
 3585.00    0.44131   0.43429  113.057
 3586.00    0.43217   0.42735  115.357
 3587.00    0.42950   0.42790  111.844
 3588.00    0.43762   0.43858  105.947
 3589.00    0.44993   0.45696  100.660
 3590.00    0.46897   0.47640   92.903
 3591.00    0.48015   0.49020  222.503
 3592.00    0.49010   0.49607   -1.000
 3593.00    0.50211   0.49838  714.915
 3594.00    0.50345   0.50354  714.915
 3595.00    0.50897   0.51359   -1.000
 3596.00    0.52454   0.52488  714.915
 3597.00    0.53498   0.53354  709.775
 3598.00    0.54143   0.53923  690.550
 3599.00    0.55277   0.54189   -1.000
 3600.00    0.54505   0.53852   -1.000
 3601.00    0.52785   0.52755  703.678
 3602.00    0.51486   0.51338  714.915
 3603.00    0.50038   0.50190  714.915
 3604.00    0.48838   0.49690   -1.000
 3605.00    0.49390   0.49653  714.915
 3606.00    0.50227   0.49562   -1.000
 3607.00    0.50456   0.49104   -1.000
 3608.00    0.49955   0.48480   -1.000
 3609.00    0.49323   0.48226   -1.000
 3610.00    0.49760   0.48606   -1.000
 3611.00    0.50007   0.49380   -1.000
 3612.00    0.50099   0.50156  714.915
 3613.00    0.50694   0.50880  714.915
 3614.00    0.50643   0.51744   -1.000
 3615.00    0.52162   0.52460   -1.000
 3616.00    0.53428   0.52215   -1.000
 3617.00    0.51730   0.50797   -1.000
 3618.00    0.49751   0.49099   -1.000
 3619.00    0.49073   0.48448  127.854
 3620.00    0.49045   0.49338  219.942
 3621.00    0.50927   0.51137  714.915
 3622.00    0.52670   0.52849  714.915
 3623.00    0.54286   0.54018  710.098
 3624.00    0.55002   0.55046  698.798
 3625.00    0.55660   0.56453   -1.000
 3626.00    0.57413   0.58023   -1.000
 3627.00    0.58088   0.58908   -1.000
 3628.00    0.57311   0.58201   -1.000
 3629.00    0.55217   0.55787   -1.000
 3630.00    0.52334   0.52694   -1.000
 3631.00    0.50235   0.50556  714.915
 3632.00    0.49675   0.50211   -1.000
 3633.00    0.51166   0.51226  714.915
 3634.00    0.51956   0.52496   -1.000
 3635.00    0.51676   0.53279   -1.000
 3636.00    0.52919   0.53781   -1.000
 3637.00    0.54251   0.54607   -1.000
 3638.00    0.55564   0.55758  681.611
 3639.00    0.56309   0.56698   -1.000
 3640.00    0.56443   0.56950   -1.000
 3641.00    0.56552   0.56384  659.439
 3642.00    0.55410   0.55261  679.989
 3643.00    0.52475   0.54033   -1.000
 3644.00    0.51108   0.53011   -1.000
 3645.00    0.52694   0.52219  714.915
 3646.00    0.52846   0.51564   -1.000
 3647.00    0.51745   0.51161   -1.000
 3648.00    0.51182   0.51198  714.915
 3649.00    0.50924   0.51732   -1.000
 3650.00    0.52291   0.52747   -1.000
 3651.00    0.53789   0.54106   -1.000
 3652.00    0.54396   0.55531   -1.000
 3653.00    0.55206   0.56686   -1.000
 3654.00    0.56488   0.57541   -1.000
 3655.00    0.57696   0.58279   -1.000
 3656.00    0.58986   0.59002  635.413
 3657.00    0.58345   0.59583   -1.000
 3658.00    0.57511   0.59843   -1.000
 3659.00    0.58311   0.59787   -1.000
 3660.00    0.58292   0.59443   -1.000
 3661.00    0.57077   0.58816   -1.000
 3662.00    0.56298   0.58072   -1.000
 3663.00    0.56613   0.57585   -1.000
 3664.00    0.56975   0.57542   -1.000
 3665.00    0.57222   0.57740   -1.000
 3666.00    0.57811   0.57791  637.993
 3667.00    0.58519   0.57432   -1.000
 3668.00    0.57812   0.56798   -1.000
 3669.00    0.56218   0.56407  669.914
 3670.00    0.55776   0.56675   -1.000
 3671.00    0.57126   0.57491   -1.000
 3672.00    0.57784   0.58325   -1.000
 3673.00    0.58497   0.58718   -1.000
 3674.00    0.59049   0.58552  630.320
 3675.00    0.58107   0.57834  631.263
 3676.00    0.56473   0.56660  644.874
 3677.00    0.56105   0.55317   -1.000
 3678.00    0.55906   0.54238   -1.000
 3679.00    0.55382   0.53838   -1.000
 3680.00    0.55440   0.54175   -1.000
 3681.00    0.56230   0.54898   -1.000
 3682.00    0.55607   0.55533  675.541
 3683.00    0.55763   0.55749  664.930
 3684.00    0.56401   0.55317   -1.000
 3685.00    0.54687   0.54250  697.987
 3686.00    0.53804   0.53218   -1.000
 3687.00    0.54485   0.53221   -1.000
 3688.00    0.55148   0.54614   -1.000
 3689.00    0.56651   0.56708  695.185
 3690.00    0.58007   0.58371   -1.000
 3691.00    0.57769   0.59113   -1.000
 3692.00    0.58524   0.59232   -1.000
 3693.00    0.58912   0.59184  632.110
 3694.00    0.58457   0.59129   -1.000
 3695.00    0.58196   0.58882   -1.000
 3696.00    0.58004   0.58524   -1.000
 3697.00    0.58672   0.58758  632.682
 3698.00    0.59830   0.60098  616.029
 3699.00    0.61597   0.62069   -1.000
 3700.00    0.62544   0.63369   -1.000
 3701.00    0.61403   0.62686   -1.000
 3702.00    0.58927   0.59749   -1.000
 3703.00    0.55303   0.55699  663.930
 3704.00    0.53210   0.52424   -1.000
 3705.00    0.52716   0.51127   -1.000
 3706.00    0.52853   0.51802   -1.000
 3707.00    0.54195   0.53410   -1.000
 3708.00    0.55187   0.54744   -1.000
 3709.00    0.54702   0.55130  714.915
 3710.00    0.54946   0.54895  707.533
 3711.00    0.55876   0.54954   -1.000
 3712.00    0.57320   0.56104   -1.000
 3713.00    0.59889   0.58445   -1.000
 3714.00    0.62838   0.61251   -1.000
 3715.00    0.64423   0.63489   -1.000
 3716.00    0.64326   0.64376  591.083
 3717.00    0.63514   0.63487  614.210
 3718.00    0.60421   0.60460  662.246
 3719.00    0.55256   0.55548  714.915
 3720.00    0.50523   0.50390  714.915
 3721.00    0.48618   0.47349  131.933
 3722.00    0.49988   0.47609   -1.000
 3723.00    0.53892   0.50941   -1.000
 3724.00    0.58811   0.55833   -1.000
 3725.00    0.61553   0.59947   -1.000
 3726.00    0.62350   0.62021  651.380
 3727.00    0.61744   0.62813   -1.000
 3728.00    0.61098   0.63315   -1.000
 3729.00    0.60744   0.63511   -1.000
 3730.00    0.60998   0.62467   -1.000
 3731.00    0.59171   0.59175  696.543
 3732.00    0.55316   0.53870   -1.000
 3733.00    0.50857   0.48294   -1.000
 3734.00    0.46781   0.44311   96.316
 3735.00    0.45024   0.43349  102.751
 3736.00    0.46902   0.45736  100.532
 3737.00    0.50776   0.50523   92.436
 3738.00    0.55439   0.56214  212.767
 3739.00    0.59464   0.61465   -1.000
 3740.00    0.61969   0.64882   -1.000
 3741.00    0.63504   0.65911   -1.000
 3742.00    0.63480   0.64953   -1.000
 3743.00    0.61684   0.62948   -1.000
 3744.00    0.59626   0.60600   -1.000
 3745.00    0.57572   0.58112  714.915
 3746.00    0.55442   0.55214  714.915
 3747.00    0.52782   0.51680  131.688
 3748.00    0.49188   0.47973   94.535
 3749.00    0.46984   0.45483   97.323
 3750.00    0.46883   0.45860  232.722
 3751.00    0.49733   0.49376   -1.000
 3752.00    0.56656   0.54760   -1.000
 3753.00    0.62567   0.60357   -1.000
 3754.00    0.65526   0.64779   -1.000
 3755.00    0.67627   0.66990   -1.000
 3756.00    0.66899   0.66709  617.757
 3757.00    0.63651   0.64581   -1.000
 3758.00    0.61191   0.62271   -1.000
 3759.00    0.61027   0.61250  714.915
 3760.00    0.62254   0.61685   -1.000
 3761.00    0.63796   0.62845   -1.000
 3762.00    0.65002   0.63874   -1.000
 3763.00    0.65758   0.64290   -1.000
 3764.00    0.65646   0.64006   -1.000
 3765.00    0.64938   0.62974   -1.000
 3766.00    0.63140   0.61235   -1.000
 3767.00    0.61020   0.58896   -1.000
 3768.00    0.58889   0.56072   -1.000
 3769.00    0.56600   0.53320   -1.000
 3770.00    0.54281   0.51760   -1.000
 3771.00    0.54715   0.52549   -1.000
 3772.00    0.57572   0.55652   -1.000
 3773.00    0.60494   0.59598   -1.000
 3774.00    0.62927   0.62898  621.037
 3775.00    0.65232   0.65283  620.013
 3776.00    0.66807   0.67231   -1.000
 3777.00    0.68695   0.69270   -1.000
 3778.00    0.71964   0.71495  610.749
 3779.00    0.72938   0.73601   -1.000
 3780.00    0.74533   0.75283   -1.000
 3781.00    0.75839   0.76262  570.997
 3782.00    0.76758   0.76546  567.471
 3783.00    0.76573   0.76262  566.532
 3784.00    0.76044   0.75333   -1.000
 3785.00    0.74427   0.73631   -1.000
 3786.00    0.71907   0.71477  641.130
 3787.00    0.70653   0.69506   -1.000
 3788.00    0.69716   0.68267   -1.000
 3789.00    0.68484   0.67868   -1.000
 3790.00    0.68077   0.67864  693.895
 3791.00    0.67649   0.67519  684.915
 3792.00    0.66731   0.66207   -1.000
 3793.00    0.63722   0.63744  710.563
 3794.00    0.59991   0.60315  714.915
 3795.00    0.56386   0.56261  714.915
 3796.00    0.53449   0.52054   -1.000
 3797.00    0.50114   0.48534   -1.000
 3798.00    0.48809   0.47330   -1.000
 3799.00    0.51499   0.49660   -1.000
 3800.00    0.56644   0.54853   -1.000
 3801.00    0.61521   0.60848   -1.000
 3802.00    0.65030   0.65942   -1.000
 3803.00    0.68334   0.69316   -1.000
 3804.00    0.70525   0.71037  631.320
 3805.00    0.70710   0.71459   -1.000
 3806.00    0.70106   0.71378   -1.000
 3807.00    0.70364   0.71813   -1.000
 3808.00    0.71732   0.73168   -1.000
 3809.00    0.73384   0.74965   -1.000
 3810.00    0.74301   0.76142   -1.000
 3811.00    0.74706   0.75737   -1.000
 3812.00    0.73656   0.73655  661.935
 3813.00    0.71681   0.70868   -1.000
 3814.00    0.70070   0.68678   -1.000
 3815.00    0.69334   0.67970   -1.000
 3816.00    0.69400   0.68588   -1.000
 3817.00    0.70866   0.69409   -1.000
 3818.00    0.71022   0.69139   -1.000
 3819.00    0.68778   0.67616   -1.000
 3820.00    0.66639   0.66173   -1.000
 3821.00    0.66958   0.66011   -1.000
 3822.00    0.67998   0.66687   -1.000
 3823.00    0.67354   0.66567   -1.000
 3824.00    0.65037   0.64995  714.915
 3825.00    0.63232   0.62951  137.335
 3826.00    0.61830   0.61458   95.104
 3827.00    0.60492   0.60668   95.241
 3828.00    0.60875   0.60171   93.918
 3829.00    0.60457   0.59498   92.375
 3830.00    0.58645   0.58098   92.615
 3831.00    0.56187   0.55498   95.807
 3832.00    0.52537   0.51755  102.377
 3833.00    0.48203   0.47554  107.319
 3834.00    0.45726   0.44241  106.964
 3835.00    0.46286   0.42937   -1.000
 3836.00    0.47510   0.43724   -1.000
 3837.00    0.48594   0.46022  101.057
 3838.00    0.50677   0.49086  103.452
 3839.00    0.53624   0.52480  103.071
 3840.00    0.57151   0.56236   98.455
 3841.00    0.60787   0.60390  225.789
 3842.00    0.65225   0.64482   -1.000
 3843.00    0.68474   0.67933   -1.000
 3844.00    0.70350   0.70305  714.915
 3845.00    0.71059   0.71784   -1.000
 3846.00    0.71645   0.72815   -1.000
 3847.00    0.72758   0.73428   -1.000
 3848.00    0.72790   0.73398   -1.000
 3849.00    0.71974   0.72972   -1.000
 3850.00    0.71406   0.72936   -1.000
 3851.00    0.72525   0.73744   -1.000
 3852.00    0.74309   0.74867   -1.000
 3853.00    0.74105   0.75399   -1.000
 3854.00    0.73502   0.74956   -1.000
 3855.00    0.72748   0.73868   -1.000
 3856.00    0.71368   0.72668   -1.000
 3857.00    0.70463   0.71575   -1.000
 3858.00    0.69282   0.70630  130.539
 3859.00    0.67413   0.70260   92.419
 3860.00    0.67377   0.71006   -1.000
 3861.00    0.70718   0.72710   -1.000
 3862.00    0.73546   0.74427   -1.000
 3863.00    0.75497   0.75320  714.915
 3864.00    0.75803   0.75405   -1.000
 3865.00    0.75497   0.75212  714.915
 3866.00    0.74927   0.75225  714.915
 3867.00    0.74451   0.75501   -1.000
 3868.00    0.74162   0.75605   -1.000
 3869.00    0.73318   0.75002   -1.000
 3870.00    0.70493   0.73574   -1.000
 3871.00    0.67652   0.71830   -1.000
 3872.00    0.67535   0.70664   -1.000
 3873.00    0.69426   0.70887   -1.000
 3874.00    0.72055   0.72255  714.915
 3875.00    0.73779   0.73356   -1.000
 3876.00    0.73382   0.72913   -1.000
 3877.00    0.70794   0.71211  714.915
 3878.00    0.67912   0.69654   -1.000
 3879.00    0.66194   0.69095   -1.000
 3880.00    0.66038   0.69137   -1.000
 3881.00    0.65075   0.68889   -1.000
 3882.00    0.63748   0.68065   -1.000
 3883.00    0.64010   0.66814   -1.000
 3884.00    0.64590   0.64697  714.915
 3885.00    0.63313   0.61155   -1.000
 3886.00    0.59726   0.56490   -1.000
 3887.00    0.55470   0.51925   -1.000
 3888.00    0.52378   0.49168   -1.000
 3889.00    0.52550   0.49414   -1.000
 3890.00    0.56522   0.52770   -1.000
 3891.00    0.61941   0.57987   -1.000
 3892.00    0.66033   0.62961   -1.000
 3893.00    0.68960   0.66264   -1.000
 3894.00    0.70637   0.68179   -1.000
 3895.00    0.72244   0.69682   -1.000
 3896.00    0.73775   0.71285   -1.000
 3897.00    0.74954   0.72716   -1.000
 3898.00    0.75511   0.73531   -1.000
 3899.00    0.75749   0.73898   -1.000
 3900.00    0.76630   0.74448   -1.000
 3901.00    0.77539   0.75312   -1.000
 3902.00    0.77867   0.75928   -1.000
 3903.00    0.77719   0.75853   -1.000
 3904.00    0.77748   0.75251   -1.000
 3905.00    0.76792   0.74842   -1.000
 3906.00    0.76970   0.75472   -1.000
 3907.00    0.79330   0.77440   -1.000
 3908.00    0.81383   0.80056   -1.000
 3909.00    0.83144   0.82251   -1.000
 3910.00    0.84863   0.83508   -1.000
 3911.00    0.85490   0.83892   -1.000
 3912.00    0.85746   0.83534   -1.000
 3913.00    0.85450   0.82649   -1.000
 3914.00    0.84209   0.81715   -1.000
 3915.00    0.82966   0.81206   -1.000
 3916.00    0.82252   0.81016   -1.000
 3917.00    0.82369   0.80634   -1.000
 3918.00    0.82179   0.79743   -1.000
 3919.00    0.80382   0.78482   -1.000
 3920.00    0.78223   0.77380   -1.000
 3921.00    0.78018   0.76866   -1.000
 3922.00    0.77837   0.76956   -1.000
 3923.00    0.78059   0.77256   -1.000
 3924.00    0.78028   0.77193   -1.000
 3925.00    0.76276   0.76208  684.197
 3926.00    0.72939   0.73987   -1.000
 3927.00    0.69597   0.70722   -1.000
 3928.00    0.65410   0.66791  146.498
 3929.00    0.60416   0.62480  109.600
 3930.00    0.54358   0.57621   -1.000
 3931.00    0.46359   0.51953   -1.000
 3932.00    0.38088   0.46219   -1.000
 3933.00    0.33284   0.42402   -1.000
 3934.00    0.34590   0.42450   -1.000
 3935.00    0.40595   0.46437   -1.000
 3936.00    0.49500   0.52600   -1.000
 3937.00    0.56960   0.59031  123.799
 3938.00    0.62036   0.64753  103.294
 3939.00    0.67025   0.69278   -1.000
 3940.00    0.70382   0.72462   -1.000
 3941.00    0.72534   0.74263   -1.000
 3942.00    0.73481   0.74918   -1.000
 3943.00    0.72831   0.75201   -1.000
 3944.00    0.74517   0.75903   -1.000
 3945.00    0.77248   0.77210  678.381
 3946.00    0.79597   0.78629   -1.000
 3947.00    0.80118   0.79560   -1.000
 3948.00    0.79620   0.79984  609.003
 3949.00    0.80159   0.80262  592.741
 3950.00    0.81399   0.80468   -1.000
 3951.00    0.81309   0.80484   -1.000
 3952.00    0.81506   0.80595   -1.000
 3953.00    0.82568   0.81072   -1.000
 3954.00    0.83358   0.81429   -1.000
 3955.00    0.82795   0.81059   -1.000
 3956.00    0.80548   0.80108  571.808
 3957.00    0.79365   0.79249  585.443
 3958.00    0.79017   0.78678  581.848
 3959.00    0.78382   0.77487   -1.000
 3960.00    0.75594   0.74844   -1.000
 3961.00    0.70471   0.71208   -1.000
 3962.00    0.65661   0.67533   -1.000
 3963.00    0.62318   0.64104   -1.000
 3964.00    0.58678   0.60088  138.926
 3965.00    0.52133   0.54473  103.155
 3966.00    0.42779   0.47218   -1.000
 3967.00    0.34151   0.39602   -1.000
 3968.00    0.28615   0.33969   -1.000
 3969.00    0.28883   0.32196   -1.000
 3970.00    0.33809   0.34765  149.125
 3971.00    0.40883   0.40689  122.574
 3972.00    0.48641   0.48135  101.953
 3973.00    0.56527   0.55471  217.108
 3974.00    0.63251   0.62000   -1.000
 3975.00    0.68511   0.67478   -1.000
 3976.00    0.72486   0.72011   -1.000
 3977.00    0.75616   0.75806  583.993
 3978.00    0.78899   0.78985  552.154
 3979.00    0.82723   0.81427   -1.000
 3980.00    0.85260   0.82780   -1.000
 3981.00    0.85701   0.83179   -1.000
 3982.00    0.85272   0.83303   -1.000
 3983.00    0.85708   0.83899   -1.000
 3984.00    0.87651   0.85156   -1.000
 3985.00    0.89422   0.86584   -1.000
 3986.00    0.90021   0.87788   -1.000
 3987.00    0.90893   0.88777   -1.000
 3988.00    0.91536   0.89551   -1.000
 3989.00    0.91215   0.90056   -1.000
 3990.00    0.91984   0.90545   -1.000
 3991.00    0.93217   0.91287   -1.000
 3992.00    0.95386   0.92177   -1.000
 3993.00    0.96055   0.92764   -1.000
 3994.00    0.94901   0.92557   -1.000
 3995.00    0.93102   0.91503   -1.000
 3996.00    0.92033   0.90224   -1.000
 3997.00    0.91332   0.89660   -1.000
 3998.00    0.90983   0.90268  483.629
 3999.00    0.93122   0.91672   -1.000
 4000.00    0.95920   0.93073   -1.000
 4001.00    0.96912   0.93923   -1.000
 4002.00    0.97335   0.93931   -1.000
 4003.00    0.97115   0.92939   -1.000
 4004.00    0.94387   0.91217   -1.000
 4005.00    0.92379   0.89857   -1.000
 4006.00    0.93030   0.90030   -1.000
 4007.00    0.94332   0.91705   -1.000
 4008.00    0.96102   0.93760   -1.000
 4009.00    0.97651   0.95187   -1.000
 4010.00    0.98314   0.95852   -1.000
 4011.00    0.98307   0.96048   -1.000
 4012.00    0.97775   0.96101   -1.000
 4013.00    0.97838   0.96314   -1.000
 4014.00    0.98848   0.96729   -1.000
 4015.00    0.99285   0.97162   -1.000
 4016.00    0.99030   0.97515   -1.000
 4017.00    0.99281   0.97890   -1.000
 4018.00    1.00000   0.98420   -1.000
 4019.00    1.00698   0.98955   -1.000
 4020.00    1.01089   0.99147   -1.000
 4021.00    1.01504   0.98784   -1.000
 4022.00    1.00740   0.97951   -1.000
 4023.00    0.99268   0.96902   -1.000
 4024.00    0.98687   0.96129   -1.000
 4025.00    0.99313   0.96296   -1.000
 4026.00    1.00875   0.97511   -1.000
 4027.00    1.02663   0.98808   -1.000
 4028.00    1.03046   0.98916   -1.000
 4029.00    1.00862   0.97428   -1.000
 4030.00    0.98217   0.95054   -1.000
 4031.00    0.95910   0.93008   -1.000
 4032.00    0.93651   0.92103   -1.000
 4033.00    0.93676   0.92508   -1.000
 4034.00    0.95538   0.94103   -1.000
 4035.00    0.97753   0.96611   -1.000
 4036.00    1.00763   0.99455   -1.000
 4037.00    1.03283   1.01782   -1.000
 4038.00    1.04180   1.02814   -1.000
 4039.00    1.04116   1.02559   -1.000
 4040.00    1.02562   1.01755  414.646
 4041.00    1.01655   1.00921  421.113
 4042.00    1.01386   0.99612   -1.000
 4043.00    0.99141   0.97013   -1.000
 4044.00    0.95188   0.93471   -1.000
 4045.00    0.91369   0.90915  513.665
 4046.00    0.90904   0.91188  513.544
 4047.00    0.94403   0.94111  472.423
 4048.00    0.98967   0.97744   -1.000
 4049.00    1.01637   1.00379   -1.000
 4050.00    1.03234   1.01514   -1.000
 4051.00    1.03229   1.01448   -1.000
 4052.00    1.01898   1.00590   -1.000
 4053.00    1.01421   0.99430   -1.000
 4054.00    1.00832   0.98506   -1.000
 4055.00    1.00334   0.97979   -1.000
 4056.00    1.00683   0.97699   -1.000
 4057.00    0.99925   0.97765   -1.000
 4058.00    0.99159   0.98505  451.477
 4059.00    1.00428   0.99633   -1.000
 4060.00    1.01072   0.99969   -1.000
 4061.00    1.00290   0.98553   -1.000
 4062.00    0.97932   0.95825   -1.000
 4063.00    0.94809   0.93367   -1.000
 4064.00    0.94842   0.92336   -1.000
 4065.00    0.97307   0.92756   -1.000
 4066.00    0.98026   0.94036   -1.000
 4067.00    0.98378   0.95502   -1.000
 4068.00    0.99581   0.96585   -1.000
 4069.00    1.01331   0.96662   -1.000
 4070.00    0.99871   0.95467   -1.000
 4071.00    0.98241   0.93953   -1.000
 4072.00    0.97959   0.93542   -1.000
 4073.00    0.98527   0.94286   -1.000
 4074.00    0.98848   0.94746   -1.000
 4075.00    0.96574   0.93661   -1.000
 4076.00    0.92873   0.91472   -1.000
 4077.00    0.90028   0.89956  505.975
 4078.00    0.90369   0.90559  500.119
 4079.00    0.93676   0.93227  471.390
 4080.00    0.97592   0.96385   -1.000
 4081.00    1.00235   0.98313   -1.000
 4082.00    1.00450   0.98409   -1.000
 4083.00    0.98633   0.97330   -1.000
 4084.00    0.96879   0.96309  441.285
 4085.00    0.97294   0.96289   -1.000
 4086.00    0.98957   0.97434   -1.000
 4087.00    1.00230   0.99116   -1.000
 4088.00    1.01841   1.00416   -1.000
 4089.00    1.01816   1.00712   -1.000
 4090.00    1.00642   1.00049  399.760
 4091.00    0.99757   0.98979   -1.000
 4092.00    0.98241   0.97811  413.324
 4093.00    0.97339   0.96357   -1.000
 4094.00    0.96052   0.94354   -1.000
 4095.00    0.94139   0.91743   -1.000
 4096.00    0.91076   0.88777   -1.000
 4097.00    0.88302   0.85545   -1.000
 4098.00    0.85234   0.81533   -1.000
 4099.00    0.80298   0.76218   -1.000
 4100.00    0.73287   0.70286   -1.000
 4101.00    0.67222   0.66054   -1.000
 4102.00    0.66636   0.65898   -1.000
 4103.00    0.72656   0.70192   -1.000
 4104.00    0.80082   0.76851   -1.000
 4105.00    0.85387   0.83180   -1.000
 4106.00    0.88995   0.87683   -1.000
 4107.00    0.91290   0.90333   -1.000
 4108.00    0.91927   0.91674  438.860
 4109.00    0.92829   0.92371  445.973
 4110.00    0.93440   0.93094  453.436
 4111.00    0.93809   0.94244  452.161
 4112.00    0.95029   0.95861   -1.000
 4113.00    0.97226   0.97700  434.818
 4114.00    0.99495   0.99409  427.885
 4115.00    1.00872   1.00545  422.855
 4116.00    1.00850   1.00698  422.740
 4117.00    1.00141   0.99893  429.352
 4118.00    0.98160   0.98731  442.083
 4119.00    0.97668   0.97991  450.923
 4120.00    0.99489   0.98003   -1.000
 4121.00    0.99432   0.98452   -1.000
 4122.00    0.99473   0.98996  442.531
 4123.00    1.00519   0.99688   -1.000
 4124.00    1.02149   1.00537   -1.000
 4125.00    1.02811   1.01084   -1.000
 4126.00    1.02461   1.00820   -1.000
 4127.00    1.00869   0.99893   -1.000
 4128.00    1.00379   0.98950   -1.000
 4129.00    1.00345   0.98288   -1.000
 4130.00    0.99840   0.97580   -1.000
 4131.00    0.98739   0.96634   -1.000
 4132.00    0.97652   0.96005   -1.000
 4133.00    0.97008   0.96545  486.007
 4134.00    0.97671   0.98369   -1.000
 4135.00    0.99869   1.00751   -1.000
 4136.00    1.02158   1.02932   -1.000
 4137.00    1.04724   1.04605  427.127
 4138.00    1.06028   1.05750  420.461
 4139.00    1.06339   1.06136  417.031
 4140.00    1.05662   1.05206  421.942
 4141.00    1.02724   1.02742  439.356
 4142.00    0.98630   0.99581   -1.000
 4143.00    0.95235   0.97430   -1.000
 4144.00    0.95701   0.97553   -1.000
 4145.00    0.99397   0.99601  473.124
 4146.00    1.02052   1.01943  451.461
 4147.00    1.02142   1.03202   -1.000
 4148.00    1.02185   1.03280   -1.000
 4149.00    1.02979   1.02938  457.669
 4150.00    1.02398   1.02777  466.051
 4151.00    1.01945   1.02756   -1.000
 4152.00    1.01895   1.02513   -1.000
 4153.00    1.00859   1.01965   -1.000
 4154.00    1.00058   1.01454   -1.000
 4155.00    0.99691   1.01435   -1.000
 4156.00    0.99629   1.02088   -1.000
 4157.00    1.11238   1.03248   -1.000
 4158.00    1.16498   1.04560   -1.000
 4159.00    1.01773   1.05633   -1.000
 4160.00    0.93795   1.06299   -1.000
 4161.00    1.01498   1.06701   -1.000
 4162.00    1.06477   1.07050   -1.000
 4163.00    1.05954   1.07346   -1.000
 4164.00    1.05757   1.07403   -1.000
 4165.00    1.05310   1.07032   -1.000
 4166.00    1.03695   1.06300   -1.000
 4167.00    1.02825   1.05685   -1.000
 4168.00    1.03625   1.05479   -1.000
 4169.00    1.04245   1.05163   -1.000
 4170.00    1.03079   1.03811   -1.000
 4171.00    1.00554   1.01287   -1.000
 4172.00    0.96936   0.98799   -1.000
 4173.00    0.94846   0.97826   -1.000
 4174.00    0.96308   0.98731   -1.000
 4175.00    0.98955   1.00437   -1.000
 4176.00    0.99961   1.01549   -1.000
 4177.00    0.99857   1.01820   -1.000
 4178.00    0.99789   1.02025   -1.000
 4179.00    1.00886   1.02710   -1.000
 4180.00    1.01516   1.03540   -1.000
 4181.00    1.01624   1.03967   -1.000
 4182.00    1.02406   1.04195   -1.000
 4183.00    1.03055   1.04733   -1.000
 4184.00    1.04231   1.05341   -1.000
 4185.00    1.04085   1.05320   -1.000
 4186.00    1.01364   1.04511   -1.000
 4187.00    1.00154   1.03655   -1.000
 4188.00    1.01511   1.03551   -1.000
 4189.00    1.03550   1.04057  459.412
 4190.00    1.04169   1.04643  453.753
 4191.00    1.03617   1.05254   -1.000
 4192.00    1.04639   1.05978   -1.000
 4193.00    1.05834   1.06449  433.269
 4194.00    1.04756   1.05962   -1.000
 4195.00    1.02842   1.04299   -1.000
 4196.00    1.01515   1.02128   -1.000
 4197.00    1.00012   1.00273  488.695
 4198.00    0.98931   0.99127  492.373
 4199.00    0.98823   0.98736  489.170
 4200.00    0.99498   0.98918  482.075
 4201.00    0.99571   0.99387  478.397
 4202.00    0.99989   1.00137  476.064
 4203.00    1.01752   1.01386  470.092
 4204.00    1.02689   1.03007  465.190
 4205.00    1.02927   1.04644   -1.000
 4206.00    1.03817   1.06123   -1.000
 4207.00    1.04805   1.07255   -1.000
 4208.00    1.05882   1.07762   -1.000
 4209.00    1.06347   1.07758   -1.000
 4210.00    1.05644   1.07753   -1.000
 4211.00    1.05144   1.08012   -1.000
 4212.00    1.05599   1.08071   -1.000
 4213.00    1.04574   1.07133   -1.000
 4214.00    1.01078   1.05283   -1.000
 4215.00    0.98823   1.03759   -1.000
 4216.00    0.99910   1.03842   -1.000
 4217.00    1.03358   1.05691   -1.000
 4218.00    1.06483   1.08150   -1.000
 4219.00    1.08577   1.09975   -1.000
 4220.00    1.09796   1.10663   -1.000
 4221.00    1.09856   1.10027  402.006
 4222.00    1.08677   1.07831  413.963
 4223.00    1.05746   1.04003   -1.000
 4224.00    1.00822   0.99071   -1.000
 4225.00    0.94362   0.94501  536.012
 4226.00    0.89701   0.92322   -1.000
 4227.00    0.90291   0.93960   -1.000
 4228.00    0.97321   0.98859   -1.000
 4229.00    1.04499   1.04436  458.081
 4230.00    1.07781   1.07946  426.312
 4231.00    1.08721   1.08552  416.459
 4232.00    1.07479   1.07283  421.536
 4233.00    1.05691   1.05571  432.322
 4234.00    1.04867   1.04394  439.217
 4235.00    1.04739   1.04046  447.237
 4236.00    1.03204   1.04285   -1.000
 4237.00    1.02483   1.04939   -1.000
 4238.00    1.03969   1.06023   -1.000
 4239.00    1.04923   1.07373   -1.000
 4240.00    1.06148   1.08724   -1.000
 4241.00    1.07918   1.09892   -1.000
 4242.00    1.08290   1.10857   -1.000
 4243.00    1.08286   1.11642   -1.000
 4244.00    1.09573   1.11959   -1.000
 4245.00    1.10174   1.11218   -1.000
 4246.00    1.07885   1.09255   -1.000
 4247.00    1.05266   1.06846   -1.000
 4248.00    1.03609   1.05005   -1.000
 4249.00    1.02001   1.04217   -1.000
 4250.00    1.01762   1.04510   -1.000
 4251.00    1.03890   1.05547   -1.000
 4252.00    1.07162   1.06504  439.632
 4253.00    1.07450   1.06782   -1.000
 4254.00    1.05477   1.06806   -1.000
 4255.00    1.05968   1.07387   -1.000
 4256.00    1.08347   1.08372  432.696
 4257.00    1.09292   1.08530   -1.000
 4258.00    1.07343   1.07138  433.335
 4259.00    1.04227   1.05134   -1.000
 4260.00    1.02220   1.04284   -1.000
 4261.00    1.03083   1.05619   -1.000
 4262.00    1.06612   1.08651   -1.000
 4263.00    1.09526   1.11846   -1.000
 4264.00    1.11146   1.13826   -1.000
 4265.00    1.12346   1.14228   -1.000
 4266.00    1.12141   1.13457   -1.000
 4267.00    1.10446   1.11840   -1.000
 4268.00    1.08361   1.09412   -1.000
 4269.00    1.06262   1.06271  442.219
 4270.00    1.02935   1.02894  467.006
 4271.00    0.99301   1.00242   -1.000
 4272.00    0.98285   0.99210   -1.000
 4273.00    0.99013   0.99944   -1.000
 4274.00    1.00304   1.01977   -1.000
 4275.00    1.02577   1.04894   -1.000
 4276.00    1.06398   1.08210   -1.000
 4277.00    1.09254   1.10839   -1.000
 4278.00    1.09668   1.11724   -1.000
 4279.00    1.08495   1.10953   -1.000
 4280.00    1.06420   1.09657   -1.000
 4281.00    1.05489   1.08944   -1.000
 4282.00    1.05234   1.08941   -1.000
 4283.00    1.06274   1.09001   -1.000
 4284.00    1.06833   1.08647   -1.000
 4285.00    1.05063   1.07782   -1.000
 4286.00    1.03360   1.06440   -1.000
 4287.00    1.02167   1.04588   -1.000
 4288.00    1.00791   1.02289   -1.000
 4289.00    0.97867   1.00280   -1.000
 4290.00    0.96166   0.99804   -1.000
 4291.00    0.98303   1.01250   -1.000
 4292.00    1.01699   1.03393   -1.000
 4293.00    1.03667   1.04548   -1.000
 4294.00    1.03828   1.04287  457.834
 4295.00    1.03192   1.03255  464.456
 4296.00    1.01850   1.01672  474.077
 4297.00    0.99089   0.99212  493.261
 4298.00    0.94650   0.96009   -1.000
 4299.00    0.90673   0.92927   -1.000
 4300.00    0.88951   0.90974   -1.000
 4301.00    0.88947   0.90518   -1.000
 4302.00    0.90664   0.91200  570.649
 4303.00    0.92867   0.92445   -1.000
 4304.00    0.93883   0.93571   -1.000
 4305.00    0.93237   0.93734  553.803
 4306.00    0.91947   0.92624  566.996
 4307.00    0.89737   0.91015   -1.000
 4308.00    0.87556   0.90242   -1.000
 4309.00    0.88311   0.91106   -1.000
 4310.00    0.91625   0.93287   -1.000
 4311.00    0.94308   0.95840   -1.000
 4312.00    0.96072   0.98216   -1.000
 4313.00    0.97676   1.00873   -1.000
 4314.00    1.00686   1.04672   -1.000
 4315.00    1.06511   1.09647   -1.000
 4316.00    1.12514   1.14609   -1.000
 4317.00    1.15820   1.17943   -1.000
 4318.00    1.16412   1.18967   -1.000
 4319.00    1.15935   1.18180   -1.000
 4320.00    1.14284   1.16354   -1.000
 4321.00    1.11939   1.13757   -1.000
 4322.00    1.10101   1.10242  416.213
 4323.00    1.06038   1.05942  443.326
 4324.00    1.00750   1.02051   -1.000
 4325.00    0.97606   1.00640   -1.000
 4326.00    0.99697   1.02874   -1.000
 4327.00    1.05436   1.07482   -1.000
 4328.00    1.10205   1.11736   -1.000
 4329.00    1.12091   1.13850   -1.000
 4330.00    1.11610   1.14109   -1.000
 4331.00    1.11315   1.13838   -1.000
 4332.00    1.11098   1.13746   -1.000
 4333.00    1.10522   1.13442   -1.000
 4334.00    1.08687   1.12021   -1.000
 4335.00    1.06690   1.08579   -1.000
 4336.00    1.02580   1.02603  402.946
 4337.00    0.95657   0.94525   -1.000
 4338.00    0.87767   0.86091   -1.000
 4339.00    0.80009   0.79835  521.130
 4340.00    0.75962   0.77845   -1.000
 4341.00    0.79393   0.80886   -1.000
 4342.00    0.87726   0.87648  474.413
 4343.00    0.95371   0.95280  438.741
 4344.00    1.00628   1.01569   -1.000
 4345.00    1.04367   1.06214   -1.000
 4346.00    1.07362   1.09828   -1.000
 4347.00    1.09291   1.12686   -1.000
 4348.00    1.10804   1.14255   -1.000
 4349.00    1.12422   1.13689   -1.000
 4350.00    1.10510   1.11143  402.017
 4351.00    1.05964   1.08380   -1.000
 4352.00    1.04700   1.07564   -1.000
 4353.00    1.07256   1.09399   -1.000
 4354.00    1.10852   1.12674   -1.000
 4355.00    1.13411   1.15639   -1.000
 4356.00    1.15414   1.17358   -1.000
 4357.00    1.16280   1.17812   -1.000
 4358.00    1.15199   1.17579   -1.000
 4359.00    1.13933   1.17611   -1.000
 4360.00    1.14249   1.18524   -1.000
 4361.00    1.15910   1.20045   -1.000
 4362.00    1.17487   1.21548   -1.000
 4363.00    1.19057   1.22678   -1.000
 4364.00    1.20019   1.23220   -1.000
 4365.00    1.20186   1.22817   -1.000
 4366.00    1.18650   1.21298   -1.000
 4367.00    1.16101   1.19290   -1.000
 4368.00    1.14640   1.17819   -1.000
 4369.00    1.15386   1.17222   -1.000
 4370.00    1.16430   1.16991  396.560
 4371.00    1.16161   1.16411  395.493
 4372.00    1.14945   1.14976  397.927
 4373.00    1.12243   1.12794  409.779
 4374.00    1.10011   1.10946   -1.000
 4375.00    1.09536   1.10902   -1.000
 4376.00    1.11726   1.13027   -1.000
 4377.00    1.16560   1.16037   -1.000
 4378.00    1.19493   1.18109   -1.000
 4379.00    1.19383   1.18238   -1.000
 4380.00    1.18632   1.16216   -1.000
 4381.00    1.16710   1.12058   -1.000
 4382.00    1.11301   1.06586   -1.000
 4383.00    1.03858   1.02075   -1.000
 4384.00    1.01166   1.00897  518.760
 4385.00    1.05240   1.03452   -1.000
 4386.00    1.10926   1.07744   -1.000
 4387.00    1.14424   1.11233   -1.000
 4388.00    1.15619   1.12929   -1.000
 4389.00    1.15310   1.13425   -1.000
 4390.00    1.14740   1.13721   -1.000
 4391.00    1.15758   1.14328   -1.000
 4392.00    1.17410   1.14909   -1.000
 4393.00    1.16869   1.14855   -1.000
 4394.00    1.15102   1.14495  410.121
 4395.00    1.14909   1.15004  412.658
 4396.00    1.16895   1.16663  399.575
 4397.00    1.19379   1.18156   -1.000
 4398.00    1.19567   1.18121   -1.000
 4399.00    1.16876   1.16814  396.033
 4400.00    1.14370   1.15680   -1.000
 4401.00    1.15774   1.15371  410.434
 4402.00    1.18586   1.15026   -1.000
 4403.00    1.17113   1.13766   -1.000
 4404.00    1.13424   1.12131   -1.000
 4405.00    1.12491   1.11528   -1.000
 4406.00    1.13528   1.12419   67.696
 4407.00    1.13830   1.14024   42.393
 4408.00    1.14224   1.15839   41.952
 4409.00    1.16423   1.18141   40.788
 4410.00    1.20265   1.20843   39.071
 4411.00    1.23472   1.22866   37.616
 4412.00    1.23626   1.22977   36.878
 4413.00    1.21789   1.20920   37.365
 4414.00    1.18552   1.17711   39.138
 4415.00    1.15604   1.15209   40.909
 4416.00    1.14245   1.14966   41.275
 4417.00    1.15299   1.17052   40.217
 4418.00    1.18500   1.20234   38.608
 4419.00    1.21491   1.22888   37.326
 4420.00    1.21806   1.23872   37.089
 4421.00    1.20299   1.23254   37.825
 4422.00    1.18555   1.22225   38.650
 4423.00    1.18040   1.21798   38.757
 4424.00    1.17823   1.21921   38.532
 4425.00    1.17166   1.22079   38.556
 4426.00    1.15704   1.22147   38.734
 4427.00    1.15320   1.22333   38.631
 4428.00    1.16994   1.22640   38.421
 4429.00    1.17019   1.22885   38.613
 4430.00    1.16168   1.23044   38.854
 4431.00    1.17076   1.23120   38.602
 4432.00    1.18277   1.22709   38.227
 4433.00    1.18011   1.21415   38.916
 4434.00    1.14523   1.19828   40.647
 4435.00    1.13188   1.19465   41.691
 4436.00    1.15970   1.21345   40.745
 4437.00    1.20891   1.24715   38.489
 4438.00    1.24845   1.27567   36.577
 4439.00    1.24953   1.28243   35.964
 4440.00    1.23198   1.26497   36.680
 4441.00    1.20112   1.23502   38.260
 4442.00    1.16966   1.21075   39.984
 4443.00    1.15611   1.20699   40.689
 4444.00    1.17782   1.22629   39.719
 4445.00    1.21835   1.25660   38.057
 4446.00    1.24194   1.28078   37.000
 4447.00    1.24894   1.29127   36.774
 4448.00    1.25485   1.29225   36.843
 4449.00    1.25276   1.28950   37.128
 4450.00    1.25451   1.28549   37.523
 4451.00    1.25780   1.28022   37.477
 4452.00    1.25759   1.27013   37.513
 4453.00    1.24246   1.25084   38.492
 4454.00    1.20872   1.22633   40.176
 4455.00    1.18307   1.20937   41.405
 4456.00    1.18705   1.20770   41.245
 4457.00    1.20850   1.21546   40.483
 4458.00    1.22107   1.22193   40.232
 4459.00    1.21769   1.22282   40.394
 4460.00    1.20890   1.22161   40.743
 4461.00    1.19970   1.22481   41.137
 4462.00    1.21244   1.23621   40.753
 4463.00    1.23828   1.25265   39.402
 4464.00    1.25540   1.26640   38.224
 4465.00    1.25951   1.27163   37.872
 4466.00    1.25218   1.26717   37.890
 4467.00    1.24492   1.25619   38.172
 4468.00    1.23762   1.24559   38.811
 4469.00    1.22825   1.24352   39.248
 4470.00    1.23307   1.25489   38.973
 4471.00    1.25796   1.27750   37.972
 4472.00    1.29021   1.30345   36.683
 4473.00    1.31956   1.32511   35.584
 4474.00    1.33107   1.33909   35.042
 4475.00    1.32934   1.34725   34.991
 4476.00    1.33494   1.35280   34.830
 4477.00    1.34460   1.35274   34.578
 4478.00    1.34526   1.33858   34.701
 4479.00    1.32185   1.30817   35.635
 4480.00    1.27936   1.27409   37.176
 4481.00    1.24452   1.25648   38.480
 4482.00    1.24211   1.26679   38.594
 4483.00    1.27727   1.29905   37.357
 4484.00    1.31819   1.33570   35.853
 4485.00    1.34413   1.35991   34.873
 4486.00    1.35179   1.36336   34.642
 4487.00    1.33795   1.34760   35.175
 4488.00    1.31277   1.32353   36.343
 4489.00    1.29164   1.30662   37.412
 4490.00    1.29232   1.30616   37.461
 4491.00    1.31377   1.31753   36.641
 4492.00    1.32775   1.32655   35.894
 4493.00    1.31999   1.32365   36.024
 4494.00    1.30057   1.31356   36.950
 4495.00    1.28370   1.30867   37.893
 4496.00    1.29016   1.31548   37.929
 4497.00    1.30759   1.32977   36.913
 4498.00    1.32568   1.34155   35.764
 4499.00    1.33529   1.34353   35.167
 4500.00    1.32167   1.33873   35.309
 4501.00    1.30678   1.33929   35.608
 4502.00    1.31610   1.35373   35.092
 4503.00    1.35035   1.37752   33.962
 4504.00    1.37539   1.39817   33.143
 4505.00    1.38026   1.40652   33.077
 4506.00    1.37648   1.40228   33.607
 4507.00    1.37047   1.39262   34.086
 4508.00    1.36744   1.38655   34.219
 4509.00    1.38059   1.38767   34.056
 4510.00    1.39805   1.39151   33.802
 4511.00    1.39330   1.39080   33.892
 4512.00    1.37028   1.38286   34.435
 4513.00    1.34831   1.37110   35.088
 4514.00    1.34604   1.36072   35.458
 4515.00    1.34867   1.35496   35.420
 4516.00    1.34155   1.35317   35.328
 4517.00    1.33085   1.35227   35.591
 4518.00    1.32750   1.35169   35.899
 4519.00    1.33527   1.35362   35.588
 4520.00    1.34930   1.35735   34.899
 4521.00    1.35725   1.35786   34.701
 4522.00    1.34710   1.35170   35.273
 4523.00    1.32481   1.34143   36.057
 4524.00    1.32095   1.33102   36.523
 4525.00    1.31123   1.31946   37.010
 4526.00    1.29323   1.30338   37.958
 4527.00    1.27252   1.28383   39.083
 4528.00    1.25685   1.26807   39.792
 4529.00    1.25931   1.26401   39.775
 4530.00    1.26779   1.27206   39.209
 4531.00    1.28616   1.28290   38.492
 4532.00    1.29835   1.28461   38.107
 4533.00    1.27866   1.27506   38.706
 4534.00    1.24720   1.26623   39.972
 4535.00    1.23955   1.27372   40.167
 4536.00    1.27645   1.30168   38.476
 4537.00    1.33682   1.33808   36.190
 4538.00    1.37639   1.36513   34.778
 4539.00    1.38394   1.37366   34.654
 4540.00    1.36682   1.36844   35.333
 4541.00    1.35252   1.36131   35.651
 4542.00    1.35226   1.35939   35.451
 4543.00    1.35422   1.36057   35.265
 4544.00    1.34551   1.35967   43.332
 4545.00    1.36483   1.35580   22.438
 4546.00    0.85366   1.35047   -1.000
 4547.00    0.16943   1.34147   -1.000
 4548.00   -0.05681   1.32685    0.000
 4549.00    0.45905   1.31352   -1.000
 4550.00    0.64918   1.31248   -1.000
 4551.00    0.62371   1.32342   -1.000
 4552.00    1.11113   1.33246   -1.000
 4553.00    1.34260   1.32976   37.285
 4554.00    1.29513   1.32165   37.732
 4555.00    1.30102   1.32247   37.507
 4556.00    1.33141   1.33959   36.415
 4557.00    1.37689   1.36676   34.979
 4558.00    1.40194   1.39150   34.058
 4559.00    1.40344   1.40777   33.962
 4560.00    1.40511   1.41606   34.041
 4561.00    1.40304   1.41522   34.036
 4562.00    1.38593   1.40312   34.526
 4563.00    1.36620   1.38417   35.388
 4564.00    1.35061   1.37000   36.104
 4565.00    1.35141   1.37032   36.089
 4566.00    1.38022   1.38481   35.344
 4567.00    1.40867   1.40411   34.410
 4568.00    1.41386   1.41646   33.846
 4569.00    1.40791   1.41487   33.956
 4570.00    1.38922   1.40096   34.647
 4571.00    1.35636   1.38469   35.561
 4572.00    1.34969   1.37946   35.765
 4573.00    1.37402   1.38998   34.965
 4574.00    1.39496   1.40618   34.231
 4575.00    1.39586   1.41550   34.068
 4576.00    1.38835   1.41522   34.184
 4577.00    1.38282   1.40829   34.370
 4578.00    1.37446   1.39548   34.808
 4579.00    1.36508   1.37747   35.688
 4580.00    1.34826   1.35951   36.570
 4581.00    1.34150   1.34785   36.792
 4582.00    1.34570   1.34347   36.412
 4583.00    1.35342   1.34399   36.038
 4584.00    1.36071   1.34854   36.006
 4585.00    1.35939   1.35712   36.196
 4586.00    1.36637   1.36943   35.979
 4587.00    1.37850   1.38427   35.187
 4588.00    1.39394   1.39784   34.360
 4589.00    1.40054   1.40531   34.049
 4590.00    1.39421   1.40478   34.349
 4591.00    1.37866   1.39795   34.950
 4592.00    1.37282   1.38944   35.583
 4593.00    1.37914   1.38473   35.847
 4594.00    1.38715   1.38557   35.659
 4595.00    1.39735   1.38981   35.361
 4596.00    1.40360   1.39558   35.196
 4597.00    1.40752   1.40121   35.119
 4598.00    1.41077   1.40411   35.042
 4599.00    1.40974   1.40291   35.198
 4600.00    1.39984   1.39901   35.523
 4601.00    1.37764   1.39574   35.709
 4602.00    1.37036   1.39557   35.510
 4603.00    1.38289   1.39804   35.108
 4604.00    1.40051   1.40164   34.989
 4605.00    1.41185   1.40697   34.987
 4606.00    1.40755   1.41638   34.728
 4607.00    1.40982   1.43066   34.152
 4608.00    1.43108   1.44681   33.434
 4609.00    1.45789   1.45893   32.913
 4610.00    1.45916   1.46204   32.858
 4611.00    1.44668   1.45680   33.204
 4612.00    1.44115   1.44897   33.616
 4613.00    1.43925   1.44443   33.893
 4614.00    1.43673   1.44502   33.873
 4615.00    1.43436   1.44767   33.613
 4616.00    1.43242   1.44839   33.411
 4617.00    1.43453   1.44624   33.498
 4618.00    1.43310   1.44314   33.747
 4619.00    1.42532   1.44252   33.826
 4620.00    1.43779   1.44717   33.609
 4621.00    1.46396   1.45610   33.150
 4622.00    1.47380   1.46436   32.931
 4623.00    1.46486   1.46754   32.991
 4624.00    1.45599   1.46570   33.065
 4625.00    1.45130   1.46178   33.275
 4626.00    1.44352   1.45802   33.451
 4627.00    1.44249   1.45473   33.467
 4628.00    1.44303   1.45174   33.589
 4629.00    1.44173   1.45074   33.724
 4630.00    1.44798   1.45394   33.646
 4631.00    1.45546   1.45949   33.336
 4632.00    1.45120   1.46191   33.268
 4633.00    1.43866   1.45813   33.636
 4634.00    1.43184   1.45104   34.065
 4635.00    1.43067   1.44523   34.190
 4636.00    1.43203   1.44136   34.336
 4637.00    1.43053   1.43791   34.731
 4638.00    1.42687   1.43544   35.004
 4639.00    1.42620   1.43682   35.022
 4640.00    1.43374   1.44442   34.635
 4641.00    1.45651   1.45623   33.873
 4642.00    1.47312   1.46591   33.258
 4643.00    1.47923   1.46699   33.169
 4644.00    1.47258   1.45723   33.611
 4645.00    1.44275   1.43913   34.445
 4646.00    1.41959   1.41942   35.416
 4647.00    1.40778   1.40800   35.896
 4648.00    1.41156   1.41143   35.546
 4649.00    1.43626   1.42736   34.773
 4650.00    1.45220   1.44724   34.159
 4651.00    1.45333   1.46205   33.947
 4652.00    1.45415   1.46672   33.891
 4653.00    1.44338   1.46139   34.106
 4654.00    1.42574   1.45063   34.758
 4655.00    1.40544   1.44224   35.332
 4656.00    1.40840   1.44388   35.297
 4657.00    1.43214   1.45923   34.473
 4658.00    1.46918   1.48457   33.215
 4659.00    1.50791   1.50865   32.257
 4660.00    1.51893   1.51978   31.964
 4661.00    1.50554   1.51471   32.208
 4662.00    1.48399   1.49933   32.856
 4663.00    1.46493   1.48126   33.580
 4664.00    1.45689   1.46254   33.885
 4665.00    1.45311   1.43999   34.236
 4666.00    1.43043   1.41348   35.356
 4667.00    1.38929   1.39163   36.879
 4668.00    1.37424   1.38613   37.510
 4669.00    1.39198   1.40004   36.782
 4670.00    1.42140   1.42489   35.370
 4671.00    1.44731   1.44871   34.197
 4672.00    1.45820   1.46405   33.722
 4673.00    1.46658   1.47160   33.677
 4674.00    1.46810   1.47750   33.671
 4675.00    1.47519   1.48529   33.389
 4676.00    1.49572   1.49122   32.901
 4677.00    1.49868   1.48853   32.802
 4678.00    1.48512   1.47607   33.314
 4679.00    1.46619   1.45953   34.016
 4680.00    1.44579   1.44597   34.621
 4681.00    1.43553   1.44024   35.048
 4682.00    1.44166   1.44361   34.910
 4683.00    1.45813   1.45298   34.182
 4684.00    1.47708   1.46257   33.558
 4685.00    1.48931   1.46824   33.463
 4686.00    1.48822   1.46978   33.531
 4687.00    1.48544   1.46950   33.648
 4688.00    1.48240   1.46958   33.731
 4689.00    1.47689   1.47026   33.729
 4690.00    1.48142   1.47040   33.877
 4691.00    1.48732   1.47043   34.023
 4692.00    1.48073   1.47314   33.802
 4693.00    1.48844   1.48000   33.326
 4694.00    1.51212   1.48872   32.676
 4695.00    1.52921   1.49507   32.129
 4696.00    1.53356   1.49436   32.069
 4697.00    1.51925   1.48396   32.701
 4698.00    1.49142   1.46740   33.695
 4699.00    1.47198   1.45233   34.341
 4700.00    1.47626   1.44206   34.316
 4701.00    1.47697   1.43417   34.342
 4702.00    1.46063   1.42801   34.826
 4703.00    1.45338   1.42751   35.191
 4704.00    1.46384   1.43463   34.847
 4705.00    1.47368   1.44400   34.252
 4706.00    1.46834   1.44725   34.339
 4707.00    1.44924   1.44224   34.972
 4708.00    1.43454   1.43593   35.463
 4709.00    1.43365   1.43736   35.477
 4710.00    1.44759   1.44854   34.755
 4711.00    1.47674   1.46288   33.751
 4712.00    1.49603   1.47118   33.184
 4713.00    1.50005   1.47026   33.257
 4714.00    1.48690   1.46681   33.781
 4715.00    1.47833   1.47039   34.046
 4716.00    1.48829   1.48384   33.620
 4717.00    1.50947   1.50190   32.947
 4718.00    1.52493   1.51760   32.573
 4719.00    1.52879   1.52751   32.434
 4720.00    1.52172   1.53150   32.324
 4721.00    1.50938   1.53087   32.444
 4722.00    1.50648   1.52882   32.705
 4723.00    1.50907   1.52931   32.681
 4724.00    1.52297   1.53155   32.379
 4725.00    1.52631   1.52908   32.264
 4726.00    1.50608   1.51622   32.761
 4727.00    1.47840   1.49425   33.848
 4728.00    1.45225   1.47203   34.837
 4729.00    1.44818   1.45869   35.058
 4730.00    1.46150   1.45655   34.767
 4731.00    1.47568   1.46335   34.455
 4732.00    1.47902   1.47603   34.099
 4733.00    1.48312   1.48980   33.753
 4734.00    1.49776   1.49901   33.524
 4735.00    1.50553   1.50123   33.338
 4736.00    1.50020   1.49952   33.477
 4737.00    1.50232   1.49944   33.663
 4738.00    1.51776   1.50356   33.409
 4739.00    1.52190   1.50926   33.230
 4740.00    1.51003   1.51282   33.364
 4741.00    1.50468   1.51452   33.474
 4742.00    1.50995   1.51728   33.326
 4743.00    1.51064   1.52182   32.992
 4744.00    1.51457   1.52713   32.884
 4745.00    1.52548   1.53298   32.940
 4746.00    1.53250   1.53988   32.802
 4747.00    1.53240   1.54801   32.497
 4748.00    1.52769   1.55612   32.321
 4749.00    1.53826   1.56238   32.331
 4750.00    1.54311   1.56570   32.366
 4751.00    1.52802   1.56488   32.514
 4752.00    1.52265   1.55910   32.837
 4753.00    1.51644   1.54984   33.156
 4754.00    1.50230   1.54076   33.401
 4755.00    1.49447   1.53561   33.457
 4756.00    1.48647   1.53620   33.503
 4757.00    1.48552   1.54135   33.710
 4758.00    1.49303   1.54789   33.836
 4759.00    1.49952   1.55225   33.677
 4760.00    1.49914   1.55031   33.519
 4761.00    1.48090   1.53919   33.811
 4762.00    1.46073   1.52094   34.545
 4763.00    1.44192   1.50259   35.172
 4764.00    1.44312   1.49093   35.375
 4765.00    1.46099   1.48830   35.343
 4766.00    1.46947   1.49408   35.162
 4767.00    1.47836   1.50763   34.766
 4768.00    1.49764   1.52718   34.093
 4769.00    1.51812   1.54683   33.490
 4770.00    1.53026   1.55882   33.342
 4771.00    1.52242   1.56090   33.546
 4772.00    1.50967   1.55938   33.844
 4773.00    1.51394   1.56277   33.732
 4774.00    1.53505   1.57289   33.124
 4775.00    1.54877   1.58404   32.693
 4776.00    1.54530   1.59071   32.630
 4777.00    1.53792   1.59186   32.704
 4778.00    1.53243   1.58814   32.872
 4779.00    1.51805   1.58091   33.182
 4780.00    1.50937   1.57344   33.455
 4781.00    1.51335   1.56828   33.581
 4782.00    1.51053   1.56439   33.709
 4783.00    1.50910   1.56000   33.940
 4784.00    1.50943   1.55527   34.047
 4785.00    1.49826   1.55040   34.101
 4786.00    1.48628   1.54517   34.353
 4787.00    1.48684   1.54137   34.617
 4788.00    1.48796   1.54123   34.674
 4789.00    1.49113   1.54497   34.553
 4790.00    1.50149   1.55251   34.354
 4791.00    1.51170   1.56465   34.053
 4792.00    1.52729   1.58147   33.573
 4793.00    1.54520   1.60113   32.898
 4794.00    1.56327   1.61919   32.259
 4795.00    1.57613   1.62965   31.967
 4796.00    1.57004   1.62837   32.120
 4797.00    1.55094   1.61569   32.646
 4798.00    1.52793   1.59778   33.287
 4799.00    1.51433   1.58488   33.776
 4800.00    1.52250   1.58463   33.759
 4801.00    1.54436   1.59625   33.214
 4802.00    1.56400   1.61086   32.648
 4803.00    1.56789   1.61683   32.488
 4804.00    1.54989   1.60986   32.777
 4805.00    1.52670   1.59671   33.215
 4806.00    1.52523   1.58670   33.568
 4807.00    1.53164   1.58383   33.685
 4808.00    1.53064   1.58714   33.624
 4809.00    1.53720   1.59379   33.498
 4810.00    1.54562   1.60061   33.255
 4811.00    1.55115   1.60585   32.987
 4812.00    1.55908   1.60994   32.792
 4813.00    1.56404   1.61430   32.705
 4814.00    1.56538   1.61987   32.648
 4815.00    1.56858   1.62691   32.545
 4816.00    1.56978   1.63514   32.375
 4817.00    1.57215   1.64332   32.171
 4818.00    1.57303   1.64933   32.012
 4819.00    1.57655   1.65163   31.953
 4820.00    1.57547   1.64875   31.952
 4821.00    1.57055   1.63792   32.118
 4822.00    1.55684   1.61845   32.738
 4823.00    1.52963   1.59678   33.480
 4824.00    1.51977   1.58405   33.701
 4825.00    1.53540   1.58631   33.305
 4826.00    1.55614   1.59811   32.746
 4827.00    1.55587   1.60799   32.618
 4828.00    1.54319   1.60961   32.916
 4829.00    1.53411   1.60503   33.205
 4830.00    1.53462   1.59850   33.280
 4831.00    1.53398   1.59214   33.452
 4832.00    1.53281   1.58828   33.622
 4833.00    1.54436   1.58980   33.322
 4834.00    1.55793   1.59649   32.827
 4835.00    1.56232   1.60412   32.577
 4836.00    1.56106   1.60843   32.566
 4837.00    1.55830   1.60808   32.684
 4838.00    1.55017   1.60313   33.012
 4839.00    1.53904   1.59500   33.554
 4840.00    1.52717   1.58745   33.820
 4841.00    1.52270   1.58360   33.772
 4842.00    1.53092   1.58292   33.641
 4843.00    1.54234   1.58440   33.422
 4844.00    1.54851   1.58913   33.120
 4845.00    1.54939   1.59639   32.676
 4846.00    1.54634   1.60039   32.359
 4847.00    1.53617   1.59545   32.677
 4848.00    1.52363   1.58446   33.261
 4849.00    1.51336   1.57667   33.462
 4850.00    1.51648   1.57598   33.174
 4851.00    1.52293   1.57717   32.923
 4852.00    1.51329   1.57211   33.009
 4853.00    1.49747   1.55488   33.258
 4854.00    1.47317   1.52522   33.953
 4855.00    1.43862   1.49123   34.959
 4856.00    1.42401   1.46240   35.329
 4857.00    1.42302   1.43541   35.061
 4858.00    1.38446   1.39178   35.453
 4859.00    1.28424   1.31421   37.629
 4860.00    1.15527   1.21468   41.606
 4861.00    1.06692   1.13833   -1.000
 4862.00    1.09268   1.12922   44.102
 4863.00    1.21505   1.19026   40.572
 4864.00    1.32657   1.28377   37.655
 4865.00    1.38521   1.37034   35.976
 4866.00    1.41190   1.43440   35.017
 4867.00    1.43909   1.47777   34.531
 4868.00    1.46101   1.50369   34.320
 4869.00    1.46156   1.51112   34.432
 4870.00    1.44579   1.50074   35.127
 4871.00    1.42597   1.48321   36.063
 4872.00    1.42693   1.47664   36.256
 4873.00    1.45190   1.49094   35.497
 4874.00    1.47490   1.51813   34.698
 4875.00    1.48635   1.54318   34.297
 4876.00    1.49216   1.55981   34.083
 4877.00    1.49200   1.57288   33.940
 4878.00    1.49888   1.58845   33.607
 4879.00    1.51882   1.60534   33.184
 4880.00    1.52163   1.61645   33.205
 4881.00    1.49820   1.61644   -1.000
 4882.00    1.48559   1.60794   -1.000
 4883.00    1.49854   1.59774   -1.000
 4884.00    1.50689   1.58903   34.081
 4885.00    1.49957   1.58150   34.469
 4886.00    1.50250   1.57620   34.811
 4887.00    1.51055   1.57405   34.776
 4888.00    1.50592   1.57106   34.661
 4889.00    1.49193   1.56138   34.936
 4890.00    1.47670   1.54663   35.615
 4891.00    1.47399   1.54079   35.825
 4892.00    1.49675   1.55898   34.868
 4893.00    1.54836   1.60035   33.313
 4894.00    1.59607   1.64861   32.085
 4895.00    1.61477   1.68690   31.346
 4896.00    1.62680   1.70794   31.013
 4897.00    1.63249   1.71279   30.995
 4898.00    1.62057   1.70528   31.409
 4899.00    1.59533   1.69054   32.141
 4900.00    1.57300   1.67563   -1.000
 4901.00    1.57260   1.66537   32.731
 4902.00    1.57525   1.65896   32.678
 4903.00    1.57153   1.65554   32.933
 4904.00    1.57674   1.65931   32.910
 4905.00    1.60208   1.67273   32.337
 4906.00    1.62434   1.68756   31.887
 4907.00    1.62414   1.69086   31.955
 4908.00    1.60815   1.67783   32.531
 4909.00    1.57879   1.65472   33.417
 4910.00    1.56093   1.63361   34.084
 4911.00    1.56255   1.62534   34.004
 4912.00    1.57413   1.63295   33.443
 4913.00    1.59288   1.65063   32.918
 4914.00    1.61121   1.66961   32.482
 4915.00    1.62897   1.68167   32.136
 4916.00    1.63058   1.67811   32.101
 4917.00    1.60476   1.65161   32.805
 4918.00    1.56648   1.60432   34.339
 4919.00    1.51602   1.55196   36.105
 4920.00    1.47935   1.51679   37.092
 4921.00    1.49136   1.51200   36.561
 4922.00    1.52832   1.53069   35.264
 4923.00    1.55766   1.55508   34.409
 4924.00    1.56552   1.57649   34.181
 4925.00    1.57511   1.59980   33.927
 4926.00    1.59694   1.62941   33.226
 4927.00    1.61963   1.66081   32.505
 4928.00    1.63622   1.68745   32.084
 4929.00    1.64788   1.70622   31.833
 4930.00    1.65619   1.71455   31.631
 4931.00    1.65380   1.70859   31.722
 4932.00    1.62777   1.68736   32.353
 4933.00    1.58188   1.65880   33.414
 4934.00    1.56242   1.63826   34.002
 4935.00    1.58516   1.63295   33.672
 4936.00    1.60482   1.63245   33.382
 4937.00    1.58971   1.62291   33.932
 4938.00    1.55733   1.60672   34.919
 4939.00    1.54546   1.60101   35.168
 4940.00    1.56746   1.61790   34.331
 4941.00    1.60497   1.65221   33.184
 4942.00    1.63183   1.68742   32.375
 4943.00    1.64332   1.71033   31.954
 4944.00    1.64930   1.71796   31.843
 4945.00    1.64748   1.71579   31.986
 4946.00    1.64108   1.71288   32.129
 4947.00    1.64208   1.71600   31.993
 4948.00    1.65256   1.72545   31.647
 4949.00    1.66766   1.73594   31.427
 4950.00    1.67387   1.74216   31.315
 4951.00    1.67270   1.74241   31.348
 4952.00    1.66505   1.73780   31.546
 4953.00    1.65446   1.72916   31.847
 4954.00    1.65516   1.71286   32.235
 4955.00    1.64410   1.68148   32.893
 4956.00    1.59030   1.63439   34.235
 4957.00    1.53652   1.59009   35.811
 4958.00    1.54090   1.57711   36.031
 4959.00    1.59600   1.60474   34.501
 4960.00    1.65404   1.65339   32.949
 4961.00    1.67242   1.69509   32.318
 4962.00    1.66461   1.71585   32.305
 4963.00    1.65753   1.71694   32.522
 4964.00    1.64437   1.70485   32.854
 4965.00    1.62417   1.68631   33.418
 4966.00    1.61520   1.66952   33.981
 4967.00    1.61679   1.66059   34.177
 4968.00    1.62328   1.65991   34.118
 4969.00    1.62908   1.66558   33.931
 4970.00    1.63128   1.67654   33.614
 4971.00    1.63948   1.69139   33.252
 4972.00    1.65633   1.70738   32.872
 4973.00    1.67293   1.72071   32.525
 4974.00    1.67539   1.72795   32.316
 4975.00    1.67207   1.72772   32.385
 4976.00    1.66382   1.72029   32.681
 4977.00    1.65208   1.70719   33.084
 4978.00    1.63683   1.69199   33.586
 4979.00    1.61989   1.67646   34.061
 4980.00    1.60425   1.65708   34.514
 4981.00    1.57483   1.62958   35.362
 4982.00    1.53877   1.59753   36.532
 4983.00    1.52221   1.57438   37.061
 4984.00    1.53847   1.57267   36.653
 4985.00    1.57283   1.59336   35.761
 4986.00    1.60146   1.62687   34.677
 4987.00    1.61953   1.66036   33.708
 4988.00    1.62843   1.68182   33.355
 4989.00    1.62472   1.68584   33.653
 4990.00    1.61509   1.67801   34.075
 4991.00    1.61491   1.66990   34.237
 4992.00    1.62425   1.66906   34.068
 4993.00    1.63655   1.67492   33.848
 4994.00    1.64150   1.68380   33.778
 4995.00    1.63985   1.69326   33.676
 4996.00    1.64048   1.70024   33.503
 4997.00    1.63699   1.69920   33.541
 4998.00    1.62763   1.68564   33.887
 4999.00    1.61599   1.66154   34.473
 5000.00    1.59766   1.63763   35.029
 5001.00    1.59388   1.62474   35.235
 5002.00    1.60680   1.62349   35.054
 5003.00    1.61827   1.62476   34.772
 5004.00    1.61508   1.61878   34.945
 5005.00    1.59619   1.60476   35.674
 5006.00    1.57696   1.59367   36.201
 5007.00    1.58676   1.59904   35.784
 5008.00    1.61761   1.62114   34.769
 5009.00    1.64661   1.64471   34.087
 5010.00    1.65280   1.65281   34.179
 5011.00    1.62508   1.63977   34.957
 5012.00    1.59454   1.61325   36.163
 5013.00    1.56501   1.58749   37.246
 5014.00    1.54045   1.57479   37.528
 5015.00    1.55245   1.57722   36.968
 5016.00    1.57987   1.58585   36.164
 5017.00    1.59277   1.59075   35.742
 5018.00    1.59385   1.59258   35.687
 5019.00    1.60243   1.59984   35.467
 5020.00    1.62258   1.61441   35.120
 5021.00    1.62752   1.62924   35.078
 5022.00    1.61851   1.64014   35.198
 5023.00    1.62004   1.65083   35.120
 5024.00    1.62877   1.66422   34.819
 5025.00    1.63363   1.67602   34.522
 5026.00    1.63962   1.68017   34.511
 5027.00    1.64138   1.67814   34.683
 5028.00    1.63763   1.67786   34.581
 5029.00    1.64984   1.68460   34.070
 5030.00    1.67155   1.69783   33.509
 5031.00    1.68559   1.71451   32.996
 5032.00    1.69868   1.73004   32.545
 5033.00    1.70329   1.73680   32.408
 5034.00    1.68377   1.72811   33.006
 5035.00    1.64660   1.70605   34.222
 5036.00    1.61906   1.68227   35.156
 5037.00    1.61129   1.66480   35.474
 5038.00    1.60117   1.64776   35.764
 5039.00    1.56760   1.62102   36.737
 5040.00    1.52402   1.58804   38.232
 5041.00    1.50722   1.56943   38.944
 5042.00    1.53678   1.58373   37.866
 5043.00    1.60470   1.62844   35.714
 5044.00    1.65726   1.68376   33.918
 5045.00    1.68516   1.72900   32.918
 5046.00    1.73314   1.75208   31.914
 5047.00    1.61016   1.74986   -1.000
 5048.00    0.82877   1.72739   -1.000
 5049.00    0.13614   1.69670   -1.000
 5050.00    0.09370   1.67127   -1.000
 5051.00    0.76962   1.66007   -1.000
 5052.00    1.51572   1.66734   -1.000
 5053.00    1.69898   1.69129   33.685
 5054.00    1.71567   1.72146   32.963
 5055.00    1.73392   1.74535   32.525
 5056.00    1.73862   1.75875   32.333
 5057.00    1.73589   1.76570   32.322
 5058.00    1.73329   1.77152   32.385
 5059.00    1.72758   1.77870   32.405
 5060.00    1.72455   1.78657   32.275
 5061.00    1.72853   1.79089   32.183
 5062.00    1.72312   1.78474   32.434
 5063.00    1.70003   1.76400   33.157
 5064.00    1.66511   1.73397   34.254
 5065.00    1.64462   1.70833   35.029
 5066.00    1.65222   1.69688   34.957
 5067.00    1.67150   1.69772   34.460
 5068.00    1.67919   1.70376   34.163
 5069.00    1.68147   1.71095   34.032
 5070.00    1.69164   1.71699   33.834
 5071.00    1.69634   1.71881   33.883
 5072.00    1.69408   1.71630   34.164
 5073.00    1.69084   1.71399   34.051
 5074.00    1.69231   1.71548   33.703
 5075.00    1.69990   1.71927   33.563
 5076.00    1.70311   1.72007   33.532
 5077.00    1.69450   1.71118   33.700
 5078.00    1.66313   1.68889   34.497
 5079.00    1.61715   1.65961   35.962
 5080.00    1.59710   1.63912   36.977
 5081.00    1.61350   1.63760   36.707
 5082.00    1.63548   1.65067   35.905
 5083.00    1.65232   1.66945   35.296
 5084.00    1.67274   1.69021   34.719
 5085.00    1.70051   1.71119   34.092
 5086.00    1.72015   1.72848   33.698
 5087.00    1.72076   1.73953   33.571
 5088.00    1.71748   1.74634   33.460
 5089.00    1.71850   1.75278   33.248
 5090.00    1.72567   1.76080   33.038
 5091.00    1.73590   1.77050   32.863
 5092.00    1.75095   1.78106   32.576
 5093.00    1.76017   1.78946   32.242
 5094.00    1.76500   1.78991   32.274
 5095.00    1.79733   1.77730   32.790
 5096.00    1.77302   1.75219   33.497
 5097.00    1.70129   1.72184   34.271
 5098.00    1.67086   1.69669   35.043
 5099.00    1.66815   1.68710   35.433
 5100.00    1.67900   1.69727   34.985
 5101.00    1.70411   1.72014   34.018
 5102.00    1.72598   1.74158   33.409
 5103.00    1.72619   1.75165   33.399
 5104.00    1.71240   1.74958   33.740
 5105.00    1.69956   1.73894   34.181
 5106.00    1.68115   1.72293   34.605
 5107.00    1.65417   1.70607   35.035
 5108.00    1.64869   1.69430   35.204
 5109.00    1.65810   1.69186   35.044
 5110.00    1.66668   1.70006   34.801
 5111.00    1.68657   1.71760   34.411
 5112.00    1.70517   1.73966   33.951
 5113.00    1.71801   1.76000   33.538
 5114.00    1.73489   1.77558   33.188
 5115.00    1.75191   1.78762   32.958
 5116.00    1.76221   1.79813   32.689
 5117.00    1.77282   1.80665   32.379
 5118.00    1.78532   1.80980   32.311
 5119.00    1.77336   1.80425   32.595
 5120.00    1.74690   1.78956   33.065
 5121.00    1.73087   1.76769   33.591
 5122.00    1.70416   1.74163   34.317
 5123.00    1.67067   1.71642   35.293
 5124.00    1.65372   1.69867   35.913
 5125.00    1.65774   1.69183   35.829
 5126.00    1.67583   1.69262   35.578
 5127.00    1.68218   1.69490   35.386
 5128.00    1.67681   1.69641   35.318
 5129.00    1.67663   1.69993   35.330
 5130.00    1.69176   1.70904   35.058
 5131.00    1.71142   1.72363   34.512
 5132.00    1.72800   1.73989   34.090
 5133.00    1.73963   1.75421   33.793
 5134.00    1.74510   1.76466   33.483
 5135.00    1.75147   1.76883   33.304
 5136.00    1.74405   1.76301   33.598
 5137.00    1.71598   1.74636   34.338
 5138.00    1.68659   1.72570   35.023
 5139.00    1.67766   1.71155   35.294
 5140.00    1.68328   1.70816   35.128
 5141.00    1.68952   1.71056   35.120
 5142.00    1.68011   1.71297   35.567
 5143.00    1.67403   1.71603   35.721
 5144.00    1.69051   1.72173   35.275
 5145.00    1.70402   1.72618   34.931
 5146.00    1.69714   1.72524   35.068
 5147.00    1.69483   1.72214   35.274
 5148.00    1.70515   1.72222   35.067
 5149.00    1.70588   1.72408   34.752
 5150.00    1.69718   1.72166   34.906
 5151.00    1.68269   1.71326   35.467
 5152.00    1.66890   1.70441   35.894
 5153.00    1.67284   1.70205   35.889
 5154.00    1.69401   1.71041   35.417
 5155.00    1.71873   1.73044   34.603
 5156.00    1.75208   1.75817   33.718
 5157.00    1.78540   1.78524   32.986
 5158.00    1.79891   1.80434   32.580
 5159.00    1.80218   1.81291   32.478
 5160.00    1.79775   1.81181   32.541
 5161.00    1.78627   1.80286   32.696
 5162.00    1.78086   1.78752   32.985
 5163.00    1.76787   1.76320   33.439
 5164.00    1.73652   1.72056   34.373
 5165.00    1.67296   1.65134   36.522
 5166.00    1.56747   1.56395   40.019
 5167.00    1.48674   1.48918   43.440
 5168.00    1.48451   1.45849   44.212
 5169.00    1.53952   1.47247   42.292
 5170.00    1.58400   1.49614   -1.000
 5171.00    1.55116   1.49575   42.051
 5172.00    1.48214   1.47911   44.945
 5173.00    1.48058   1.48584   45.264
 5174.00    1.56887   1.53944   41.520
 5175.00    1.67665   1.62163   37.564
 5176.00    1.74505   1.69552   35.431
 5177.00    1.77375   1.74064   34.650
 5178.00    1.78351   1.75862   34.455
 5179.00    1.78214   1.75488   34.618
 5180.00    1.76056   1.72612   35.444
 5181.00    1.69866   1.66609   37.419
 5182.00    1.59600   1.58368   41.040
 5183.00    1.49619   1.51207   45.051
 5184.00    1.48511   1.49235   45.381
 5185.00    1.58528   1.53788   41.412
 5186.00    1.70606   1.61832   -1.000
 5187.00    1.75999   1.68966   35.260
 5188.00    1.76090   1.73078   34.640
 5189.00    1.76556   1.74469   34.443
 5190.00    1.76440   1.73864   34.585
 5191.00    1.73133   1.71812   35.369
 5192.00    1.69165   1.69479   36.437
 5193.00    1.68314   1.68392   36.732
 5194.00    1.70448   1.68990   36.221
 5195.00    1.72819   1.70507   35.637
 5196.00    1.74944   1.72281   35.117
 5197.00    1.77319   1.74263   34.496
 5198.00    1.79070   1.76442   33.856
 5199.00    1.79304   1.78441   33.448
 5200.00    1.79451   1.79682   33.315
 5201.00    1.79718   1.79657   33.454
 5202.00    1.78580   1.78091   33.918
 5203.00    1.75931   1.75049   34.632
 5204.00    1.71974   1.71112   35.592
 5205.00    1.68576   1.67373   36.710
 5206.00    1.67812   1.64835   37.292
 5207.00    1.67836   1.63740   37.434
 5208.00    1.66868   1.63826   37.652
 5209.00    1.67401   1.65198   37.450
 5210.00    1.70149   1.68283   36.503
 5211.00    1.74962   1.72775   35.137
 5212.00    1.81099   1.77298   33.737
 5213.00    1.84682   1.80199   32.762
 5214.00    1.84346   1.80656   32.671
 5215.00    1.81425   1.79297   33.290
 5216.00    1.78623   1.77857   33.882
 5217.00    1.79797   1.77929   33.900
 5218.00    1.83223   1.79806   33.347
 5219.00    1.85303   1.82529   32.732
 5220.00    1.86643   1.84847   32.377
 5221.00    1.87438   1.85895   32.201
 5222.00    1.86724   1.85194   32.374
 5223.00    1.83721   1.82493   33.121
 5224.00    1.78958   1.77881   34.346
 5225.00    1.73254   1.72309   35.882
 5226.00    1.67863   1.67838   37.199
 5227.00    1.67480   1.66708   37.197
 5228.00    1.74248   1.69603   35.629
 5229.00    1.81203   1.74798   33.904
 5230.00    1.84722   1.79279   32.968
 5231.00    1.85663   1.80930   32.698
 5232.00    1.84195   1.79805   33.052
 5233.00    1.80950   1.77766   33.701
 5234.00    1.79505   1.77050   33.927
 5235.00    1.81540   1.78635   33.441
 5236.00    1.84648   1.81779   32.635
 5237.00    1.87397   1.84936   32.083
 5238.00    1.88738   1.87004   31.917
 5239.00    1.89065   1.87865   31.970
 5240.00    1.89158   1.88010   31.988
 5241.00    1.89425   1.87931   31.852
 5242.00    1.89742   1.87947   31.791
 5243.00    1.90432   1.88170   31.784
 5244.00    1.91554   1.88266   31.723
 5245.00    1.90218   1.87503   32.049
 5246.00    1.85449   1.85536   32.914
 5247.00    1.81329   1.83041   33.814
 5248.00    1.80094   1.81070   34.207
 5249.00    1.79969   1.80001   34.259
 5250.00    1.79864   1.79664   34.409
 5251.00    1.80163   1.79980   34.424
 5252.00    1.81222   1.80783   34.073
 5253.00    1.82948   1.81577   33.665
 5254.00    1.83631   1.82135   33.523
 5255.00    1.83838   1.83015   33.403
 5256.00    1.86360   1.84954   32.853
 5257.00    1.90515   1.87700   32.001
 5258.00    1.92834   1.89898   31.454
 5259.00    1.91699   1.90184   31.508
 5260.00    1.88209   1.88026   32.132
 5261.00    1.83653   1.83780   33.295
 5262.00    1.78793   1.78409   34.821
 5263.00    1.74154   1.73092   36.241
 5264.00    1.71293   1.68956   37.203
 5265.00    1.70393   1.66807   37.590
 5266.00    1.72396   1.66558   37.251
 5267.00    1.75610   1.66847   -1.000
 5268.00    1.74284   1.65989   -1.000
 5269.00    1.68624   1.64146   37.927
 5270.00    1.66874   1.63705   38.288
 5271.00    1.73570   1.66587   36.646
 5272.00    1.81042   1.71761   -1.000
 5273.00    1.83442   1.76297   33.907
 5274.00    1.82853   1.78640   33.796
 5275.00    1.82899   1.79856   33.771
 5276.00    1.84860   1.81824   33.372
 5277.00    1.89394   1.85035   32.432
 5278.00    1.93643   1.88168   31.586
 5279.00    1.93717   1.89485   31.441
 5280.00    1.91867   1.88425   31.967
 5281.00    1.88950   1.85834   32.792
 5282.00    1.85685   1.83163   33.509
 5283.00    1.84772   1.81857   33.868
 5284.00    1.86958   1.82923   33.549
 5285.00    1.91067   1.86242   32.649
 5286.00    1.94893   1.90355   31.622
 5287.00    1.96579   1.93537   31.042
 5288.00    1.96071   1.95191   31.051
 5289.00    1.95572   1.95836   31.135
 5290.00    1.96198   1.96044   31.026
 5291.00    1.96458   1.95926   30.902
 5292.00    1.96164   1.95453   30.976
 5293.00    1.96166   1.94648   31.228
 5294.00    1.95392   1.93285   31.592
 5295.00    1.92675   1.90852   32.255
 5296.00    1.87415   1.87315   33.345
 5297.00    1.81896   1.83800   34.433
 5298.00    1.80749   1.81966   34.716
 5299.00    1.84069   1.82479   34.093
 5300.00    1.88178   1.84439   33.334
 5301.00    1.89736   1.86612   32.946
 5302.00    1.90222   1.88732   32.642
 5303.00    1.93175   1.91137   31.966
 5304.00    1.96830   1.93632   31.239
 5305.00    1.98508   1.95364   30.946
 5306.00    1.97887   1.95817   31.091
 5307.00    1.96214   1.95513   31.389
 5308.00    1.96605   1.95455   31.398
 5309.00    1.98370   1.96079   31.107
 5310.00    1.99312   1.96943   30.847
 5311.00    1.99620   1.97347   30.779
 5312.00    1.99585   1.97017   30.896
 5313.00    1.99221   1.96071   31.053
 5314.00    1.97840   1.94651   31.235
 5315.00    1.95393   1.92951   31.511
 5316.00    1.94152   1.91488   31.809
 5317.00    1.94794   1.90963   31.941
 5318.00    1.95660   1.91587   31.805
 5319.00    1.96543   1.92728   31.616
 5320.00    1.97205   1.93436   31.623
 5321.00    1.96583   1.93090   31.806
 5322.00    1.94674   1.91585   32.116
 5323.00    1.92676   1.89360   32.601
 5324.00    1.91411   1.87081   33.033
 5325.00    1.90886   1.84741   33.154
 5326.00    1.88526   1.81454   33.629
 5327.00    1.81927   1.77061   35.257
 5328.00    1.76022   1.73575   36.968
 5329.00    1.77838   1.73812   36.651
 5330.00    1.86147   1.78228   -1.000
 5331.00    1.92676   1.84145   -1.000
 5332.00    1.94458   1.88694   32.503
 5333.00    1.95892   1.91269   32.201
 5334.00    1.97520   1.92727   31.856
 5335.00    1.97691   1.93645   31.610
 5336.00    1.96830   1.93931   31.668
 5337.00    1.96108   1.93312   31.884
 5338.00    1.96011   1.91670   32.168
 5339.00    1.93835   1.89273   32.777
 5340.00    1.90116   1.87119   33.487
 5341.00    1.89891   1.86586   33.591
 5342.00    1.93637   1.88087   32.933
 5343.00    1.96567   1.90407   32.186
 5344.00    1.96866   1.91942   31.935
 5345.00    1.96232   1.92133   32.068
 5346.00    1.96312   1.91427   32.283
 5347.00    1.96601   1.90469   32.463
 5348.00    1.95887   1.89740   32.694
 5349.00    1.94755   1.89751   32.877
 5350.00    1.95308   1.90930   32.623
 5351.00    1.98156   1.93059   31.957
 5352.00    1.99880   1.95355   31.395
 5353.00    2.00466   1.97272   31.176
 5354.00    2.01690   1.98852   31.006
 5355.00    2.03579   2.00304   30.672
 5356.00    2.05295   2.01511   30.362
 5357.00    2.05005   2.02189   30.280
 5358.00    2.04655   2.02229   30.327
 5359.00    2.04821   2.01639   30.409
 5360.00    2.03266   2.00407   30.657
 5361.00    2.00819   1.98657   31.111
 5362.00    1.98369   1.96742   31.603
 5363.00    1.96434   1.95051   31.933
 5364.00    1.95547   1.93809   32.127
 5365.00    1.95505   1.93079   32.316
 5366.00    1.95462   1.92736   32.350
 5367.00    1.96262   1.92304   32.292
 5368.00    1.96789   1.90979   32.475
 5369.00    1.93989   1.88327   33.079
 5370.00    1.89974   1.85173   34.023
 5371.00    1.88414   1.83498   34.559
 5372.00    1.91375   1.84934   33.867
 5373.00    1.97503   1.89172   -1.000
 5374.00    2.02598   1.94147   -1.000
 5375.00    2.04660   1.97801   30.833
 5376.00    2.04313   1.99484   30.798
 5377.00    2.03805   1.99826   30.857
 5378.00    2.03823   1.99639   30.892
 5379.00    2.02844   1.99178   31.020
 5380.00    2.01447   1.98346   31.274
 5381.00    2.00105   1.97209   31.589
 5382.00    1.99613   1.96196   31.814
 5383.00    1.99654   1.95829   31.867
 5384.00    1.99959   1.96320   31.768
 5385.00    2.01540   1.97383   31.507
 5386.00    2.03432   1.98355   31.312
 5387.00    2.03282   1.98592   31.373
 5388.00    2.01863   1.97837   31.612
 5389.00    2.00279   1.96324   32.022
 5390.00    1.98944   1.94596   32.449
 5391.00    1.98931   1.93156   32.687
 5392.00    1.98066   1.92199   32.753
 5393.00    1.96942   1.91570   32.810
 5394.00    1.95973   1.90811   32.993
 5395.00    1.94185   1.89424   33.348
 5396.00    1.90834   1.87589   33.926
 5397.00    1.89525   1.86483   34.262
 5398.00    1.93469   1.87257   33.678
 5399.00    1.98264   1.89703   -1.000
 5400.00    2.00912   1.92422   -1.000
 5401.00    2.01412   1.94015   32.103
 5402.00    2.00425   1.93673   32.278
 5403.00    1.97262   1.91224   32.936
 5404.00    1.91818   1.87451   34.011
 5405.00    1.88333   1.84176   34.797
 5406.00    1.89456   1.83134   34.801
 5407.00    1.92188   1.84372   -1.000
 5408.00    1.94127   1.86264   -1.000
 5409.00    1.94513   1.87491   33.735
 5410.00    1.94375   1.88407   33.805
 5411.00    1.96893   1.90109   33.214
 5412.00    2.01119   1.92639   -1.000
 5413.00    2.02905   1.94928   -1.000
 5414.00    2.02348   1.96346   31.722
 5415.00    2.01893   1.97344   31.753
 5416.00    2.02303   1.98505   31.627
 5417.00    2.03176   1.99636   31.398
 5418.00    2.02759   2.00126   31.381
 5419.00    2.01425   1.99830   31.625
 5420.00    2.01917   1.99190   31.879
 5421.00    2.03250   1.98590   31.888
 5422.00    2.02707   1.97961   31.746
 5423.00    2.01152   1.97191   31.932
 5424.00    2.00047   1.96759   32.322
 5425.00    2.00780   1.97374   32.256
 5426.00    2.03378   1.98685   31.773
 5427.00    2.04002   1.99079   31.576
 5428.00    2.00810   1.97382   32.125
 5429.00    1.96660   1.94457   33.128
 5430.00    1.95791   1.92371   33.648
 5431.00    1.98206   1.91999   33.295
 5432.00    1.99548   1.92267   32.989
 5433.00    1.97443   1.91851   33.268
 5434.00    1.95377   1.90932   33.715
 5435.00    1.95457   1.90925   33.818
 5436.00    1.97800   1.92840   33.368
 5437.00    2.01460   1.96328   32.538
 5438.00    2.04286   2.00152   31.750
 5439.00    2.07161   2.03205   31.217
 5440.00    2.09123   2.05092   30.886
 5441.00    2.08608   2.05951   30.749
 5442.00    2.08072   2.05875   30.733
 5443.00    2.06953   2.04537   30.911
 5444.00    2.03611   2.01493   31.524
 5445.00    1.99120   1.97083   32.639
 5446.00    1.93755   1.92927   33.866
 5447.00    1.92535   1.91083   34.223
 5448.00    1.97963   1.92388   33.438
 5449.00    2.04092   1.95726   -1.000
 5450.00    2.07186   1.98993   -1.000
 5451.00    2.07783   2.00610   31.726
 5452.00    2.06789   2.00118   31.889
 5453.00    2.04761   1.97785   32.429
 5454.00    2.00451   1.94454   33.306
 5455.00    1.96257   1.91799   34.146
 5456.00    1.97564   1.91643   34.196
 5457.00    2.03517   1.94358   -1.000
 5458.00    2.07902   1.98254   -1.000
 5459.00    2.08889   2.00993   31.731
 5460.00    2.08153   2.01430   31.883
 5461.00    2.05588   2.00001   32.407
 5462.00    2.03219   1.97998   32.934
 5463.00    2.03122   1.96759   33.226
 5464.00    2.04601   1.96938   -1.000
 5465.00    2.06356   1.98195   -1.000
 5466.00    2.07118   1.99692   32.391
 5467.00    2.07886   2.00855   32.134
 5468.00    2.09028   2.01512   31.887
 5469.00    2.08826   2.01619   32.002
 5470.00    2.07464   2.01197   32.342
 5471.00    2.06819   2.00403   32.558
 5472.00    2.06376   1.99398   32.691
 5473.00    2.04775   1.98114   32.953
 5474.00    2.02729   1.96290   33.371
 5475.00    2.00389   1.93917   33.982
 5476.00    1.97966   1.91788   34.616
 5477.00    1.97065   1.91273   34.677
 5478.00    2.00775   1.92892   -1.000
 5479.00    2.05743   1.95340   -1.000
 5480.00    2.06250   1.96788   -1.000
 5481.00    2.03986   1.96913   33.304
 5482.00    2.02735   1.96976   33.462
 5483.00    2.03823   1.98149   33.087
 5484.00    2.06317   2.00194   32.430
 5485.00    2.07732   2.01831   31.971
 5486.00    2.06686   2.02108   32.032
 5487.00    2.04943   2.01242   32.454
 5488.00    2.03316   2.00263   32.775
 5489.00    2.03861   2.00017   32.851
 5490.00    2.05660   2.00579   32.719
 5491.00    2.06923   2.01432   32.472
 5492.00    2.08125   2.02034   32.300
 5493.00    2.08074   2.02205   32.291
 5494.00    2.08091   2.02059   32.339
 5495.00    2.08956   2.01666   32.338
 5496.00    2.07799   2.01046   32.464
 5497.00    2.05316   2.00528   32.710
 5498.00    2.06354   2.00568   32.717
 5499.00    2.09503   2.00942   -1.000
 5500.00    2.09831   2.00807   -1.000
 5501.00    2.07730   1.99860   -1.000
 5502.00    2.07002   1.98800   -1.000
 5503.00    2.08194   1.98345   -1.000
 5504.00    2.08193   1.98243   -1.000
 5505.00    2.06277   1.97785   -1.000
 5506.00    2.03905   1.97053   33.403
 5507.00    2.03374   1.96936   33.377
 5508.00    2.05859   1.97887   -1.000
 5509.00    2.08106   1.99163   -1.000
 5510.00    2.08115   1.99536   -1.000
 5511.00    2.06185   1.98562   -1.000
 5512.00    2.03497   1.96941   33.739
 5513.00    2.02676   1.95816   34.150
 5514.00    2.03876   1.95918   -1.000
 5515.00    2.06215   1.97213   -1.000
 5516.00    2.09579   1.99235   -1.000
 5517.00    2.12488   2.01525   -1.000
 5518.00    2.14322   2.03673   -1.000
 5519.00    2.15120   2.05265   -1.000
 5520.00    2.14681   2.06041   -1.000
 5521.00    2.14416   2.06145   -1.000
 5522.00    2.14489   2.05974   -1.000
 5523.00    2.13676   2.05666   -1.000
 5524.00    2.12839   2.04866   -1.000
 5525.00    2.11765   2.03079   -1.000
 5526.00    2.08131   2.00318   -1.000
 5527.00    2.03799   1.97504   33.683
 5528.00    2.03159   1.96078   -1.000
 5529.00    2.05652   1.96910   -1.000
 5530.00    2.09014   1.99415   -1.000
 5531.00    2.12065   2.01951   -1.000
 5532.00    2.12502   2.03185   -1.000
 5533.00    2.09999   2.02990   32.418
 5534.00    2.08058   2.02191   32.655
 5535.00    2.08320   2.01721   32.659
 5536.00    2.08949   2.01996   32.448
 5537.00    2.10105   2.02862   32.276
 5538.00    2.11844   2.03997   -1.000
 5539.00    2.13890   2.05206   -1.000
 5540.00    2.15551   2.06267   -1.000
 5541.00    2.15728   2.06780   -1.000
 5542.00    2.15033   2.06492   -1.000
 5543.00    2.14345   2.05679   -1.000
 5544.00    2.12741   2.04964   -1.000
 5545.00    2.11593   2.04793   32.248
 5546.00    2.12552   2.05236   -1.000
 5547.00    2.14466   2.06209   -1.000
 5548.00    2.16726   2.07539   -1.000
 5549.00    2.17614   2.08813   -1.000
 5550.00    2.17153   2.09543   -1.000
 5551.00    2.17470   2.09520   -1.000
 5552.00    2.17508   2.08875   -1.000
 5553.00    2.16163   2.07952   -1.000
 5554.00    2.14899   2.07187   -1.000
 5555.00    2.14830   2.06878   -1.000
 5556.00    2.15222   2.06974   -1.000
 5557.00    2.16108   2.07207   -1.000
 5558.00    2.17584   2.07399   -1.000
 5559.00    2.17116   2.07512   -1.000
 5560.00    2.15807   2.07446   -1.000
 5561.00    2.15685   2.07006   -1.000
 5562.00    2.14852   2.06212   -1.000
 5563.00    2.13350   2.05380   -1.000
 5564.00    2.12532   2.04790   -1.000
 5565.00    2.12112   2.04430   -1.000
 5566.00    2.12011   2.04144   -1.000
 5567.00    2.12773   2.03882   -1.000
 5568.00    2.12602   2.03711   -1.000
 5569.00    2.11874   2.03681   -1.000
 5570.00    2.12288   2.03705   -1.000
 5571.00    2.12353   2.03602   -1.000
 5572.00    2.11474   2.03416   -1.000
 5573.00    2.11121   2.03522   -1.000
 5574.00    2.12606   2.04204   -1.000
 5575.00    2.15024   2.05285   -1.000
 5576.00    2.18435   2.06340   -1.000
 5577.00    2.23593   2.07174   -1.000
 5578.00    2.28506   2.07866   -1.000
 5579.00    2.29559   2.08420   -1.000
 5580.00    2.25239   2.08664   -1.000
 5581.00    2.19469   2.08508   -1.000
 5582.00    2.16791   2.08056   -1.000
 5583.00    2.17152   2.07366   -1.000
 5584.00    2.16980   2.06130   -1.000
 5585.00    2.14211   2.03853   -1.000
 5586.00    2.09569   2.00607   -1.000
 5587.00    2.05089   1.97379   -1.000
 5588.00    2.03662   1.95473   -1.000
 5589.00    2.05093   1.95568   -1.000
 5590.00    2.07764   1.97282   -1.000
 5591.00    2.10181   1.99503   -1.000
 5592.00    2.10516   2.01206   -1.000
 5593.00    2.10199   2.02202   -1.000
 5594.00    2.11067   2.03099   -1.000
 5595.00    2.13302   2.04368   -1.000
 5596.00    2.15724   2.05520   -1.000
 5597.00    2.15436   2.05603   -1.000
 5598.00    2.12944   2.04430   -1.000
 5599.00    2.11047   2.02697   -1.000
 5600.00    2.10032   2.01081   -1.000
 5601.00    2.09142   1.99982   -1.000
 5602.00    2.08574   1.99926   -1.000
 5603.00    2.10140   2.01490   -1.000
 5604.00    2.14418   2.04609   -1.000
 5605.00    2.19208   2.08277   -1.000
 5606.00    2.22264   2.11240   -1.000
 5607.00    2.22665   2.12922   -1.000
 5608.00    2.22498   2.13561   -1.000
 5609.00    2.22049   2.13736   -1.000
 5610.00    2.20576   2.13870   31.728
 5611.00    2.20367   2.13840   31.654
 5612.00    2.20852   2.12922   -1.000
 5613.00    2.19180   2.10387   -1.000
 5614.00    2.14619   2.06515   -1.000
 5615.00    2.10570   2.03000   -1.000
 5616.00    2.10806   2.01735   -1.000
 5617.00    2.14559   2.03005   -1.000
 5618.00    2.17420   2.05411   -1.000
 5619.00    2.18676   2.07476   -1.000
 5620.00    2.19864   2.08778   -1.000
 5621.00    2.20113   2.09437   -1.000
 5622.00    2.19469   2.09259   -1.000
 5623.00    2.17350   2.08040   -1.000
 5624.00    2.14560   2.06372   -1.000
 5625.00    2.14272   2.05462   -1.000
 5626.00    2.16321   2.06058   -1.000
 5627.00    2.18133   2.07795   -1.000
 5628.00    2.19624   2.09760   -1.000
 5629.00    2.21609   2.11368   -1.000
 5630.00    2.23225   2.12435   -1.000
 5631.00    2.23575   2.12878   -1.000
 5632.00    2.22810   2.12682   -1.000
 5633.00    2.22010   2.12001   -1.000
 5634.00    2.21849   2.11083   -1.000
 5635.00    2.21654   2.10081   -1.000
 5636.00    2.20149   2.09097   -1.000
 5637.00    2.18171   2.08339   -1.000
 5638.00    2.18030   2.07977   -1.000
 5639.00    2.18207   2.07865   -1.000
 5640.00    2.16902   2.07716   -1.000
 5641.00    2.16535   2.07533   -1.000
 5642.00    2.18059   2.07617   -1.000
 5643.00    2.18612   2.08136   -1.000
 5644.00    2.18784   2.08904   -1.000
 5645.00    2.20154   2.09637   -1.000
 5646.00    2.20660   2.10178   -1.000
 5647.00    2.20379   2.10450   -1.000
 5648.00    2.20891   2.10441   -1.000
 5649.00    2.21217   2.10330   -1.000
 5650.00    2.21371   2.10444   -1.000
 5651.00    2.22511   2.10903   -1.000
 5652.00    2.23490   2.11393   -1.000
 5653.00    2.23172   2.11436   -1.000
 5654.00    2.21589   2.10787   -1.000
 5655.00    2.19475   2.09397   -1.000
 5656.00    2.15841   2.07217   -1.000
 5657.00    2.11123   2.04549   33.897
 5658.00    2.08554   2.02419   34.705
 5659.00    2.10308   2.01905   -1.000
 5660.00    2.14705   2.02987   -1.000
 5661.00    2.16296   2.04561   -1.000
 5662.00    2.15360   2.05848   -1.000
 5663.00    2.15950   2.07114   -1.000
 5664.00    2.18530   2.08633   -1.000
 5665.00    2.20191   2.09848   -1.000
 5666.00    2.19878   2.10082   -1.000
 5667.00    2.18328   2.09472   -1.000
 5668.00    2.17078   2.08825   -1.000
 5669.00    2.17779   2.08821   -1.000
 5670.00    2.18651   2.09579   -1.000
 5671.00    2.19879   2.10859   -1.000
 5672.00    2.21467   2.12321   -1.000
 5673.00    2.21977   2.13582   -1.000
 5674.00    2.22477   2.14377   -1.000
 5675.00    2.22934   2.14744   -1.000
 5676.00    2.23413   2.14889   -1.000
 5677.00    2.24338   2.14881   -1.000
 5678.00    2.23937   2.14595   -1.000
 5679.00    2.22506   2.13907   -1.000
 5680.00    2.22353   2.12817   -1.000
 5681.00    2.22049   2.11409   -1.000
 5682.00    2.20479   2.09943   -1.000
 5683.00    2.19409   2.08931   -1.000
 5684.00    2.19481   2.08744   -1.000
 5685.00    2.20115   2.09099   -1.000
 5686.00    2.19977   2.09335   -1.000
 5687.00    2.18013   2.09229   -1.000
 5688.00    2.16638   2.09219   -1.000
 5689.00    2.18575   2.09845   -1.000
 5690.00    2.21365   2.11165   -1.000
 5691.00    2.23112   2.12743   -1.000
 5692.00    2.24654   2.14052   -1.000
 5693.00    2.25293   2.14798   -1.000
 5694.00    2.24841   2.15002   -1.000
 5695.00    2.24542   2.14841   -1.000
 5696.00    2.23464   2.14408   -1.000
 5697.00    2.21766   2.13671   -1.000
 5698.00    2.20728   2.12633   -1.000
 5699.00    2.19194   2.11448   -1.000
 5700.00    2.17298   2.10342   -1.000
 5701.00    2.15788   2.09575   33.428
 5702.00    2.15688   2.09428   33.349
 5703.00    2.17036   2.09882   -1.000
 5704.00    2.17411   2.10364   -1.000
 5705.00    2.16246   2.10150   32.914
 5706.00    2.14437   2.08972   33.286
 5707.00    2.11632   2.07147   33.855
 5708.00    2.09649   2.05285   34.441
 5709.00    2.09768   2.03966   34.788
 5710.00    2.10255   2.03627   -1.000
 5711.00    2.10386   2.04499   34.566
 5712.00    2.13512   2.06522   -1.000
 5713.00    2.17977   2.09245   -1.000
 5714.00    2.20419   2.11883   -1.000
 5715.00    2.22467   2.13819   -1.000
 5716.00    2.23674   2.15019   -1.000
 5717.00    2.24552   2.15804   -1.000
 5718.00    2.25029   2.16465   -1.000
 5719.00    2.24926   2.17176   -1.000
 5720.00    2.25186   2.17981   -1.000
 5721.00    2.26071   2.18784   -1.000
 5722.00    2.27053   2.19440   -1.000
 5723.00    2.28168   2.19796   -1.000
 5724.00    2.28001   2.19643   -1.000
 5725.00    2.26453   2.18840   -1.000
 5726.00    2.24332   2.17634   31.938
 5727.00    2.22045   2.16658   32.234
 5728.00    2.22252   2.16382   32.252
 5729.00    2.24186   2.16644   -1.000
 5730.00    2.24868   2.16927   -1.000
 5731.00    2.24364   2.17057   -1.000
 5732.00    2.24598   2.17374   -1.000
 5733.00    2.26116   2.18167   -1.000
 5734.00    2.27073   2.19159   -1.000
 5735.00    2.27036   2.19770   -1.000
 5736.00    2.26665   2.19769   31.631
 5737.00    2.25811   2.19419   31.699
 5738.00    2.24920   2.19093   31.761
 5739.00    2.24635   2.18952   31.803
 5740.00    2.24747   2.18921   31.865
 5741.00    2.24531   2.18880   31.923
 5742.00    2.24179   2.18885   31.918
 5743.00    2.24432   2.19138   31.856
 5744.00    2.24982   2.19662   31.719
 5745.00    2.25263   2.20083   31.504
 5746.00    2.25073   2.19964   31.524
 5747.00    2.24302   2.19386   31.797
 5748.00    2.24018   2.18976   32.017
 5749.00    2.25258   2.19124   31.956
 5750.00    2.25650   2.19360   31.797
 5751.00    2.24592   2.18817   31.895
 5752.00    2.23292   2.17285   32.244
 5753.00    2.21714   2.15665   32.607
 5754.00    2.21834   2.15241   -1.000
 5755.00    2.23956   2.16503   -1.000
 5756.00    2.26824   2.18748   -1.000
 5757.00    2.29080   2.20713   -1.000
 5758.00    2.29805   2.21454   -1.000
 5759.00    2.28860   2.20759   -1.000
 5760.00    2.26700   2.19087   -1.000
 5761.00    2.24922   2.17288   -1.000
 5762.00    2.24280   2.16301   -1.000
 5763.00    2.24582   2.16778   -1.000
 5764.00    2.26420   2.18601   -1.000
 5765.00    2.28530   2.20821   -1.000
 5766.00    2.29514   2.22429   -1.000
 5767.00    2.29866   2.23126   31.359
 5768.00    2.29298   2.23176   31.317
 5769.00    2.28002   2.22884   31.325
 5770.00    2.27103   2.22415   31.419
 5771.00    2.26896   2.21857   31.563
 5772.00    2.26924   2.21256   31.755
 5773.00    2.25809   2.20663   31.890
 5774.00    2.24106   2.20195   31.940
 5775.00    2.23824   2.20001   31.920
 5776.00    2.24082   2.20055   31.796
 5777.00    2.22441   2.19959   31.700
 5778.00    2.18785   2.19142   31.749
 5779.00    2.13220   2.17358   32.049
 5780.00    2.06995   2.14985   32.679
 5781.00    2.04497   2.12844   33.269
 5782.00    2.08045   2.11619   33.416
 5783.00    2.13866   2.11391   33.289
 5784.00    2.17988   2.11793   33.164
 5785.00    2.20481   2.12629   -1.000
 5786.00    2.22598   2.14017   -1.000
 5787.00    2.24752   2.15811   -1.000
 5788.00    2.25839   2.17420   -1.000
 5789.00    2.25898   2.18343   -1.000
 5790.00    2.25518   2.18639   32.060
 5791.00    2.24972   2.18868   32.109
 5792.00    2.25390   2.19610   31.931
 5793.00    2.26765   2.20933   31.679
 5794.00    2.27769   2.22299   31.480
 5795.00    2.26752   2.23016   31.380
 5796.00    2.23990   2.22836   31.480
 5797.00    2.21847   2.22246   31.689
 5798.00    2.22523   2.22124   31.704
 5799.00    2.25771   2.22936   31.395
 5800.00    2.29223   2.24308   30.964
 5801.00    2.30998   2.25404   30.724
 5802.00    2.30726   2.25580   30.848
 5803.00    2.29599   2.24817   31.117
 5804.00    2.28723   2.23694   31.362
 5805.00    2.28759   2.22935   31.559
 5806.00    2.29200   2.22869   31.579
 5807.00    2.29701   2.23337   31.469
 5808.00    2.29474   2.23989   31.362
 5809.00    2.28897   2.24588   31.319
 5810.00    2.29952   2.25052   31.308
 5811.00    2.31998   2.25299   31.229
 5812.00    2.33005   2.25186   -1.000
 5813.00    2.32446   2.24612   -1.000
 5814.00    2.31599   2.23683   -1.000
 5815.00    2.30800   2.22799   -1.000
 5816.00    2.30456   2.22543   -1.000
 5817.00    2.31674   2.23242   -1.000
 5818.00    2.33327   2.24595   -1.000
 5819.00    2.34425   2.25905   -1.000
 5820.00    2.35251   2.26680   -1.000
 5821.00    2.34766   2.26866   -1.000
 5822.00    2.34075   2.26686   -1.000
 5823.00    2.34481   2.26431   -1.000
 5824.00    2.35225   2.26316   -1.000
 5825.00    2.35661   2.26415   -1.000
 5826.00    2.35569   2.26684   -1.000
 5827.00    2.34921   2.27044   -1.000
 5828.00    2.35386   2.27430   -1.000
 5829.00    2.36013   2.27747   -1.000
 5830.00    2.35822   2.27883   -1.000
 5831.00    2.35470   2.27791   -1.000
 5832.00    2.35184   2.27492   -1.000
 5833.00    2.35372   2.27032   -1.000
 5834.00    2.35102   2.26550   -1.000
 5835.00    2.35007   2.26280   -1.000
 5836.00    2.35443   2.26322   -1.000
 5837.00    2.35765   2.26549   -1.000
 5838.00    2.35961   2.26865   -1.000
 5839.00    2.35715   2.27331   -1.000
 5840.00    2.35847   2.27946   -1.000
 5841.00    2.36571   2.28500   -1.000
 5842.00    2.36665   2.28723   -1.000
 5843.00    2.35753   2.28471   -1.000
 5844.00    2.34645   2.27776   30.709
 5845.00    2.33743   2.26803   -1.000
 5846.00    2.33355   2.25800   -1.000
 5847.00    2.34023   2.25040   -1.000
 5848.00    2.34234   2.24656   -1.000
 5849.00    2.34053   2.24475   -1.000
 5850.00    2.33689   2.24069   -1.000
 5851.00    2.31513   2.23112   -1.000
 5852.00    2.29724   2.21766   -1.000
 5853.00    2.29277   2.20572   -1.000
 5854.00    2.28670   2.19818   -1.000
 5855.00    2.28580   2.19136   -1.000
 5856.00    2.28166   2.18041   -1.000
 5857.00    2.27109   2.16820   -1.000
 5858.00    2.27486   2.16420   -1.000
 5859.00    2.29582   2.17355   -1.000
 5860.00    2.31938   2.19128   -1.000
 5861.00    2.32809   2.20819   -1.000
 5862.00    2.32912   2.21930   -1.000
 5863.00    2.33562   2.22491   -1.000
 5864.00    2.33786   2.22625   -1.000
 5865.00    2.33051   2.22385   -1.000
 5866.00    2.31835   2.22008   -1.000
 5867.00    2.31946   2.22011   -1.000
 5868.00    2.33575   2.22739   -1.000
 5869.00    2.34882   2.23928   -1.000
 5870.00    2.36246   2.24938   -1.000
 5871.00    2.36763   2.25347   -1.000
 5872.00    2.35871   2.25187   -1.000
 5873.00    2.36030   2.24756   -1.000
 5874.00    2.36888   2.24307   -1.000
 5875.00    2.36936   2.23913   -1.000
 5876.00    2.35627   2.23491   -1.000
 5877.00    2.34577   2.22887   -1.000
 5878.00    2.34646   2.22037   -1.000
 5879.00    2.33588   2.21090   -1.000
 5880.00    2.32487   2.20324   -1.000
 5881.00    2.32386   2.19883   -1.000
 5882.00    2.32845   2.19611   -1.000
 5883.00    2.32463   2.19234   -1.000
 5884.00    2.30103   2.18609   -1.000
 5885.00    2.25023   2.17412   -1.000
 5886.00    2.13736   2.14573   32.452
 5887.00    1.94308   2.08743   -1.000
 5888.00    1.71053   2.00097   -1.000
 5889.00    1.55249   1.91541   -1.000
 5890.00    1.57321   1.87106   -1.000
 5891.00    1.74368   1.88368   -1.000
 5892.00    1.90633   1.92821   37.115
 5893.00    1.91506   1.96095   35.996
 5894.00    1.80103   1.95838   -1.000
 5895.00    1.70814   1.93535   -1.000
 5896.00    1.74198   1.92811   -1.000
 5897.00    1.90648   1.95857   36.507
 5898.00    2.10366   2.01610   -1.000
 5899.00    2.22238   2.07534   -1.000
 5900.00    2.26379   2.12182   -1.000
 5901.00    2.29236   2.15466   -1.000
 5902.00    2.31331   2.17674   -1.000
 5903.00    2.32320   2.19025   -1.000
 5904.00    2.33800   2.19753   -1.000
 5905.00    2.34741   2.20162   -1.000
 5906.00    2.34319   2.20554   -1.000
 5907.00    2.34842   2.21089   -1.000
 5908.00    2.35920   2.21705   -1.000
 5909.00    2.35182   2.22220   -1.000
 5910.00    2.34205   2.22449   -1.000
 5911.00    2.34129   2.22194   -1.000
 5912.00    2.33032   2.21297   -1.000
 5913.00    2.31313   2.19883   -1.000
 5914.00    2.30884   2.18490   -1.000
 5915.00    2.30002   2.17763   -1.000
 5916.00    2.29384   2.17979   -1.000
 5917.00    2.29925   2.18931   -1.000
 5918.00    2.30291   2.20170   -1.000
 5919.00    2.31190   2.21251   -1.000
 5920.00    2.31439   2.21902   -1.000
 5921.00    2.31103   2.22130   -1.000
 5922.00    2.30724   2.22182   -1.000
 5923.00    2.30985   2.22369   -1.000
 5924.00    2.32369   2.22825   -1.000
 5925.00    2.33968   2.23415   -1.000
 5926.00    2.34937   2.23815   -1.000
 5927.00    2.35705   2.23715   -1.000
 5928.00    2.35558   2.23071   -1.000
 5929.00    2.35228   2.22291   -1.000
 5930.00    2.35144   2.21985   -1.000
 5931.00    2.35146   2.22335   -1.000
 5932.00    2.35489   2.22850   -1.000
 5933.00    2.34086   2.22954   -1.000
 5934.00    2.32327   2.22683   -1.000
 5935.00    2.31649   2.22609   -1.000
 5936.00    2.32904   2.23110   -1.000
 5937.00    2.34739   2.23922   -1.000
 5938.00    2.34875   2.24410   -1.000
 5939.00    2.34880   2.24171   -1.000
 5940.00    2.33650   2.23339   -1.000
 5941.00    2.31491   2.22449   -1.000
 5942.00    2.31295   2.22080   -1.000
 5943.00    2.32242   2.22459   -1.000
 5944.00    2.32632   2.23299   -1.000
 5945.00    2.33717   2.24007   -1.000
 5946.00    2.34223   2.24104   -1.000
 5947.00    2.33527   2.23551   -1.000
 5948.00    2.32946   2.22809   -1.000
 5949.00    2.32074   2.22443   -1.000
 5950.00    2.32264   2.22547   -1.000
 5951.00    2.33849   2.22747   -1.000
 5952.00    2.33589   2.22787   -1.000
 5953.00    2.32283   2.22783   -1.000
 5954.00    2.33447   2.22815   -1.000
 5955.00    2.34402   2.22726   -1.000
 5956.00    2.32809   2.22478   -1.000
 5957.00    2.32387   2.22416   -1.000
 5958.00    2.33632   2.22955   -1.000
 5959.00    2.35346   2.24098   -1.000
 5960.00    2.37224   2.25431   -1.000
 5961.00    2.38231   2.26486   -1.000
 5962.00    2.39088   2.27007   -1.000
 5963.00    2.39180   2.26971   -1.000
 5964.00    2.38356   2.26535   -1.000
 5965.00    2.37213   2.26005   -1.000
 5966.00    2.35870   2.25753   -1.000
 5967.00    2.35423   2.25969   -1.000
 5968.00    2.35895   2.26531   -1.000
 5969.00    2.37160   2.27181   -1.000
 5970.00    2.38147   2.27748   -1.000
 5971.00    2.38487   2.28105   -1.000
 5972.00    2.38604   2.28113   -1.000
 5973.00    2.37800   2.27659   -1.000
 5974.00    2.36459   2.26716   -1.000
 5975.00    2.35194   2.25441   -1.000
 5976.00    2.33793   2.24244   -1.000
 5977.00    2.33550   2.23633   -1.000
 5978.00    2.34669   2.23859   -1.000
 5979.00    2.35109   2.24720   -1.000
 5980.00    2.36013   2.25605   -1.000
 5981.00    2.37216   2.25828   -1.000
 5982.00    2.36521   2.25111   -1.000
 5983.00    2.34703   2.23861   -1.000
 5984.00    2.33991   2.22933   -1.000
 5985.00    2.34149   2.22966   -1.000
 5986.00    2.35452   2.23891   -1.000
 5987.00    2.36904   2.25118   -1.000
 5988.00    2.37097   2.26103   -1.000
 5989.00    2.36558   2.26647   -1.000
 5990.00    2.36170   2.26857   -1.000
 5991.00    2.36602   2.27089   -1.000
 5992.00    2.37319   2.27699   -1.000
 5993.00    2.38136   2.28614   -1.000
 5994.00    2.39340   2.29283   -1.000
 5995.00    2.38993   2.29211   -1.000
 5996.00    2.38065   2.28465   -1.000
 5997.00    2.37532   2.27600   -1.000
 5998.00    2.37651   2.27146   -1.000
 5999.00    2.37525   2.27177   -1.000
 6000.00    2.37701   2.27341   -1.000
 6001.00    2.38022   2.27280   -1.000
 6002.00    2.36656   2.26970   -1.000
 6003.00    2.36098   2.26661   -1.000
 6004.00    2.37209   2.26459   -1.000
 6005.00    2.36563   2.26072   -1.000
 6006.00    2.34451   2.25231   -1.000
 6007.00    2.32728   2.24276   -1.000
 6008.00    2.31384   2.24006   -1.000
 6009.00    2.31852   2.24797   -1.000
 6010.00    2.33292   2.26074   -1.000
 6011.00    2.33958   2.26880   -1.000
 6012.00    2.34244   2.26879   -1.000
 6013.00    2.35343   2.26515   -1.000
 6014.00    2.36280   2.26298   -1.000
 6015.00    2.36549   2.26283   -1.000
 6016.00    2.36851   2.26244   -1.000
 6017.00    2.36872   2.26060   -1.000
 6018.00    2.36676   2.25745   -1.000
 6019.00    2.36017   2.25335   -1.000
 6020.00    2.34562   2.24980   -1.000
 6021.00    2.34232   2.24941   -1.000
 6022.00    2.35485   2.25334   -1.000
 6023.00    2.36533   2.26076   -1.000
 6024.00    2.36674   2.27042   -1.000
 6025.00    2.37051   2.28110   -1.000
 6026.00    2.38600   2.29133   -1.000
 6027.00    2.39171   2.30031   -1.000
 6028.00    2.39193   2.30812   -1.000
 6029.00    2.40578   2.31450   -1.000
 6030.00    2.40757   2.31906   -1.000
 6031.00    2.39877   2.32260   -1.000
 6032.00    2.40610   2.32634   -1.000
 6033.00    2.41199   2.33043   -1.000
 6034.00    2.40467   2.33407   -1.000
 6035.00    2.40326   2.33630   -1.000
 6036.00    2.40953   2.33617   -1.000
 6037.00    2.41253   2.33332   -1.000
 6038.00    2.40319   2.32840   -1.000
 6039.00    2.39597   2.32288   -1.000
 6040.00    2.39044   2.31830   -1.000
 6041.00    2.38058   2.31567   -1.000
 6042.00    2.39100   2.31593   -1.000
 6043.00    2.40697   2.32067   -1.000
 6044.00    2.40612   2.32987   -1.000
 6045.00    2.40372   2.34013   -1.000
 6046.00    2.41006   2.34766   -1.000
 6047.00    2.41614   2.35155   -1.000
 6048.00    2.41681   2.35280   -1.000
 6049.00    2.41632   2.35241   -1.000
 6050.00    2.41999   2.35093   -1.000
 6051.00    2.43115   2.34810   -1.000
 6052.00    2.43181   2.34316   -1.000
 6053.00    2.41986   2.33612   -1.000
 6054.00    2.41711   2.32820   -1.000
 6055.00    2.41037   2.32119   -1.000
 6056.00    2.40324   2.31720   -1.000
 6057.00    2.40366   2.31781   -1.000
 6058.00    2.40584   2.32262   -1.000
 6059.00    2.41226   2.32886   -1.000
 6060.00    2.41358   2.33239   -1.000
 6061.00    2.41910   2.32931   -1.000
 6062.00    2.40005   2.31813   -1.000
 6063.00    2.15198   2.30169   -1.000
 6064.00    2.04899   2.28736   -1.000
 6065.00    2.29112   2.28377   39.416
 6066.00    2.08612   2.29484   -1.000
 6067.00    1.35871   2.31603   -1.000
 6068.00    1.21550   2.33797   -1.000
 6069.00    2.03211   2.35383   -1.000
 6070.00    2.44907   2.36252   -1.000
 6071.00    2.47191   2.36590   -1.000
 6072.00    2.50211   2.36600   -1.000
 6073.00    2.53961   2.36475   -1.000
 6074.00    2.46084   2.36300   -1.000
 6075.00    2.42755   2.35896   -1.000
 6076.00    2.42751   2.35058   -1.000
 6077.00    2.41276   2.33914   -1.000
 6078.00    2.39952   2.32847   -1.000
 6079.00    2.39188   2.32094   -1.000
 6080.00    2.38762   2.31571   -1.000
 6081.00    2.39173   2.31119   -1.000
 6082.00    2.38342   2.30789   -1.000
 6083.00    2.37939   2.30735   -1.000
 6084.00    2.38181   2.30975   -1.000
 6085.00    2.37800   2.31408   -1.000
 6086.00    2.37719   2.31920   32.757
 6087.00    2.39440   2.32325   -1.000
 6088.00    2.40586   2.32366   -1.000
 6089.00    2.39126   2.31954   -1.000
 6090.00    2.37369   2.31357   32.928
 6091.00    2.36870   2.31036   32.983
 6092.00    2.37644   2.31279   -1.000
 6093.00    2.38966   2.32032   -1.000
 6094.00    2.39893   2.33002   -1.000
 6095.00    2.40905   2.33870   -1.000
 6096.00    2.41905   2.34488   -1.000
 6097.00    2.41583   2.34884   -1.000
 6098.00    2.40802   2.34981   32.374
 6099.00    2.40199   2.34346   32.381
 6100.00    2.38542   2.32493   32.575
 6101.00    2.35567   2.29656   33.200
 6102.00    2.32421   2.27120   33.905
 6103.00    2.32011   2.26361   34.027
 6104.00    2.34834   2.27682   -1.000
 6105.00    2.37754   2.30023   -1.000
 6106.00    2.38880   2.32116   -1.000
 6107.00    2.38440   2.33482   32.667
 6108.00    2.37960   2.34312   32.784
 6109.00    2.37696   2.34830   32.812
 6110.00    2.38278   2.35077   32.763
 6111.00    2.39589   2.35161   32.652
 6112.00    2.39931   2.35325   32.572
 6113.00    2.40470   2.35653   32.493
 6114.00    2.41278   2.35935   32.352
 6115.00    2.41147   2.35949   32.385
 6116.00    2.40326   2.35686   32.570
 6117.00    2.39622   2.35102   32.706
 6118.00    2.38301   2.33882   32.794
 6119.00    2.35948   2.31771   33.121
 6120.00    2.33408   2.29114   33.601
 6121.00    2.31579   2.26918   33.972
 6122.00    2.30486   2.26268   34.141
 6123.00    2.31501   2.27437   33.855
 6124.00    2.34761   2.29545   33.323
 6125.00    2.36679   2.31320   33.116
 6126.00    2.35399   2.32135   33.236
 6127.00    2.35256   2.32253   33.324
 6128.00    2.35540   2.32418   33.247
 6129.00    2.36394   2.33249   33.076
 6130.00    2.38410   2.34701   32.769
 6131.00    2.39672   2.36039   32.578
 6132.00    2.39624   2.36347   32.593
 6133.00    2.37384   2.34949   32.785
 6134.00    2.33005   2.31654   33.328
 6135.00    2.28704   2.27203   34.231
 6136.00    2.24483   2.23416   35.187
 6137.00    2.23612   2.22157   35.670
 6138.00    2.26783   2.23689   35.217
 6139.00    2.30338   2.26421   34.212
 6140.00    2.31931   2.28562   33.536
 6141.00    2.30686   2.29786   33.421
 6142.00    2.30550   2.30962   33.504
 6143.00    2.33707   2.32618   33.359
 6144.00    2.37553   2.34285   32.961
 6145.00    2.39051   2.35191   32.736
 6146.00    2.38684   2.35062   32.812
 6147.00    2.37772   2.34172   33.004
 6148.00    2.36591   2.33058   33.231
 6149.00    2.35716   2.32254   33.451
 6150.00    2.35210   2.32083   33.547
 6151.00    2.35033   2.32481   33.473
 6152.00    2.35729   2.33007   33.287
 6153.00    2.36905   2.33144   33.142
 6154.00    2.37249   2.32724   33.276
 6155.00    2.37016   2.32010   33.527
 6156.00    2.36561   2.31303   33.614
 6157.00    2.35390   2.30495   33.686
 6158.00    2.34327   2.29002   33.944
 6159.00    2.31669   2.26169   34.463
 6160.00    2.27609   2.22030   35.333
 6161.00    2.23560   2.17810   36.414
 6162.00    2.20648   2.15350   37.115
 6163.00    2.21013   2.15681   36.967
 6164.00    2.24415   2.18192   36.120
 6165.00    2.27274   2.21228   35.315
 6166.00    2.28532   2.23293   35.005
 6167.00    2.28148   2.23767   34.999
 6168.00    2.25771   2.23026   35.286
 6169.00    2.23716   2.22224   35.724
 6170.00    2.24337   2.22513   35.762
 6171.00    2.26672   2.24113   35.237
 6172.00    2.29181   2.26222   34.622
 6173.00    2.30442   2.27930   34.413
 6174.00    2.30696   2.28960   34.481
 6175.00    2.31653   2.29538   34.446
 6176.00    2.32244   2.29973   34.363
 6177.00    2.31795   2.30458   34.286
 6178.00    2.31881   2.31033   34.152
 6179.00    2.32647   2.31634   34.000
 6180.00    2.33012   2.32236   33.889
 6181.00    2.33676   2.32841   33.756
 6182.00    2.34602   2.33321   33.630
 6183.00    2.35037   2.33432   33.628
 6184.00    2.34718   2.33008   33.732
 6185.00    2.34275   2.32062   33.928
 6186.00    2.33025   2.30756   34.262
 6187.00    2.31258   2.29261   34.634
 6188.00    2.29782   2.27585   34.975
 6189.00    2.26822   2.25685   35.266
 6190.00    2.24109   2.23934   35.618
 6191.00    2.23898   2.23216   35.986
 6192.00    2.25869   2.24195   35.877
 6193.00    2.30400   2.26555   35.181
 6194.00    2.33754   2.29219   34.424
 6195.00    2.33793   2.31214   34.067
 6196.00    2.33907   2.32115   33.960
 6197.00    2.33536   2.31921   34.054
 6198.00    2.31772   2.30996   34.385
 6199.00    2.29406   2.30098   34.738
 6200.00    2.27476   2.30015   34.851
 6201.00    2.27969   2.30936   34.634
 6202.00    2.29798   2.32361   34.217
 6203.00    2.30652   2.33636   33.950
 6204.00    2.31025   2.34462   33.933
 6205.00    2.32267   2.34927   33.909
 6206.00    2.33384   2.35226   33.873
 6207.00    2.34360   2.35398   33.944
 6208.00    2.34957   2.35296   34.019
 6209.00    2.34755   2.34729   34.079
 6210.00    2.34215   2.33560   34.327
 6211.00    2.31996   2.31750   34.630
 6212.00    2.28151   2.29474   34.928
 6213.00    2.26059   2.27242   35.374
 6214.00    2.26499   2.25709   35.839
 6215.00    2.27436   2.25202   36.049
 6216.00    2.28764   2.25440   35.840
 6217.00    2.30078   2.25797   35.473
 6218.00    2.29693   2.25850   35.554
 6219.00    2.28615   2.25716   35.657
 6220.00    2.28619   2.25841   35.419
 6221.00    2.30123   2.26444   35.391
 6222.00    2.32813   2.27293   36.815
 6223.00    2.28951   2.28032   37.788
 6224.00    2.10297   2.28535   -1.000
 6225.00    2.11049   2.28799   -1.000
 6226.00    2.32725   2.28638   35.141
 6227.00    2.32188   2.27681   35.238
 6228.00    2.30416   2.25745   35.594
 6229.00    2.28643   2.23278   36.154
 6230.00    2.26132   2.21370   36.693
 6231.00    2.25593   2.21073   36.840
 6232.00    2.27135   2.22623   36.448
 6233.00    2.29827   2.25295   35.818
 6234.00    2.32745   2.27914   35.177
 6235.00    2.34185   2.29497   34.817
 6236.00    2.34258   2.29641   34.881
 6237.00    2.32295   2.28618   35.202
 6238.00    2.30458   2.27117   35.565
 6239.00    2.29184   2.25794   35.935
 6240.00    2.27035   2.24921   36.205
 6241.00    2.26028   2.24326   36.255
 6242.00    2.26040   2.23674   36.368
 6243.00    2.25141   2.22898   36.647
 6244.00    2.24317   2.22338   36.753
 6245.00    2.25584   2.22475   36.605
 6246.00    2.27755   2.23568   36.294
 6247.00    2.30285   2.25403   35.875
 6248.00    2.31332   2.27265   35.451
 6249.00    2.30866   2.28247   35.252
 6250.00    2.29670   2.27813   35.418
 6251.00    2.26567   2.26171   35.932
 6252.00    2.23935   2.24171   36.515
 6253.00    2.22225   2.22682   36.845
 6254.00    2.22533   2.21953   37.012
 6255.00    2.22872   2.21610   37.047
 6256.00    2.21221   2.21290   37.195
 6257.00    2.18741   2.21134   37.560
 6258.00    2.18812   2.21642   37.649
 6259.00    2.21924   2.23115   37.252
 6260.00    2.24719   2.25328   36.665
 6261.00    2.26502   2.27688   36.145
 6262.00    2.27821   2.29567   35.624
 6263.00    2.29539   2.30588   35.246
 6264.00    2.29719   2.30836   35.321
 6265.00    2.28493   2.30787   35.611
 6266.00    2.28680   2.30865   35.648
 6267.00    2.29357   2.31057   35.410
 6268.00    2.27745   2.31106   35.333
 6269.00    2.26884   2.30981   35.514
 6270.00    2.28544   2.30942   35.585
 6271.00    2.29179   2.31124   35.484
 6272.00    2.29562   2.31277   35.377
 6273.00    2.30452   2.30967   35.382
 6274.00    2.30035   2.29938   35.568
 6275.00    2.27962   2.28273   35.851
 6276.00    2.24375   2.26284   36.278
 6277.00    2.18868   2.24338   37.045
 6278.00    2.13726   2.22777   37.881
 6279.00    2.10681   2.21941   -1.000
 6280.00    2.08050   2.22107   -1.000
 6281.00    2.06041   2.23354   -1.000
 6282.00    2.04411   2.25408   -1.000
 6283.00    2.03711   2.27754   -1.000
 6284.00    2.05404   2.29928   -1.000
 6285.00    2.09356   2.31718   -1.000
 6286.00    2.15127   2.33090   -1.000
 6287.00    2.21589   2.33968   -1.000
 6288.00    2.26295   2.34195   35.081
 6289.00    2.27514   2.33732   35.146
 6290.00    2.27326   2.32832   35.404
 6291.00    2.27408   2.31920   35.694
 6292.00    2.27542   2.31267   35.863
 6293.00    2.27388   2.30808   35.904
 6294.00    2.27663   2.30241   35.954
 6295.00    2.27535   2.29366   36.123
 6296.00    2.26063   2.28360   36.399
 6297.00    2.25092   2.27633   36.546
 6298.00    2.26079   2.27360   36.536
 6299.00    2.28191   2.27289   36.428
 6300.00    2.31026   2.27155   36.263
 6301.00    2.31189   2.27134   36.324
 6302.00    2.29124   2.27665   36.719
 6303.00    2.27535   2.28913   36.797
 6304.00    2.27304   2.30572   36.305
 6305.00    2.27537   2.32235   35.778
 6306.00    2.27426   2.33685   35.413
 6307.00    2.28797   2.34786   35.109
 6308.00    2.30329   2.35367   34.911
 6309.00    2.29438   2.35351   34.973
 6310.00    2.27456   2.34898   35.180
 6311.00    2.26844   2.34252   35.375
 6312.00    2.26263   2.33523   35.508
 6313.00    2.25259   2.32678   35.602
 6314.00    2.25229   2.31725   35.766
 6315.00    2.24519   2.30801   36.025
 6316.00    2.23707   2.30090   36.064
 6317.00    2.23772   2.29786   36.026
 6318.00    2.23723   2.30110   36.032
 6319.00    2.24294   2.31168   36.003
 6320.00    2.25438   2.32705   35.713
 6321.00    2.27339   2.34265   35.300
 6322.00    2.29343   2.35620   35.062
 6323.00    2.30241   2.36797   34.948
 6324.00    2.30497   2.37751   34.797
 6325.00    2.31323   2.38353   34.640
 6326.00    2.31539   2.38598   34.580
 6327.00    2.30698   2.38649   34.494
 6328.00    2.31103   2.38685   34.405
 6329.00    2.31871   2.38812   34.450
 6330.00    2.31941   2.39074   34.471
 6331.00    2.32598   2.39347   34.426
 6332.00    2.33343   2.39228   34.322
 6333.00    2.32266   2.38267   34.341
 6334.00    2.30036   2.36533   34.441
 6335.00    2.24210   2.34815   34.858
 6336.00    2.17224   2.34048   -1.000
 6337.00    2.21872   2.34583   -1.000
 6338.00    2.30015   2.36009   34.887
 6339.00    2.31561   2.37597   34.515
 6340.00    2.31882   2.38746   34.232
 6341.00    2.31758   2.39114   34.079
 6342.00    2.31489   2.38722   34.000
 6343.00    2.29823   2.37992   34.170
 6344.00    2.28452   2.37520   34.378
 6345.00    2.29003   2.37690   34.340
 6346.00    2.30171   2.38511   34.195
 6347.00    2.30912   2.39745   33.979
 6348.00    2.32180   2.41091   33.788
 6349.00    2.32618   2.42226   33.730
 6350.00    2.32641   2.42844   33.708
 6351.00    2.32745   2.42771   33.676
 6352.00    2.32270   2.42038   33.768
 6353.00    2.31211   2.40882   33.925
 6354.00    2.29030   2.39673   34.189
 6355.00    2.27559   2.38669   34.555
 6356.00    2.28567   2.37809   34.714
 6357.00    2.29155   2.36856   34.752
 6358.00    2.27434   2.35774   34.997
 6359.00    2.25929   2.34786   35.302
 6360.00    2.25789   2.34088   35.298
 6361.00    2.25783   2.33743   35.153
 6362.00    2.26691   2.33832   35.080
 6363.00    2.27908   2.34473   35.012
 6364.00    2.28820   2.35644   34.833
 6365.00    2.29625   2.37128   34.600
 6366.00    2.30124   2.38619   34.396
 6367.00    2.29960   2.39836   34.198
 6368.00    2.29205   2.40590   33.973
 6369.00    2.28433   2.40921   -1.000
 6370.00    2.28495   2.41127   -1.000
 6371.00    2.29468   2.41568   33.749
 6372.00    2.30428   2.42317   33.617
 6373.00    2.30233   2.43120   -1.000
 6374.00    2.29980   2.43633   -1.000
 6375.00    2.29409   2.43678   -1.000
 6376.00    2.28476   2.43287   -1.000
 6377.00    2.27746   2.42595   -1.000
 6378.00    2.26783   2.41795   -1.000
 6379.00    2.25903   2.41122   -1.000
 6380.00    2.25958   2.40759   -1.000
 6381.00    2.25456   2.40734   -1.000
 6382.00    2.25895   2.40960   -1.000
 6383.00    2.26551   2.41303   -1.000
 6384.00    2.26588   2.41696   -1.000
 6385.00    2.26503   2.42147   -1.000
 6386.00    2.25598   2.42625   -1.000
 6387.00    2.23575   2.42996   -1.000
 6388.00    2.23065   2.43075   -1.000
 6389.00    2.22698   2.42676   -1.000
 6390.00    2.20393   2.41636   -1.000
 6391.00    2.17928   2.40021   -1.000
 6392.00    2.15814   2.38398   -1.000
 6393.00    2.13523   2.37684   -1.000
 6394.00    2.12764   2.38399   -1.000
 6395.00    2.14169   2.40044   -1.000
 6396.00    2.15216   2.41357   -1.000
 6397.00    2.13967   2.41298   -1.000
 6398.00    2.11667   2.39939   -1.000
 6399.00    2.08200   2.38411   -1.000
 6400.00    2.06003   2.38100   -1.000
 6401.00    2.07809   2.39535   -1.000
 6402.00    2.10196   2.41982   -1.000
 6403.00    2.11549   2.44116   -1.000
 6404.00    2.11167   2.45012   -1.000
 6405.00    2.08908   2.44588   -1.000
 6406.00    2.07027   2.43370   -1.000
 6407.00    2.04641   2.42140   -1.000
 6408.00    2.02644   2.41448   -1.000
 6409.00    2.01827   2.41307   -1.000
 6410.00    1.99874   2.41365   -1.000
 6411.00    1.98003   2.41413   -1.000
 6412.00    1.96924   2.41561   -1.000
 6413.00    1.95999   2.41938   -1.000
 6414.00    1.95511   2.42441   -1.000
 6415.00    1.95859   2.42879   -1.000
 6416.00    1.95123   2.43029   -1.000
 6417.00    1.92665   2.42644   -1.000
 6418.00    1.90702   2.41613   -1.000
 6419.00    1.88412   2.40325   -1.000
 6420.00    1.85520   2.39593   -1.000
 6421.00    1.83503   2.40094   -1.000
 6422.00    1.82550   2.41778   -1.000
 6423.00    1.82758   2.43931   -1.000
 6424.00    1.83042   2.45772   -1.000
 6425.00    1.81658   2.46959   -1.000
 6426.00    1.80324   2.47391   -1.000
 6427.00    1.78371   2.46894   -1.000
 6428.00    1.75757   2.45372   -1.000
