###################################################################
## OUTPUT of StarlightChains_v04.for    [Cid@UFSC - 01/Apr/2007] ##
###################################################################

## Some input info
NGC6752_a_1.cxt                          [arq_obs]
Base.BC03.S                              [arq_base]
NGC6752_a_1.msk                          [arq_masks]
StCv04.C11.config                        [arq_config]
  150                                    [N_base]
    0                                    [N_YAV_components = # of components with extra extinction!]
    0                                    [i_FitPowerLaw (1/0 = Yes/No)]
-9.99                                    [alpha_PowerLaw]
CCM                                      [red_law_option]
 1.458241                                [q_norm = A(l_norm)/A(V)]

## (Re)Sampling Parameters
 3359.00                                 [l_ini (A)]
 6428.00                                 [l_fin (A)]
    1.00                                 [dl    (A)]     (OBS: dl_cushion =    50.00 A)

## Normalization info
 4020.00                                 [l_norm (A) - for base]
 4010.00                                 [llow_norm (A) - window for f_obs]
 4060.00                                 [lupp_norm (A) - window for f_obs]
7.975786E-14                             [fobs_norm (in input units)]

## S/N
 4730.00                                 [llow_SN (A) - window for S/N]
 4780.00                                 [lupp_SN (A) - window for S/N]
 127.889                                 [S/N in S/N window]
 126.487                                 [S/N in norm. window]
 304.987                                 [S/N_err in S/N window]
 301.644                                 [S/N_err in norm. window]
  1.0000                                 [fscale_chi2]

## etc...
  2147483589                             [idum_orig]
  3069                                   [NOl_eff]
   938                                   [Nl_eff]
  2131    NSIGMA                         [Ntot_cliped & clip_method]
  1648220                                [Nglobal_steps]
   7                                     [N_chains]
  17                                     [NEX0s_base = N_base in EX0s-fits]
 0   0   1      258   2.0   6.334E+02    [Clip-Bug, RC-Crash & Burn-In warning-flags, n_censored_weights, wei_nsig_threshold & wei_limit]
    80     80.119     80.107      0.012  [idt_all, wdt_TotTime, wdt_UsrTime & wdt_SysTime (sec)]

## Synthesis Results - Best model ##

 2.88018E+00                             [chi2/Nl_eff]
     0.62140                             [adev (%)]

   100.79288                             [sum-of-x (%)]
 9.83002E-14                             [Flux_tot (units of input spectrum!)]
 1.05441E-09                             [Mini_tot (???)]
 5.46702E-10                             [Mcor_tot (???)]

 -16.98                                  [v0_min  (km/s)]
  66.68                                  [vd_min  (km/s)]
 0.1498                                  [AV_min  (mag)]
 0.0000                                  [YAV_min (mag)]

# j     x_j(%)      Mini_j(%)     Mcor_j(%)     age_j(yr)     Z_j      (L/M)_j    YAV?  Mstars   component_j        a/Fe...       SSP_chi2r SSP_adev(%)   SSP_AV   SSP_x(%)
  1      0.0000     0.0000E+00    0.0000E+00    1.000000E+06  0.00010  8.160E-03    0   1.0000   age020_m22            0.0000     1.7174E+03    12.4568   3.5263    73.7596
  2     15.4717     3.0070E-02    5.7996E-02    3.160000E+06  0.00010  4.759E-02    0   1.0000   age045_m22            0.0000     1.9707E+02     4.3713   1.4273    95.3502
  3      0.0000     0.0000E+00    0.0000E+00    5.010000E+06  0.00010  1.932E-02    0   0.9582   age055_m22            0.0000     1.6227E+03    12.5047   1.8152    79.7629
  4      0.0000     0.0000E+00    0.0000E+00    6.610000E+06  0.00010  9.973E-03    0   0.9297   age061_m22            0.0000     1.7348E+03    12.7682   3.4848    76.4741
  5      0.0000     0.0000E+00    0.0000E+00    8.710000E+06  0.00010  7.690E-03    0   0.9030   age067_m22            0.0000     1.6380E+03    12.4283   3.4752    76.9587
  6      0.0000     0.0000E+00    0.0000E+00    1.000000E+07  0.00010  6.375E-03    0   0.8902   age070_m22            0.0000     1.5595E+03    12.1406   3.4870    77.2071
  7      0.0000     0.0000E+00    0.0000E+00    1.445000E+07  0.00010  4.874E-03    0   0.8589   age078_m22            0.0000     1.1286E+03    10.4326   3.2920    80.3676
  8      0.0000     0.0000E+00    0.0000E+00    2.512000E+07  0.00010  4.103E-03    0   0.8174   age090_m22            0.0000     4.3070E+02     6.7394   2.8425    87.9378
  9      0.0000     0.0000E+00    0.0000E+00    4.000000E+07  0.00010  3.654E-03    0   0.7830   age104_m22            0.0000     2.1649E+02     4.2708   2.5004    94.0808
 10      0.0000     0.0000E+00    0.0000E+00    5.500000E+07  0.00010  3.093E-03    0   0.7597   age110_m22            0.0000     2.0030E+02     3.5041   2.3807    96.2386
 11      0.0000     0.0000E+00    0.0000E+00    1.015200E+08  0.00010  2.431E-03    0   0.7138   age116_m22            0.0000     2.9956E+02     3.3450   2.0066   100.1415
 12      0.0000     0.0000E+00    0.0000E+00    1.609000E+08  0.00010  1.319E-03    0   0.6775   age120_m22            0.0000     2.7276E+02     3.0219   1.5188   102.7323
 13      0.0000     0.0000E+00    0.0000E+00    2.861200E+08  0.00010  1.075E-03    0   0.6412   age125_m22            0.0000     1.1460E+03     7.4118   1.5188   108.7857
 14      0.0000     0.0000E+00    0.0000E+00    5.088000E+08  0.00010  7.183E-04    0   0.6083   age130_m22            0.0000     1.5190E+03     8.9473   1.2712   111.1652
 15      0.0000     0.0000E+00    0.0000E+00    9.047900E+08  0.00010  4.524E-04    0   0.5785   age135_m22            0.0000     1.5498E+03     9.2319   1.0710   112.4817
 16      0.0000     0.0000E+00    0.0000E+00    1.278050E+09  0.00010  3.018E-04    0   0.5588   age138_m22            0.0000     5.8229E+02     5.6419   0.5832   108.7570
 17      0.0000     0.0000E+00    0.0000E+00    1.434000E+09  0.00010  2.691E-04    0   0.5532   age139_m22            0.0000     4.3447E+02     4.9215   0.4379   107.7075
 18      0.0000     0.0000E+00    0.0000E+00    2.500000E+09  0.00010  1.582E-04    0   0.5296   age150_m22            0.0000     3.2747E+02     3.9900   0.3377   107.9971
 19      0.0000     0.0000E+00    0.0000E+00    4.250000E+09  0.00010  1.007E-04    0   0.5110   age158_m22            0.0000     1.0856E+02     2.2881   0.2124   105.1564
 20      0.0000     0.0000E+00    0.0000E+00    6.250000E+09  0.00010  6.869E-05    0   0.4985   age166_m22            0.0000     1.3997E+01     1.0085   0.1821   101.2227
 21      0.0041     6.5190E-03    6.1998E-03    7.500000E+09  0.00010  5.873E-05    0   0.4931   age171_m22            0.0000     1.3317E+01     1.0677   0.1763   100.4630
 22      0.0000     0.0000E+00    0.0000E+00    1.000000E+10  0.00010  4.481E-05    0   0.4854   age181_m22            0.0000     1.1827E+01     1.0362   0.1379   100.1024
 23      0.0000     0.0000E+00    0.0000E+00    1.300000E+10  0.00010  3.489E-05    0   0.4791   age193_m22            0.0000     1.0117E+01     0.9887   0.0819    99.4889
 24      0.0254     7.7275E-02    7.1032E-02    1.500000E+10  0.00010  3.035E-05    0   0.4766   age201_m22            0.0000     1.0286E+01     0.9935   0.0436    99.2353
 25      0.0000     0.0000E+00    0.0000E+00    1.800000E+10  0.00010  2.510E-05    0   0.4735   age213_m22            0.0000     1.4295E+01     1.0951  -0.0215    98.4414
 26      0.0000     0.0000E+00    0.0000E+00    1.000000E+06  0.00040  8.458E-03    0   1.0000   age020_m32            0.0000     1.7032E+03    12.4677   3.5418    74.3966
 27      0.0000     0.0000E+00    0.0000E+00    3.160000E+06  0.00040  3.973E-02    0   1.0000   age045_m32            0.0000     5.0498E+02     7.2068   2.7384    87.8658
 28      0.0000     0.0000E+00    0.0000E+00    5.010000E+06  0.00040  1.935E-02    0   0.9532   age055_m32            0.0000     1.2915E+03    11.3441   3.0111    80.7134
 29      0.0000     0.0000E+00    0.0000E+00    6.610000E+06  0.00040  1.204E-02    0   0.9243   age061_m32            0.0000     1.4273E+03    11.6805   3.3340    78.6696
 30      0.0000     0.0000E+00    0.0000E+00    8.710000E+06  0.00040  9.433E-03    0   0.9001   age067_m32            0.0000     1.2660E+03    11.0515   3.3016    79.7026
 31      0.0000     0.0000E+00    0.0000E+00    1.000000E+07  0.00040  8.053E-03    0   0.8877   age070_m32            0.0000     1.2038E+03    10.7847   3.2632    80.2167
 32      0.0000     0.0000E+00    0.0000E+00    1.445000E+07  0.00040  7.027E-03    0   0.8578   age078_m32            0.0000     6.8189E+02     8.4364   2.7110    86.1306
 33      0.0000     0.0000E+00    0.0000E+00    2.512000E+07  0.00040  4.707E-03    0   0.8166   age090_m32            0.0000     3.5993E+02     6.2924   2.3894    90.7807
 34      0.0000     0.0000E+00    0.0000E+00    4.000000E+07  0.00040  3.714E-03    0   0.7827   age104_m32            0.0000     2.0078E+02     4.3354   2.1559    95.1871
 35      0.0000     0.0000E+00    0.0000E+00    5.500000E+07  0.00040  2.982E-03    0   0.7593   age110_m32            0.0000     1.8844E+02     3.6747   2.0797    96.9206
 36      0.0000     0.0000E+00    0.0000E+00    1.015200E+08  0.00040  2.188E-03    0   0.7143   age116_m32            0.0000     4.8754E+02     4.1371   1.7539   103.4292
 37      0.0000     0.0000E+00    0.0000E+00    1.609000E+08  0.00040  1.690E-03    0   0.6856   age120_m32            0.0000     8.6254E+02     5.8858   1.5114   107.3884
 38      0.0000     0.0000E+00    0.0000E+00    2.861200E+08  0.00040  1.152E-03    0   0.6509   age125_m32            0.0000     1.2390E+03     7.8193   1.2652   110.1442
 39      0.0000     0.0000E+00    0.0000E+00    5.088000E+08  0.00040  7.331E-04    0   0.6182   age130_m32            0.0000     1.4045E+03     8.6941   1.0936   111.1861
 40      0.0000     0.0000E+00    0.0000E+00    9.047900E+08  0.00040  3.960E-04    0   0.5890   age135_m32            0.0000     6.3060E+02     6.2840   0.6727   108.0945
 41      0.0000     0.0000E+00    0.0000E+00    1.278050E+09  0.00040  2.854E-04    0   0.5687   age138_m32            0.0000     4.2600E+02     4.7800   0.3937   109.3776
 42      0.0000     0.0000E+00    0.0000E+00    1.434000E+09  0.00040  2.531E-04    0   0.5632   age139_m32            0.0000     4.0473E+02     4.5947   0.3340   109.2780
 43     10.9644     6.8154E+00    7.0798E+00    2.500000E+09  0.00040  1.488E-04    0   0.5386   age150_m32            0.0000     2.1856E+02     3.4532   0.0924   106.7811
 44     61.0256     6.2150E+01    6.2320E+01    4.250000E+09  0.00040  9.082E-05    0   0.5199   age158_m32            0.0000     1.2630E+01     1.0002   0.0343   101.6373
 45      5.9308     8.6224E+00    8.4413E+00    6.250000E+09  0.00040  6.362E-05    0   0.5076   age166_m32            0.0000     5.7767E+01     1.8351   0.0275    96.8090
 46      0.8801     1.5392E+00    1.4923E+00    7.500000E+09  0.00040  5.289E-05    0   0.5027   age171_m32            0.0000     8.6195E+01     2.1107  -0.0034    95.3444
 47      0.0000     0.0000E+00    0.0000E+00    1.000000E+10  0.00040  3.972E-05    0   0.4948   age181_m32            0.0000     1.0924E+02     2.1706  -0.0625    93.9060
 48      0.0000     0.0000E+00    0.0000E+00    1.300000E+10  0.00040  3.283E-05    0   0.4870   age193_m32            0.0000     3.3024E+01     1.3310  -0.1274    97.3430
 49      0.0000     0.0000E+00    0.0000E+00    1.500000E+10  0.00040  2.925E-05    0   0.4854   age201_m32            0.0000     1.4766E+01     1.1026  -0.1581    99.3796
 50      0.0000     0.0000E+00    0.0000E+00    1.800000E+10  0.00040  2.469E-05    0   0.4819   age213_m32            0.0000     1.5206E+01     1.1590  -0.2050   100.0928
 51      0.0000     0.0000E+00    0.0000E+00    1.000000E+06  0.00400  1.114E-02    0   1.0000   age020_m42            0.0000     1.6342E+03    12.1088   3.4701    74.8327
 52      0.0000     0.0000E+00    0.0000E+00    3.160000E+06  0.00400  4.073E-02    0   0.9999   age045_m42            0.0000     3.1028E+02     5.6409   2.4191    91.0115
 53      0.0000     0.0000E+00    0.0000E+00    5.010000E+06  0.00400  2.534E-02    0   0.9488   age055_m42            0.0000     8.2423E+02     8.9417   2.8713    83.3886
 54      0.0000     0.0000E+00    0.0000E+00    6.610000E+06  0.00400  2.583E-02    0   0.9220   age061_m42            0.0000     2.3637E+02     4.8557   2.2254    92.1684
 55      0.0000     0.0000E+00    0.0000E+00    8.710000E+06  0.00400  1.706E-02    0   0.8983   age067_m42            0.0000     4.6872E+02     7.0859   2.0755    89.2384
 56      0.0000     0.0000E+00    0.0000E+00    1.000000E+07  0.00400  1.271E-02    0   0.8862   age070_m42            0.0000     7.2771E+02     8.8880   2.0769    87.1247
 57      0.0000     0.0000E+00    0.0000E+00    1.445000E+07  0.00400  7.666E-03    0   0.8571   age078_m42            0.0000     9.8526E+02     9.9069   2.5012    83.3774
 58      0.0000     0.0000E+00    0.0000E+00    2.512000E+07  0.00400  5.070E-03    0   0.8174   age090_m42            0.0000     6.1111E+02     8.1131   1.9358    88.9002
 59      0.0000     0.0000E+00    0.0000E+00    4.000000E+07  0.00400  3.505E-03    0   0.7851   age104_m42            0.0000     3.2966E+02     5.8699   1.5936    92.5404
 60      0.0000     0.0000E+00    0.0000E+00    5.500000E+07  0.00400  3.059E-03    0   0.7629   age110_m42            0.0000     1.2518E+02     2.5525   1.5919    99.4131
 61      0.0000     0.0000E+00    0.0000E+00    1.015200E+08  0.00400  2.268E-03    0   0.7207   age116_m42            0.0000     7.1478E+02     5.7590   1.4259   107.7241
 62      0.0000     0.0000E+00    0.0000E+00    1.609000E+08  0.00400  1.720E-03    0   0.6930   age120_m42            0.0000     8.3362E+02     6.5855   1.2734   109.7835
 63      0.0000     0.0000E+00    0.0000E+00    2.861200E+08  0.00400  1.079E-03    0   0.6613   age125_m42            0.0000     8.4445E+02     6.8008   0.9203   110.2032
 64      0.0000     0.0000E+00    0.0000E+00    5.088000E+08  0.00400  6.261E-04    0   0.6313   age130_m42            0.0000     1.0229E+03     7.5293   0.7142   113.7211
 65      0.0000     0.0000E+00    0.0000E+00    9.047900E+08  0.00400  3.535E-04    0   0.6024   age135_m42            0.0000     4.9853E+02     5.8039   0.3416   112.5364
 66      0.0000     0.0000E+00    0.0000E+00    1.278050E+09  0.00400  2.677E-04    0   0.5837   age138_m42            0.0000     2.8822E+02     5.4060  -0.3036   107.3415
 67      0.0000     0.0000E+00    0.0000E+00    1.434000E+09  0.00400  1.910E-04    0   0.5716   age139_m42            0.0000     2.7717E+02     5.3076  -0.1501   108.9993
 68      0.0000     0.0000E+00    0.0000E+00    2.500000E+09  0.00400  9.818E-05    0   0.5463   age150_m42            0.0000     2.6185E+02     4.6633  -0.3681   101.7905
 69      0.0000     0.0000E+00    0.0000E+00    4.250000E+09  0.00400  5.491E-05    0   0.5269   age158_m42            0.0000     3.7167E+02     4.7437  -0.4676    97.9782
 70      0.0000     0.0000E+00    0.0000E+00    6.250000E+09  0.00400  3.857E-05    0   0.5151   age166_m42            0.0000     5.1344E+02     5.4274  -0.5845    96.1569
 71      0.0898     2.5623E-01    2.5253E-01    7.500000E+09  0.00400  3.243E-05    0   0.5110   age171_m42            0.0000     6.0833E+02     5.8709  -0.6582    95.3571
 72      0.0000     0.0000E+00    0.0000E+00    1.000000E+10  0.00400  2.424E-05    0   0.5028   age181_m42            0.0000     7.5109E+02     6.4469  -0.7298    94.3760
 73      0.0000     0.0000E+00    0.0000E+00    1.300000E+10  0.00400  1.883E-05    0   0.4927   age193_m42            0.0000     8.7661E+02     6.8426  -0.7620    93.7511
 74      0.0000     0.0000E+00    0.0000E+00    1.500000E+10  0.00400  1.685E-05    0   0.4919   age201_m42            0.0000     8.4185E+02     6.6867  -0.7592    93.8232
 75      0.0000     0.0000E+00    0.0000E+00    1.800000E+10  0.00400  1.452E-05    0   0.4874   age213_m42            0.0000     7.8287E+02     6.4263  -0.7481    94.1988
 76      0.0000     0.0000E+00    0.0000E+00    1.000000E+06  0.00800  1.286E-02    0   1.0000   age020_m52            0.0000     1.4298E+03    11.3564   3.4391    76.7923
 77      0.0000     0.0000E+00    0.0000E+00    3.160000E+06  0.00800  3.147E-02    0   0.9966   age045_m52            0.0000     1.3736E+03    11.2131   3.3482    78.3001
 78      0.0000     0.0000E+00    0.0000E+00    5.010000E+06  0.00800  2.664E-02    0   0.9443   age055_m52            0.0000     9.6164E+02     9.3780   2.9992    82.1718
 79      0.0000     0.0000E+00    0.0000E+00    6.610000E+06  0.00800  2.151E-02    0   0.9177   age061_m52            0.0000     6.1444E+02     7.4898   1.6630    88.7726
 80      0.0000     0.0000E+00    0.0000E+00    8.710000E+06  0.00800  1.628E-02    0   0.8948   age067_m52            0.0000     5.4398E+02     7.4764   2.0258    89.5820
 81      0.0000     0.0000E+00    0.0000E+00    1.000000E+07  0.00800  1.215E-02    0   0.8827   age070_m52            0.0000     6.8534E+02     8.3738   2.3761    87.4972
 82      0.0000     0.0000E+00    0.0000E+00    1.445000E+07  0.00800  8.739E-03    0   0.8552   age078_m52            0.0000     5.1956E+02     7.3205   2.4013    89.3661
 83      0.0000     0.0000E+00    0.0000E+00    2.512000E+07  0.00800  5.676E-03    0   0.8162   age090_m52            0.0000     3.0181E+02     5.6286   1.9600    95.4017
 84      0.0000     0.0000E+00    0.0000E+00    4.000000E+07  0.00800  3.939E-03    0   0.7841   age104_m52            0.0000     2.1193E+02     4.0031   1.7745    98.9159
 85      0.0000     0.0000E+00    0.0000E+00    5.500000E+07  0.00800  3.155E-03    0   0.7627   age110_m52            0.0000     2.3078E+02     3.0251   1.7266   101.4331
 86      0.0000     0.0000E+00    0.0000E+00    1.015200E+08  0.00800  2.206E-03    0   0.7226   age116_m52            0.0000     4.7385E+02     4.4207   1.5027   106.7730
 87      0.0000     0.0000E+00    0.0000E+00    1.609000E+08  0.00800  1.596E-03    0   0.6963   age120_m52            0.0000     6.2670E+02     5.6135   1.2726   109.0004
 88      0.0000     0.0000E+00    0.0000E+00    2.861200E+08  0.00800  1.002E-03    0   0.6665   age125_m52            0.0000     1.1494E+03     8.4954   0.9426   113.0466
 89      0.0000     0.0000E+00    0.0000E+00    5.088000E+08  0.00800  5.759E-04    0   0.6377   age130_m52            0.0000     1.2973E+03     9.6680   0.5815   117.2778
 90      0.0000     0.0000E+00    0.0000E+00    9.047900E+08  0.00800  2.972E-04    0   0.6086   age135_m52            0.0000     7.0305E+02     8.1022   0.0849   114.0260
 91      0.0000     0.0000E+00    0.0000E+00    1.278050E+09  0.00800  2.242E-04    0   0.5907   age138_m52            0.0000     4.7338E+02     6.6913  -0.4767   109.8593
 92      0.0987     5.5471E-02    6.1912E-02    1.434000E+09  0.00800  1.645E-04    0   0.5787   age139_m52            0.0000     3.7886E+02     5.9887  -0.3240   109.1678
 93      0.0000     0.0000E+00    0.0000E+00    2.500000E+09  0.00800  7.723E-05    0   0.5519   age150_m52            0.0000     5.4321E+02     6.3385  -0.6235   103.5610
 94      1.5188     3.3843E+00    3.4725E+00    4.250000E+09  0.00800  4.151E-05    0   0.5320   age158_m52            0.0000     5.9540E+02     6.3246  -0.6769   100.3860
 95      0.0000     0.0000E+00    0.0000E+00    6.250000E+09  0.00800  3.010E-05    0   0.5197   age166_m52            0.0000     8.4885E+02     7.3063  -0.8568    98.3258
 96      0.0000     0.0000E+00    0.0000E+00    7.500000E+09  0.00800  2.467E-05    0   0.5139   age171_m52            0.0000     9.2228E+02     7.5943  -0.8959    97.8113
 97      0.8905     4.4234E+00    4.3117E+00    1.000000E+10  0.00800  1.862E-05    0   0.5054   age181_m52            0.0000     1.1490E+03     8.3465  -1.0000    96.7051
 98      0.7664     4.9470E+00    4.7591E+00    1.300000E+10  0.00800  1.433E-05    0   0.4988   age193_m52            0.0000     1.4803E+03     8.8197  -1.0000    95.0013
 99      0.4831     3.5922E+00    3.4198E+00    1.500000E+10  0.00800  1.244E-05    0   0.4936   age201_m52            0.0000     1.6255E+03     9.0945  -1.0000    94.6930
100      0.2538     2.1942E+00    2.0685E+00    1.800000E+10  0.00800  1.070E-05    0   0.4888   age213_m52            0.0000     1.7393E+03     9.3366  -1.0000    93.7185
101      0.0000     0.0000E+00    0.0000E+00    1.000000E+06  0.02000  1.989E-02    0   1.0000   age020_m62            0.0000     1.6619E+03    12.0206   3.4345    75.4648
102      0.0000     0.0000E+00    0.0000E+00    3.160000E+06  0.02000  3.772E-02    0   0.9858   age045_m62            0.0000     1.4839E+03    11.4764   3.2824    77.7865
103      0.0000     0.0000E+00    0.0000E+00    5.010000E+06  0.02000  3.227E-02    0   0.9342   age055_m62            0.0000     5.2118E+02     7.1693   2.7028    86.9927
104      0.0000     0.0000E+00    0.0000E+00    6.610000E+06  0.02000  2.387E-02    0   0.9090   age061_m62            0.0000     8.9545E+02     9.5933   2.4648    85.5850
105      0.0000     0.0000E+00    0.0000E+00    8.710000E+06  0.02000  1.102E-02    0   0.8861   age067_m62            0.0000     2.6159E+03    16.2391   2.1212    78.9822
106      0.0000     0.0000E+00    0.0000E+00    1.000000E+07  0.02000  1.011E-02    0   0.8751   age070_m62            0.0000     1.8401E+03    13.6729   2.1272    82.0942
107      0.0000     0.0000E+00    0.0000E+00    1.445000E+07  0.02000  7.331E-03    0   0.8472   age078_m62            0.0000     1.2929E+03    11.4151   2.1322    84.1816
108      0.0000     0.0000E+00    0.0000E+00    2.512000E+07  0.02000  4.206E-03    0   0.8099   age090_m62            0.0000     1.3070E+03    11.2316   2.0399    83.7209
109      0.0000     0.0000E+00    0.0000E+00    4.000000E+07  0.02000  3.373E-03    0   0.7799   age104_m62            0.0000     2.8197E+02     5.4290   1.7695    95.1585
110      0.0000     0.0000E+00    0.0000E+00    5.500000E+07  0.02000  2.747E-03    0   0.7595   age110_m62            0.0000     1.8984E+02     3.4055   1.6639   100.2406
111      0.0000     0.0000E+00    0.0000E+00    1.015200E+08  0.02000  1.878E-03    0   0.7221   age116_m62            0.0000     5.4990E+02     4.3391   1.4662   107.5559
112      0.0000     0.0000E+00    0.0000E+00    1.609000E+08  0.02000  1.378E-03    0   0.6978   age120_m62            0.0000     9.5280E+02     6.6586   1.2830   111.4201
113      0.0000     0.0000E+00    0.0000E+00    2.861200E+08  0.02000  8.869E-04    0   0.6700   age125_m62            0.0000     1.7070E+03     9.6732   0.8732   117.2441
114      0.0000     0.0000E+00    0.0000E+00    5.088000E+08  0.02000  4.834E-04    0   0.6430   age130_m62            0.0000     1.4837E+03    10.2478   0.4375   119.2610
115      0.4564     1.8258E-01    2.1663E-01    9.047900E+08  0.02000  2.312E-04    0   0.6152   age135_m62            0.0000     6.1071E+02     7.8089  -0.1153   115.8931
116      0.5489     3.6605E-01    4.1844E-01    1.278050E+09  0.02000  1.387E-04    0   0.5927   age138_m62            0.0000     3.6780E+02     5.9995  -0.4466   108.8765
117      0.0000     0.0000E+00    0.0000E+00    1.434000E+09  0.02000  1.168E-04    0   0.5865   age139_m62            0.0000     3.7890E+02     5.8913  -0.4588   106.6999
118      0.0000     0.0000E+00    0.0000E+00    2.500000E+09  0.02000  5.505E-05    0   0.5610   age150_m62            0.0000     7.0458E+02     7.1535  -0.8019   102.1425
119      0.0000     0.0000E+00    0.0000E+00    4.250000E+09  0.02000  3.070E-05    0   0.5407   age158_m62            0.0000     1.2454E+03     8.6885  -1.0000    99.4530
120      0.0000     0.0000E+00    0.0000E+00    6.250000E+09  0.02000  2.104E-05    0   0.5277   age166_m62            0.0000     1.7038E+03     9.5033  -1.0000    96.6012
121      0.0000     0.0000E+00    0.0000E+00    7.500000E+09  0.02000  1.770E-05    0   0.5223   age171_m62            0.0000     2.0118E+03    10.3459  -1.0000    94.7679
122      0.0000     0.0000E+00    0.0000E+00    1.000000E+10  0.02000  1.297E-05    0   0.5121   age181_m62            0.0000     2.7435E+03    12.4061  -1.0000    91.1583
123      0.0000     0.0000E+00    0.0000E+00    1.300000E+10  0.02000  9.691E-06    0   0.5047   age193_m62            0.0000     3.2378E+03    13.6259  -1.0000    89.2744
124      0.0000     0.0000E+00    0.0000E+00    1.500000E+10  0.02000  8.360E-06    0   0.4999   age201_m62            0.0000     3.6822E+03    14.6451  -1.0000    87.6276
125      0.0000     0.0000E+00    0.0000E+00    1.800000E+10  0.02000  6.911E-06    0   0.4946   age213_m62            0.0000     4.2077E+03    15.7371  -1.0000    85.9052
126      0.0000     0.0000E+00    0.0000E+00    1.000000E+06  0.05000  2.651E-02    0   0.9998   age020_m72            0.0000     1.5529E+03    11.4028   3.4354    76.3556
127      0.0000     0.0000E+00    0.0000E+00    3.160000E+06  0.05000  4.817E-02    0   0.9577   age045_m72            0.0000     1.0282E+03     9.4327   3.1178    81.5667
128      0.0000     0.0000E+00    0.0000E+00    5.010000E+06  0.05000  3.101E-02    0   0.9147   age055_m72            0.0000     9.7376E+02     9.4644   2.7434    84.2663
129      0.0000     0.0000E+00    0.0000E+00    6.610000E+06  0.05000  1.472E-02    0   0.8877   age061_m72            0.0000     2.1408E+03    14.2713   2.3140    80.8945
130      0.0000     0.0000E+00    0.0000E+00    8.710000E+06  0.05000  1.050E-02    0   0.8638   age067_m72            0.0000     1.4653E+03    11.5034   2.7087    82.0267
131      0.0000     0.0000E+00    0.0000E+00    1.000000E+07  0.05000  8.954E-03    0   0.8524   age070_m72            0.0000     1.0425E+03     9.3158   2.9896    82.6078
132      0.0000     0.0000E+00    0.0000E+00    1.445000E+07  0.05000  6.392E-03    0   0.8262   age078_m72            0.0000     8.6647E+02     8.4535   2.9275    83.9383
133      0.0000     0.0000E+00    0.0000E+00    2.512000E+07  0.05000  4.207E-03    0   0.7902   age090_m72            0.0000     4.3698E+02     6.1894   2.5004    89.6348
134      0.0000     0.0000E+00    0.0000E+00    4.000000E+07  0.05000  3.198E-03    0   0.7618   age104_m72            0.0000     2.5121E+02     3.1268   1.8759   101.3611
135      0.0000     0.0000E+00    0.0000E+00    5.500000E+07  0.05000  2.593E-03    0   0.7432   age110_m72            0.0000     3.8716E+02     3.6629   1.7562   104.2568
136      0.0000     0.0000E+00    0.0000E+00    1.015200E+08  0.05000  1.716E-03    0   0.7092   age116_m72            0.0000     7.3112E+02     5.2560   1.5278   108.4010
137      0.0000     0.0000E+00    0.0000E+00    1.609000E+08  0.05000  1.218E-03    0   0.6876   age120_m72            0.0000     1.2115E+03     7.7295   1.2337   112.3774
138      0.0000     0.0000E+00    0.0000E+00    2.861200E+08  0.05000  7.047E-04    0   0.6618   age125_m72            0.0000     1.6867E+03    10.2117   0.6518   117.6089
139      0.0000     0.0000E+00    0.0000E+00    5.088000E+08  0.05000  3.590E-04    0   0.6356   age130_m72            0.0000     1.2723E+03    10.1261   0.0798   119.7123
140      0.0000     0.0000E+00    0.0000E+00    9.047900E+08  0.05000  1.484E-04    0   0.6088   age135_m72            0.0000     5.7414E+02     7.5932  -0.5650   108.8474
141      1.3844     1.3572E+00    1.5506E+00    1.278050E+09  0.05000  9.435E-05    0   0.5924   age138_m72            0.0000     9.1936E+02     8.8427  -0.9373   104.1075
142      0.0000     0.0000E+00    0.0000E+00    1.434000E+09  0.05000  7.827E-05    0   0.5847   age139_m72            0.0000     9.3604E+02     8.6491  -0.9141   103.0933
143      0.0000     0.0000E+00    0.0000E+00    2.500000E+09  0.05000  3.759E-05    0   0.5583   age150_m72            0.0000     1.6250E+03     9.4739  -1.0000    96.1529
144      0.0000     0.0000E+00    0.0000E+00    4.250000E+09  0.05000  1.842E-05    0   0.5374   age158_m72            0.0000     2.8988E+03    13.3297  -1.0000    87.7275
145      0.0000     0.0000E+00    0.0000E+00    6.250000E+09  0.05000  1.207E-05    0   0.5242   age166_m72            0.0000     4.3426E+03    16.5927  -1.0000    81.3788
146      0.0000     0.0000E+00    0.0000E+00    7.500000E+09  0.05000  9.993E-06    0   0.5183   age171_m72            0.0000     4.6223E+03    17.1491  -1.0000    80.2077
147      0.0000     0.0000E+00    0.0000E+00    1.000000E+10  0.05000  7.291E-06    0   0.5081   age181_m72            0.0000     5.5666E+03    18.7409  -1.0000    77.0094
148      0.0000     0.0000E+00    0.0000E+00    1.300000E+10  0.05000  5.316E-06    0   0.5018   age193_m72            0.0000     7.1092E+03    20.9457  -1.0000    72.2755
149      0.0000     0.0000E+00    0.0000E+00    1.500000E+10  0.05000  4.497E-06    0   0.4972   age201_m72            0.0000     7.7939E+03    21.7957  -1.0000    70.6261
150      0.0000     0.0000E+00    0.0000E+00    1.800000E+10  0.05000  3.739E-06    0   0.4924   age213_m72            0.0000     8.7542E+03    22.8829  -1.0000    68.1453


## Synthesis Results - Average & Chains ##

# j      x_j: min, <> & last-chain-values for 1 ...  7 chains
  1      0.0000      0.0013      0.0000      0.0000      0.0000      0.0000      0.0000      0.0000      0.0000
  2     15.4717     14.5727     14.8912     14.6228     14.6080     14.6185     14.6078     14.7457     14.5374
  3      0.0000      0.0054      0.0000      0.0000      0.0000      0.0000      0.0000      0.0000      0.0000
  4      0.0000      0.0010      0.0000      0.0000      0.0000      0.0000      0.0000      0.0000      0.0000
  5      0.0000      0.0017      0.0000      0.0000      0.0000      0.0000      0.0000      0.0000      0.0000
  6      0.0000      0.0024      0.0000      0.0001      0.0000      0.0000      0.0000      0.0000      0.0000
  7      0.0000      0.0025      0.0000      0.0000      0.0000      0.0000      0.0000      0.0000      0.0000
  8      0.0000      0.0043      0.0000      0.0000      0.0000      0.0000      0.0137      0.0000      0.0000
  9      0.0000      0.0119      0.0000      0.0000      0.0000      0.0000      0.0000      0.0000      0.0000
 10      0.0000      0.0186      0.0895      0.0110      0.0700      0.0000      0.0000      0.1087      0.0000
 11      0.0000      0.1015      0.1651      0.0377      0.0000      0.1369      0.1299      0.0177      0.0269
 12      0.0000      0.0194      0.0000      0.0000      0.1093      0.0000      0.0000      0.0000      0.0030
 13      0.0000      0.0070      0.0000      0.0000      0.0000      0.0000      0.0158      0.0000      0.0000
 14      0.0000      0.0114      0.0000      0.0025      0.0000      0.0000      0.0000      0.0000      0.0000
 15      0.0000      0.0090      0.0000      0.0000      0.0000      0.0000      0.0000      0.0000      0.0253
 16      0.0000      0.0142      0.0000      0.0000      0.0000      0.0000      0.0000      0.0031      0.0000
 17      0.0000      0.0228      0.0000      0.0000      0.0000      0.0302      0.0000      0.0000      0.0000
 18      0.0000      0.0522      0.0000      0.0000      0.0000      0.0000      0.0000      0.0015      0.0257
 19      0.0000      0.1297      0.0000      0.1199      0.2904      0.1191      0.0461      0.0937      0.0343
 20      0.0000      0.1054      0.4484      0.0000      0.0000      0.0000      0.1489      0.1937      0.0611
 21      0.0041      0.1153      0.0000      0.0141      0.1885      0.0000      0.2919      0.0823      0.1552
 22      0.0000      0.1040      0.1608      0.0896      0.1063      0.0000      0.0170      0.1729      0.3219
 23      0.0000      0.1957      0.0000      0.0443      0.0000      0.2088      0.0988      0.1839      0.0000
 24      0.0254      0.1482      0.1805      0.0000      0.0000      0.0749      0.2090      0.2967      0.0000
 25      0.0000      0.1413      0.2794      0.3484      0.0648      0.1040      0.0620      0.0000      0.0876
 26      0.0000      0.0004      0.0000      0.0000      0.0000      0.0000      0.0000      0.0000      0.0000
 27      0.0000      0.0104      0.0000      0.0000      0.0722      0.0000      0.0000      0.0000      0.0000
 28      0.0000      0.0029      0.0000      0.0000      0.0000      0.0320      0.0000      0.0000      0.0000
 29      0.0000      0.0012      0.0000      0.0000      0.0000      0.0000      0.0000      0.0000      0.0000
 30      0.0000      0.0015      0.0000      0.0000      0.0000      0.0000      0.0000      0.0000      0.0000
 31      0.0000      0.0017      0.0000      0.0000      0.0000      0.0000      0.0000      0.0000      0.0000
 32      0.0000      0.0037      0.0000      0.0000      0.0000      0.0000      0.0145      0.0000      0.0000
 33      0.0000      0.0113      0.0000      0.0000      0.0000      0.0617      0.0000      0.0000      0.1499
 34      0.0000      0.0108      0.0000      0.0000      0.0000      0.0000      0.0000      0.0567      0.0000
 35      0.0000      0.0235      0.0000      0.0000      0.0000      0.0135      0.0000      0.0000      0.0000
 36      0.0000      0.0287      0.0000      0.0198      0.0000      0.0375      0.1663      0.0000      0.0000
 37      0.0000      0.0159      0.0000      0.0505      0.0000      0.0073      0.0000      0.0000      0.0000
 38      0.0000      0.0199      0.0000      0.1410      0.0000      0.0000      0.0225      0.0000      0.1124
 39      0.0000      0.0152      0.0000      0.0000      0.0000      0.0006      0.0000      0.0000      0.0000
 40      0.0000      0.0205      0.0169      0.0000      0.0948      0.0002      0.0000      0.0000      0.0086
 41      0.0000      0.0417      0.0000      0.0233      0.0000      0.0876      0.0000      0.0000      0.0000
 42      0.0000      0.0457      0.0627      0.0000      0.0000      0.0000      0.0280      0.0000      0.0000
 43     10.9644     11.8029     11.9870     11.8399     11.9886     11.9635     11.7516     11.5685     11.3789
 44     61.0256     58.3819     58.8061     58.5345     58.9407     58.6516     58.6552     58.9177     58.6621
 45      5.9308      5.7585      5.6544      5.6791      5.6223      6.2139      6.5287      6.0036      5.7839
 46      0.8801      0.7451      0.7135      1.2939      0.9125      0.9506      0.8086      0.8827      0.8005
 47      0.0000      0.1287      0.0189      0.2664      0.0807      0.0000      0.1369      0.1156      0.3589
 48      0.0000      0.1896      0.0000      0.1612      0.2232      0.1144      0.0000      0.1739      0.0000
 49      0.0000      0.0868      0.2064      0.2741      0.0000      0.1843      0.0000      0.1484      0.2393
 50      0.0000      0.1098      0.0000      0.0000      0.0000      0.0000      0.1482      0.0619      0.3803
 51      0.0000      0.0010      0.0000      0.0000      0.0000      0.0000      0.0000      0.0000      0.0000
 52      0.0000      0.0093      0.0098      0.0000      0.0418      0.0000      0.0000      0.0000      0.0301
 53      0.0000      0.0061      0.0000      0.0000      0.0558      0.0000      0.0000      0.0000      0.0000
 54      0.0000      0.0160      0.0000      0.0000      0.0000      0.0849      0.0000      0.0000      0.1063
 55      0.0000      0.0100      0.0000      0.0000      0.0000      0.0000      0.0000      0.0000      0.0103
 56      0.0000      0.0145      0.0000      0.0000      0.0176      0.0000      0.0000      0.0000      0.0592
 57      0.0000      0.0080      0.0000      0.0080      0.0000      0.0000      0.0000      0.0000      0.0000
 58      0.0000      0.0265      0.0000      0.2010      0.0693      0.0379      0.0000      0.0000      0.0000
 59      0.0000      0.0237      0.1030      0.0000      0.0000      0.0000      0.1182      0.0000      0.0266
 60      0.0000      0.0174      0.0074      0.0063      0.0000      0.0000      0.0000      0.0000      0.0000
 61      0.0000      0.0151      0.0000      0.0000      0.0000      0.0000      0.0000      0.0000      0.0521
 62      0.0000      0.0192      0.0000      0.0161      0.0383      0.0131      0.0430      0.0000      0.0518
 63      0.0000      0.0146      0.0000      0.0000      0.0000      0.0000      0.0000      0.0000      0.0000
 64      0.0000      0.0156      0.0000      0.0000      0.0130      0.0000      0.0000      0.0000      0.0000
 65      0.0000      0.0386      0.0000      0.0333      0.0000      0.0000      0.0000      0.0114      0.0000
 66      0.0000      0.0255      0.0000      0.0000      0.0000      0.0000      0.0000      0.0000      0.0000
 67      0.0000      0.0533      0.0998      0.0551      0.0000      0.0000      0.0000      0.0579      0.0000
 68      0.0000      0.2313      0.1280      0.2018      0.3629      0.0305      0.1068      0.0000      0.2573
 69      0.0000      0.0252      0.0605      0.0000      0.0041      0.0000      0.0000      0.0000      0.0000
 70      0.0000      0.0439      0.0000      0.0000      0.0162      0.1563      0.0147      0.0000      0.0000
 71      0.0898      1.0572      1.0491      1.1074      0.7654      1.0442      0.7952      0.9991      0.9678
 72      0.0000      0.0120      0.0000      0.0000      0.0000      0.0000      0.0000      0.0000      0.0000
 73      0.0000      0.0083      0.0000      0.0000      0.0000      0.0000      0.0000      0.0004      0.0000
 74      0.0000      0.0117      0.0127      0.0000      0.0000      0.0000      0.0000      0.0000      0.0005
 75      0.0000      0.0127      0.0000      0.0000      0.0000      0.0182      0.0000      0.0000      0.0000
 76      0.0000      0.0013      0.0000      0.0000      0.0000      0.0000      0.0000      0.0000      0.0000
 77      0.0000      0.0017      0.0000      0.0000      0.0000      0.0000      0.0000      0.0085      0.0000
 78      0.0000      0.0045      0.0000      0.0000      0.0000      0.0000      0.0000      0.0000      0.0000
 79      0.0000      0.0233      0.0000      0.0417      0.0955      0.0859      0.0000      0.0000      0.0282
 80      0.0000      0.0052      0.0000      0.0000      0.0018      0.0000      0.0000      0.0000      0.0000
 81      0.0000      0.0058      0.0000      0.0000      0.0000      0.0000      0.0000      0.0396      0.0120
 82      0.0000      0.0038      0.0000      0.0000      0.0000      0.0005      0.0000      0.0000      0.0000
 83      0.0000      0.0108      0.0000      0.0435      0.0000      0.0000      0.0000      0.0391      0.0000
 84      0.0000      0.0097      0.0000      0.0000      0.0202      0.0023      0.0000      0.0043      0.0369
 85      0.0000      0.0097      0.0000      0.0058      0.0000      0.0000      0.0000      0.0000      0.0000
 86      0.0000      0.0277      0.0000      0.0000      0.0000      0.0000      0.0000      0.0650      0.1251
 87      0.0000      0.0186      0.0000      0.1163      0.0000      0.0000      0.0000      0.0000      0.0000
 88      0.0000      0.0164      0.0295      0.0000      0.0290      0.0156      0.0477      0.0000      0.0000
 89      0.0000      0.0172      0.0000      0.0000      0.0000      0.0000      0.0000      0.0055      0.0121
 90      0.0000      0.0466      0.0148      0.0214      0.0000      0.0009      0.0027      0.0683      0.1981
 91      0.0000      0.0294      0.0000      0.1126      0.0000      0.0000      0.0000      0.0000      0.0000
 92      0.0987      0.0600      0.1376      0.0232      0.0971      0.2544      0.2997      0.0000      0.0877
 93      0.0000      0.1208      0.1580      0.0000      0.1333      0.0000      0.0771      0.3174      0.1271
 94      1.5188      1.3541      1.4096      1.3677      1.3069      1.3794      1.3888      1.1398      1.4885
 95      0.0000      0.1381      0.0812      0.2502      0.1490      0.1256      0.1124      0.0000      0.0175
 96      0.0000      0.2121      0.2577      0.1609      0.2280      0.2154      0.1247      0.2180      0.1935
 97      0.8905      0.7304      0.7344      0.6572      0.7312      0.5839      0.7640      0.8973      0.7624
 98      0.7664      0.7924      0.8030      0.7529      0.7727      0.7667      0.8564      0.8573      0.7499
 99      0.4831      0.4654      0.4451      0.4580      0.5258      0.3995      0.4740      0.4135      0.3057
100      0.2538      0.3204      0.3191      0.2616      0.4071      0.2204      0.3338      0.3303      0.2887
101      0.0000      0.0015      0.0000      0.0000      0.0000      0.0000      0.0000      0.0000      0.0000
102      0.0000      0.0024      0.0000      0.0000      0.0000      0.0000      0.0000      0.0000      0.0000
103      0.0000      0.0120      0.0502      0.0000      0.0700      0.0000      0.0000      0.0000      0.0000
104      0.0000      0.0042      0.0000      0.0000      0.0000      0.0000      0.0000      0.0000      0.0000
105      0.0000      0.0016      0.0000      0.0000      0.0000      0.0000      0.0000      0.0000      0.0000
106      0.0000      0.0021      0.0000      0.0000      0.0000      0.0000      0.0226      0.0000      0.0010
107      0.0000      0.0062      0.0000      0.0000      0.0000      0.0000      0.0000      0.0000      0.0000
108      0.0000      0.0045      0.0000      0.0000      0.0000      0.0000      0.0000      0.0000      0.0000
109      0.0000      0.0055      0.0000      0.0000      0.0000      0.0000      0.0000      0.0000      0.0000
110      0.0000      0.0085      0.0017      0.0000      0.0000      0.0673      0.0000      0.0465      0.0000
111      0.0000      0.0146      0.0000      0.0000      0.0052      0.0339      0.0021      0.0000      0.0293
112      0.0000      0.0131      0.0585      0.0000      0.0000      0.0000      0.0000      0.0000      0.0000
113      0.0000      0.0201      0.0387      0.1146      0.0000      0.0000      0.0000      0.1110      0.0024
114      0.0000      0.0220      0.0000      0.0000      0.1862      0.0000      0.0000      0.0189      0.0000
115      0.4564      0.1136      0.0803      0.0777      0.0992      0.1190      0.2762      0.0455      0.2488
116      0.5489      0.0731      0.1085      0.0000      0.0000      0.1161      0.2632      0.0587      0.0527
117      0.0000      0.1378      0.2176      0.0308      0.0000      0.4230      0.0000      0.1236      0.2667
118      0.0000      0.0806      0.0340      0.3392      0.1108      0.0000      0.0000      0.1143      0.1876
119      0.0000      0.0208      0.0181      0.0000      0.0812      0.0000      0.0000      0.0000      0.0000
120      0.0000      0.0312      0.0258      0.0000      0.0000      0.1048      0.0000      0.0000      0.0000
121      0.0000      0.0278      0.0000      0.0000      0.0000      0.0000      0.0000      0.0835      0.0000
122      0.0000      0.0230      0.0000      0.0159      0.0257      0.0000      0.0000      0.0035      0.0000
123      0.0000      0.0046      0.0225      0.0000      0.0000      0.0000      0.0283      0.0000      0.0000
124      0.0000      0.0101      0.0000      0.0000      0.0000      0.0000      0.0000      0.0207      0.0000
125      0.0000      0.0065      0.0000      0.0000      0.0000      0.0515      0.0000      0.0000      0.0330
126      0.0000      0.0014      0.0000      0.0000      0.0000      0.0000      0.0000      0.0000      0.0000
127      0.0000      0.0060      0.0000      0.0000      0.0044      0.0000      0.0000      0.0030      0.0000
128      0.0000      0.0092      0.0000      0.0000      0.0058      0.0000      0.0000      0.0000      0.0000
129      0.0000      0.0022      0.0000      0.0000      0.0000      0.0079      0.0000      0.0000      0.0000
130      0.0000      0.0044      0.0000      0.0000      0.0000      0.0000      0.0000      0.0000      0.0000
131      0.0000      0.0043      0.0000      0.0000      0.0000      0.0000      0.0000      0.0000      0.0000
132      0.0000      0.0046      0.0000      0.0000      0.0000      0.0000      0.0000      0.0000      0.0000
133      0.0000      0.0109      0.0000      0.0000      0.0000      0.0000      0.0000      0.0000      0.0102
134      0.0000      0.0075      0.0000      0.0000      0.0000      0.0000      0.0097      0.0000      0.0000
135      0.0000      0.0076      0.0000      0.0003      0.0000      0.0000      0.0000      0.0000      0.0000
136      0.0000      0.0072      0.0000      0.0000      0.0000      0.0000      0.0000      0.0000      0.0000
137      0.0000      0.0162      0.0000      0.0055      0.0000      0.0000      0.0000      0.0000      0.0000
138      0.0000      0.0171      0.0176      0.0000      0.0000      0.0000      0.0000      0.0000      0.0000
139      0.0000      0.0687      0.0000      0.0220      0.0000      0.1642      0.0105      0.2640      0.0000
140      0.0000      0.1508      0.1377      0.2639      0.4684      0.2036      0.0459      0.0886      0.1747
141      1.3844      0.2265      0.1934      0.2677      0.3297      0.3183      0.5032      0.3069      0.4013
142      0.0000      0.0873      0.2236      0.0928      0.0624      0.1029      0.1112      0.1357      0.1078
143      0.0000      0.0551      0.0000      0.0000      0.0410      0.0000      0.0000      0.0126      0.0759
144      0.0000      0.0078      0.0000      0.0000      0.0000      0.0000      0.0000      0.0000      0.0000
145      0.0000      0.0016      0.0000      0.0000      0.0000      0.0000      0.0206      0.0000      0.0000
146      0.0000      0.0015      0.0000      0.0000      0.0000      0.0000      0.0014      0.0000      0.0000
147      0.0000      0.0037      0.0000      0.0182      0.0024      0.0000      0.0000      0.0000      0.0000
148      0.0000      0.0026      0.0000      0.0000      0.0000      0.0000      0.0000      0.0000      0.0000
149      0.0000      0.0022      0.0000      0.0000      0.0000      0.0000      0.0000      0.0000      0.0000
150      0.0000      0.0013      0.0000      0.0000      0.0000      0.0000      0.0000      0.0000      0.0000

# j      m_j: min, <> & last-chain-values for 1 ...  7 chains
  1  0.0000E+00  2.7632E-05  0.0000E+00  0.0000E+00  0.0000E+00  0.0000E+00  0.0000E+00  0.0000E+00  0.0000E+00
  2  5.7996E-02  5.2103E-02  5.3750E-02  5.2691E-02  5.2932E-02  5.3342E-02  5.2617E-02  5.2657E-02  5.2681E-02
  3  0.0000E+00  4.5483E-05  0.0000E+00  0.0000E+00  0.0000E+00  0.0000E+00  0.0000E+00  0.0000E+00  0.0000E+00
  4  0.0000E+00  1.5250E-05  0.0000E+00  0.0000E+00  0.0000E+00  0.0000E+00  0.0000E+00  0.0000E+00  0.0000E+00
  5  0.0000E+00  3.4219E-05  0.0000E+00  0.0000E+00  0.0000E+00  0.0000E+00  0.0000E+00  0.0000E+00  0.0000E+00
  6  0.0000E+00  5.6392E-05  0.0000E+00  2.1787E-06  0.0000E+00  0.0000E+00  0.0000E+00  0.0000E+00  0.0000E+00
  7  0.0000E+00  7.3488E-05  0.0000E+00  0.0000E+00  0.0000E+00  0.0000E+00  0.0000E+00  0.0000E+00  0.0000E+00
  8  0.0000E+00  1.4632E-04  0.0000E+00  0.0000E+00  0.0000E+00  0.0000E+00  4.6944E-04  0.0000E+00  0.0000E+00
  9  0.0000E+00  4.3300E-04  0.0000E+00  0.0000E+00  0.0000E+00  0.0000E+00  0.0000E+00  0.0000E+00  0.0000E+00
 10  0.0000E+00  7.7842E-04  3.7768E-03  4.6401E-04  2.9649E-03  0.0000E+00  0.0000E+00  4.5367E-03  0.0000E+00
 11  0.0000E+00  5.0729E-03  8.3266E-03  1.8963E-03  0.0000E+00  6.9815E-03  6.5406E-03  8.8294E-04  1.3600E-03
 12  0.0000E+00  1.6931E-03  0.0000E+00  0.0000E+00  9.6796E-03  0.0000E+00  0.0000E+00  0.0000E+00  2.6931E-04
 13  0.0000E+00  7.1484E-04  0.0000E+00  0.0000E+00  0.0000E+00  0.0000E+00  1.6195E-03  0.0000E+00  0.0000E+00
 14  0.0000E+00  1.6445E-03  0.0000E+00  3.6176E-04  0.0000E+00  0.0000E+00  0.0000E+00  0.0000E+00  0.0000E+00
 15  0.0000E+00  1.9490E-03  0.0000E+00  0.0000E+00  0.0000E+00  0.0000E+00  0.0000E+00  0.0000E+00  5.5849E-03
 16  0.0000E+00  4.4798E-03  0.0000E+00  0.0000E+00  0.0000E+00  0.0000E+00  0.0000E+00  9.9042E-04  0.0000E+00
 17  0.0000E+00  7.9663E-03  0.0000E+00  0.0000E+00  0.0000E+00  1.0787E-02  0.0000E+00  0.0000E+00  0.0000E+00
 18  0.0000E+00  2.9726E-02  0.0000E+00  0.0000E+00  0.0000E+00  0.0000E+00  0.0000E+00  8.6024E-04  1.4809E-02
 19  0.0000E+00  1.1200E-01  0.0000E+00  1.0437E-01  2.5409E-01  1.0495E-01  4.0137E-02  8.0847E-02  2.9998E-02
 20  0.0000E+00  1.3016E-01  5.5904E-01  0.0000E+00  0.0000E+00  0.0000E+00  1.8519E-01  2.3889E-01  7.6464E-02
 21  6.1998E-03  1.6470E-01  0.0000E+00  2.0267E-02  2.7294E-01  0.0000E+00  4.2013E-01  1.1749E-01  2.2467E-01
 22  0.0000E+00  1.9171E-01  2.9923E-01  1.6647E-01  1.9850E-01  0.0000E+00  3.1506E-02  3.1828E-01  6.0137E-01
 23  0.0000E+00  4.5724E-01  0.0000E+00  1.0429E-01  0.0000E+00  4.9778E-01  2.3260E-01  4.2906E-01  0.0000E+00
 24  7.1032E-02  3.9612E-01  4.8696E-01  0.0000E+00  0.0000E+00  2.0423E-01  5.6265E-01  7.9169E-01  0.0000E+00
 25  0.0000E+00  4.5364E-01  9.0545E-01  1.1269E+00  2.1090E-01  3.4066E-01  2.0056E-01  0.0000E+00  2.8490E-01
 26  0.0000E+00  8.9696E-06  0.0000E+00  0.0000E+00  0.0000E+00  0.0000E+00  0.0000E+00  0.0000E+00  0.0000E+00
 27  0.0000E+00  4.4507E-05  0.0000E+00  0.0000E+00  3.1317E-04  0.0000E+00  0.0000E+00  0.0000E+00  0.0000E+00
 28  0.0000E+00  2.4112E-05  0.0000E+00  0.0000E+00  0.0000E+00  2.7334E-04  0.0000E+00  0.0000E+00  0.0000E+00
 29  0.0000E+00  1.5560E-05  0.0000E+00  0.0000E+00  0.0000E+00  0.0000E+00  0.0000E+00  0.0000E+00  0.0000E+00
 30  0.0000E+00  2.4362E-05  0.0000E+00  0.0000E+00  0.0000E+00  0.0000E+00  0.0000E+00  0.0000E+00  0.0000E+00
 31  0.0000E+00  3.1269E-05  0.0000E+00  0.0000E+00  0.0000E+00  0.0000E+00  0.0000E+00  0.0000E+00  0.0000E+00
 32  0.0000E+00  7.6997E-05  0.0000E+00  0.0000E+00  0.0000E+00  0.0000E+00  3.0443E-04  0.0000E+00  0.0000E+00
 33  0.0000E+00  3.3415E-04  0.0000E+00  0.0000E+00  0.0000E+00  1.8579E-03  0.0000E+00  0.0000E+00  4.4834E-03
 34  0.0000E+00  3.8549E-04  0.0000E+00  0.0000E+00  0.0000E+00  0.0000E+00  0.0000E+00  2.0310E-03  0.0000E+00
 35  0.0000E+00  1.0168E-03  0.0000E+00  0.0000E+00  0.0000E+00  5.9558E-04  0.0000E+00  0.0000E+00  0.0000E+00
 36  0.0000E+00  1.5961E-03  0.0000E+00  1.1094E-03  0.0000E+00  2.1252E-03  9.3060E-03  0.0000E+00  0.0000E+00
 37  0.0000E+00  1.0995E-03  0.0000E+00  3.5153E-03  0.0000E+00  5.1704E-04  0.0000E+00  0.0000E+00  0.0000E+00
 38  0.0000E+00  1.9116E-03  0.0000E+00  1.3659E-02  0.0000E+00  0.0000E+00  2.1754E-03  0.0000E+00  1.0954E-02
 39  0.0000E+00  2.1863E-03  0.0000E+00  0.0000E+00  0.0000E+00  9.0436E-05  0.0000E+00  0.0000E+00  0.0000E+00
 40  0.0000E+00  5.1892E-03  4.3084E-03  0.0000E+00  2.4309E-02  5.2935E-05  0.0000E+00  0.0000E+00  2.2128E-03
 41  0.0000E+00  1.4125E-02  0.0000E+00  7.9629E-03  0.0000E+00  3.0329E-02  0.0000E+00  0.0000E+00  0.0000E+00
 42  0.0000E+00  1.7286E-02  2.3964E-02  0.0000E+00  0.0000E+00  0.0000E+00  1.0697E-02  0.0000E+00  0.0000E+00
 43  7.0798E+00  7.2693E+00  7.4531E+00  7.3491E+00  7.4830E+00  7.5198E+00  7.2915E+00  7.1162E+00  7.1031E+00
 44  6.2320E+01  5.6866E+01  5.7826E+01  5.7461E+01  5.8183E+01  5.8304E+01  5.7557E+01  5.7318E+01  5.7913E+01
 45  8.4413E+00  7.8176E+00  7.7496E+00  7.7701E+00  7.7354E+00  8.6095E+00  8.9291E+00  8.1404E+00  7.9585E+00
 46  1.4923E+00  1.2049E+00  1.1650E+00  2.1089E+00  1.4955E+00  1.5690E+00  1.3174E+00  1.4258E+00  1.3122E+00
 47  0.0000E+00  2.7277E-01  4.0413E-02  5.6900E-01  1.7344E-01  0.0000E+00  2.9229E-01  2.4474E-01  7.7110E-01
 48  0.0000E+00  4.7861E-01  0.0000E+00  4.1018E-01  5.7091E-01  2.9481E-01  0.0000E+00  4.3846E-01  0.0000E+00
 49  0.0000E+00  2.4496E-01  5.8833E-01  7.7997E-01  0.0000E+00  5.3116E-01  0.0000E+00  4.1857E-01  6.8498E-01
 50  0.0000E+00  3.6453E-01  0.0000E+00  0.0000E+00  0.0000E+00  0.0000E+00  4.9571E-01  2.0542E-01  1.2802E+00
 51  0.0000E+00  1.5576E-05  0.0000E+00  0.0000E+00  0.0000E+00  0.0000E+00  0.0000E+00  0.0000E+00  0.0000E+00
 52  0.0000E+00  3.8698E-05  4.1344E-05  0.0000E+00  1.7702E-04  0.0000E+00  0.0000E+00  0.0000E+00  1.2724E-04
 53  0.0000E+00  3.9179E-05  0.0000E+00  0.0000E+00  3.6046E-04  0.0000E+00  0.0000E+00  0.0000E+00  0.0000E+00
 54  0.0000E+00  9.7252E-05  0.0000E+00  0.0000E+00  0.0000E+00  5.2605E-04  0.0000E+00  0.0000E+00  6.5429E-04
 55  0.0000E+00  8.9786E-05  0.0000E+00  0.0000E+00  0.0000E+00  0.0000E+00  0.0000E+00  0.0000E+00  9.3553E-05
 56  0.0000E+00  1.7227E-04  0.0000E+00  0.0000E+00  2.1202E-04  0.0000E+00  0.0000E+00  0.0000E+00  7.1206E-04
 57  0.0000E+00  1.5285E-04  0.0000E+00  1.5327E-04  0.0000E+00  0.0000E+00  0.0000E+00  0.0000E+00  0.0000E+00
 58  0.0000E+00  7.2821E-04  0.0000E+00  5.5562E-03  1.9275E-03  1.0608E-03  0.0000E+00  0.0000E+00  0.0000E+00
 59  0.0000E+00  9.0264E-04  3.9625E-03  0.0000E+00  0.0000E+00  0.0000E+00  4.5375E-03  0.0000E+00  1.0280E-03
 60  0.0000E+00  7.3695E-04  3.1694E-04  2.7074E-04  0.0000E+00  0.0000E+00  0.0000E+00  0.0000E+00  0.0000E+00
 61  0.0000E+00  8.1606E-04  0.0000E+00  0.0000E+00  0.0000E+00  0.0000E+00  0.0000E+00  0.0000E+00  2.8535E-03
 62  0.0000E+00  1.3162E-03  0.0000E+00  1.1106E-03  2.6581E-03  9.1876E-04  2.9708E-03  0.0000E+00  3.5961E-03
 63  0.0000E+00  1.5175E-03  0.0000E+00  0.0000E+00  0.0000E+00  0.0000E+00  0.0000E+00  0.0000E+00  0.0000E+00
 64  0.0000E+00  2.6811E-03  0.0000E+00  0.0000E+00  2.2592E-03  0.0000E+00  0.0000E+00  0.0000E+00  0.0000E+00
 65  0.0000E+00  1.1198E-02  0.0000E+00  9.7377E-03  0.0000E+00  0.0000E+00  0.0000E+00  3.3069E-03  0.0000E+00
 66  0.0000E+00  9.4724E-03  0.0000E+00  0.0000E+00  0.0000E+00  0.0000E+00  0.0000E+00  0.0000E+00  0.0000E+00
 67  0.0000E+00  2.7142E-02  5.1286E-02  2.8302E-02  0.0000E+00  0.0000E+00  0.0000E+00  2.9471E-02  0.0000E+00
 68  0.0000E+00  2.1901E-01  1.2236E-01  1.9259E-01  3.4822E-01  2.9490E-02  1.0185E-01  0.0000E+00  2.4690E-01
 69  0.0000E+00  4.1141E-02  9.9789E-02  0.0000E+00  6.8535E-03  0.0000E+00  0.0000E+00  0.0000E+00  0.0000E+00
 70  0.0000E+00  9.9777E-02  0.0000E+00  0.0000E+00  3.7265E-02  3.6240E-01  3.3627E-02  0.0000E+00  0.0000E+00
 71  2.5253E-01  2.8346E+00  2.8396E+00  2.9922E+00  2.0797E+00  2.8572E+00  2.1479E+00  2.6753E+00  2.6298E+00
 72  0.0000E+00  4.2348E-02  0.0000E+00  0.0000E+00  0.0000E+00  0.0000E+00  0.0000E+00  0.0000E+00  0.0000E+00
 73  0.0000E+00  3.7090E-02  0.0000E+00  0.0000E+00  0.0000E+00  0.0000E+00  0.0000E+00  1.5736E-03  0.0000E+00
 74  0.0000E+00  5.8189E-02  6.3928E-02  0.0000E+00  0.0000E+00  0.0000E+00  0.0000E+00  0.0000E+00  2.6039E-03
 75  0.0000E+00  7.2793E-02  0.0000E+00  0.0000E+00  0.0000E+00  1.0603E-01  0.0000E+00  0.0000E+00  0.0000E+00
 76  0.0000E+00  1.6981E-05  0.0000E+00  0.0000E+00  0.0000E+00  0.0000E+00  0.0000E+00  0.0000E+00  0.0000E+00
 77  0.0000E+00  9.1809E-06  0.0000E+00  0.0000E+00  0.0000E+00  0.0000E+00  0.0000E+00  4.5650E-05  0.0000E+00
 78  0.0000E+00  2.7249E-05  0.0000E+00  0.0000E+00  0.0000E+00  0.0000E+00  0.0000E+00  0.0000E+00  0.0000E+00
 79  0.0000E+00  1.6899E-04  0.0000E+00  3.0486E-04  7.0283E-04  6.3667E-04  0.0000E+00  0.0000E+00  2.0783E-04
 80  0.0000E+00  4.8910E-05  0.0000E+00  0.0000E+00  1.7256E-05  0.0000E+00  0.0000E+00  0.0000E+00  0.0000E+00
 81  0.0000E+00  7.1342E-05  0.0000E+00  0.0000E+00  0.0000E+00  0.0000E+00  0.0000E+00  4.8942E-04  1.5008E-04
 82  0.0000E+00  6.3039E-05  0.0000E+00  0.0000E+00  0.0000E+00  9.2074E-06  0.0000E+00  0.0000E+00  0.0000E+00
 83  0.0000E+00  2.6394E-04  0.0000E+00  1.0732E-03  0.0000E+00  0.0000E+00  0.0000E+00  9.5639E-04  0.0000E+00
 84  0.0000E+00  3.2938E-04  0.0000E+00  0.0000E+00  6.9292E-04  8.0875E-05  0.0000E+00  1.4612E-04  1.2663E-03
 85  0.0000E+00  3.9944E-04  0.0000E+00  2.4174E-04  0.0000E+00  0.0000E+00  0.0000E+00  0.0000E+00  0.0000E+00
 86  0.0000E+00  1.5439E-03  0.0000E+00  0.0000E+00  0.0000E+00  0.0000E+00  0.0000E+00  3.6163E-03  7.0659E-03
 87  0.0000E+00  1.3797E-03  0.0000E+00  8.7005E-03  0.0000E+00  0.0000E+00  0.0000E+00  0.0000E+00  0.0000E+00
 88  0.0000E+00  1.8608E-03  3.3732E-03  0.0000E+00  3.3276E-03  1.8047E-03  5.4371E-03  0.0000E+00  0.0000E+00
 89  0.0000E+00  3.2369E-03  0.0000E+00  0.0000E+00  0.0000E+00  0.0000E+00  0.0000E+00  1.0286E-03  2.3182E-03
 90  0.0000E+00  1.6248E-02  5.2149E-03  7.5129E-03  0.0000E+00  3.2102E-04  9.3415E-04  2.3771E-02  6.9953E-02
 91  0.0000E+00  1.3163E-02  0.0000E+00  5.0883E-02  0.0000E+00  0.0000E+00  0.0000E+00  0.0000E+00  0.0000E+00
 92  6.1912E-02  3.5907E-02  8.3150E-02  1.3990E-02  5.8928E-02  1.5538E-01  1.8072E-01  0.0000E+00  5.3223E-02
 93  0.0000E+00  1.4688E-01  1.9400E-01  0.0000E+00  1.6424E-01  0.0000E+00  9.4413E-02  3.8548E-01  1.5664E-01
 94  3.4725E+00  2.9530E+00  3.1032E+00  3.0060E+00  2.8883E+00  3.0700E+00  3.0512E+00  2.4825E+00  3.2898E+00
 95  0.0000E+00  4.0566E-01  2.4085E-01  7.4080E-01  4.4351E-01  3.7667E-01  3.3269E-01  0.0000E+00  5.2148E-02
 96  0.0000E+00  7.5194E-01  9.2213E-01  5.7492E-01  8.1905E-01  7.7907E-01  4.4514E-01  7.7163E-01  6.9515E-01
 97  4.3117E+00  3.3735E+00  3.4239E+00  3.0590E+00  3.4223E+00  2.7522E+00  3.5547E+00  4.1389E+00  3.5687E+00
 98  4.7591E+00  4.6929E+00  4.8010E+00  4.4943E+00  4.6382E+00  4.6342E+00  5.1096E+00  5.0713E+00  4.5017E+00
 99  3.4198E+00  3.1420E+00  3.0338E+00  3.1161E+00  3.5977E+00  2.7525E+00  3.2237E+00  2.7884E+00  2.0918E+00
100  2.0685E+00  2.4907E+00  2.5037E+00  2.0493E+00  3.2072E+00  1.7486E+00  2.6138E+00  2.5643E+00  2.2742E+00
101  0.0000E+00  1.2856E-05  0.0000E+00  0.0000E+00  0.0000E+00  0.0000E+00  0.0000E+00  0.0000E+00  0.0000E+00
102  0.0000E+00  1.0497E-05  0.0000E+00  0.0000E+00  0.0000E+00  0.0000E+00  0.0000E+00  0.0000E+00  0.0000E+00
103  0.0000E+00  5.9237E-05  2.4985E-04  0.0000E+00  3.4926E-04  0.0000E+00  0.0000E+00  0.0000E+00  0.0000E+00
104  0.0000E+00  2.7505E-05  0.0000E+00  0.0000E+00  0.0000E+00  0.0000E+00  0.0000E+00  0.0000E+00  0.0000E+00
105  0.0000E+00  2.1207E-05  0.0000E+00  0.0000E+00  0.0000E+00  0.0000E+00  0.0000E+00  0.0000E+00  0.0000E+00
106  0.0000E+00  3.0398E-05  0.0000E+00  0.0000E+00  0.0000E+00  0.0000E+00  3.3495E-04  0.0000E+00  1.4620E-05
107  0.0000E+00  1.2219E-04  0.0000E+00  0.0000E+00  0.0000E+00  0.0000E+00  0.0000E+00  0.0000E+00  0.0000E+00
108  0.0000E+00  1.4609E-04  0.0000E+00  0.0000E+00  0.0000E+00  0.0000E+00  0.0000E+00  0.0000E+00  0.0000E+00
109  0.0000E+00  2.1729E-04  0.0000E+00  0.0000E+00  0.0000E+00  0.0000E+00  0.0000E+00  0.0000E+00  0.0000E+00
110  0.0000E+00  3.9753E-04  8.2176E-05  0.0000E+00  0.0000E+00  3.2309E-03  0.0000E+00  2.1863E-03  0.0000E+00
111  0.0000E+00  9.5808E-04  0.0000E+00  0.0000E+00  3.4389E-04  2.2640E-03  1.4139E-04  0.0000E+00  1.9444E-03
112  0.0000E+00  1.1327E-03  5.0904E-03  0.0000E+00  0.0000E+00  0.0000E+00  0.0000E+00  0.0000E+00  0.0000E+00
113  0.0000E+00  2.5834E-03  5.0230E-03  1.4841E-02  0.0000E+00  0.0000E+00  0.0000E+00  1.4250E-02  3.0699E-04
114  0.0000E+00  4.9730E-03  0.0000E+00  0.0000E+00  4.2699E-02  0.0000E+00  0.0000E+00  4.2698E-03  0.0000E+00
115  2.1663E-01  5.1434E-02  3.6705E-02  3.5435E-02  4.5539E-02  5.4979E-02  1.2596E-01  2.0575E-02  1.1416E-01
116  4.1844E-01  5.3160E-02  7.9623E-02  0.0000E+00  0.0000E+00  8.6176E-02  1.9277E-01  4.2595E-02  3.8856E-02
117  0.0000E+00  1.1777E-01  1.8773E-01  2.6532E-02  0.0000E+00  3.6882E-01  0.0000E+00  1.0549E-01  2.3095E-01
118  0.0000E+00  1.3976E-01  5.9579E-02  5.9274E-01  1.9468E-01  0.0000E+00  0.0000E+00  1.9789E-01  3.2964E-01
119  0.0000E+00  6.2257E-02  5.4826E-02  0.0000E+00  2.4674E-01  0.0000E+00  0.0000E+00  0.0000E+00  0.0000E+00
120  0.0000E+00  1.3330E-01  1.1114E-01  0.0000E+00  0.0000E+00  4.5624E-01  0.0000E+00  0.0000E+00  0.0000E+00
121  0.0000E+00  1.3973E-01  0.0000E+00  0.0000E+00  0.0000E+00  0.0000E+00  0.0000E+00  4.1880E-01  0.0000E+00
122  0.0000E+00  1.5484E-01  0.0000E+00  1.0761E-01  1.7525E-01  0.0000E+00  0.0000E+00  2.3255E-02  0.0000E+00
123  0.0000E+00  4.1043E-02  2.0151E-01  0.0000E+00  0.0000E+00  0.0000E+00  2.5276E-01  0.0000E+00  0.0000E+00
124  0.0000E+00  1.0275E-01  0.0000E+00  0.0000E+00  0.0000E+00  0.0000E+00  0.0000E+00  2.0986E-01  0.0000E+00
125  0.0000E+00  7.8993E-02  0.0000E+00  0.0000E+00  0.0000E+00  6.3978E-01  0.0000E+00  0.0000E+00  4.0671E-01
126  0.0000E+00  8.9524E-06  0.0000E+00  0.0000E+00  0.0000E+00  0.0000E+00  0.0000E+00  0.0000E+00  0.0000E+00
127  0.0000E+00  2.0253E-05  0.0000E+00  0.0000E+00  1.4936E-05  0.0000E+00  0.0000E+00  1.0177E-05  0.0000E+00
128  0.0000E+00  4.6027E-05  0.0000E+00  0.0000E+00  2.9638E-05  0.0000E+00  0.0000E+00  0.0000E+00  0.0000E+00
129  0.0000E+00  2.2219E-05  0.0000E+00  0.0000E+00  0.0000E+00  8.2304E-05  0.0000E+00  0.0000E+00  0.0000E+00
130  0.0000E+00  6.1975E-05  0.0000E+00  0.0000E+00  0.0000E+00  0.0000E+00  0.0000E+00  0.0000E+00  0.0000E+00
131  0.0000E+00  6.9688E-05  0.0000E+00  0.0000E+00  0.0000E+00  0.0000E+00  0.0000E+00  0.0000E+00  0.0000E+00
132  0.0000E+00  1.0060E-04  0.0000E+00  0.0000E+00  0.0000E+00  0.0000E+00  0.0000E+00  0.0000E+00  0.0000E+00
133  0.0000E+00  3.4819E-04  0.0000E+00  0.0000E+00  0.0000E+00  0.0000E+00  0.0000E+00  0.0000E+00  3.2930E-04
134  0.0000E+00  3.0529E-04  0.0000E+00  0.0000E+00  0.0000E+00  0.0000E+00  3.9626E-04  0.0000E+00  0.0000E+00
135  0.0000E+00  3.6922E-04  0.0000E+00  1.6742E-05  0.0000E+00  0.0000E+00  0.0000E+00  0.0000E+00  0.0000E+00
136  0.0000E+00  5.0290E-04  0.0000E+00  0.0000E+00  0.0000E+00  0.0000E+00  0.0000E+00  0.0000E+00  0.0000E+00
137  0.0000E+00  1.5520E-03  0.0000E+00  5.3215E-04  0.0000E+00  0.0000E+00  0.0000E+00  0.0000E+00  0.0000E+00
138  0.0000E+00  2.7314E-03  2.8452E-03  0.0000E+00  0.0000E+00  0.0000E+00  0.0000E+00  0.0000E+00  0.0000E+00
139  0.0000E+00  2.0708E-02  0.0000E+00  6.6872E-03  0.0000E+00  5.0495E-02  3.1757E-03  7.9446E-02  0.0000E+00
140  0.0000E+00  1.0525E-01  9.7010E-02  1.8567E-01  3.3133E-01  1.4507E-01  3.2297E-02  6.1764E-02  1.2358E-01
141  1.5506E+00  2.4193E-01  2.0860E-01  2.8828E-01  3.5698E-01  3.4703E-01  5.4164E-01  3.2747E-01  4.3458E-01
142  0.0000E+00  1.1098E-01  2.8692E-01  1.1884E-01  8.0425E-02  1.3349E-01  1.4245E-01  1.7233E-01  1.3884E-01
143  0.0000E+00  1.3921E-01  0.0000E+00  0.0000E+00  1.0504E-01  0.0000E+00  0.0000E+00  3.1777E-02  1.9453E-01
144  0.0000E+00  3.8877E-02  0.0000E+00  0.0000E+00  0.0000E+00  0.0000E+00  0.0000E+00  0.0000E+00  0.0000E+00
145  0.0000E+00  1.1498E-02  0.0000E+00  0.0000E+00  0.0000E+00  0.0000E+00  1.5306E-01  0.0000E+00  0.0000E+00
146  0.0000E+00  1.3517E-02  0.0000E+00  0.0000E+00  0.0000E+00  0.0000E+00  1.2076E-02  0.0000E+00  0.0000E+00
147  0.0000E+00  4.3281E-02  0.0000E+00  2.1739E-01  2.9113E-02  0.0000E+00  0.0000E+00  0.0000E+00  0.0000E+00
148  0.0000E+00  4.1872E-02  0.0000E+00  0.0000E+00  0.0000E+00  0.0000E+00  0.0000E+00  0.0000E+00  0.0000E+00
149  0.0000E+00  4.0862E-02  0.0000E+00  0.0000E+00  0.0000E+00  0.0000E+00  0.0000E+00  0.0000E+00  0.0000E+00
150  0.0000E+00  3.0163E-02  0.0000E+00  0.0000E+00  0.0000E+00  0.0000E+00  0.0000E+00  0.0000E+00  0.0000E+00

# AV, chi2 & Mass for <> & i_chain = 1 ...  7 solutions
AV       0.1498      0.1472      0.1481      0.1469      0.1483      0.1493      0.1464      0.1463      0.1484
chi2 2.8802E+00  2.9813E+00  2.9552E+00  2.9624E+00  2.9561E+00  2.9545E+00  2.9463E+00  2.9548E+00  2.9561E+00
Mass 5.4670E-10  5.7120E-10  5.6649E-10  5.6655E-10  5.6446E-10  5.6126E-10  5.6635E-10  5.7120E-10  5.6447E-10
 -16.98                                  [v0_min (km/s) before EX0s...]
  66.68                                  [vd_min (km/s) before EX0s...]


## Synthetic spectrum (Best Model) ##l_obs f_obs f_syn wei
 3070    [Nl_obs]
 3359.00    0.00000   0.44498   -2.000
 3360.00    0.09616   0.43482   -1.000
 3361.00    0.22707   0.44702   -1.000
 3362.00    0.23840   0.47306   -1.000
 3363.00    0.26163   0.50073   -1.000
 3364.00    0.28134   0.51601   -1.000
 3365.00    0.28968   0.51473   -1.000
 3366.00    0.28910   0.50644   -1.000
 3367.00    0.28790   0.49754   -1.000
 3368.00    0.28563   0.48812   -1.000
 3369.00    0.27901   0.47580   -1.000
 3370.00    0.27596   0.46007   -1.000
 3371.00    0.27711   0.45051   -1.000
 3372.00    0.27934   0.45556   -1.000
 3373.00    0.28998   0.47391   -1.000
 3374.00    0.30504   0.49743   -1.000
 3375.00    0.32064   0.51780   -1.000
 3376.00    0.33357   0.52749   -1.000
 3377.00    0.34226   0.52437   -1.000
 3378.00    0.34775   0.51335   -1.000
 3379.00    0.34329   0.50449   -1.000
 3380.00    0.33740   0.50373   -1.000
 3381.00    0.34452   0.50882   -1.000
 3382.00    0.35088   0.51536   -1.000
 3383.00    0.35318   0.52156   -1.000
 3384.00    0.35916   0.52711   -1.000
 3385.00    0.36974   0.52941   -1.000
 3386.00    0.37255   0.52411   -1.000
 3387.00    0.37246   0.51549   -1.000
 3388.00    0.37817   0.51336   -1.000
 3389.00    0.38322   0.51977   -1.000
 3390.00    0.38925   0.52772   -1.000
 3391.00    0.39405   0.52957   -1.000
 3392.00    0.39757   0.52381   -1.000
 3393.00    0.40039   0.52006   -1.000
 3394.00    0.40680   0.52551   -1.000
 3395.00    0.41681   0.53841   -1.000
 3396.00    0.42880   0.55357   -1.000
 3397.00    0.44338   0.56602   -1.000
 3398.00    0.45523   0.57335   -1.000
 3399.00    0.46314   0.57332   -1.000
 3400.00    0.46879   0.56596   -1.000
 3401.00    0.46634   0.55204   -1.000
 3402.00    0.45966   0.53619   -1.000
 3403.00    0.45138   0.52662   -1.000
 3404.00    0.44066   0.52451   -1.000
 3405.00    0.43716   0.52664   -1.000
 3406.00    0.43322   0.52551   -1.000
 3407.00    0.42676   0.51935   -1.000
 3408.00    0.42826   0.51406   -1.000
 3409.00    0.42941   0.51647   -1.000
 3410.00    0.43326   0.52302   -1.000
 3411.00    0.43787   0.52406   -1.000
 3412.00    0.43283   0.51925   -1.000
 3413.00    0.42280   0.51427   -1.000
 3414.00    0.41979   0.51666   -1.000
 3415.00    0.42481   0.52683   -1.000
 3416.00    0.43332   0.53845   -1.000
 3417.00    0.44224   0.54835   -1.000
 3418.00    0.45299   0.55654   -1.000
 3419.00    0.46414   0.56319   -1.000
 3420.00    0.46949   0.56658   -1.000
 3421.00    0.46894   0.56243   -1.000
 3422.00    0.46742   0.55021   -1.000
 3423.00    0.46765   0.53775   -1.000
 3424.00    0.46506   0.53323   -1.000
 3425.00    0.46409   0.53677   -1.000
 3426.00    0.47023   0.54435   -1.000
 3427.00    0.47938   0.55570   -1.000
 3428.00    0.48823   0.57063   -1.000
 3429.00    0.49323   0.58325   -1.000
 3430.00    0.49778   0.58355   -1.000
 3431.00    0.50190   0.56954   -1.000
 3432.00    0.50077   0.55392   -1.000
 3433.00    0.49802   0.55016   -1.000
 3434.00    0.49493   0.56067   -1.000
 3435.00    0.50153   0.57336   -1.000
 3436.00    0.50547   0.57501   -1.000
 3437.00    0.49730   0.56463   -1.000
 3438.00    0.48320   0.54855   -1.000
 3439.00    0.46937   0.53115   -1.000
 3440.00    0.46093   0.51419   -1.000
 3441.00    0.45206   0.50030   -1.000
 3442.00    0.44458   0.49412   -1.000
 3443.00    0.44811   0.49704   -1.000
 3444.00    0.45874   0.50730   -1.000
 3445.00    0.47133   0.52314   -1.000
 3446.00    0.48549   0.54358   -1.000
 3447.00    0.49789   0.56446   -1.000
 3448.00    0.50587   0.57932   -1.000
 3449.00    0.51226   0.58126   -1.000
 3450.00    0.52079   0.56761   -1.000
 3451.00    0.52113   0.54772   -1.000
 3452.00    0.51484   0.53450   -1.000
 3453.00    0.51163   0.53299   -1.000
 3454.00    0.51655   0.53958   -1.000
 3455.00    0.52884   0.54719   -1.000
 3456.00    0.53179   0.55038   -1.000
 3457.00    0.52586   0.54780   -1.000
 3458.00    0.52339   0.54075   -1.000
 3459.00    0.51532   0.53138  171.874
 3460.00    0.50792   0.52285   81.299
 3461.00    0.51035   0.52176   81.724
 3462.00    0.51164   0.53040  128.357
 3463.00    0.51693   0.54091   -1.000
 3464.00    0.52844   0.54475   -1.000
 3465.00    0.53282   0.54290   -1.000
 3466.00    0.53537   0.54447   -1.000
 3467.00    0.54189   0.55413   -1.000
 3468.00    0.54832   0.56845   -1.000
 3469.00    0.55637   0.58001   -1.000
 3470.00    0.56071   0.58293   -1.000
 3471.00    0.55842   0.57670   -1.000
 3472.00    0.55038   0.56343   -1.000
 3473.00    0.54155   0.54538  633.355
 3474.00    0.53238   0.52911  633.355
 3475.00    0.51766   0.52100  174.064
 3476.00    0.51275   0.52415   82.754
 3477.00    0.51854   0.53683   83.835
 3478.00    0.53478   0.55186  129.542
 3479.00    0.55453   0.56482   -1.000
 3480.00    0.56748   0.57346   -1.000
 3481.00    0.57267   0.57488  633.355
 3482.00    0.57066   0.57053  633.355
 3483.00    0.56682   0.56572  633.355
 3484.00    0.56555   0.56624  633.355
 3485.00    0.56984   0.57410  633.355
 3486.00    0.57860   0.58239  633.355
 3487.00    0.58360   0.58275  633.355
 3488.00    0.57880   0.57365   -1.000
 3489.00    0.56382   0.55946  633.355
 3490.00    0.55104   0.54962  633.355
 3491.00    0.54006   0.55061   -1.000
 3492.00    0.53883   0.55713   -1.000
 3493.00    0.54575   0.55938   -1.000
 3494.00    0.54861   0.55428   -1.000
 3495.00    0.54393   0.54439  633.355
 3496.00    0.54271   0.53745   -1.000
 3497.00    0.55045   0.53927   -1.000
 3498.00    0.56174   0.54710   -1.000
 3499.00    0.56761   0.55549   -1.000
 3500.00    0.57220   0.55911   -1.000
 3501.00    0.58188   0.56008   -1.000
 3502.00    0.58417   0.56260   -1.000
 3503.00    0.58003   0.56470   -1.000
 3504.00    0.57952   0.56324   -1.000
 3505.00    0.57803   0.55769   -1.000
 3506.00    0.57549   0.55170   -1.000
 3507.00    0.58124   0.54819   -1.000
 3508.00    0.58648   0.54738   -1.000
 3509.00    0.58776   0.54775   -1.000
 3510.00    0.58620   0.54641   -1.000
 3511.00    0.57538   0.54262   -1.000
 3512.00    0.56482   0.53733   -1.000
 3513.00    0.55820   0.53405   -1.000
 3514.00    0.55446   0.53736   -1.000
 3515.00    0.55969   0.55002   -1.000
 3516.00    0.57595   0.56879   -1.000
 3517.00    0.58873   0.58263   -1.000
 3518.00    0.59161   0.58265   -1.000
 3519.00    0.58719   0.57026   -1.000
 3520.00    0.57869   0.55555   -1.000
 3521.00    0.56489   0.54515   -1.000
 3522.00    0.55541   0.53828   -1.000
 3523.00    0.55153   0.53082   -1.000
 3524.00    0.54306   0.52193   -1.000
 3525.00    0.53113   0.51789   81.958
 3526.00    0.52685   0.52408   83.518
 3527.00    0.53569   0.53815  128.856
 3528.00    0.55798   0.55543  633.355
 3529.00    0.57806   0.57058   -1.000
 3530.00    0.58270   0.57992  633.355
 3531.00    0.57987   0.58226  633.355
 3532.00    0.57914   0.57688  633.355
 3533.00    0.58391   0.56712   -1.000
 3534.00    0.58961   0.56066   -1.000
 3535.00    0.59099   0.56322   -1.000
 3536.00    0.58880   0.57482   -1.000
 3537.00    0.58982   0.58881  633.355
 3538.00    0.59755   0.59901  633.355
 3539.00    0.60681   0.60365  633.355
 3540.00    0.60507   0.60332  633.355
 3541.00    0.59470   0.60110   -1.000
 3542.00    0.59086   0.60134   -1.000
 3543.00    0.59736   0.60543   -1.000
 3544.00    0.59857   0.60900   -1.000
 3545.00    0.59630   0.60838   -1.000
 3546.00    0.59382   0.60470   -1.000
 3547.00    0.59189   0.60090   -1.000
 3548.00    0.59231   0.59975   -1.000
 3549.00    0.59291   0.60224   -1.000
 3550.00    0.59238   0.60683   -1.000
 3551.00    0.58874   0.60861   -1.000
 3552.00    0.58379   0.60325   -1.000
 3553.00    0.57643   0.59380   -1.000
 3554.00    0.57347   0.58783   -1.000
 3555.00    0.57201   0.58928   -1.000
 3556.00    0.56674   0.59649   -1.000
 3557.00    0.56819   0.60482   -1.000
 3558.00    0.57399   0.60914   -1.000
 3559.00    0.57830   0.60926   -1.000
 3560.00    0.57907   0.60861   -1.000
 3561.00    0.58199   0.60827   -1.000
 3562.00    0.58722   0.60466   -1.000
 3563.00    0.58008   0.59375   -1.000
 3564.00    0.56507   0.57655   -1.000
 3565.00    0.54754   0.55949  178.644
 3566.00    0.53279   0.54953   82.921
 3567.00    0.52937   0.54741   84.599
 3568.00    0.53059   0.54745   83.793
 3569.00    0.52623   0.54349   84.621
 3570.00    0.52251   0.53515   87.023
 3571.00    0.52389   0.52835   86.873
 3572.00    0.52797   0.52721   83.646
 3573.00    0.53681   0.53035  124.913
 3574.00    0.54649   0.53625   -1.000
 3575.00    0.54669   0.54430  633.355
 3576.00    0.54767   0.55276   -1.000
 3577.00    0.55427   0.55958   -1.000
 3578.00    0.55055   0.56112   -1.000
 3579.00    0.54030   0.55468  186.261
 3580.00    0.52821   0.54321   86.885
 3581.00    0.51571   0.53245   93.018
 3582.00    0.51004   0.52744   96.346
 3583.00    0.50938   0.52660   96.848
 3584.00    0.50581   0.52093   98.039
 3585.00    0.49498   0.50684  100.832
 3586.00    0.48733   0.49255  103.430
 3587.00    0.48987   0.48948  102.171
 3588.00    0.49839   0.50123   96.840
 3589.00    0.51279   0.52185   91.870
 3590.00    0.53281   0.54165   85.865
 3591.00    0.55480   0.55450  123.728
 3592.00    0.56967   0.56037   -1.000
 3593.00    0.57517   0.56379   -1.000
 3594.00    0.57421   0.56989  633.355
 3595.00    0.57762   0.57970  633.355
 3596.00    0.58528   0.58938  633.355
 3597.00    0.59094   0.59571   -1.000
 3598.00    0.59465   0.59873  626.220
 3599.00    0.59493   0.59896  612.238
 3600.00    0.59554   0.59404  609.004
 3601.00    0.59418   0.58300   -1.000
 3602.00    0.58131   0.57092   -1.000
 3603.00    0.56775   0.56399  633.355
 3604.00    0.56298   0.56447  633.355
 3605.00    0.56426   0.56720  633.355
 3606.00    0.56827   0.56650  633.355
 3607.00    0.57051   0.56218   -1.000
 3608.00    0.56374   0.55710   -1.000
 3609.00    0.55092   0.55408  633.355
 3610.00    0.54682   0.55413   -1.000
 3611.00    0.55228   0.55772   -1.000
 3612.00    0.56119   0.56376  633.355
 3613.00    0.56686   0.57114   -1.000
 3614.00    0.57027   0.58163   -1.000
 3615.00    0.57581   0.59223   -1.000
 3616.00    0.58242   0.59387   -1.000
 3617.00    0.57326   0.58364   -1.000
 3618.00    0.55573   0.56801   -1.000
 3619.00    0.54826   0.55956  180.943
 3620.00    0.55951   0.56521  121.935
 3621.00    0.58244   0.57890  633.355
 3622.00    0.59750   0.59164   -1.000
 3623.00    0.59872   0.60057  633.355
 3624.00    0.59937   0.60988   -1.000
 3625.00    0.61000   0.62385   -1.000
 3626.00    0.62499   0.64002   -1.000
 3627.00    0.63150   0.64903   -1.000
 3628.00    0.62673   0.64137   -1.000
 3629.00    0.60910   0.61756   -1.000
 3630.00    0.58687   0.58883  633.355
 3631.00    0.56555   0.57043  633.355
 3632.00    0.55527   0.56959   -1.000
 3633.00    0.56405   0.58089   -1.000
 3634.00    0.57157   0.59213   -1.000
 3635.00    0.58075   0.59734   -1.000
 3636.00    0.59692   0.60130  633.355
 3637.00    0.60898   0.60956  633.355
 3638.00    0.61728   0.62015  621.619
 3639.00    0.62585   0.62709  596.426
 3640.00    0.62120   0.62675   -1.000
 3641.00    0.61358   0.61906   -1.000
 3642.00    0.60301   0.60721  606.241
 3643.00    0.59384   0.59611  631.482
 3644.00    0.58747   0.58833  633.355
 3645.00    0.58697   0.58363  633.355
 3646.00    0.58685   0.58114   -1.000
 3647.00    0.58385   0.58059  633.355
 3648.00    0.58311   0.58126  633.355
 3649.00    0.58613   0.58293  633.355
 3650.00    0.59040   0.58709  633.355
 3651.00    0.59809   0.59530  633.355
 3652.00    0.61213   0.60710  617.044
 3653.00    0.62401   0.61967  595.339
 3654.00    0.63158   0.63151  583.266
 3655.00    0.63377   0.64172   -1.000
 3656.00    0.63586   0.64887   -1.000
 3657.00    0.64340   0.65207   -1.000
 3658.00    0.64952   0.65192  560.086
 3659.00    0.64608   0.64948  554.336
 3660.00    0.63827   0.64461   -1.000
 3661.00    0.63510   0.63764  557.117
 3662.00    0.63037   0.63099  563.320
 3663.00    0.63104   0.62762  570.737
 3664.00    0.63515   0.62852   -1.000
 3665.00    0.63752   0.63123   -1.000
 3666.00    0.63841   0.63237   -1.000
 3667.00    0.63403   0.63011  579.016
 3668.00    0.62332   0.62512  589.222
 3669.00    0.61667   0.62088  598.679
 3670.00    0.62207   0.62092  606.540
 3671.00    0.63022   0.62633  595.004
 3672.00    0.63239   0.63402  576.361
 3673.00    0.63221   0.63854   -1.000
 3674.00    0.63341   0.63699  567.375
 3675.00    0.63249   0.62952  567.810
 3676.00    0.62516   0.61760   -1.000
 3677.00    0.61644   0.60504   -1.000
 3678.00    0.61064   0.59707   -1.000
 3679.00    0.60666   0.59661   -1.000
 3680.00    0.60612   0.60112   -1.000
 3681.00    0.61107   0.60633  630.631
 3682.00    0.61627   0.60955   -1.000
 3683.00    0.61222   0.60894  600.039
 3684.00    0.60785   0.60409  602.164
 3685.00    0.60299   0.59689   -1.000
 3686.00    0.59571   0.59282  633.355
 3687.00    0.59472   0.59834  633.355
 3688.00    0.60778   0.61405   -1.000
 3689.00    0.62436   0.63139   -1.000
 3690.00    0.63733   0.64148  595.751
 3691.00    0.64573   0.64383  564.485
 3692.00    0.64405   0.64366  555.672
 3693.00    0.64034   0.64511  564.373
 3694.00    0.64300   0.64740  577.287
 3695.00    0.64542   0.64675  581.129
 3696.00    0.64535   0.64228  577.435
 3697.00    0.64441   0.64162  571.520
 3698.00    0.65439   0.65305  559.959
 3699.00    0.67500   0.67314  542.976
 3700.00    0.68419   0.68699  531.727
 3701.00    0.67422   0.67864  531.130
 3702.00    0.64617   0.64734  546.806
 3703.00    0.61234   0.60787  581.804
 3704.00    0.58555   0.57869   -1.000
 3705.00    0.57563   0.57041   -1.000
 3706.00    0.58841   0.58059   -1.000
 3707.00    0.60838   0.59804   -1.000
 3708.00    0.62112   0.60988   -1.000
 3709.00    0.62173   0.60874   -1.000
 3710.00    0.61633   0.59834   -1.000
 3711.00    0.61068   0.59086   -1.000
 3712.00    0.62300   0.59799   -1.000
 3713.00    0.64616   0.62325   -1.000
 3714.00    0.67170   0.65802   -1.000
 3715.00    0.69064   0.68796  523.676
 3716.00    0.70066   0.70391  527.882
 3717.00    0.69562   0.70123   -1.000
 3718.00    0.66908   0.67530   -1.000
 3719.00    0.61848   0.62700   -1.000
 3720.00    0.56651   0.57182  633.355
 3721.00    0.53948   0.53551  191.027
 3722.00    0.54501   0.53444  121.501
 3723.00    0.58148   0.56782   -1.000
 3724.00    0.63556   0.61888   -1.000
 3725.00    0.67650   0.66232   -1.000
 3726.00    0.68655   0.68585  584.819
 3727.00    0.68173   0.69538   -1.000
 3728.00    0.69010   0.70027   -1.000
 3729.00    0.69911   0.70140  608.703
 3730.00    0.69060   0.68981  604.421
 3731.00    0.65932   0.65469  618.646
 3732.00    0.61383   0.59870   -1.000
 3733.00    0.55615   0.54087   -1.000
 3734.00    0.51363   0.50179   83.830
 3735.00    0.50519   0.49591   91.515
 3736.00    0.52664   0.52492   91.881
 3737.00    0.57047   0.57588   85.657
 3738.00    0.62272   0.63284  118.341
 3739.00    0.66857   0.68332   -1.000
 3740.00    0.70258   0.71535   -1.000
 3741.00    0.71966   0.72392  601.796
 3742.00    0.71429   0.71401  608.490
 3743.00    0.69760   0.69516  633.355
 3744.00    0.67584   0.67247  633.355
 3745.00    0.64668   0.64674  633.355
 3746.00    0.61815   0.61599  633.355
 3747.00    0.58845   0.57932  191.582
 3748.00    0.54852   0.54145   83.524
 3749.00    0.51658   0.51427   87.338
 3750.00    0.51828   0.51430  129.118
 3751.00    0.55993   0.54865   -1.000
 3752.00    0.61977   0.60546   -1.000
 3753.00    0.67875   0.66418   -1.000
 3754.00    0.72172   0.70853   -1.000
 3755.00    0.74188   0.73150   -1.000
 3756.00    0.73834   0.73133   -1.000
 3757.00    0.72182   0.71367   -1.000
 3758.00    0.70125   0.69288   -1.000
 3759.00    0.69665   0.68166   -1.000
 3760.00    0.70853   0.68379   -1.000
 3761.00    0.72248   0.69541   -1.000
 3762.00    0.73577   0.70762   -1.000
 3763.00    0.74077   0.71316   -1.000
 3764.00    0.73887   0.70953   -1.000
 3765.00    0.72612   0.69723   -1.000
 3766.00    0.70335   0.67654   -1.000
 3767.00    0.67533   0.64593   -1.000
 3768.00    0.64744   0.60775   -1.000
 3769.00    0.60900   0.57178   -1.000
 3770.00    0.58189   0.55298   -1.000
 3771.00    0.58661   0.56353   -1.000
 3772.00    0.62237   0.59989   -1.000
 3773.00    0.66489   0.64488   -1.000
 3774.00    0.69596   0.68139   -1.000
 3775.00    0.71942   0.70543   -1.000
 3776.00    0.73889   0.72450   -1.000
 3777.00    0.76415   0.74693   -1.000
 3778.00    0.78891   0.77302   -1.000
 3779.00    0.81218   0.79814   -1.000
 3780.00    0.83222   0.81759   -1.000
 3781.00    0.83936   0.82769   -1.000
 3782.00    0.84170   0.82861   -1.000
 3783.00    0.84583   0.82337   -1.000
 3784.00    0.83888   0.81371   -1.000
 3785.00    0.81910   0.79898   -1.000
 3786.00    0.79915   0.78001   -1.000
 3787.00    0.78297   0.76144   -1.000
 3788.00    0.77317   0.74970   -1.000
 3789.00    0.76713   0.74600   -1.000
 3790.00    0.76029   0.74504   -1.000
 3791.00    0.75449   0.73983   -1.000
 3792.00    0.74042   0.72527   -1.000
 3793.00    0.71355   0.69857   -1.000
 3794.00    0.68037   0.66016   -1.000
 3795.00    0.64144   0.61463   -1.000
 3796.00    0.59747   0.56884   -1.000
 3797.00    0.55724   0.53364   -1.000
 3798.00    0.54558   0.52477   -1.000
 3799.00    0.57539   0.55268   -1.000
 3800.00    0.62873   0.61001   -1.000
 3801.00    0.68468   0.67432   -1.000
 3802.00    0.73303   0.72638   -1.000
 3803.00    0.76621   0.75929   -1.000
 3804.00    0.78027   0.77574  569.149
 3805.00    0.78285   0.78088  570.315
 3806.00    0.78160   0.78349  583.870
 3807.00    0.78746   0.79193  602.595
 3808.00    0.80890   0.80840  604.160
 3809.00    0.82969   0.82758  585.071
 3810.00    0.84195   0.83921  567.965
 3811.00    0.84376   0.83395   -1.000
 3812.00    0.82878   0.81191   -1.000
 3813.00    0.81424   0.78480   -1.000
 3814.00    0.80176   0.76685   -1.000
 3815.00    0.79303   0.76592   -1.000
 3816.00    0.79084   0.77812   -1.000
 3817.00    0.80084   0.79127   -1.000
 3818.00    0.80271   0.79252   -1.000
 3819.00    0.78437   0.77989  633.355
 3820.00    0.76968   0.76489   -1.000
 3821.00    0.76969   0.75919   -1.000
 3822.00    0.77995   0.76113   -1.000
 3823.00    0.77524   0.75612   -1.000
 3824.00    0.74937   0.73743   -1.000
 3825.00    0.72097   0.71475  203.151
 3826.00    0.70507   0.69788   85.065
 3827.00    0.70362   0.68708   85.967
 3828.00    0.69839   0.67797   84.954
 3829.00    0.68730   0.66670   83.561
 3830.00    0.67409   0.64873   83.034
 3831.00    0.64161   0.61920   85.063
 3832.00    0.59829   0.57641   90.006
 3833.00    0.55371   0.52790   95.761
 3834.00    0.51937   0.49038   96.891
 3835.00    0.50641   0.47625   94.171
 3836.00    0.52011   0.48749   -1.000
 3837.00    0.54708   0.51812   90.353
 3838.00    0.57384   0.55744   92.445
 3839.00    0.60633   0.59716   93.307
 3840.00    0.64553   0.63657   90.234
 3841.00    0.68652   0.67680  124.935
 3842.00    0.72723   0.71647   -1.000
 3843.00    0.76866   0.75183   -1.000
 3844.00    0.78937   0.77837   -1.000
 3845.00    0.79802   0.79662  633.355
 3846.00    0.80825   0.81024  633.355
 3847.00    0.81656   0.81994  633.355
 3848.00    0.81729   0.82331   -1.000
 3849.00    0.81191   0.82163   -1.000
 3850.00    0.80886   0.82300   -1.000
 3851.00    0.81856   0.83357   -1.000
 3852.00    0.83229   0.84908   -1.000
 3853.00    0.84041   0.85938   -1.000
 3854.00    0.83915   0.85835   -1.000
 3855.00    0.82282   0.84826   -1.000
 3856.00    0.80764   0.83553   -1.000
 3857.00    0.79947   0.82427   -1.000
 3858.00    0.78718   0.81610   -1.000
 3859.00    0.77298   0.81465   -1.000
 3860.00    0.77385   0.82309   -1.000
 3861.00    0.79631   0.83862   -1.000
 3862.00    0.83045   0.85312   -1.000
 3863.00    0.85627   0.86051  633.355
 3864.00    0.86159   0.86077  633.355
 3865.00    0.85540   0.85869  633.355
 3866.00    0.84955   0.85936   -1.000
 3867.00    0.84321   0.86350   -1.000
 3868.00    0.83753   0.86636   -1.000
 3869.00    0.82258   0.86114   -1.000
 3870.00    0.80153   0.84549   -1.000
 3871.00    0.78736   0.82343   -1.000
 3872.00    0.77928   0.80379  116.220
 3873.00    0.78639   0.79601   -1.000
 3874.00    0.80351   0.80053  633.355
 3875.00    0.81791   0.80661   -1.000
 3876.00    0.81236   0.80148   -1.000
 3877.00    0.78127   0.78483  633.355
 3878.00    0.75183   0.76868   -1.000
 3879.00    0.73947   0.76269   -1.000
 3880.00    0.73558   0.76386   -1.000
 3881.00    0.72404   0.76106   -1.000
 3882.00    0.70921   0.74910   -1.000
 3883.00    0.70619   0.72932   -1.000
 3884.00    0.70545   0.70055   -1.000
 3885.00    0.68470   0.65954   -1.000
 3886.00    0.64358   0.60804   -1.000
 3887.00    0.59624   0.55795   -1.000
 3888.00    0.56418   0.52708   -1.000
 3889.00    0.55587   0.52816   -1.000
 3890.00    0.58569   0.56211   -1.000
 3891.00    0.65104   0.61478   -1.000
 3892.00    0.70665   0.66446   -1.000
 3893.00    0.73092   0.69809   -1.000
 3894.00    0.74424   0.71802   -1.000
 3895.00    0.76303   0.73347   -1.000
 3896.00    0.78109   0.75015   -1.000
 3897.00    0.79024   0.76645   -1.000
 3898.00    0.80687   0.77756   -1.000
 3899.00    0.81298   0.78388   -1.000
 3900.00    0.81922   0.79189   -1.000
 3901.00    0.83592   0.80288   -1.000
 3902.00    0.84818   0.81143   -1.000
 3903.00    0.84997   0.81351   -1.000
 3904.00    0.83942   0.81081   -1.000
 3905.00    0.82534   0.81030   -1.000
 3906.00    0.82682   0.81880   -1.000
 3907.00    0.84907   0.83901   -1.000
 3908.00    0.87489   0.86572   -1.000
 3909.00    0.89401   0.88858   -1.000
 3910.00    0.90243   0.90069  498.050
 3911.00    0.90874   0.90208   -1.000
 3912.00    0.90671   0.89541   -1.000
 3913.00    0.89869   0.88392   -1.000
 3914.00    0.89182   0.87353   -1.000
 3915.00    0.88642   0.86925   -1.000
 3916.00    0.88202   0.86901   -1.000
 3917.00    0.87609   0.86718   -1.000
 3918.00    0.87028   0.86147   -1.000
 3919.00    0.86092   0.85448   -1.000
 3920.00    0.85062   0.84975  578.389
 3921.00    0.84720   0.84836  600.896
 3922.00    0.84681   0.84974  606.877
 3923.00    0.84876   0.85141  599.090
 3924.00    0.84495   0.84889  593.205
 3925.00    0.83544   0.83655  606.429
 3926.00    0.80987   0.81103  633.355
 3927.00    0.77337   0.77359  633.355
 3928.00    0.72834   0.72598  220.226
 3929.00    0.67078   0.66852   93.950
 3930.00    0.60797   0.59746  110.097
 3931.00    0.53993   0.51230   -1.000
 3932.00    0.46270   0.42943   -1.000
 3933.00    0.40962   0.37863   -1.000
 3934.00    0.41010   0.38383   -1.000
 3935.00    0.46423   0.44269   -1.000
 3936.00    0.54781   0.52925  143.659
 3937.00    0.63415   0.61758  118.430
 3938.00    0.70031   0.69348   98.089
 3939.00    0.74847   0.75031  123.298
 3940.00    0.77901   0.78799   -1.000
 3941.00    0.79840   0.80920   -1.000
 3942.00    0.80912   0.81885   -1.000
 3943.00    0.81088   0.82428   -1.000
 3944.00    0.81455   0.83108   -1.000
 3945.00    0.83383   0.84070   -1.000
 3946.00    0.85769   0.85047   -1.000
 3947.00    0.86680   0.85535   -1.000
 3948.00    0.86536   0.85376   -1.000
 3949.00    0.86666   0.84903   -1.000
 3950.00    0.87041   0.84500   -1.000
 3951.00    0.87117   0.84309   -1.000
 3952.00    0.87084   0.84455   -1.000
 3953.00    0.87531   0.84879   -1.000
 3954.00    0.87947   0.85051   -1.000
 3955.00    0.87245   0.84538   -1.000
 3956.00    0.85802   0.83488   -1.000
 3957.00    0.84884   0.82549   -1.000
 3958.00    0.84828   0.81989   -1.000
 3959.00    0.83677   0.81044   -1.000
 3960.00    0.80333   0.78916   -1.000
 3961.00    0.76020   0.75640  614.195
 3962.00    0.71943   0.71758  633.355
 3963.00    0.68724   0.67581   -1.000
 3964.00    0.64566   0.62449   -1.000
 3965.00    0.57181   0.55478   88.348
 3966.00    0.47412   0.46749  105.261
 3967.00    0.38051   0.37874  129.673
 3968.00    0.31677   0.31695  153.922
 3969.00    0.30617   0.30482  160.547
 3970.00    0.35282   0.34518  142.632
 3971.00    0.43349   0.42108  117.300
 3972.00    0.52388   0.50771   97.009
 3973.00    0.60438   0.58637  120.401
 3974.00    0.67162   0.65155   -1.000
 3975.00    0.72954   0.70396   -1.000
 3976.00    0.77022   0.74613   -1.000
 3977.00    0.80296   0.78034   -1.000
 3978.00    0.84036   0.80835   -1.000
 3979.00    0.87267   0.82909   -1.000
 3980.00    0.88619   0.84029   -1.000
 3981.00    0.88950   0.84425   -1.000
 3982.00    0.89046   0.84756   -1.000
 3983.00    0.89982   0.85626   -1.000
 3984.00    0.91539   0.87065   -1.000
 3985.00    0.92759   0.88539   -1.000
 3986.00    0.93000   0.89639   -1.000
 3987.00    0.93772   0.90509   -1.000
 3988.00    0.94725   0.91294   -1.000
 3989.00    0.94903   0.91922   -1.000
 3990.00    0.95826   0.92556   -1.000
 3991.00    0.96849   0.93395   -1.000
 3992.00    0.97545   0.94361   -1.000
 3993.00    0.97928   0.95007   -1.000
 3994.00    0.97219   0.94780   -1.000
 3995.00    0.95992   0.93602   -1.000
 3996.00    0.95037   0.92142   -1.000
 3997.00    0.94417   0.91410   -1.000
 3998.00    0.94386   0.91872   -1.000
 3999.00    0.95665   0.93121   -1.000
 4000.00    0.97912   0.94384   -1.000
 4001.00    0.99207   0.95126   -1.000
 4002.00    0.99526   0.95147   -1.000
 4003.00    0.99293   0.94466   -1.000
 4004.00    0.97379   0.93339   -1.000
 4005.00    0.95487   0.92533   -1.000
 4006.00    0.95484   0.92849   -1.000
 4007.00    0.97280   0.94275   -1.000
 4008.00    0.99409   0.95987   -1.000
 4009.00    1.00010   0.97145   -1.000
 4010.00    1.00359   0.97567   -1.000
 4011.00    1.00127   0.97492   -1.000
 4012.00    0.99755   0.97251   -1.000
 4013.00    0.99463   0.97207   -1.000
 4014.00    0.99315   0.97546   -1.000
 4015.00    0.99715   0.98126   -1.000
 4016.00    0.99995   0.98709   -1.000
 4017.00    0.99811   0.99244  387.703
 4018.00    1.00120   0.99802  390.391
 4019.00    1.01027   1.00288   -1.000
 4020.00    1.00717   1.00395  383.110
 4021.00    1.00214   0.99925  385.701
 4022.00    1.00037   0.99048   -1.000
 4023.00    0.99614   0.98151   -1.000
 4024.00    0.99470   0.97690   -1.000
 4025.00    0.99843   0.98052   -1.000
 4026.00    1.00505   0.99077   -1.000
 4027.00    1.01095   0.99876   -1.000
 4028.00    1.01192   0.99628   -1.000
 4029.00    1.00000   0.98290   -1.000
 4030.00    0.98041   0.96504   -1.000
 4031.00    0.96681   0.95160   -1.000
 4032.00    0.96023   0.94754   -1.000
 4033.00    0.96241   0.95260   -1.000
 4034.00    0.97447   0.96508   -1.000
 4035.00    0.99186   0.98308   -1.000
 4036.00    1.01399   1.00331   -1.000
 4037.00    1.02908   1.01987   -1.000
 4038.00    1.03438   1.02692  360.433
 4039.00    1.02977   1.02452  362.173
 4040.00    1.01778   1.01768  370.420
 4041.00    1.01094   1.01042  377.793
 4042.00    1.01033   1.00061   -1.000
 4043.00    0.99853   0.98304   -1.000
 4044.00    0.96758   0.95978   -1.000
 4045.00    0.94397   0.94264  451.640
 4046.00    0.94529   0.94416  468.963
 4047.00    0.97058   0.96422   -1.000
 4048.00    1.00026   0.98890   -1.000
 4049.00    1.01420   1.00544   -1.000
 4050.00    1.01960   1.01112   -1.000
 4051.00    1.02073   1.00885   -1.000
 4052.00    1.01361   1.00156   -1.000
 4053.00    1.00074   0.99295   -1.000
 4054.00    0.99302   0.98670  395.311
 4055.00    0.98965   0.98399  400.420
 4056.00    0.98992   0.98397  403.390
 4057.00    0.98851   0.98688  406.584
 4058.00    0.99290   0.99416  408.006
 4059.00    1.00348   1.00216  399.716
 4060.00    1.00881   1.00218  387.048
 4061.00    1.00066   0.98982   -1.000
 4062.00    0.97412   0.96954  397.485
 4063.00    0.95252   0.95072  426.891
 4064.00    0.95241   0.94071   -1.000
 4065.00    0.96130   0.94140   -1.000
 4066.00    0.96781   0.94847   -1.000
 4067.00    0.97973   0.95551   -1.000
 4068.00    0.99087   0.95905   -1.000
 4069.00    0.99673   0.95691   -1.000
 4070.00    0.98955   0.94756   -1.000
 4071.00    0.97075   0.93590   -1.000
 4072.00    0.96590   0.93077   -1.000
 4073.00    0.97281   0.93375   -1.000
 4074.00    0.97861   0.93576   -1.000
 4075.00    0.96662   0.92652   -1.000
 4076.00    0.93996   0.90752   -1.000
 4077.00    0.91752   0.89184   -1.000
 4078.00    0.92244   0.89258   -1.000
 4079.00    0.94397   0.91088   -1.000
 4080.00    0.97275   0.93418   -1.000
 4081.00    0.99002   0.94868   -1.000
 4082.00    0.98591   0.94955   -1.000
 4083.00    0.97045   0.94122   -1.000
 4084.00    0.95869   0.93169   -1.000
 4085.00    0.95847   0.92768   -1.000
 4086.00    0.96397   0.93137   -1.000
 4087.00    0.97774   0.93969   -1.000
 4088.00    0.99074   0.94694   -1.000
 4089.00    0.98716   0.94854   -1.000
 4090.00    0.97121   0.94404   -1.000
 4091.00    0.95663   0.93552   -1.000
 4092.00    0.94495   0.92343   -1.000
 4093.00    0.93940   0.90781   -1.000
 4094.00    0.92731   0.88921   -1.000
 4095.00    0.90854   0.86712   -1.000
 4096.00    0.87964   0.84068   -1.000
 4097.00    0.84642   0.80837   -1.000
 4098.00    0.81588   0.76721   -1.000
 4099.00    0.77022   0.71457   -1.000
 4100.00    0.70103   0.65817   -1.000
 4101.00    0.64088   0.61918   -1.000
 4102.00    0.63633   0.61923   -1.000
 4103.00    0.68841   0.66112   -1.000
 4104.00    0.75415   0.72456   -1.000
 4105.00    0.81246   0.78346   -1.000
 4106.00    0.84586   0.82397   -1.000
 4107.00    0.86854   0.84730   -1.000
 4108.00    0.88494   0.86045   -1.000
 4109.00    0.89316   0.86997   -1.000
 4110.00    0.90308   0.88013   -1.000
 4111.00    0.92103   0.89323   -1.000
 4112.00    0.93879   0.90921   -1.000
 4113.00    0.95280   0.92615   -1.000
 4114.00    0.96445   0.94151   -1.000
 4115.00    0.96834   0.95169   -1.000
 4116.00    0.97097   0.95382   -1.000
 4117.00    0.97105   0.94868   -1.000
 4118.00    0.96303   0.94070   -1.000
 4119.00    0.95049   0.93565   -1.000
 4120.00    0.95225   0.93629   -1.000
 4121.00    0.95711   0.94042   -1.000
 4122.00    0.95785   0.94542   -1.000
 4123.00    0.96745   0.95158   -1.000
 4124.00    0.97914   0.95882   -1.000
 4125.00    0.98385   0.96392   -1.000
 4126.00    0.98473   0.96364   -1.000
 4127.00    0.97127   0.95899   -1.000
 4128.00    0.96403   0.95424   -1.000
 4129.00    0.96965   0.95110   -1.000
 4130.00    0.96811   0.94717   -1.000
 4131.00    0.95692   0.94127   -1.000
 4132.00    0.94069   0.93781  427.444
 4133.00    0.93202   0.94269   -1.000
 4134.00    0.94868   0.95599  433.221
 4135.00    0.97143   0.97275  416.125
 4136.00    0.98536   0.98860  397.168
 4137.00    0.99791   1.00198  386.412
 4138.00    1.00816   1.01230  380.395
 4139.00    1.01008   1.01686  375.796
 4140.00    1.00572   1.01171  377.178
 4141.00    0.98475   0.99628   -1.000
 4142.00    0.95613   0.97611   -1.000
 4143.00    0.93812   0.96168   -1.000
 4144.00    0.94227   0.96106   -1.000
 4145.00    0.96387   0.97276   -1.000
 4146.00    0.98274   0.98658  411.304
 4147.00    0.98848   0.99354  399.546
 4148.00    0.98038   0.99363   -1.000
 4149.00    0.97397   0.99198   -1.000
 4150.00    0.97539   0.99170   -1.000
 4151.00    0.97892   0.99123   -1.000
 4152.00    0.97142   0.98773   -1.000
 4153.00    0.96131   0.98163   -1.000
 4154.00    0.95516   0.97639   -1.000
 4155.00    0.95596   0.97560   -1.000
 4156.00    0.96245   0.98017   -1.000
 4157.00    0.96856   0.98850   -1.000
 4158.00    0.98168   0.99740   -1.000
 4159.00    1.00359   1.00360  400.193
 4160.00    1.03676   1.00592   -1.000
 4161.00    1.04156   1.00614   -1.000
 4162.00    0.98410   1.00763   -1.000
 4163.00    0.96557   1.01183   -1.000
 4164.00    0.99378   1.01686   -1.000
 4165.00    1.00560   1.01877   -1.000
 4166.00    0.99412   1.01604   -1.000
 4167.00    0.98909   1.01146   -1.000
 4168.00    0.99069   1.00700   -1.000
 4169.00    0.99299   1.00006  408.677
 4170.00    0.98230   0.98530  404.799
 4171.00    0.95927   0.96313  415.115
 4172.00    0.93356   0.94350   -1.000
 4173.00    0.92205   0.93689   -1.000
 4174.00    0.92773   0.94542   -1.000
 4175.00    0.94185   0.95983   -1.000
 4176.00    0.95082   0.96836   -1.000
 4177.00    0.94867   0.96923   -1.000
 4178.00    0.95286   0.96942   -1.000
 4179.00    0.95857   0.97496   -1.000
 4180.00    0.96349   0.98278   -1.000
 4181.00    0.96367   0.98649   -1.000
 4182.00    0.96100   0.98718   -1.000
 4183.00    0.96601   0.98901   -1.000
 4184.00    0.97127   0.99133   -1.000
 4185.00    0.96747   0.99039   -1.000
 4186.00    0.95733   0.98501   -1.000
 4187.00    0.94845   0.97969   -1.000
 4188.00    0.95261   0.97930   -1.000
 4189.00    0.96772   0.98290   -1.000
 4190.00    0.97082   0.98657   -1.000
 4191.00    0.96938   0.98920   -1.000
 4192.00    0.97664   0.99252   -1.000
 4193.00    0.98439   0.99615   -1.000
 4194.00    0.98080   0.99491   -1.000
 4195.00    0.96832   0.98508   -1.000
 4196.00    0.95159   0.96951   -1.000
 4197.00    0.93334   0.95404   -1.000
 4198.00    0.92595   0.94330   -1.000
 4199.00    0.92596   0.93965   -1.000
 4200.00    0.93534   0.94141  436.276
 4201.00    0.93854   0.94434  430.897
 4202.00    0.93657   0.94765   -1.000
 4203.00    0.93946   0.95349   -1.000
 4204.00    0.94517   0.96145   -1.000
 4205.00    0.95114   0.96958   -1.000
 4206.00    0.96018   0.97749   -1.000
 4207.00    0.96821   0.98429   -1.000
 4208.00    0.97068   0.98818   -1.000
 4209.00    0.97410   0.98985   -1.000
 4210.00    0.97203   0.99187   -1.000
 4211.00    0.97052   0.99554   -1.000
 4212.00    0.97564   0.99753   -1.000
 4213.00    0.97158   0.99198   -1.000
 4214.00    0.95174   0.97904   -1.000
 4215.00    0.93311   0.96624   -1.000
 4216.00    0.92995   0.96286   -1.000
 4217.00    0.94636   0.97139   -1.000
 4218.00    0.96652   0.98524   -1.000
 4219.00    0.97537   0.99680   -1.000
 4220.00    0.98428   1.00291   -1.000
 4221.00    0.98623   1.00176   -1.000
 4222.00    0.97436   0.99081   -1.000
 4223.00    0.95422   0.96761   -1.000
 4224.00    0.92960   0.93575  416.737
 4225.00    0.89206   0.90565   -1.000
 4226.00    0.85780   0.89133   -1.000
 4227.00    0.86705   0.90279   -1.000
 4228.00    0.91070   0.93688   -1.000
 4229.00    0.95196   0.97482   -1.000
 4230.00    0.97510   0.99636   -1.000
 4231.00    0.97699   0.99667   -1.000
 4232.00    0.96455   0.98444   -1.000
 4233.00    0.94784   0.97043   -1.000
 4234.00    0.94253   0.96232   -1.000
 4235.00    0.94414   0.96137   -1.000
 4236.00    0.93886   0.96391   -1.000
 4237.00    0.93349   0.96828   -1.000
 4238.00    0.93754   0.97494   -1.000
 4239.00    0.94759   0.98379   -1.000
 4240.00    0.95881   0.99372   -1.000
 4241.00    0.96614   1.00228   -1.000
 4242.00    0.96481   1.00714   -1.000
 4243.00    0.96454   1.00724   -1.000
 4244.00    0.96830   1.00240   -1.000
 4245.00    0.96370   0.99194   -1.000
 4246.00    0.94465   0.97732   -1.000
 4247.00    0.93058   0.96392   -1.000
 4248.00    0.92221   0.95641   -1.000
 4249.00    0.91676   0.95480   -1.000
 4250.00    0.91935   0.95837   -1.000
 4251.00    0.93557   0.96631   -1.000
 4252.00    0.95176   0.97463   -1.000
 4253.00    0.95141   0.97942   -1.000
 4254.00    0.93924   0.98122   -1.000
 4255.00    0.93903   0.98354   -1.000
 4256.00    0.95424   0.98661   -1.000
 4257.00    0.96234   0.98516   -1.000
 4258.00    0.95044   0.97641   -1.000
 4259.00    0.92705   0.96570   -1.000
 4260.00    0.91678   0.96188   -1.000
 4261.00    0.92855   0.96956   -1.000
 4262.00    0.95081   0.98589   -1.000
 4263.00    0.96980   1.00257   -1.000
 4264.00    0.97920   1.01189   -1.000
 4265.00    0.98134   1.01269   -1.000
 4266.00    0.97636   1.00808   -1.000
 4267.00    0.96164   0.99947   -1.000
 4268.00    0.95156   0.98645   -1.000
 4269.00    0.94434   0.96858   -1.000
 4270.00    0.92523   0.94831   -1.000
 4271.00    0.89963   0.93183   -1.000
 4272.00    0.89169   0.92545   -1.000
 4273.00    0.89376   0.93053   -1.000
 4274.00    0.89835   0.94362   -1.000
 4275.00    0.91382   0.96097   -1.000
 4276.00    0.93665   0.97987   -1.000
 4277.00    0.95763   0.99496   -1.000
 4278.00    0.95594   1.00048   -1.000
 4279.00    0.94014   0.99548   -1.000
 4280.00    0.92728   0.98500   -1.000
 4281.00    0.92084   0.97594   -1.000
 4282.00    0.92140   0.97147   -1.000
 4283.00    0.92927   0.97068   -1.000
 4284.00    0.93239   0.97009   -1.000
 4285.00    0.92051   0.96525   -1.000
 4286.00    0.90863   0.95341   -1.000
 4287.00    0.90095   0.93555   -1.000
 4288.00    0.88770   0.91540   -1.000
 4289.00    0.86781   0.90016   -1.000
 4290.00    0.85926   0.89744   -1.000
 4291.00    0.87123   0.90767   -1.000
 4292.00    0.89197   0.92095   -1.000
 4293.00    0.90326   0.92661   -1.000
 4294.00    0.90103   0.92463   -1.000
 4295.00    0.89268   0.92057   -1.000
 4296.00    0.88682   0.91374   -1.000
 4297.00    0.87149   0.89970   -1.000
 4298.00    0.84137   0.87747   -1.000
 4299.00    0.81366   0.85263   -1.000
 4300.00    0.80251   0.83416   -1.000
 4301.00    0.80384   0.82792   -1.000
 4302.00    0.80996   0.83297   -1.000
 4303.00    0.81692   0.84456   -1.000
 4304.00    0.82489   0.85569   -1.000
 4305.00    0.83137   0.85892   -1.000
 4306.00    0.82822   0.85281   -1.000
 4307.00    0.81051   0.84363   -1.000
 4308.00    0.79322   0.84033   -1.000
 4309.00    0.79406   0.84694   -1.000
 4310.00    0.80946   0.85984   -1.000
 4311.00    0.82298   0.87119   -1.000
 4312.00    0.83027   0.87680   -1.000
 4313.00    0.84093   0.88223   -1.000
 4314.00    0.86347   0.89625   -1.000
 4315.00    0.90133   0.92238   -1.000
 4316.00    0.94171   0.95333   -1.000
 4317.00    0.96508   0.97648   -1.000
 4318.00    0.96994   0.98511   -1.000
 4319.00    0.96102   0.98154   -1.000
 4320.00    0.95029   0.97164   -1.000
 4321.00    0.94327   0.95909   -1.000
 4322.00    0.92534   0.94328   -1.000
 4323.00    0.89405   0.92254   -1.000
 4324.00    0.86654   0.90071   -1.000
 4325.00    0.85405   0.88976   -1.000
 4326.00    0.86627   0.89750   -1.000
 4327.00    0.89766   0.91759   -1.000
 4328.00    0.92349   0.93536   -1.000
 4329.00    0.92861   0.94149   -1.000
 4330.00    0.92223   0.93861   -1.000
 4331.00    0.91794   0.93372   -1.000
 4332.00    0.91223   0.92872   -1.000
 4333.00    0.89935   0.91996   -1.000
 4334.00    0.88792   0.90265   -1.000
 4335.00    0.87301   0.87267  344.204
 4336.00    0.83744   0.82703   -1.000
 4337.00    0.78301   0.76665   -1.000
 4338.00    0.71698   0.70257   -1.000
 4339.00    0.65626   0.65242  456.694
 4340.00    0.62275   0.63362   -1.000
 4341.00    0.63816   0.65544   -1.000
 4342.00    0.70035   0.70986   -1.000
 4343.00    0.76706   0.77321  403.242
 4344.00    0.81422   0.82597   -1.000
 4345.00    0.84713   0.86446   -1.000
 4346.00    0.87198   0.89352   -1.000
 4347.00    0.89158   0.91477   -1.000
 4348.00    0.90461   0.92532   -1.000
 4349.00    0.90870   0.92227   -1.000
 4350.00    0.89843   0.90949   -1.000
 4351.00    0.87852   0.89788   -1.000
 4352.00    0.87142   0.89852   -1.000
 4353.00    0.88684   0.91432   -1.000
 4354.00    0.90957   0.93792   -1.000
 4355.00    0.92724   0.95848   -1.000
 4356.00    0.94106   0.97005   -1.000
 4357.00    0.94603   0.97317   -1.000
 4358.00    0.93957   0.97234   -1.000
 4359.00    0.93641   0.97329   -1.000
 4360.00    0.94659   0.97914   -1.000
 4361.00    0.96296   0.98857   -1.000
 4362.00    0.97228   0.99802   -1.000
 4363.00    0.97038   1.00447   -1.000
 4364.00    0.97049   1.00606   -1.000
 4365.00    0.97340   1.00194   -1.000
 4366.00    0.96370   0.99247   -1.000
 4367.00    0.94893   0.98105   -1.000
 4368.00    0.94348   0.97257   -1.000
 4369.00    0.94687   0.96886   -1.000
 4370.00    0.94963   0.96773   -1.000
 4371.00    0.95187   0.96456   -1.000
 4372.00    0.95383   0.95560  356.863
 4373.00    0.94435   0.94116  363.544
 4374.00    0.92609   0.92865  378.961
 4375.00    0.91407   0.92822   -1.000
 4376.00    0.92826   0.94301   -1.000
 4377.00    0.95202   0.96458   -1.000
 4378.00    0.96432   0.98048   -1.000
 4379.00    0.96834   0.98409   -1.000
 4380.00    0.96483   0.97474   -1.000
 4381.00    0.94973   0.95272  361.336
 4382.00    0.92023   0.92240  384.800
 4383.00    0.88499   0.89580   -1.000
 4384.00    0.86959   0.88582   -1.000
 4385.00    0.88737   0.89638   -1.000
 4386.00    0.91875   0.91847  410.943
 4387.00    0.93941   0.93885  379.025
 4388.00    0.94608   0.95062  371.179
 4389.00    0.93949   0.95459   -1.000
 4390.00    0.93998   0.95516   -1.000
 4391.00    0.94566   0.95560   -1.000
 4392.00    0.95630   0.95423  367.203
 4393.00    0.95492   0.94768  361.724
 4394.00    0.93981   0.93909  366.226
 4395.00    0.93483   0.93756  372.148
 4396.00    0.94676   0.94540  365.932
 4397.00    0.96456   0.95402   -1.000
 4398.00    0.96732   0.95466   -1.000
 4399.00    0.95383   0.94853  351.838
 4400.00    0.94709   0.94420  364.667
 4401.00    0.94965   0.94619  371.306
 4402.00    0.95727   0.95033  365.533
 4403.00    0.95341   0.95079  363.845
 4404.00    0.93842   0.94788   -1.000
 4405.00    0.93415   0.94656   -1.000
 4406.00    0.94380   0.94910  395.417
 4407.00    0.94563   0.95309  383.315
 4408.00    0.94233   0.95750   -1.000
 4409.00    0.95151   0.96511   -1.000
 4410.00    0.97304   0.97626  357.097
 4411.00    0.99008   0.98538  342.568
 4412.00    0.99178   0.98566  333.119
 4413.00    0.98394   0.97468   -1.000
 4414.00    0.96321   0.95595  345.256
 4415.00    0.94234   0.93856  363.945
 4416.00    0.93899   0.93170  372.619
 4417.00    0.94601   0.93920  366.761
 4418.00    0.96275   0.95697  352.726
 4419.00    0.98096   0.97587  339.209
 4420.00    0.98327   0.98717  332.886
 4421.00    0.97663   0.98891   -1.000
 4422.00    0.96999   0.98647   -1.000
 4423.00    0.96940   0.98491   -1.000
 4424.00    0.97105   0.98402   -1.000
 4425.00    0.97234   0.98221  346.512
 4426.00    0.96592   0.98051   -1.000
 4427.00    0.96167   0.98113   -1.000
 4428.00    0.96791   0.98422   -1.000
 4429.00    0.97150   0.98771   -1.000
 4430.00    0.96946   0.98973   -1.000
 4431.00    0.97176   0.98957   -1.000
 4432.00    0.97236   0.98618   -1.000
 4433.00    0.96152   0.97871   -1.000
 4434.00    0.94589   0.97022   -1.000
 4435.00    0.94053   0.96820   -1.000
 4436.00    0.95784   0.97817   -1.000
 4437.00    0.98169   0.99609   -1.000
 4438.00    0.99632   1.01088   -1.000
 4439.00    0.99773   1.01271   -1.000
 4440.00    0.98677   0.99970   -1.000
 4441.00    0.97097   0.97790  338.664
 4442.00    0.94905   0.95835  354.809
 4443.00    0.93671   0.95148   -1.000
 4444.00    0.94499   0.96069   -1.000
 4445.00    0.96381   0.97917   -1.000
 4446.00    0.97598   0.99538   -1.000
 4447.00    0.97748   1.00324   -1.000
 4448.00    0.97861   1.00423   -1.000
 4449.00    0.97518   1.00218   -1.000
 4450.00    0.97397   1.00007   -1.000
 4451.00    0.97616   0.99878   -1.000
 4452.00    0.97849   0.99596   -1.000
 4453.00    0.97148   0.98813   -1.000
 4454.00    0.95075   0.97715   -1.000
 4455.00    0.93990   0.97031   -1.000
 4456.00    0.94835   0.97190   -1.000
 4457.00    0.96037   0.97798   -1.000
 4458.00    0.96460   0.98209   -1.000
 4459.00    0.95869   0.98208   -1.000
 4460.00    0.95641   0.98029   -1.000
 4461.00    0.95855   0.98029   -1.000
 4462.00    0.96196   0.98357   -1.000
 4463.00    0.97156   0.98840   -1.000
 4464.00    0.97872   0.99166   -1.000
 4465.00    0.97798   0.99078   -1.000
 4466.00    0.97457   0.98453   -1.000
 4467.00    0.96545   0.97458  342.131
 4468.00    0.95053   0.96656   -1.000
 4469.00    0.94984   0.96670   -1.000
 4470.00    0.95797   0.97688   -1.000
 4471.00    0.97149   0.99292   -1.000
 4472.00    0.98730   1.00843   -1.000
 4473.00    1.00223   1.01909   -1.000
 4474.00    1.00790   1.02420   -1.000
 4475.00    1.00444   1.02571   -1.000
 4476.00    0.99972   1.02577   -1.000
 4477.00    1.00598   1.02374   -1.000
 4478.00    1.01028   1.01573  311.242
 4479.00    1.00092   1.00014  316.456
 4480.00    0.98361   0.98279  329.375
 4481.00    0.96938   0.97382  343.141
 4482.00    0.96473   0.97959   -1.000
 4483.00    0.97814   0.99703   -1.000
 4484.00    0.99124   1.01634   -1.000
 4485.00    1.00393   1.02842   -1.000
 4486.00    1.01411   1.02934   -1.000
 4487.00    1.01048   1.02031  313.946
 4488.00    0.99358   1.00766   -1.000
 4489.00    0.98070   0.99971   -1.000
 4490.00    0.97382   1.00081   -1.000
 4491.00    0.98190   1.00777   -1.000
 4492.00    0.99598   1.01284   -1.000
 4493.00    0.99567   1.01183   -1.000
 4494.00    0.98200   1.00787   -1.000
 4495.00    0.97579   1.00614   -1.000
 4496.00    0.97887   1.00823   -1.000
 4497.00    0.99164   1.01180   -1.000
 4498.00    1.00400   1.01288  325.113
 4499.00    1.00605   1.00866  317.537
 4500.00    0.99298   1.00207  316.329
 4501.00    0.98701   1.00049   -1.000
 4502.00    0.99520   1.00826   -1.000
 4503.00    1.00979   1.02168   -1.000
 4504.00    1.02019   1.03265   -1.000
 4505.00    1.02516   1.03593  296.839
 4506.00    1.01865   1.03223   -1.000
 4507.00    1.00916   1.02639   -1.000
 4508.00    1.00419   1.02355   -1.000
 4509.00    1.01013   1.02528   -1.000
 4510.00    1.01865   1.02846  304.993
 4511.00    1.01866   1.02914  304.031
 4512.00    1.01107   1.02634   -1.000
 4513.00    1.00712   1.02128   -1.000
 4514.00    1.00186   1.01579   -1.000
 4515.00    0.99775   1.01170   -1.000
 4516.00    1.00084   1.00947  318.027
 4517.00    1.00017   1.00748  318.873
 4518.00    0.99303   1.00452   -1.000
 4519.00    0.99367   1.00185  322.459
 4520.00    0.99701   1.00052  316.378
 4521.00    0.99114   0.99875  311.831
 4522.00    0.98174   0.99500   -1.000
 4523.00    0.97859   0.99120   -1.000
 4524.00    0.98146   0.98941  327.838
 4525.00    0.98177   0.98792  331.091
 4526.00    0.97893   0.98345  337.910
 4527.00    0.96942   0.97562  348.357
 4528.00    0.95611   0.96819   -1.000
 4529.00    0.95508   0.96552   -1.000
 4530.00    0.96121   0.96772  355.235
 4531.00    0.96534   0.96934  348.741
 4532.00    0.96426   0.96462  343.487
 4533.00    0.95286   0.95510  344.713
 4534.00    0.94118   0.94986  355.499
 4535.00    0.94304   0.95667   -1.000
 4536.00    0.96075   0.97442   -1.000
 4537.00    0.98612   0.99497  332.924
 4538.00    1.00672   1.00972  315.848
 4539.00    1.01174   1.01484  310.592
 4540.00    1.00866   1.01268  315.237
 4541.00    1.00599   1.00880  321.205
 4542.00    1.00436   1.00688  319.966
 4543.00    0.99973   1.00630  317.812
 4544.00    0.98746   1.00476   -1.000
 4545.00    0.98163   1.00203   -1.000
 4546.00    0.98486   0.99778  167.662
 4547.00    0.98259   0.98895  299.310
 4548.00    0.92900   0.97474   -1.000
 4549.00    0.60014   0.96238   -1.000
 4550.00    0.06910   0.96113   -1.000
 4551.00    0.03394   0.96957   -1.000
 4552.00    0.30616   0.97597   -1.000
 4553.00    0.58518   0.97319   -1.000
 4554.00    0.40777   0.96662   -1.000
 4555.00    0.85854   0.96640   -1.000
 4556.00    0.98060   0.97637  332.344
 4557.00    0.99117   0.99150  319.548
 4558.00    1.00342   1.00465  308.337
 4559.00    1.00552   1.01345  304.931
 4560.00    1.00939   1.01814  306.521
 4561.00    1.00738   1.01700  306.299
 4562.00    0.99994   1.00881  308.056
 4563.00    0.99171   0.99811  315.724
 4564.00    0.98508   0.99278  323.061
 4565.00    0.99313   0.99649  326.326
 4566.00    1.00293   1.00576  321.184
 4567.00    1.00899   1.01405  312.724
 4568.00    1.01280   1.01647  305.637
 4569.00    1.00693   1.01147  304.298
 4570.00    0.99378   1.00084  308.967
 4571.00    0.97458   0.99038   -1.000
 4572.00    0.97292   0.98797   -1.000
 4573.00    0.98972   0.99541  318.370
 4574.00    1.00164   1.00519  309.588
 4575.00    1.00713   1.00967  306.481
 4576.00    1.00587   1.00860  307.155
 4577.00    1.00230   1.00499  308.710
 4578.00    0.99753   0.99951  311.320
 4579.00    0.99274   0.99174  317.744
 4580.00    0.98879   0.98311  326.829
 4581.00    0.98158   0.97552  331.660
 4582.00    0.97810   0.96955   -1.000
 4583.00    0.97595   0.96673   -1.000
 4584.00    0.97867   0.96946   -1.000
 4585.00    0.98689   0.97687   -1.000
 4586.00    0.99467   0.98495   -1.000
 4587.00    1.00099   0.99060   -1.000
 4588.00    1.00443   0.99297   -1.000
 4589.00    1.00363   0.99298   -1.000
 4590.00    0.99976   0.99231  307.451
 4591.00    0.99336   0.99174  312.475
 4592.00    0.98949   0.99174  318.294
 4593.00    0.98983   0.99341  322.661
 4594.00    0.99581   0.99712  322.015
 4595.00    1.00294   1.00190  319.182
 4596.00    1.00507   1.00617  317.064
 4597.00    1.00564   1.00811  316.337
 4598.00    1.00388   1.00688  315.666
 4599.00    1.00021   1.00309  315.742
 4600.00    0.99432   0.99830  318.711
 4601.00    0.98960   0.99446  321.131
 4602.00    0.98733   0.99315  320.956
 4603.00    0.98893   0.99451  317.301
 4604.00    0.99666   0.99740  314.651
 4605.00    1.00454   1.00060  315.132
 4606.00    1.00611   1.00408  313.888
 4607.00    1.00538   1.00809  309.694
 4608.00    1.01092   1.01205  303.320
 4609.00    1.01588   1.01464  297.458
 4610.00    1.01809   1.01468  295.171
 4611.00    1.01599   1.01244  297.331
 4612.00    1.01168   1.00976  301.389
 4613.00    1.00679   1.00813  304.384
 4614.00    1.00833   1.00715  305.510
 4615.00    1.00778   1.00536  303.560
 4616.00    1.00906   1.00239  301.131
 4617.00    1.00397   0.99923  300.715
 4618.00    0.99971   0.99712  302.938
 4619.00    1.00106   0.99747  304.630
 4620.00    1.00557   1.00132  303.628
 4621.00    1.01717   1.00746   -1.000
 4622.00    1.02288   1.01260   -1.000
 4623.00    1.02124   1.01409  296.660
 4624.00    1.01646   1.01224  297.406
 4625.00    1.01023   1.00920  298.458
 4626.00    1.01044   1.00639  300.873
 4627.00    1.01178   1.00355   -1.000
 4628.00    1.00852   1.00067  301.575
 4629.00    1.00198   0.99969  303.347
 4630.00    1.00537   1.00231  303.445
 4631.00    1.00822   1.00655  301.374
 4632.00    1.01028   1.00855  298.851
 4633.00    1.00431   1.00707  301.098
 4634.00    1.00213   1.00465  305.424
 4635.00    1.00270   1.00383  307.930
 4636.00    1.00361   1.00434  308.080
 4637.00    1.00297   1.00490  311.079
 4638.00    1.00095   1.00584  314.668
 4639.00    1.00646   1.00856  315.431
 4640.00    1.01187   1.01319  313.812
 4641.00    1.01846   1.01798  307.712
 4642.00    1.02214   1.02082  300.788
 4643.00    1.01727   1.02043  297.991
 4644.00    1.01423   1.01656  300.405
 4645.00    1.00529   1.00966  306.856
 4646.00    0.99492   1.00186  315.640
 4647.00    0.98941   0.99707  322.766
 4648.00    0.99227   0.99804  322.204
 4649.00    1.00345   1.00339  315.750
 4650.00    1.01020   1.00929  308.946
 4651.00    1.00842   1.01268  305.666
 4652.00    1.00413   1.01228  305.287
 4653.00    0.99913   1.00840  305.561
 4654.00    0.99258   1.00300  310.168
 4655.00    0.98727   0.99869   -1.000
 4656.00    0.98944   0.99781  318.847
 4657.00    0.99452   1.00238  314.158
 4658.00    1.00500   1.01225  303.335
 4659.00    1.01958   1.02306  292.659
 4660.00    1.02771   1.02898  287.674
 4661.00    1.02876   1.02798  288.512
 4662.00    1.02123   1.02246  293.045
 4663.00    1.01128   1.01561  300.140
 4664.00    1.00721   1.00807  304.857
 4665.00    1.00824   0.99834   -1.000
 4666.00    0.99728   0.98632   -1.000
 4667.00    0.97877   0.97593  327.066
 4668.00    0.97581   0.97239  337.811
 4669.00    0.98600   0.97696   -1.000
 4670.00    0.99606   0.98626   -1.000
 4671.00    1.00689   0.99587   -1.000
 4672.00    1.01300   1.00295   -1.000
 4673.00    1.01298   1.00745  302.993
 4674.00    1.01927   1.01101   -1.000
 4675.00    1.01908   1.01422  302.068
 4676.00    1.02022   1.01534  297.815
 4677.00    1.02105   1.01234   -1.000
 4678.00    1.01551   1.00586   -1.000
 4679.00    1.00669   0.99852  304.007
 4680.00    1.00577   0.99273   -1.000
 4681.00    1.00114   0.99019   -1.000
 4682.00    1.00139   0.99166   -1.000
 4683.00    1.00757   0.99585   -1.000
 4684.00    1.01358   1.00010   -1.000
 4685.00    1.01644   1.00257   -1.000
 4686.00    1.01793   1.00323   -1.000
 4687.00    1.02033   1.00309   -1.000
 4688.00    1.01856   1.00281   -1.000
 4689.00    1.01699   1.00207   -1.000
 4690.00    1.01608   1.00045   -1.000
 4691.00    1.01065   0.99891   -1.000
 4692.00    1.01138   0.99909   -1.000
 4693.00    1.01814   1.00096   -1.000
 4694.00    1.02393   1.00320   -1.000
 4695.00    1.02884   1.00454   -1.000
 4696.00    1.02779   1.00342   -1.000
 4697.00    1.02292   0.99868   -1.000
 4698.00    1.01407   0.99171   -1.000
 4699.00    1.01050   0.98536   -1.000
 4700.00    1.01140   0.98047   -1.000
 4701.00    1.00887   0.97596   -1.000
 4702.00    0.99843   0.97186   -1.000
 4703.00    0.98999   0.97048   -1.000
 4704.00    0.99598   0.97313   -1.000
 4705.00    1.00361   0.97704   -1.000
 4706.00    1.00010   0.97769   -1.000
 4707.00    0.99370   0.97416   -1.000
 4708.00    0.99059   0.97038   -1.000
 4709.00    0.99130   0.97101   -1.000
 4710.00    0.99960   0.97668   -1.000
 4711.00    1.01062   0.98349   -1.000
 4712.00    1.01597   0.98686   -1.000
 4713.00    1.01342   0.98573   -1.000
 4714.00    1.00810   0.98346   -1.000
 4715.00    1.00855   0.98430   -1.000
 4716.00    1.01407   0.98904   -1.000
 4717.00    1.01854   0.99486   -1.000
 4718.00    1.02251   0.99910   -1.000
 4719.00    1.02183   1.00134   -1.000
 4720.00    1.01815   1.00200   -1.000
 4721.00    1.01935   1.00150   -1.000
 4722.00    1.01937   1.00116   -1.000
 4723.00    1.02041   1.00250   -1.000
 4724.00    1.02411   1.00488   -1.000
 4725.00    1.02435   1.00563   -1.000
 4726.00    1.02056   1.00270   -1.000
 4727.00    1.01600   0.99653   -1.000
 4728.00    1.00885   0.98952   -1.000
 4729.00    1.00702   0.98385   -1.000
 4730.00    1.00901   0.98032   -1.000
 4731.00    1.00958   0.97972   -1.000
 4732.00    1.00718   0.98259   -1.000
 4733.00    1.00727   0.98703   -1.000
 4734.00    1.01013   0.98974   -1.000
 4735.00    1.00871   0.98934   -1.000
 4736.00    1.00993   0.98739   -1.000
 4737.00    1.00418   0.98638   -1.000
 4738.00    1.01216   0.98713   -1.000
 4739.00    1.01391   0.98855   -1.000
 4740.00    1.01274   0.98976   -1.000
 4741.00    1.01258   0.99123   -1.000
 4742.00    1.01592   0.99373   -1.000
 4743.00    1.01913   0.99695   -1.000
 4744.00    1.01855   0.99995   -1.000
 4745.00    1.01703   1.00255   -1.000
 4746.00    1.01799   1.00545   -1.000
 4747.00    1.02075   1.00898   -1.000
 4748.00    1.02211   1.01235   -1.000
 4749.00    1.02212   1.01472  290.815
 4750.00    1.01864   1.01608  291.262
 4751.00    1.01750   1.01643  291.823
 4752.00    1.01652   1.01510  294.292
 4753.00    1.01531   1.01220  297.529
 4754.00    1.01120   1.00905  299.885
 4755.00    1.00809   1.00722  301.403
 4756.00    1.00497   1.00744  301.076
 4757.00    1.00550   1.00912  302.558
 4758.00    1.01226   1.01069  304.482
 4759.00    1.01316   1.01055  304.141
 4760.00    1.01243   1.00724  301.859
 4761.00    1.00716   1.00006  302.450
 4762.00    0.99457   0.99068  308.014
 4763.00    0.98493   0.98296  315.165
 4764.00    0.98820   0.98016  318.313
 4765.00    0.99611   0.98292   -1.000
 4766.00    1.00135   0.98957   -1.000
 4767.00    1.00301   0.99789  314.617
 4768.00    1.00676   1.00609  309.591
 4769.00    1.01354   1.01221  302.952
 4770.00    1.01440   1.01436  299.811
 4771.00    1.01179   1.01280  300.948
 4772.00    1.01146   1.01060  303.627
 4773.00    1.01402   1.01101  305.098
 4774.00    1.01780   1.01417  300.653
 4775.00    1.01958   1.01751  294.923
 4776.00    1.01920   1.01889  293.569
 4777.00    1.01971   1.01774  294.030
 4778.00    1.01668   1.01405  295.130
 4779.00    1.01076   1.00912  297.385
 4780.00    1.00771   1.00609  300.505
 4781.00    1.01208   1.00648  301.996
 4782.00    1.01156   1.00798  302.843
 4783.00    1.00429   1.00778  304.552
 4784.00    1.00133   1.00565  306.564
 4785.00    1.00206   1.00243  306.526
 4786.00    0.99838   0.99892  308.015
 4787.00    0.99942   0.99655  310.948
 4788.00    1.00273   0.99633  312.263
 4789.00    0.99885   0.99794  311.610
 4790.00    1.00349   1.00114  309.941
 4791.00    1.00760   1.00618  307.755
 4792.00    1.01177   1.01262  304.117
 4793.00    1.01642   1.01924  298.680
 4794.00    1.02001   1.02419  292.225
 4795.00    1.02296   1.02553  288.044
 4796.00    1.02093   1.02254  287.929
 4797.00    1.01191   1.01665  291.580
 4798.00    1.00791   1.01073  297.549
 4799.00    1.00508   1.00807  302.714
 4800.00    1.00933   1.01015  305.014
 4801.00    1.01318   1.01515  301.356
 4802.00    1.01544   1.01858  295.425
 4803.00    1.01289   1.01646  292.158
 4804.00    1.00455   1.00939  293.474
 4805.00    1.00042   1.00260  297.549
 4806.00    1.00180   1.00052  301.138
 4807.00    1.00572   1.00310  303.291
 4808.00    1.00909   1.00743  302.945
 4809.00    1.00751   1.01060  302.041
 4810.00    1.00810   1.01166  300.389
 4811.00    1.00838   1.01190  297.701
 4812.00    1.01191   1.01328  295.716
 4813.00    1.01614   1.01642  294.461
 4814.00    1.01893   1.02007  294.148
 4815.00    1.01887   1.02268  293.342
 4816.00    1.01941   1.02410  292.121
 4817.00    1.01971   1.02474  290.245
 4818.00    1.02113   1.02439  288.565
 4819.00    1.01942   1.02280  287.622
 4820.00    1.01156   1.01992  287.591
 4821.00    1.00935   1.01475  288.075
 4822.00    1.00605   1.00646  291.674
 4823.00    1.00136   0.99716  299.267
 4824.00    0.99986   0.99143   -1.000
 4825.00    0.99983   0.99185  301.918
 4826.00    1.00837   0.99609   -1.000
 4827.00    1.01256   0.99958   -1.000
 4828.00    1.00818   1.00007  294.913
 4829.00    1.00700   0.99851   -1.000
 4830.00    1.00759   0.99659   -1.000
 4831.00    1.00314   0.99500  299.979
 4832.00    1.00386   0.99398   -1.000
 4833.00    1.00719   0.99379   -1.000
 4834.00    1.01099   0.99403   -1.000
 4835.00    1.00981   0.99376   -1.000
 4836.00    1.00608   0.99283   -1.000
 4837.00    1.00404   0.99165   -1.000
 4838.00    1.00018   0.99003   -1.000
 4839.00    0.99674   0.98765   -1.000
 4840.00    0.98977   0.98537  304.458
 4841.00    0.98701   0.98411  304.239
 4842.00    0.99108   0.98339  303.401
 4843.00    0.99401   0.98241   -1.000
 4844.00    0.99631   0.98138   -1.000
 4845.00    0.99840   0.98039   -1.000
 4846.00    0.99645   0.97804   -1.000
 4847.00    0.98756   0.97295   -1.000
 4848.00    0.97441   0.96660  297.738
 4849.00    0.96918   0.96217  301.296
 4850.00    0.96953   0.96024   -1.000
 4851.00    0.97333   0.95813   -1.000
 4852.00    0.96892   0.95255   -1.000
 4853.00    0.95855   0.94121   -1.000
 4854.00    0.94218   0.92429   -1.000
 4855.00    0.92358   0.90546   -1.000
 4856.00    0.90954   0.88784   -1.000
 4857.00    0.89103   0.86745   -1.000
 4858.00    0.85804   0.83296   -1.000
 4859.00    0.79584   0.77682   -1.000
 4860.00    0.71184   0.71057  358.903
 4861.00    0.65881   0.66570  397.630
 4862.00    0.68529   0.66952   -1.000
 4863.00    0.77144   0.71836   -1.000
 4864.00    0.84359   0.78248   -1.000
 4865.00    0.88562   0.83572   -1.000
 4866.00    0.91376   0.87228   -1.000
 4867.00    0.93289   0.89703   -1.000
 4868.00    0.94404   0.91310   -1.000
 4869.00    0.94562   0.91994   -1.000
 4870.00    0.93700   0.91812   -1.000
 4871.00    0.92538   0.91332   -1.000
 4872.00    0.92904   0.91361   -1.000
 4873.00    0.94709   0.92213   -1.000
 4874.00    0.96289   0.93452   -1.000
 4875.00    0.96986   0.94450   -1.000
 4876.00    0.97234   0.95010   -1.000
 4877.00    0.96990   0.95399   -1.000
 4878.00    0.96516   0.95971  304.268
 4879.00    0.97428   0.96813  299.892
 4880.00    0.98624   0.97598   -1.000
 4881.00    0.99110   0.97873   -1.000
 4882.00    0.98355   0.97574  305.574
 4883.00    0.97972   0.97100   -1.000
 4884.00    0.98356   0.96850   -1.000
 4885.00    0.98385   0.96890   -1.000
 4886.00    0.98533   0.97057   -1.000
 4887.00    0.98482   0.97125   -1.000
 4888.00    0.97965   0.96880   -1.000
 4889.00    0.96969   0.96236  312.605
 4890.00    0.95583   0.95475  317.836
 4891.00    0.95345   0.95270  323.438
 4892.00    0.97099   0.96134   -1.000
 4893.00    0.99142   0.97811   -1.000
 4894.00    1.00847   0.99519   -1.000
 4895.00    1.01428   1.00718  284.158
 4896.00    1.01191   1.01322  279.603
 4897.00    1.01238   1.01410  278.724
 4898.00    1.00477   1.01064  280.305
 4899.00    0.99490   1.00452  286.703
 4900.00    0.99228   0.99882  292.925
 4901.00    0.99618   0.99570  295.242
 4902.00    0.99424   0.99437  293.945
 4903.00    0.99119   0.99398  294.968
 4904.00    0.99528   0.99624  297.585
 4905.00    1.00433   1.00198  293.563
 4906.00    1.00956   1.00759  287.816
 4907.00    1.01161   1.00837  286.531
 4908.00    1.00820   1.00347  290.062
 4909.00    0.99814   0.99549  297.478
 4910.00    0.99176   0.98804  305.375
 4911.00    0.99294   0.98469  307.761
 4912.00    0.99734   0.98701   -1.000
 4913.00    1.00304   0.99321   -1.000
 4914.00    1.00845   0.99987   -1.000
 4915.00    1.01234   1.00349   -1.000
 4916.00    1.00968   1.00061   -1.000
 4917.00    0.99377   0.98894  291.261
 4918.00    0.96977   0.97021  302.717
 4919.00    0.95047   0.95073  319.264
 4920.00    0.94329   0.93821  332.564
 4921.00    0.95009   0.93598   -1.000
 4922.00    0.96302   0.94029   -1.000
 4923.00    0.96702   0.94541   -1.000
 4924.00    0.96833   0.95119   -1.000
 4925.00    0.98047   0.96128   -1.000
 4926.00    0.99459   0.97545   -1.000
 4927.00    1.00319   0.98904   -1.000
 4928.00    1.00712   0.99880  289.807
 4929.00    1.01183   1.00444  287.279
 4930.00    1.01228   1.00554  285.370
 4931.00    1.00774   1.00049  284.384
 4932.00    0.99533   0.98904  288.129
 4933.00    0.97919   0.97534  296.593
 4934.00    0.96884   0.96681  305.902
 4935.00    0.97765   0.96686   -1.000
 4936.00    0.98983   0.97026   -1.000
 4937.00    0.98702   0.96981   -1.000
 4938.00    0.97337   0.96564  311.020
 4939.00    0.96736   0.96441  317.778
 4940.00    0.98157   0.97106   -1.000
 4941.00    0.99810   0.98399   -1.000
 4942.00    1.00476   0.99727  293.465
 4943.00    1.00550   1.00593  288.603
 4944.00    1.00726   1.00876  286.496
 4945.00    1.00668   1.00764  287.083
 4946.00    1.00241   1.00580  288.971
 4947.00    1.00233   1.00589  289.031
 4948.00    1.00189   1.00815  286.188
 4949.00    1.00527   1.01069  283.167
 4950.00    1.01032   1.01170  282.336
 4951.00    1.00862   1.01099  281.552
 4952.00    1.00752   1.00939  283.182
 4953.00    1.00889   1.00694  285.356
 4954.00    1.00542   1.00137  288.749
 4955.00    0.99283   0.98899  293.001
 4956.00    0.97038   0.97010  302.092
 4957.00    0.94508   0.95380  317.486
 4958.00    0.94709   0.95179  327.147
 4959.00    0.97426   0.96574   -1.000
 4960.00    0.99717   0.98566   -1.000
 4961.00    1.00645   1.00107  291.668
 4962.00    1.01030   1.00847  290.198
 4963.00    1.01018   1.00916  291.809
 4964.00    1.00307   1.00515  294.347
 4965.00    0.99449   0.99853  298.302
 4966.00    0.99135   0.99230  304.363
 4967.00    0.99259   0.98889  307.643
 4968.00    0.99431   0.98844  307.455
 4969.00    0.99550   0.99018  306.314
 4970.00    0.99520   0.99367  303.849
 4971.00    0.99882   0.99806  300.564
 4972.00    1.00530   1.00209  297.280
 4973.00    1.00602   1.00482  293.828
 4974.00    1.00910   1.00570  291.320
 4975.00    1.00889   1.00459  290.670
 4976.00    1.00239   1.00169  292.950
 4977.00    0.99588   0.99750  296.207
 4978.00    0.99431   0.99302  300.390
 4979.00    0.99074   0.98786  305.141
 4980.00    0.98125   0.97962  308.954
 4981.00    0.96740   0.96731  314.219
 4982.00    0.95299   0.95426  324.760
 4983.00    0.95174   0.94627  333.711
 4984.00    0.95467   0.94697   -1.000
 4985.00    0.96656   0.95549   -1.000
 4986.00    0.97765   0.96815   -1.000
 4987.00    0.98825   0.98050  306.381
 4988.00    0.98978   0.98780  300.029
 4989.00    0.98513   0.98752  301.125
 4990.00    0.97834   0.98196  305.495
 4991.00    0.97280   0.97650  308.152
 4992.00    0.97694   0.97491  307.767
 4993.00    0.98534   0.97719   -1.000
 4994.00    0.98843   0.98166  304.078
 4995.00    0.98951   0.98681  303.752
 4996.00    0.99265   0.99031  302.149
 4997.00    0.99503   0.98880  301.145
 4998.00    0.98771   0.98027  303.397
 4999.00    0.97882   0.96728   -1.000
 5000.00    0.97156   0.95728   -1.000
 5001.00    0.97232   0.95577   -1.000
 5002.00    0.97572   0.96006   -1.000
 5003.00    0.98029   0.96309   -1.000
 5004.00    0.97917   0.96035   -1.000
 5005.00    0.96217   0.95290   -1.000
 5006.00    0.94798   0.94694  325.203
 5007.00    0.95628   0.94858   -1.000
 5008.00    0.97522   0.95714   -1.000
 5009.00    0.98797   0.96548   -1.000
 5010.00    0.98559   0.96708   -1.000
 5011.00    0.97184   0.96087   -1.000
 5012.00    0.95652   0.95072  320.807
 5013.00    0.94558   0.94231  332.291
 5014.00    0.94431   0.93954  338.540
 5015.00    0.95239   0.94153   -1.000
 5016.00    0.96389   0.94310   -1.000
 5017.00    0.96363   0.94041   -1.000
 5018.00    0.95672   0.93659   -1.000
 5019.00    0.96108   0.93852   -1.000
 5020.00    0.97156   0.94743   -1.000
 5021.00    0.97765   0.95768   -1.000
 5022.00    0.97491   0.96515   -1.000
 5023.00    0.97669   0.97085  316.860
 5024.00    0.98336   0.97636  314.747
 5025.00    0.98376   0.98061  311.545
 5026.00    0.97832   0.98190  310.004
 5027.00    0.97992   0.98088  311.590
 5028.00    0.98142   0.97980  312.452
 5029.00    0.98343   0.97989  309.024
 5030.00    0.98842   0.98127  303.313
 5031.00    0.99009   0.98428  298.937
 5032.00    0.99577   0.98819  294.260
 5033.00    0.99829   0.98981   -1.000
 5034.00    0.99125   0.98640  293.297
 5035.00    0.97961   0.97930  303.319
 5036.00    0.96966   0.97266  314.488
 5037.00    0.96991   0.96804  318.908
 5038.00    0.96837   0.96199  320.315
 5039.00    0.95606   0.95098  325.572
 5040.00    0.94224   0.93768  338.749
 5041.00    0.93226   0.93065  350.653
 5042.00    0.94073   0.93636  347.866
 5043.00    0.96542   0.95265   -1.000
 5044.00    0.98822   0.97160   -1.000
 5045.00    0.99456   0.98645   -1.000
 5046.00    0.99586   0.99390  291.846
 5047.00    0.99256   0.99304  283.274
 5048.00    0.98466   0.98497  216.427
 5049.00    0.97290   0.97316   93.370
 5050.00    0.94101   0.96210   -1.000
 5051.00    0.75354   0.95603   -1.000
 5052.00    0.46620   0.95836   -1.000
 5053.00    0.21905   0.96906   -1.000
 5054.00    0.52006   0.98275   -1.000
 5055.00    0.96174   0.99308   -1.000
 5056.00    0.99264   0.99822  291.374
 5057.00    1.00340   1.00021  290.698
 5058.00    1.00395   1.00124  291.281
 5059.00    1.00285   1.00223  291.730
 5060.00    0.99752   1.00309  291.328
 5061.00    1.00002   1.00287  289.577
 5062.00    1.00395   0.99979  290.331
 5063.00    0.99270   0.99277  295.000
 5064.00    0.97817   0.98352  304.047
 5065.00    0.97231   0.97612  313.975
 5066.00    0.97772   0.97313  316.298
 5067.00    0.98302   0.97337   -1.000
 5068.00    0.98634   0.97448   -1.000
 5069.00    0.98921   0.97571   -1.000
 5070.00    0.99080   0.97688   -1.000
 5071.00    0.99152   0.97695   -1.000
 5072.00    0.98723   0.97536   -1.000
 5073.00    0.98607   0.97322   -1.000
 5074.00    0.98909   0.97205   -1.000
 5075.00    0.99196   0.97188   -1.000
 5076.00    0.98959   0.97082   -1.000
 5077.00    0.98691   0.96608   -1.000
 5078.00    0.96965   0.95698   -1.000
 5079.00    0.95137   0.94753  317.714
 5080.00    0.94896   0.94357  331.501
 5081.00    0.95720   0.94642   -1.000
 5082.00    0.96460   0.95241   -1.000
 5083.00    0.97197   0.95874   -1.000
 5084.00    0.97931   0.96559   -1.000
 5085.00    0.98879   0.97263   -1.000
 5086.00    0.99730   0.97798   -1.000
 5087.00    1.00054   0.98086   -1.000
 5088.00    0.99972   0.98260   -1.000
 5089.00    0.99866   0.98476   -1.000
 5090.00    0.99573   0.98755   -1.000
 5091.00    0.99348   0.99042  296.407
 5092.00    0.99596   0.99314  294.615
 5093.00    0.99944   0.99524  291.240
 5094.00    1.00218   0.99528  289.357
 5095.00    0.99881   0.99163  292.658
 5096.00    0.99360   0.98389   -1.000
 5097.00    0.98684   0.97378   -1.000
 5098.00    0.97834   0.96496   -1.000
 5099.00    0.97515   0.96168   -1.000
 5100.00    0.97995   0.96561   -1.000
 5101.00    0.99359   0.97380   -1.000
 5102.00    0.99976   0.98125   -1.000
 5103.00    0.99693   0.98486   -1.000
 5104.00    0.99513   0.98407   -1.000
 5105.00    0.98852   0.97916   -1.000
 5106.00    0.97890   0.97093   -1.000
 5107.00    0.96581   0.96222  313.778
 5108.00    0.96584   0.95678   -1.000
 5109.00    0.96686   0.95632   -1.000
 5110.00    0.96823   0.96041   -1.000
 5111.00    0.97452   0.96807  311.584
 5112.00    0.98402   0.97735  307.094
 5113.00    0.99361   0.98530   -1.000
 5114.00    0.99804   0.99025   -1.000
 5115.00    0.99693   0.99303  297.271
 5116.00    1.00289   0.99531   -1.000
 5117.00    1.00700   0.99731   -1.000
 5118.00    1.00828   0.99773   -1.000
 5119.00    1.00445   0.99543   -1.000
 5120.00    0.99901   0.99031   -1.000
 5121.00    0.99258   0.98283   -1.000
 5122.00    0.98515   0.97401   -1.000
 5123.00    0.97011   0.96582  313.890
 5124.00    0.96261   0.96078  322.498
 5125.00    0.96777   0.95951   -1.000
 5126.00    0.97282   0.95972   -1.000
 5127.00    0.97208   0.95905   -1.000
 5128.00    0.97055   0.95783   -1.000
 5129.00    0.97036   0.95821   -1.000
 5130.00    0.97509   0.96131   -1.000
 5131.00    0.98098   0.96607   -1.000
 5132.00    0.98534   0.97061   -1.000
 5133.00    0.98635   0.97415   -1.000
 5134.00    0.98625   0.97649   -1.000
 5135.00    0.98748   0.97657   -1.000
 5136.00    0.98407   0.97296   -1.000
 5137.00    0.97395   0.96584   -1.000
 5138.00    0.95955   0.95792  313.292
 5139.00    0.95297   0.95295  317.591
 5140.00    0.95904   0.95241  317.404
 5141.00    0.96252   0.95437   -1.000
 5142.00    0.96317   0.95664  318.005
 5143.00    0.96640   0.95961  322.429
 5144.00    0.97084   0.96399  319.768
 5145.00    0.97776   0.96793   -1.000
 5146.00    0.98052   0.96948   -1.000
 5147.00    0.97936   0.96920   -1.000
 5148.00    0.98014   0.96821   -1.000
 5149.00    0.97986   0.96599   -1.000
 5150.00    0.97416   0.96168   -1.000
 5151.00    0.96562   0.95637   -1.000
 5152.00    0.96279   0.95295   -1.000
 5153.00    0.96784   0.95337   -1.000
 5154.00    0.97610   0.95757   -1.000
 5155.00    0.98383   0.96477   -1.000
 5156.00    0.99119   0.97340   -1.000
 5157.00    0.99672   0.98101   -1.000
 5158.00    0.99881   0.98571   -1.000
 5159.00    1.00078   0.98720   -1.000
 5160.00    0.99780   0.98604   -1.000
 5161.00    0.99655   0.98295   -1.000
 5162.00    0.98993   0.97844   -1.000
 5163.00    0.98513   0.97115   -1.000
 5164.00    0.97902   0.95665   -1.000
 5165.00    0.95498   0.93035   -1.000
 5166.00    0.91269   0.89484   -1.000
 5167.00    0.87695   0.86339   -1.000
 5168.00    0.87443   0.85037   -1.000
 5169.00    0.89744   0.85662   -1.000
 5170.00    0.91618   0.86783   -1.000
 5171.00    0.90824   0.87049   -1.000
 5172.00    0.88391   0.86829   -1.000
 5173.00    0.88737   0.87658   -1.000
 5174.00    0.93036   0.90197   -1.000
 5175.00    0.97038   0.93464   -1.000
 5176.00    0.99010   0.96049   -1.000
 5177.00    0.99892   0.97452   -1.000
 5178.00    1.00645   0.97947   -1.000
 5179.00    1.00405   0.97754   -1.000
 5180.00    0.99347   0.96663   -1.000
 5181.00    0.97481   0.94351   -1.000
 5182.00    0.93475   0.91142   -1.000
 5183.00    0.89001   0.88393   -1.000
 5184.00    0.88335   0.87686   -1.000
 5185.00    0.92324   0.89332   -1.000
 5186.00    0.96096   0.91940   -1.000
 5187.00    0.97183   0.93894   -1.000
 5188.00    0.96938   0.94724   -1.000
 5189.00    0.96614   0.94808   -1.000
 5190.00    0.96605   0.94471   -1.000
 5191.00    0.95572   0.93846   -1.000
 5192.00    0.94501   0.93260   -1.000
 5193.00    0.94463   0.93114   -1.000
 5194.00    0.95229   0.93417   -1.000
 5195.00    0.96154   0.93873   -1.000
 5196.00    0.96878   0.94327   -1.000
 5197.00    0.97574   0.94839   -1.000
 5198.00    0.97889   0.95456   -1.000
 5199.00    0.98621   0.96078   -1.000
 5200.00    0.98674   0.96473   -1.000
 5201.00    0.98485   0.96405   -1.000
 5202.00    0.97809   0.95753   -1.000
 5203.00    0.96308   0.94578   -1.000
 5204.00    0.95107   0.93195   -1.000
 5205.00    0.94173   0.92096   -1.000
 5206.00    0.94381   0.91594   -1.000
 5207.00    0.94812   0.91593   -1.000
 5208.00    0.94515   0.91856   -1.000
 5209.00    0.94868   0.92427   -1.000
 5210.00    0.96413   0.93491   -1.000
 5211.00    0.98065   0.94884   -1.000
 5212.00    0.99542   0.96092   -1.000
 5213.00    0.99613   0.96641   -1.000
 5214.00    0.98378   0.96392   -1.000
 5215.00    0.97341   0.95671   -1.000
 5216.00    0.96439   0.95116   -1.000
 5217.00    0.97126   0.95232   -1.000
 5218.00    0.98679   0.96012   -1.000
 5219.00    0.99674   0.97025   -1.000
 5220.00    1.00031   0.97829   -1.000
 5221.00    1.00268   0.98202   -1.000
 5222.00    1.00060   0.98043   -1.000
 5223.00    0.99175   0.97205   -1.000
 5224.00    0.97769   0.95573   -1.000
 5225.00    0.95260   0.93377   -1.000
 5226.00    0.92645   0.91461   -1.000
 5227.00    0.92452   0.90878   -1.000
 5228.00    0.94817   0.91923   -1.000
 5229.00    0.97121   0.93750   -1.000
 5230.00    0.98256   0.95137   -1.000
 5231.00    0.98486   0.95443   -1.000
 5232.00    0.97724   0.94888   -1.000
 5233.00    0.97171   0.94202   -1.000
 5234.00    0.97390   0.94089   -1.000
 5235.00    0.97877   0.94746   -1.000
 5236.00    0.99266   0.95818   -1.000
 5237.00    1.00427   0.96793   -1.000
 5238.00    1.00227   0.97392   -1.000
 5239.00    0.99961   0.97655   -1.000
 5240.00    0.99642   0.97742   -1.000
 5241.00    0.99929   0.97761   -1.000
 5242.00    1.00281   0.97765   -1.000
 5243.00    1.00272   0.97789   -1.000
 5244.00    1.00137   0.97788   -1.000
 5245.00    0.99684   0.97593   -1.000
 5246.00    0.99054   0.97093   -1.000
 5247.00    0.98490   0.96440   -1.000
 5248.00    0.98314   0.95888   -1.000
 5249.00    0.97422   0.95529   -1.000
 5250.00    0.97070   0.95367   -1.000
 5251.00    0.97366   0.95429   -1.000
 5252.00    0.97986   0.95648   -1.000
 5253.00    0.97902   0.95833   -1.000
 5254.00    0.97737   0.95938   -1.000
 5255.00    0.98246   0.96169   -1.000
 5256.00    0.99167   0.96720   -1.000
 5257.00    0.99995   0.97448   -1.000
 5258.00    1.00637   0.97936   -1.000
 5259.00    1.00279   0.97820   -1.000
 5260.00    0.98947   0.96970   -1.000
 5261.00    0.97302   0.95515   -1.000
 5262.00    0.95512   0.93801   -1.000
 5263.00    0.94247   0.92228   -1.000
 5264.00    0.93526   0.91104   -1.000
 5265.00    0.93323   0.90591   -1.000
 5266.00    0.93515   0.90560   -1.000
 5267.00    0.94606   0.90510   -1.000
 5268.00    0.93947   0.89948   -1.000
 5269.00    0.91429   0.89121   -1.000
 5270.00    0.91048   0.88993   -1.000
 5271.00    0.93429   0.90122   -1.000
 5272.00    0.95681   0.91903   -1.000
 5273.00    0.96605   0.93252   -1.000
 5274.00    0.97065   0.93803   -1.000
 5275.00    0.96995   0.94046   -1.000
 5276.00    0.97478   0.94600   -1.000
 5277.00    0.98747   0.95576   -1.000
 5278.00    1.00022   0.96527   -1.000
 5279.00    0.99974   0.96907   -1.000
 5280.00    0.99038   0.96556   -1.000
 5281.00    0.98277   0.95732   -1.000
 5282.00    0.97052   0.94882   -1.000
 5283.00    0.96168   0.94470   -1.000
 5284.00    0.97112   0.94812   -1.000
 5285.00    0.98816   0.95854   -1.000
 5286.00    1.00045   0.97117   -1.000
 5287.00    1.00125   0.98066   -1.000
 5288.00    1.00182   0.98552   -1.000
 5289.00    0.99282   0.98741  280.318
 5290.00    0.96774   0.98773   -1.000
 5291.00    0.99900   0.98684   -1.000
 5292.00    1.00488   0.98508   -1.000
 5293.00    1.00056   0.98267   -1.000
 5294.00    0.99891   0.97879   -1.000
 5295.00    0.99297   0.97204   -1.000
 5296.00    0.98031   0.96273   -1.000
 5297.00    0.97055   0.95397   -1.000
 5298.00    0.97145   0.94976   -1.000
 5299.00    0.97884   0.95140   -1.000
 5300.00    0.98189   0.95624   -1.000
 5301.00    0.98241   0.96116   -1.000
 5302.00    0.98454   0.96567   -1.000
 5303.00    0.99148   0.97062   -1.000
 5304.00    1.00003   0.97529   -1.000
 5305.00    0.99746   0.97777   -1.000
 5306.00    0.99054   0.97756   -1.000
 5307.00    0.99067   0.97657   -1.000
 5308.00    0.99384   0.97703   -1.000
 5309.00    0.99835   0.97925   -1.000
 5310.00    0.99989   0.98163   -1.000
 5311.00    1.00030   0.98245   -1.000
 5312.00    0.99958   0.98107   -1.000
 5313.00    0.99729   0.97735   -1.000
 5314.00    0.99543   0.97108   -1.000
 5315.00    0.98774   0.96322   -1.000
 5316.00    0.97798   0.95696   -1.000
 5317.00    0.97875   0.95594   -1.000
 5318.00    0.98650   0.96058   -1.000
 5319.00    0.99225   0.96727   -1.000
 5320.00    0.99357   0.97143   -1.000
 5321.00    0.98838   0.97052   -1.000
 5322.00    0.98076   0.96464   -1.000
 5323.00    0.97478   0.95616   -1.000
 5324.00    0.97025   0.94793   -1.000
 5325.00    0.96689   0.93964   -1.000
 5326.00    0.96050   0.92802   -1.000
 5327.00    0.93683   0.91349   -1.000
 5328.00    0.91700   0.90425   -1.000
 5329.00    0.92964   0.90913   -1.000
 5330.00    0.96271   0.92658   -1.000
 5331.00    0.98162   0.94562   -1.000
 5332.00    0.98501   0.95766   -1.000
 5333.00    0.98384   0.96238   -1.000
 5334.00    0.98428   0.96312   -1.000
 5335.00    0.98506   0.96203   -1.000
 5336.00    0.98394   0.95983   -1.000
 5337.00    0.97876   0.95676   -1.000
 5338.00    0.97629   0.95251   -1.000
 5339.00    0.96922   0.94724   -1.000
 5340.00    0.95783   0.94334   -1.000
 5341.00    0.96115   0.94430   -1.000
 5342.00    0.97407   0.95041   -1.000
 5343.00    0.98304   0.95752   -1.000
 5344.00    0.98391   0.96128   -1.000
 5345.00    0.98253   0.96083   -1.000
 5346.00    0.98024   0.95805   -1.000
 5347.00    0.97945   0.95508   -1.000
 5348.00    0.97370   0.95326   -1.000
 5349.00    0.97096   0.95374   -1.000
 5350.00    0.97971   0.95722   -1.000
 5351.00    0.99092   0.96260   -1.000
 5352.00    0.99438   0.96771   -1.000
 5353.00    0.99026   0.97164   -1.000
 5354.00    0.99176   0.97506   -1.000
 5355.00    0.99860   0.97853   -1.000
 5356.00    1.00151   0.98142   -1.000
 5357.00    1.00153   0.98285   -1.000
 5358.00    0.99943   0.98259   -1.000
 5359.00    1.00036   0.98064   -1.000
 5360.00    0.99717   0.97683   -1.000
 5361.00    0.98875   0.97135   -1.000
 5362.00    0.98310   0.96513   -1.000
 5363.00    0.97540   0.95952   -1.000
 5364.00    0.97691   0.95562   -1.000
 5365.00    0.98017   0.95386   -1.000
 5366.00    0.97667   0.95350   -1.000
 5367.00    0.97295   0.95241   -1.000
 5368.00    0.97346   0.94811   -1.000
 5369.00    0.96317   0.93984   -1.000
 5370.00    0.95251   0.93058   -1.000
 5371.00    0.94549   0.92653   -1.000
 5372.00    0.95890   0.93227   -1.000
 5373.00    0.98125   0.94575   -1.000
 5374.00    0.99329   0.95995   -1.000
 5375.00    0.99960   0.96936   -1.000
 5376.00    0.99932   0.97328   -1.000
 5377.00    0.99637   0.97378   -1.000
 5378.00    0.99533   0.97234   -1.000
 5379.00    0.99047   0.96910   -1.000
 5380.00    0.98403   0.96450   -1.000
 5381.00    0.98354   0.96002   -1.000
 5382.00    0.97879   0.95740   -1.000
 5383.00    0.98050   0.95758   -1.000
 5384.00    0.98224   0.96044   -1.000
 5385.00    0.98689   0.96488   -1.000
 5386.00    0.99229   0.96893   -1.000
 5387.00    0.99216   0.97065   -1.000
 5388.00    0.98780   0.96918   -1.000
 5389.00    0.98618   0.96516   -1.000
 5390.00    0.98402   0.96009   -1.000
 5391.00    0.98129   0.95535   -1.000
 5392.00    0.97870   0.95155   -1.000
 5393.00    0.97349   0.94862   -1.000
 5394.00    0.97163   0.94532   -1.000
 5395.00    0.97128   0.93984   -1.000
 5396.00    0.96265   0.93288   -1.000
 5397.00    0.95624   0.92906   -1.000
 5398.00    0.96432   0.93225   -1.000
 5399.00    0.97483   0.94068   -1.000
 5400.00    0.97902   0.94885   -1.000
 5401.00    0.97949   0.95224   -1.000
 5402.00    0.97477   0.94900   -1.000
 5403.00    0.96722   0.93959   -1.000
 5404.00    0.95517   0.92752   -1.000
 5405.00    0.94371   0.91897   -1.000
 5406.00    0.94702   0.91854   -1.000
 5407.00    0.96015   0.92449   -1.000
 5408.00    0.96549   0.93070   -1.000
 5409.00    0.96219   0.93375   -1.000
 5410.00    0.96114   0.93585   -1.000
 5411.00    0.96500   0.94034   -1.000
 5412.00    0.97397   0.94631   -1.000
 5413.00    0.98024   0.95028   -1.000
 5414.00    0.97663   0.95143   -1.000
 5415.00    0.97221   0.95206   -1.000
 5416.00    0.97670   0.95408   -1.000
 5417.00    0.98283   0.95681   -1.000
 5418.00    0.98214   0.95859   -1.000
 5419.00    0.98275   0.95901   -1.000
 5420.00    0.97743   0.95846   -1.000
 5421.00    0.97765   0.95685   -1.000
 5422.00    0.97885   0.95380   -1.000
 5423.00    0.96901   0.95001   -1.000
 5424.00    0.96317   0.94781   -1.000
 5425.00    0.96717   0.94919   -1.000
 5426.00    0.97489   0.95256   -1.000
 5427.00    0.97848   0.95309   -1.000
 5428.00    0.96471   0.94807   -1.000
 5429.00    0.94990   0.94097   -1.000
 5430.00    0.95337   0.93756   -1.000
 5431.00    0.96576   0.93843   -1.000
 5432.00    0.96901   0.93903   -1.000
 5433.00    0.95783   0.93632   -1.000
 5434.00    0.95016   0.93306   -1.000
 5435.00    0.95565   0.93452   -1.000
 5436.00    0.96839   0.94227   -1.000
 5437.00    0.97591   0.95306   -1.000
 5438.00    0.98080   0.96255   -1.000
 5439.00    0.98487   0.96860   -1.000
 5440.00    0.98869   0.97152   -1.000
 5441.00    0.99033   0.97226   -1.000
 5442.00    0.98809   0.97069   -1.000
 5443.00    0.98375   0.96540   -1.000
 5444.00    0.97223   0.95518   -1.000
 5445.00    0.95839   0.94163   -1.000
 5446.00    0.94403   0.93037   -1.000
 5447.00    0.94156   0.92768   -1.000
 5448.00    0.96233   0.93487   -1.000
 5449.00    0.98196   0.94700   -1.000
 5450.00    0.98554   0.95732   -1.000
 5451.00    0.98518   0.96176   -1.000
 5452.00    0.98537   0.95942   -1.000
 5453.00    0.97768   0.95121   -1.000
 5454.00    0.96051   0.94015   -1.000
 5455.00    0.94324   0.93219   -1.000
 5456.00    0.94386   0.93302   -1.000
 5457.00    0.96435   0.94271   -1.000
 5458.00    0.97752   0.95507   -1.000
 5459.00    0.98701   0.96329   -1.000
 5460.00    0.98025   0.96488   -1.000
 5461.00    0.97355   0.96128   -1.000
 5462.00    0.97042   0.95567   -1.000
 5463.00    0.96689   0.95165   -1.000
 5464.00    0.96705   0.95144   -1.000
 5465.00    0.97618   0.95427   -1.000
 5466.00    0.97682   0.95773   -1.000
 5467.00    0.98145   0.96038   -1.000
 5468.00    0.98222   0.96225   -1.000
 5469.00    0.98189   0.96343   -1.000
 5470.00    0.97998   0.96335   -1.000
 5471.00    0.97913   0.96147   -1.000
 5472.00    0.97543   0.95795   -1.000
 5473.00    0.96709   0.95293   -1.000
 5474.00    0.96481   0.94591   -1.000
 5475.00    0.95680   0.93725   -1.000
 5476.00    0.94543   0.93012   -1.000
 5477.00    0.94503   0.92905   -1.000
 5478.00    0.95711   0.93493   -1.000
 5479.00    0.97020   0.94314   -1.000
 5480.00    0.97228   0.94856   -1.000
 5481.00    0.96792   0.95051   -1.000
 5482.00    0.96725   0.95177   -1.000
 5483.00    0.97006   0.95455   -1.000
 5484.00    0.97463   0.95837   -1.000
 5485.00    0.97830   0.96097   -1.000
 5486.00    0.97610   0.96088   -1.000
 5487.00    0.97078   0.95872   -1.000
 5488.00    0.97006   0.95638   -1.000
 5489.00    0.97346   0.95535   -1.000
 5490.00    0.97406   0.95594   -1.000
 5491.00    0.97342   0.95751   -1.000
 5492.00    0.97469   0.95892   -1.000
 5493.00    0.97321   0.95920   -1.000
 5494.00    0.97362   0.95787   -1.000
 5495.00    0.97080   0.95482   -1.000
 5496.00    0.96420   0.95066   -1.000
 5497.00    0.95512   0.94742   -1.000
 5498.00    0.95744   0.94675   -1.000
 5499.00    0.96715   0.94741   -1.000
 5500.00    0.96286   0.94664   -1.000
 5501.00    0.95661   0.94424   -1.000
 5502.00    0.95691   0.94290   -1.000
 5503.00    0.96586   0.94391   -1.000
 5504.00    0.97086   0.94480   -1.000
 5505.00    0.96441   0.94289   -1.000
 5506.00    0.95514   0.93949   -1.000
 5507.00    0.95212   0.93842   -1.000
 5508.00    0.95826   0.94124   -1.000
 5509.00    0.96971   0.94537   -1.000
 5510.00    0.96816   0.94716   -1.000
 5511.00    0.96311   0.94578   -1.000
 5512.00    0.96185   0.94322   -1.000
 5513.00    0.95750   0.94188   -1.000
 5514.00    0.95839   0.94300   -1.000
 5515.00    0.96715   0.94643   -1.000
 5516.00    0.97472   0.95111   -1.000
 5517.00    0.97432   0.95582   -1.000
 5518.00    0.97419   0.95942   -1.000
 5519.00    0.97640   0.96120   -1.000
 5520.00    0.97612   0.96129   -1.000
 5521.00    0.97696   0.96063   -1.000
 5522.00    0.97623   0.95996   -1.000
 5523.00    0.97187   0.95862   -1.000
 5524.00    0.96979   0.95476   -1.000
 5525.00    0.96625   0.94694   -1.000
 5526.00    0.95703   0.93620   -1.000
 5527.00    0.94415   0.92678   -1.000
 5528.00    0.94026   0.92364   -1.000
 5529.00    0.94976   0.92842   -1.000
 5530.00    0.95959   0.93769   -1.000
 5531.00    0.96724   0.94562   -1.000
 5532.00    0.96853   0.94840   -1.000
 5533.00    0.96404   0.94651   -1.000
 5534.00    0.96049   0.94354   -1.000
 5535.00    0.95800   0.94312   -1.000
 5536.00    0.96509   0.94616   -1.000
 5537.00    0.97132   0.95080   -1.000
 5538.00    0.96880   0.95490   -1.000
 5539.00    0.97060   0.95763   -1.000
 5540.00    0.97335   0.95895   -1.000
 5541.00    0.97265   0.95875   -1.000
 5542.00    0.97126   0.95712   -1.000
 5543.00    0.96749   0.95491   -1.000
 5544.00    0.96738   0.95343   -1.000
 5545.00    0.96929   0.95343   -1.000
 5546.00    0.97430   0.95479   -1.000
 5547.00    0.97725   0.95722   -1.000
 5548.00    0.97894   0.96025   -1.000
 5549.00    0.97950   0.96282   -1.000
 5550.00    0.97434   0.96379   -1.000
 5551.00    0.97207   0.96298   -1.000
 5552.00    0.97542   0.96123   -1.000
 5553.00    0.97293   0.95947   -1.000
 5554.00    0.96710   0.95829   -1.000
 5555.00    0.96898   0.95799   -1.000
 5556.00    0.96969   0.95844   -1.000
 5557.00    0.97172   0.95912   -1.000
 5558.00    0.97258   0.95963   -1.000
 5559.00    0.97054   0.95984   -1.000
 5560.00    0.97096   0.95939   -1.000
 5561.00    0.97136   0.95788   -1.000
 5562.00    0.96567   0.95567   -1.000
 5563.00    0.96227   0.95376   -1.000
 5564.00    0.95981   0.95261  294.999
 5565.00    0.96026   0.95169   -1.000
 5566.00    0.96118   0.95030   -1.000
 5567.00    0.96067   0.94840   -1.000
 5568.00    0.95716   0.94641   -1.000
 5569.00    0.94837   0.94479  295.239
 5570.00    0.94853   0.94338  296.210
 5571.00    0.95151   0.94156   -1.000
 5572.00    0.94811   0.93983   -1.000
 5573.00    0.95048   0.93969   -1.000
 5574.00    0.95498   0.94161   -1.000
 5575.00    0.95558   0.94456   -1.000
 5576.00    0.95242   0.94740  289.440
 5577.00    0.94927   0.94972  284.960
 5578.00    0.95831   0.95150  280.663
 5579.00    0.97083   0.95249   -1.000
 5580.00    0.97279   0.95236   -1.000
 5581.00    0.96637   0.95151   -1.000
 5582.00    0.96111   0.95071   -1.000
 5583.00    0.96338   0.94952   -1.000
 5584.00    0.96357   0.94589   -1.000
 5585.00    0.94987   0.93845   -1.000
 5586.00    0.93694   0.92869  300.916
 5587.00    0.92838   0.92035   -1.000
 5588.00    0.92637   0.91675   -1.000
 5589.00    0.92818   0.91883   -1.000
 5590.00    0.93613   0.92483   -1.000
 5591.00    0.94638   0.93126   -1.000
 5592.00    0.95133   0.93518   -1.000
 5593.00    0.94768   0.93640   -1.000
 5594.00    0.94569   0.93717   -1.000
 5595.00    0.94823   0.93897   -1.000
 5596.00    0.95126   0.94040   -1.000
 5597.00    0.94923   0.93949   -1.000
 5598.00    0.94540   0.93662   -1.000
 5599.00    0.94392   0.93323   -1.000
 5600.00    0.94692   0.92975   -1.000
 5601.00    0.94289   0.92704   -1.000
 5602.00    0.93495   0.92753  307.729
 5603.00    0.93650   0.93292  308.850
 5604.00    0.95249   0.94188   -1.000
 5605.00    0.96524   0.95098   -1.000
 5606.00    0.96943   0.95743   -1.000
 5607.00    0.97051   0.96076   -1.000
 5608.00    0.96859   0.96215  284.669
 5609.00    0.96794   0.96295  285.204
 5610.00    0.96592   0.96349  285.759
 5611.00    0.96624   0.96270  285.341
 5612.00    0.96569   0.95861  284.482
 5613.00    0.95906   0.95018   -1.000
 5614.00    0.94652   0.93969  292.944
 5615.00    0.93438   0.93264  303.501
 5616.00    0.93187   0.93310  309.659
 5617.00    0.94673   0.93963  305.840
 5618.00    0.96287   0.94720   -1.000
 5619.00    0.96401   0.95223   -1.000
 5620.00    0.96446   0.95443   -1.000
 5621.00    0.96772   0.95459   -1.000
 5622.00    0.96521   0.95282   -1.000
 5623.00    0.95848   0.94950   -1.000
 5624.00    0.95198   0.94643  299.540
 5625.00    0.95094   0.94578  304.706
 5626.00    0.95742   0.94800   -1.000
 5627.00    0.96425   0.95162   -1.000
 5628.00    0.96656   0.95501   -1.000
 5629.00    0.97017   0.95755   -1.000
 5630.00    0.97096   0.95906   -1.000
 5631.00    0.96983   0.95943   -1.000
 5632.00    0.96781   0.95874   -1.000
 5633.00    0.96656   0.95739   -1.000
 5634.00    0.96676   0.95578   -1.000
 5635.00    0.96307   0.95391   -1.000
 5636.00    0.96485   0.95183   -1.000
 5637.00    0.95831   0.94992  294.853
 5638.00    0.95408   0.94848  296.748
 5639.00    0.95375   0.94729  296.522
 5640.00    0.95719   0.94614   -1.000
 5641.00    0.96020   0.94549   -1.000
 5642.00    0.95990   0.94600   -1.000
 5643.00    0.96114   0.94759   -1.000
 5644.00    0.96448   0.94945   -1.000
 5645.00    0.96105   0.95087   -1.000
 5646.00    0.96213   0.95168   -1.000
 5647.00    0.96335   0.95200   -1.000
 5648.00    0.96243   0.95192   -1.000
 5649.00    0.96271   0.95155   -1.000
 5650.00    0.96524   0.95127   -1.000
 5651.00    0.96501   0.95130   -1.000
 5652.00    0.96157   0.95131   -1.000
 5653.00    0.96157   0.95059   -1.000
 5654.00    0.95985   0.94832   -1.000
 5655.00    0.95500   0.94341   -1.000
 5656.00    0.94518   0.93551   -1.000
 5657.00    0.93824   0.92701   -1.000
 5658.00    0.93189   0.92225   -1.000
 5659.00    0.93698   0.92348   -1.000
 5660.00    0.94375   0.92847   -1.000
 5661.00    0.94778   0.93340   -1.000
 5662.00    0.94952   0.93723   -1.000
 5663.00    0.94867   0.94117  302.109
 5664.00    0.95329   0.94495  298.191
 5665.00    0.95734   0.94638   -1.000
 5666.00    0.95801   0.94461   -1.000
 5667.00    0.95707   0.94156   -1.000
 5668.00    0.95542   0.93992   -1.000
 5669.00    0.95800   0.94089   -1.000
 5670.00    0.96100   0.94376   -1.000
 5671.00    0.96165   0.94717   -1.000
 5672.00    0.96311   0.95005   -1.000
 5673.00    0.96437   0.95190   -1.000
 5674.00    0.96514   0.95281   -1.000
 5675.00    0.96090   0.95325  286.235
 5676.00    0.96107   0.95356  287.207
 5677.00    0.96355   0.95348   -1.000
 5678.00    0.96360   0.95253   -1.000
 5679.00    0.96080   0.95046   -1.000
 5680.00    0.95680   0.94723   -1.000
 5681.00    0.95556   0.94296   -1.000
 5682.00    0.95294   0.93846   -1.000
 5683.00    0.94764   0.93524   -1.000
 5684.00    0.94648   0.93439   -1.000
 5685.00    0.94971   0.93541   -1.000
 5686.00    0.94979   0.93676   -1.000
 5687.00    0.95115   0.93742   -1.000
 5688.00    0.94914   0.93776   -1.000
 5689.00    0.95284   0.93878   -1.000
 5690.00    0.95303   0.94099   -1.000
 5691.00    0.95878   0.94395   -1.000
 5692.00    0.96336   0.94670   -1.000
 5693.00    0.95807   0.94858   -1.000
 5694.00    0.95865   0.94955   -1.000
 5695.00    0.95784   0.94985  286.931
 5696.00    0.95784   0.94955   -1.000
 5697.00    0.96203   0.94830   -1.000
 5698.00    0.95780   0.94582   -1.000
 5699.00    0.95437   0.94249   -1.000
 5700.00    0.95060   0.93936   -1.000
 5701.00    0.94727   0.93763   -1.000
 5702.00    0.94549   0.93791  301.395
 5703.00    0.95101   0.93945   -1.000
 5704.00    0.95330   0.94040   -1.000
 5705.00    0.95236   0.93923   -1.000
 5706.00    0.94508   0.93563   -1.000
 5707.00    0.94130   0.93027   -1.000
 5708.00    0.93872   0.92453   -1.000
 5709.00    0.92873   0.92028   -1.000
 5710.00    0.92642   0.91932  313.837
 5711.00    0.93049   0.92227   -1.000
 5712.00    0.93825   0.92802   -1.000
 5713.00    0.94803   0.93427   -1.000
 5714.00    0.95365   0.93920   -1.000
 5715.00    0.95538   0.94245   -1.000
 5716.00    0.95616   0.94460   -1.000
 5717.00    0.95865   0.94622   -1.000
 5718.00    0.95764   0.94762   -1.000
 5719.00    0.95728   0.94900   -1.000
 5720.00    0.95849   0.95029   -1.000
 5721.00    0.95874   0.95123  283.882
 5722.00    0.95893   0.95176  283.289
 5723.00    0.96253   0.95185   -1.000
 5724.00    0.96283   0.95115   -1.000
 5725.00    0.96142   0.94936   -1.000
 5726.00    0.95775   0.94691   -1.000
 5727.00    0.95539   0.94487   -1.000
 5728.00    0.95742   0.94398   -1.000
 5729.00    0.95730   0.94411   -1.000
 5730.00    0.95573   0.94470   -1.000
 5731.00    0.95672   0.94545   -1.000
 5732.00    0.95869   0.94651   -1.000
 5733.00    0.96033   0.94806   -1.000
 5734.00    0.96018   0.94955   -1.000
 5735.00    0.95945   0.95022   -1.000
 5736.00    0.95845   0.95009   -1.000
 5737.00    0.95778   0.94973  284.894
 5738.00    0.95786   0.94950   -1.000
 5739.00    0.95673   0.94944  285.938
 5740.00    0.95875   0.94938   -1.000
 5741.00    0.95599   0.94915  287.028
 5742.00    0.95469   0.94889  287.693
 5743.00    0.95739   0.94893   -1.000
 5744.00    0.95880   0.94915   -1.000
 5745.00    0.95422   0.94893  284.199
 5746.00    0.95422   0.94801  282.855
 5747.00    0.95268   0.94701  284.867
 5748.00    0.95100   0.94675  287.821
 5749.00    0.95377   0.94708  288.577
 5750.00    0.95285   0.94669  286.518
 5751.00    0.95256   0.94450  285.868
 5752.00    0.94692   0.94104  288.592
 5753.00    0.94088   0.93842  292.238
 5754.00    0.94202   0.93859  294.994
 5755.00    0.94527   0.94162  294.438
 5756.00    0.95196   0.94589  290.160
 5757.00    0.95636   0.94948  284.608
 5758.00    0.95508   0.95106  281.628
 5759.00    0.95597   0.95011  283.109
 5760.00    0.95455   0.94716  286.572
 5761.00    0.94903   0.94373  290.385
 5762.00    0.94549   0.94184  294.341
 5763.00    0.94825   0.94290  295.348
 5764.00    0.95100   0.94638  291.506
 5765.00    0.95104   0.95004  286.091
 5766.00    0.95614   0.95210  282.905
 5767.00    0.95958   0.95241  282.371
 5768.00    0.95832   0.95173  282.120
 5769.00    0.95723   0.95070  281.621
 5770.00    0.95781   0.94961   -1.000
 5771.00    0.95590   0.94853  283.342
 5772.00    0.95400   0.94735  285.019
 5773.00    0.95144   0.94592  286.789
 5774.00    0.94811   0.94437  287.340
 5775.00    0.94929   0.94323  287.648
 5776.00    0.94686   0.94260  286.899
 5777.00    0.95031   0.94166   -1.000
 5778.00    0.95260   0.93959   -1.000
 5779.00    0.94254   0.93648  286.384
 5780.00    0.93833   0.93315  291.057
 5781.00    0.94068   0.93061   -1.000
 5782.00    0.94079   0.92945   -1.000
 5783.00    0.94789   0.92959   -1.000
 5784.00    0.95033   0.93053   -1.000
 5785.00    0.94682   0.93194   -1.000
 5786.00    0.94877   0.93368   -1.000
 5787.00    0.95080   0.93556   -1.000
 5788.00    0.94494   0.93718  289.243
 5789.00    0.94606   0.93821  287.289
 5790.00    0.94565   0.93865  287.938
 5791.00    0.94407   0.93915  289.322
 5792.00    0.94933   0.94050   -1.000
 5793.00    0.95050   0.94275  285.986
 5794.00    0.95067   0.94503  284.124
 5795.00    0.95150   0.94617  282.441
 5796.00    0.95390   0.94581  282.473
 5797.00    0.95006   0.94495  284.407
 5798.00    0.95082   0.94496  286.185
 5799.00    0.95171   0.94620  284.364
 5800.00    0.95509   0.94787  280.472
 5801.00    0.95590   0.94899  276.636
 5802.00    0.95519   0.94902  276.450
 5803.00    0.95311   0.94805  279.128
 5804.00    0.95235   0.94689  281.234
 5805.00    0.95222   0.94646  283.555
 5806.00    0.94937   0.94703  284.651
 5807.00    0.95018   0.94820  283.754
 5808.00    0.95275   0.94933  282.657
 5809.00    0.95221   0.95014  281.856
 5810.00    0.95647   0.95075  281.948
 5811.00    0.95766   0.95120  281.620
 5812.00    0.95865   0.95113  280.453
 5813.00    0.96096   0.95015   -1.000
 5814.00    0.95807   0.94850   -1.000
 5815.00    0.95847   0.94717   -1.000
 5816.00    0.95784   0.94715   -1.000
 5817.00    0.95611   0.94854  282.301
 5818.00    0.95647   0.95047  280.332
 5819.00    0.95815   0.95199  278.862
 5820.00    0.95978   0.95282  277.499
 5821.00    0.95922   0.95317  276.643
 5822.00    0.95993   0.95330  277.274
 5823.00    0.95816   0.95328  278.305
 5824.00    0.96129   0.95319   -1.000
 5825.00    0.95979   0.95322  277.226
 5826.00    0.95774   0.95352  276.683
 5827.00    0.96152   0.95409  276.462
 5828.00    0.96330   0.95476   -1.000
 5829.00    0.95895   0.95519  277.203
 5830.00    0.95634   0.95509  276.481
 5831.00    0.95671   0.95443  276.672
 5832.00    0.95994   0.95336  276.205
 5833.00    0.95692   0.95213  276.914
 5834.00    0.95308   0.95117  278.942
 5835.00    0.94740   0.95088  279.164
 5836.00    0.95330   0.95133  278.073
 5837.00    0.96127   0.95237   -1.000
 5838.00    0.96026   0.95372  278.704
 5839.00    0.95893   0.95494  279.270
 5840.00    0.95695   0.95551  278.171
 5841.00    0.95617   0.95511  275.973
 5842.00    0.95658   0.95380  274.644
 5843.00    0.95736   0.95193  274.903
 5844.00    0.95656   0.94993  275.918
 5845.00    0.95319   0.94816  277.000
 5846.00    0.95552   0.94688   -1.000
 5847.00    0.95464   0.94616   -1.000
 5848.00    0.95532   0.94571   -1.000
 5849.00    0.95606   0.94485   -1.000
 5850.00    0.95227   0.94284   -1.000
 5851.00    0.94761   0.93942  283.476
 5852.00    0.94026   0.93538  285.254
 5853.00    0.93729   0.93213  288.238
 5854.00    0.94064   0.93004   -1.000
 5855.00    0.93882   0.92794   -1.000
 5856.00    0.93741   0.92503   -1.000
 5857.00    0.93650   0.92260   -1.000
 5858.00    0.93764   0.92266   -1.000
 5859.00    0.93906   0.92555   -1.000
 5860.00    0.94335   0.92971   -1.000
 5861.00    0.94779   0.93344   -1.000
 5862.00    0.94892   0.93609   -1.000
 5863.00    0.95031   0.93761   -1.000
 5864.00    0.95183   0.93785   -1.000
 5865.00    0.95211   0.93695   -1.000
 5866.00    0.95012   0.93592   -1.000
 5867.00    0.94797   0.93601   -1.000
 5868.00    0.94771   0.93748   -1.000
 5869.00    0.94891   0.93951   -1.000
 5870.00    0.95237   0.94106   -1.000
 5871.00    0.95513   0.94154   -1.000
 5872.00    0.95556   0.94093   -1.000
 5873.00    0.95380   0.93956   -1.000
 5874.00    0.95450   0.93787   -1.000
 5875.00    0.95643   0.93629   -1.000
 5876.00    0.95127   0.93499   -1.000
 5877.00    0.94952   0.93363   -1.000
 5878.00    0.95137   0.93183   -1.000
 5879.00    0.95154   0.92977   -1.000
 5880.00    0.95024   0.92783   -1.000
 5881.00    0.95067   0.92593   -1.000
 5882.00    0.94492   0.92367   -1.000
 5883.00    0.94347   0.92098   -1.000
 5884.00    0.94303   0.91790   -1.000
 5885.00    0.94197   0.91330   -1.000
 5886.00    0.93519   0.90392   -1.000
 5887.00    0.92253   0.88679   -1.000
 5888.00    0.89115   0.86439   -1.000
 5889.00    0.84955   0.84615  327.086
 5890.00    0.83033   0.84114   -1.000
 5891.00    0.85504   0.84913  352.109
 5892.00    0.89075   0.86061   -1.000
 5893.00    0.90408   0.86531   -1.000
 5894.00    0.89807   0.86096   -1.000
 5895.00    0.87433   0.85451   -1.000
 5896.00    0.86083   0.85495  336.276
 5897.00    0.88059   0.86464   -1.000
 5898.00    0.91108   0.87889   -1.000
 5899.00    0.93006   0.89229   -1.000
 5900.00    0.93577   0.90263   -1.000
 5901.00    0.93498   0.91001   -1.000
 5902.00    0.93735   0.91506   -1.000
 5903.00    0.93970   0.91836   -1.000
 5904.00    0.94033   0.92043   -1.000
 5905.00    0.94084   0.92179   -1.000
 5906.00    0.94321   0.92277   -1.000
 5907.00    0.94394   0.92355   -1.000
 5908.00    0.94268   0.92428   -1.000
 5909.00    0.94555   0.92482   -1.000
 5910.00    0.94538   0.92470   -1.000
 5911.00    0.94264   0.92339   -1.000
 5912.00    0.94026   0.92069   -1.000
 5913.00    0.93709   0.91709   -1.000
 5914.00    0.93468   0.91378   -1.000
 5915.00    0.93317   0.91192   -1.000
 5916.00    0.93102   0.91189   -1.000
 5917.00    0.93524   0.91333   -1.000
 5918.00    0.94215   0.91550   -1.000
 5919.00    0.93972   0.91755   -1.000
 5920.00    0.93592   0.91896   -1.000
 5921.00    0.93397   0.91973   -1.000
 5922.00    0.93381   0.92027   -1.000
 5923.00    0.93697   0.92107   -1.000
 5924.00    0.93744   0.92234   -1.000
 5925.00    0.93986   0.92376   -1.000
 5926.00    0.94294   0.92463   -1.000
 5927.00    0.93980   0.92431   -1.000
 5928.00    0.93745   0.92277   -1.000
 5929.00    0.93649   0.92104   -1.000
 5930.00    0.93694   0.92037   -1.000
 5931.00    0.93618   0.92094   -1.000
 5932.00    0.93525   0.92177   -1.000
 5933.00    0.93567   0.92198   -1.000
 5934.00    0.93186   0.92164   -1.000
 5935.00    0.93540   0.92154   -1.000
 5936.00    0.93996   0.92204   -1.000
 5937.00    0.94321   0.92248   -1.000
 5938.00    0.93935   0.92189   -1.000
 5939.00    0.94122   0.92014   -1.000
 5940.00    0.94182   0.91800   -1.000
 5941.00    0.93433   0.91632   -1.000
 5942.00    0.93002   0.91559   -1.000
 5943.00    0.93043   0.91596   -1.000
 5944.00    0.93278   0.91707   -1.000
 5945.00    0.93379   0.91791   -1.000
 5946.00    0.93312   0.91768   -1.000
 5947.00    0.92789   0.91673   -1.000
 5948.00    0.92955   0.91629   -1.000
 5949.00    0.93297   0.91705   -1.000
 5950.00    0.92994   0.91840   -1.000
 5951.00    0.92331   0.91941  295.143
 5952.00    0.92622   0.91984  294.151
 5953.00    0.92812   0.91975   -1.000
 5954.00    0.93250   0.91907   -1.000
 5955.00    0.93161   0.91791   -1.000
 5956.00    0.92555   0.91698   -1.000
 5957.00    0.92243   0.91713  295.712
 5958.00    0.92815   0.91861   -1.000
 5959.00    0.93372   0.92086   -1.000
 5960.00    0.93152   0.92307   -1.000
 5961.00    0.93242   0.92464  288.252
 5962.00    0.93605   0.92518   -1.000
 5963.00    0.93603   0.92452   -1.000
 5964.00    0.93178   0.92299   -1.000
 5965.00    0.93366   0.92133   -1.000
 5966.00    0.93112   0.92034   -1.000
 5967.00    0.93184   0.92033   -1.000
 5968.00    0.92916   0.92107   -1.000
 5969.00    0.93083   0.92218   -1.000
 5970.00    0.93152   0.92332   -1.000
 5971.00    0.93342   0.92411   -1.000
 5972.00    0.93105   0.92425  287.025
 5973.00    0.93187   0.92360   -1.000
 5974.00    0.93145   0.92207   -1.000
 5975.00    0.92630   0.91988  290.978
 5976.00    0.92588   0.91788   -1.000
 5977.00    0.92156   0.91702  295.249
 5978.00    0.92521   0.91769  296.460
 5979.00    0.93053   0.91931   -1.000
 5980.00    0.92969   0.92060   -1.000
 5981.00    0.92876   0.92046   -1.000
 5982.00    0.92711   0.91878   -1.000
 5983.00    0.92067   0.91652  294.770
 5984.00    0.91964   0.91502  297.354
 5985.00    0.92078   0.91494  298.652
 5986.00    0.92321   0.91601  297.242
 5987.00    0.92782   0.91741   -1.000
 5988.00    0.92916   0.91843   -1.000
 5989.00    0.92843   0.91873   -1.000
 5990.00    0.92427   0.91861  289.944
 5991.00    0.92626   0.91895  290.686
 5992.00    0.93008   0.92035   -1.000
 5993.00    0.92680   0.92234  289.601
 5994.00    0.92658   0.92374  287.080
 5995.00    0.92617   0.92373  286.524
 5996.00    0.92321   0.92265  288.886
 5997.00    0.92442   0.92151  290.835
 5998.00    0.92729   0.92103  292.014
 5999.00    0.92832   0.92100  292.545
 6000.00    0.92732   0.92070  291.872
 6001.00    0.92890   0.91983   -1.000
 6002.00    0.92386   0.91873  294.233
 6003.00    0.92165   0.91780  295.058
 6004.00    0.92374   0.91691  294.828
 6005.00    0.92362   0.91550   -1.000
 6006.00    0.91937   0.91353  294.296
 6007.00    0.91232   0.91194  296.675
 6008.00    0.91152   0.91196  299.757
 6009.00    0.91615   0.91368  299.280
 6010.00    0.92071   0.91578  295.438
 6011.00    0.92219   0.91689  292.492
 6012.00    0.91779   0.91698  293.050
 6013.00    0.91760   0.91691  295.543
 6014.00    0.91839   0.91713  296.953
 6015.00    0.91829   0.91726  295.076
 6016.00    0.92030   0.91684  295.310
 6017.00    0.91989   0.91580  296.748
 6018.00    0.92060   0.91437  297.205
 6019.00    0.91845   0.91294  296.264
 6020.00    0.91278   0.91191  297.439
 6021.00    0.90992   0.91145  299.434
 6022.00    0.90946   0.91158  297.850
 6023.00    0.91238   0.91243  295.776
 6024.00    0.91359   0.91404  295.337
 6025.00    0.91503   0.91603  294.959
 6026.00    0.91954   0.91788  292.990
 6027.00    0.91924   0.91934  292.282
 6028.00    0.91911   0.92041  290.258
 6029.00    0.92254   0.92117  289.108
 6030.00    0.92540   0.92175  288.805
 6031.00    0.92125   0.92226  288.931
 6032.00    0.91830   0.92271  289.684
 6033.00    0.91943   0.92326  288.981
 6034.00    0.91752   0.92398  287.614
 6035.00    0.91908   0.92448  286.975
 6036.00    0.92219   0.92413  286.915
 6037.00    0.91986   0.92274  286.308
 6038.00    0.91751   0.92073  286.752
 6039.00    0.91517   0.91858  288.558
 6040.00    0.91488   0.91619  288.967
 6041.00    0.91945   0.91312  289.966
 6042.00    0.91844   0.91025   -1.000
 6043.00    0.91687   0.91001  288.803
 6044.00    0.91570   0.91332  287.153
 6045.00    0.91828   0.91804  284.779
 6046.00    0.91733   0.92147  285.284
 6047.00    0.91779   0.92278  285.280
 6048.00    0.92051   0.92258  284.752
 6049.00    0.91919   0.92168  285.142
 6050.00    0.91793   0.92069  286.225
 6051.00    0.91654   0.91992  286.803
 6052.00    0.91409   0.91926  287.022
 6053.00    0.91585   0.91846  287.618
 6054.00    0.91659   0.91739  288.874
 6055.00    0.91406   0.91631  289.702
 6056.00    0.91385   0.91561  291.425
 6057.00    0.91509   0.91545  292.191
 6058.00    0.91702   0.91574  291.540
 6059.00    0.91839   0.91618  289.880
 6060.00    0.91648   0.91615  288.418
 6061.00    0.91445   0.91487  288.986
 6062.00    0.91260   0.91197  289.643
 6063.00    0.90789   0.90812  294.255
 6064.00    0.90225   0.90505  300.153
 6065.00    0.89943   0.90457  288.293
 6066.00    0.89905   0.90713  491.856
 6067.00    0.89973   0.91137   88.407
 6068.00    0.89567   0.91529   -1.000
 6069.00    0.80546   0.91787   -1.000
 6070.00    0.55531   0.91928   -1.000
 6071.00    0.53866   0.92010   -1.000
 6072.00    0.85634   0.92059   -1.000
 6073.00    0.88241   0.92066   -1.000
 6074.00    0.86522   0.92006   -1.000
 6075.00    0.86130   0.91868   -1.000
 6076.00    0.81594   0.91685   -1.000
 6077.00    0.89883   0.91519   -1.000
 6078.00    0.90551   0.91410  290.684
 6079.00    0.90895   0.91348  293.021
 6080.00    0.91216   0.91287  294.741
 6081.00    0.91163   0.91196  294.728
 6082.00    0.90429   0.91099  295.037
 6083.00    0.90277   0.91043  295.949
 6084.00    0.90211   0.91052  295.819
 6085.00    0.90323   0.91111  295.597
 6086.00    0.90424   0.91195  295.273
 6087.00    0.90568   0.91274  294.354
 6088.00    0.90763   0.91306  293.137
 6089.00    0.90583   0.91259  293.913
 6090.00    0.90664   0.91155  295.808
 6091.00    0.90462   0.91073  296.986
 6092.00    0.91076   0.91083  296.694
 6093.00    0.90551   0.91193  294.615
 6094.00    0.90209   0.91357  293.220
 6095.00    0.90824   0.91527  291.522
 6096.00    0.90776   0.91671  290.307
 6097.00    0.90629   0.91751  290.551
 6098.00    0.90471   0.91693  291.326
 6099.00    0.90091   0.91402   -1.000
 6100.00    0.89932   0.90852  291.461
 6101.00    0.89214   0.90192  295.321
 6102.00    0.88397   0.89715   -1.000
 6103.00    0.88373   0.89658   -1.000
 6104.00    0.89188   0.89996  304.600
 6105.00    0.90114   0.90497  298.500
 6106.00    0.90036   0.90947  294.160
 6107.00    0.89941   0.91278   -1.000
 6108.00    0.89724   0.91501   -1.000
 6109.00    0.89851   0.91619   -1.000
 6110.00    0.90321   0.91624   -1.000
 6111.00    0.90270   0.91552   -1.000
 6112.00    0.90251   0.91474  293.174
 6113.00    0.90267   0.91437  293.251
 6114.00    0.90191   0.91438  291.515
 6115.00    0.89933   0.91447   -1.000
 6116.00    0.89837   0.91420   -1.000
 6117.00    0.89659   0.91256   -1.000
 6118.00    0.89558   0.90857   -1.000
 6119.00    0.89248   0.90222  296.021
 6120.00    0.88459   0.89497  300.594
 6121.00    0.88013   0.88972  304.413
 6122.00    0.88054   0.88920  307.226
 6123.00    0.87966   0.89356   -1.000
 6124.00    0.88661   0.89994   -1.000
 6125.00    0.89536   0.90503  298.058
 6126.00    0.89683   0.90731  298.297
 6127.00    0.89613   0.90735  300.174
 6128.00    0.89639   0.90710  299.569
 6129.00    0.89648   0.90824  298.921
 6130.00    0.89781   0.91078   -1.000
 6131.00    0.89720   0.91315   -1.000
 6132.00    0.89637   0.91336   -1.000
 6133.00    0.89254   0.90973   -1.000
 6134.00    0.88746   0.90159   -1.000
 6135.00    0.87862   0.89098   -1.000
 6136.00    0.86398   0.88241   -1.000
 6137.00    0.85709   0.87965   -1.000
 6138.00    0.86669   0.88204   -1.000
 6139.00    0.87877   0.88554  312.254
 6140.00    0.87899   0.88757  303.407
 6141.00    0.87239   0.88923   -1.000
 6142.00    0.87261   0.89263   -1.000
 6143.00    0.88508   0.89760   -1.000
 6144.00    0.89478   0.90197  298.417
 6145.00    0.89488   0.90402  294.828
 6146.00    0.89495   0.90365  294.667
 6147.00    0.89601   0.90196  296.156
 6148.00    0.89031   0.90029  298.075
 6149.00    0.88732   0.89964   -1.000
 6150.00    0.88995   0.90023  301.966
 6151.00    0.89001   0.90156  301.836
 6152.00    0.88931   0.90265   -1.000
 6153.00    0.88857   0.90276   -1.000
 6154.00    0.88837   0.90178   -1.000
 6155.00    0.88769   0.90019   -1.000
 6156.00    0.88939   0.89847  302.465
 6157.00    0.88735   0.89648  302.577
 6158.00    0.88355   0.89308  303.954
 6159.00    0.88213   0.88673  307.359
 6160.00    0.87143   0.87771  313.456
 6161.00    0.85939   0.86926  323.299
 6162.00    0.85527   0.86542  332.600
 6163.00    0.85960   0.86743  335.239
 6164.00    0.86949   0.87286  329.622
 6165.00    0.87508   0.87817  320.195
 6166.00    0.87472   0.88112  315.703
 6167.00    0.87368   0.88135  314.602
 6168.00    0.86853   0.87996  315.589
 6169.00    0.86562   0.87898   -1.000
 6170.00    0.86649   0.88010   -1.000
 6171.00    0.87257   0.88335  320.241
 6172.00    0.87695   0.88742  313.728
 6173.00    0.87947   0.89112  309.552
 6174.00    0.88317   0.89394  310.249
 6175.00    0.88301   0.89580   -1.000
 6176.00    0.87931   0.89677   -1.000
 6177.00    0.87730   0.89710   -1.000
 6178.00    0.88148   0.89711   -1.000
 6179.00    0.88291   0.89717   -1.000
 6180.00    0.88519   0.89755   -1.000
 6181.00    0.88450   0.89819   -1.000
 6182.00    0.88568   0.89876   -1.000
 6183.00    0.88757   0.89897  302.370
 6184.00    0.88397   0.89865   -1.000
 6185.00    0.88397   0.89765   -1.000
 6186.00    0.88007   0.89584   -1.000
 6187.00    0.87863   0.89295   -1.000
 6188.00    0.87346   0.88862   -1.000
 6189.00    0.87071   0.88325   -1.000
 6190.00    0.86583   0.87872   -1.000
 6191.00    0.86060   0.87753   -1.000
 6192.00    0.86136   0.88058   -1.000
 6193.00    0.87311   0.88627   -1.000
 6194.00    0.88015   0.89192   -1.000
 6195.00    0.88126   0.89575   -1.000
 6196.00    0.88149   0.89725   -1.000
 6197.00    0.87824   0.89659   -1.000
 6198.00    0.87807   0.89475   -1.000
 6199.00    0.87662   0.89336   -1.000
 6200.00    0.87412   0.89377   -1.000
 6201.00    0.87426   0.89596   -1.000
 6202.00    0.87772   0.89875   -1.000
 6203.00    0.87813   0.90095   -1.000
 6204.00    0.87722   0.90217   -1.000
 6205.00    0.87858   0.90265   -1.000
 6206.00    0.87891   0.90275   -1.000
 6207.00    0.87882   0.90259   -1.000
 6208.00    0.87772   0.90200   -1.000
 6209.00    0.87947   0.90074   -1.000
 6210.00    0.88086   0.89855   -1.000
 6211.00    0.87583   0.89527   -1.000
 6212.00    0.87114   0.89131   -1.000
 6213.00    0.86662   0.88768   -1.000
 6214.00    0.86587   0.88537   -1.000
 6215.00    0.87146   0.88446   -1.000
 6216.00    0.87473   0.88414  324.729
 6217.00    0.87218   0.88350   -1.000
 6218.00    0.86568   0.88251   -1.000
 6219.00    0.85918   0.88202   -1.000
 6220.00    0.86223   0.88284   -1.000
 6221.00    0.86756   0.88480   -1.000
 6222.00    0.87147   0.88694   -1.000
 6223.00    0.87459   0.88851   -1.000
 6224.00    0.87483   0.88939   -1.000
 6225.00    0.87352   0.88957   -1.000
 6226.00    0.87382   0.88857   -1.000
 6227.00    0.87640   0.88555  316.290
 6228.00    0.86744   0.88039   -1.000
 6229.00    0.85587   0.87455   -1.000
 6230.00    0.85215   0.87059   -1.000
 6231.00    0.85204   0.87050   -1.000
 6232.00    0.85887   0.87416   -1.000
 6233.00    0.86361   0.87954   -1.000
 6234.00    0.86610   0.88406   -1.000
 6235.00    0.87034   0.88602   -1.000
 6236.00    0.87134   0.88526   -1.000
 6237.00    0.86785   0.88284   -1.000
 6238.00    0.86390   0.88025   -1.000
 6239.00    0.86217   0.87853   -1.000
 6240.00    0.86224   0.87768   -1.000
 6241.00    0.86467   0.87679   -1.000
 6242.00    0.86601   0.87492  326.177
 6243.00    0.86135   0.87195   -1.000
 6244.00    0.85480   0.86888   -1.000
 6245.00    0.85169   0.86736   -1.000
 6246.00    0.85102   0.86861   -1.000
 6247.00    0.85466   0.87228   -1.000
 6248.00    0.85680   0.87642   -1.000
 6249.00    0.85743   0.87860   -1.000
 6250.00    0.85793   0.87743   -1.000
 6251.00    0.85295   0.87361   -1.000
 6252.00    0.84579   0.86934   -1.000
 6253.00    0.84074   0.86654   -1.000
 6254.00    0.84153   0.86572   -1.000
 6255.00    0.84177   0.86615   -1.000
 6256.00    0.84611   0.86702   -1.000
 6257.00    0.85188   0.86825   -1.000
 6258.00    0.84995   0.87026   -1.000
 6259.00    0.84967   0.87312   -1.000
 6260.00    0.85273   0.87636   -1.000
 6261.00    0.85738   0.87934   -1.000
 6262.00    0.85932   0.88148   -1.000
 6263.00    0.86010   0.88252   -1.000
 6264.00    0.85885   0.88277   -1.000
 6265.00    0.85239   0.88299   -1.000
 6266.00    0.85358   0.88349   -1.000
 6267.00    0.85718   0.88365   -1.000
 6268.00    0.85807   0.88284   -1.000
 6269.00    0.85633   0.88119   -1.000
 6270.00    0.85526   0.87944   -1.000
 6271.00    0.85490   0.87783   -1.000
 6272.00    0.85914   0.87573   -1.000
 6273.00    0.85882   0.87213   -1.000
 6274.00    0.85364   0.86668   -1.000
 6275.00    0.84904   0.86013  321.423
 6276.00    0.83763   0.85394   -1.000
 6277.00    0.82632   0.84944   -1.000
 6278.00    0.81014   0.84734   -1.000
 6279.00    0.79923   0.84784   -1.000
 6280.00    0.80196   0.85086   -1.000
 6281.00    0.80785   0.85594   -1.000
 6282.00    0.81402   0.86213   -1.000
 6283.00    0.82476   0.86815   -1.000
 6284.00    0.82822   0.87297   -1.000
 6285.00    0.83314   0.87624   -1.000
 6286.00    0.83631   0.87803   -1.000
 6287.00    0.84289   0.87837   -1.000
 6288.00    0.84463   0.87726   -1.000
 6289.00    0.84362   0.87518   -1.000
 6290.00    0.84156   0.87302   -1.000
 6291.00    0.84220   0.87150   -1.000
 6292.00    0.84218   0.87061   -1.000
 6293.00    0.84320   0.86971   -1.000
 6294.00    0.84390   0.86814   -1.000
 6295.00    0.84321   0.86589   -1.000
 6296.00    0.83941   0.86356   -1.000
 6297.00    0.83647   0.86188   -1.000
 6298.00    0.83487   0.86097   -1.000
 6299.00    0.82989   0.86040   -1.000
 6300.00    0.82569   0.86014   -1.000
 6301.00    0.82791   0.86090   -1.000
 6302.00    0.83322   0.86328   -1.000
 6303.00    0.83963   0.86681   -1.000
 6304.00    0.84461   0.87024   -1.000
 6305.00    0.85050   0.87277   -1.000
 6306.00    0.85017   0.87442   -1.000
 6307.00    0.84890   0.87554   -1.000
 6308.00    0.85065   0.87635   -1.000
 6309.00    0.84719   0.87672   -1.000
 6310.00    0.84683   0.87645   -1.000
 6311.00    0.84665   0.87548   -1.000
 6312.00    0.84657   0.87392   -1.000
 6313.00    0.84400   0.87205   -1.000
 6314.00    0.84261   0.87016   -1.000
 6315.00    0.83798   0.86842   -1.000
 6316.00    0.83816   0.86693   -1.000
 6317.00    0.83981   0.86623   -1.000
 6318.00    0.83830   0.86710   -1.000
 6319.00    0.83994   0.86953   -1.000
 6320.00    0.84336   0.87265   -1.000
 6321.00    0.84579   0.87563   -1.000
 6322.00    0.84812   0.87831   -1.000
 6323.00    0.84994   0.88064   -1.000
 6324.00    0.85383   0.88227   -1.000
 6325.00    0.85704   0.88289   -1.000
 6326.00    0.85705   0.88267   -1.000
 6327.00    0.85936   0.88205   -1.000
 6328.00    0.85911   0.88145   -1.000
 6329.00    0.85392   0.88115   -1.000
 6330.00    0.85500   0.88113   -1.000
 6331.00    0.85731   0.88084   -1.000
 6332.00    0.85925   0.87936   -1.000
 6333.00    0.85627   0.87611   -1.000
 6334.00    0.85030   0.87192   -1.000
 6335.00    0.84411   0.86885   -1.000
 6336.00    0.84333   0.86850   -1.000
 6337.00    0.84995   0.87071   -1.000
 6338.00    0.84350   0.87398   -1.000
 6339.00    0.77884   0.87680   -1.000
 6340.00    0.83137   0.87848   -1.000
 6341.00    0.86619   0.87894   -1.000
 6342.00    0.86601   0.87836   -1.000
 6343.00    0.86524   0.87708   -1.000
 6344.00    0.86239   0.87562   -1.000
 6345.00    0.86365   0.87467   -1.000
 6346.00    0.86571   0.87488  308.600
 6347.00    0.86311   0.87654   -1.000
 6348.00    0.86723   0.87923   -1.000
 6349.00    0.86571   0.88199   -1.000
 6350.00    0.86610   0.88378   -1.000
 6351.00    0.86982   0.88405   -1.000
 6352.00    0.86571   0.88293   -1.000
 6353.00    0.86612   0.88116   -1.000
 6354.00    0.86350   0.87949   -1.000
 6355.00    0.85861   0.87819   -1.000
 6356.00    0.85789   0.87703   -1.000
 6357.00    0.85874   0.87570   -1.000
 6358.00    0.85946   0.87426   -1.000
 6359.00    0.86109   0.87294   -1.000
 6360.00    0.86159   0.87179   -1.000
 6361.00    0.85988   0.87092   -1.000
 6362.00    0.86067   0.87070  315.928
 6363.00    0.86161   0.87154  315.648
 6364.00    0.86321   0.87321  314.535
 6365.00    0.86415   0.87506  312.433
 6366.00    0.86377   0.87646   -1.000
 6367.00    0.86475   0.87698   -1.000
 6368.00    0.86688   0.87651  306.810
 6369.00    0.86454   0.87546  304.760
 6370.00    0.86446   0.87459  303.997
 6371.00    0.86435   0.87462  304.234
 6372.00    0.86546   0.87567  303.181
 6373.00    0.86586   0.87706  301.977
 6374.00    0.86886   0.87794  302.812
 6375.00    0.87142   0.87790  303.038
 6376.00    0.87100   0.87714  303.701
 6377.00    0.86958   0.87608  304.838
 6378.00    0.86415   0.87495  306.398
 6379.00    0.86050   0.87390   -1.000
 6380.00    0.86275   0.87311  309.665
 6381.00    0.86214   0.87273  309.859
 6382.00    0.86030   0.87284   -1.000
 6383.00    0.85867   0.87335   -1.000
 6384.00    0.85884   0.87416   -1.000
 6385.00    0.85563   0.87518   -1.000
 6386.00    0.85330   0.87618   -1.000
 6387.00    0.85222   0.87676   -1.000
 6388.00    0.85096   0.87649   -1.000
 6389.00    0.85120   0.87494   -1.000
 6390.00    0.84543   0.87186   -1.000
 6391.00    0.84194   0.86777   -1.000
 6392.00    0.83254   0.86428   -1.000
 6393.00    0.82672   0.86323   -1.000
 6394.00    0.82821   0.86498   -1.000
 6395.00    0.83497   0.86785   -1.000
 6396.00    0.83155   0.86938   -1.000
 6397.00    0.82554   0.86820   -1.000
 6398.00    0.81655   0.86526   -1.000
 6399.00    0.80895   0.86306   -1.000
 6400.00    0.80488   0.86364   -1.000
 6401.00    0.80697   0.86693   -1.000
 6402.00    0.81008   0.87107   -1.000
 6403.00    0.81404   0.87392   -1.000
 6404.00    0.81363   0.87426   -1.000
 6405.00    0.80995   0.87202   -1.000
 6406.00    0.80382   0.86809   -1.000
 6407.00    0.79585   0.86405   -1.000
 6408.00    0.79319   0.86192   -1.000
 6409.00    0.78989   0.86230   -1.000
 6410.00    0.78577   0.86390   -1.000
 6411.00    0.78205   0.86554   -1.000
 6412.00    0.77564   0.86677   -1.000
 6413.00    0.77197   0.86766   -1.000
 6414.00    0.76970   0.86838   -1.000
 6415.00    0.77032   0.86909   -1.000
 6416.00    0.76926   0.86958   -1.000
 6417.00    0.76149   0.86919   -1.000
 6418.00    0.75234   0.86755   -1.000
 6419.00    0.74457   0.86534   -1.000
 6420.00    0.73524   0.86415   -1.000
 6421.00    0.73015   0.86522   -1.000
 6422.00    0.73207   0.86833   -1.000
 6423.00    0.73611   0.87219   -1.000
 6424.00    0.73206   0.87551   -1.000
 6425.00    0.72513   0.87759   -1.000
 6426.00    0.71872   0.87799   -1.000
 6427.00    0.70889   0.87619   -1.000
 6428.00    0.70108   0.87226   -1.000
