###################################################################
## OUTPUT of StarlightChains_v04.for    [Cid@UFSC - 01/Apr/2007] ##
###################################################################

## Some input info
NGC6626_a_1.cxt                          [arq_obs]
Base.BC03.S                              [arq_base]
NGC6626_a_1.msk                          [arq_masks]
StCv04.C11.config                        [arq_config]
  150                                    [N_base]
    0                                    [N_YAV_components = # of components with extra extinction!]
    0                                    [i_FitPowerLaw (1/0 = Yes/No)]
-9.99                                    [alpha_PowerLaw]
CCM                                      [red_law_option]
 1.458241                                [q_norm = A(l_norm)/A(V)]

## (Re)Sampling Parameters
 3359.00                                 [l_ini (A)]
 6428.00                                 [l_fin (A)]
    1.00                                 [dl    (A)]     (OBS: dl_cushion =    50.00 A)

## Normalization info
 4020.00                                 [l_norm (A) - for base]
 4010.00                                 [llow_norm (A) - window for f_obs]
 4060.00                                 [lupp_norm (A) - window for f_obs]
2.684846E-14                             [fobs_norm (in input units)]

## S/N
 4730.00                                 [llow_SN (A) - window for S/N]
 4780.00                                 [lupp_SN (A) - window for S/N]
  76.546                                 [S/N in S/N window]
  58.380                                 [S/N in norm. window]
 133.097                                 [S/N_err in S/N window]
 101.509                                 [S/N_err in norm. window]
  1.0000                                 [fscale_chi2]

## etc...
  2147483595                             [idum_orig]
  3069                                   [NOl_eff]
  1200                                   [Nl_eff]
  1869    NSIGMA                         [Ntot_cliped & clip_method]
  1538810                                [Nglobal_steps]
   7                                     [N_chains]
  20                                     [NEX0s_base = N_base in EX0s-fits]
 0   0   1      124   2.0   2.431E+02    [Clip-Bug, RC-Crash & Burn-In warning-flags, n_censored_weights, wei_nsig_threshold & wei_limit]
    67     66.729     66.705      0.024  [idt_all, wdt_TotTime, wdt_UsrTime & wdt_SysTime (sec)]

## Synthesis Results - Best model ##

 2.66836E+00                             [chi2/Nl_eff]
     1.42831                             [adev (%)]

    97.65979                             [sum-of-x (%)]
 1.15109E-13                             [Flux_tot (units of input spectrum!)]
 3.60923E-09                             [Mini_tot (???)]
 1.78743E-09                             [Mcor_tot (???)]

  -7.40                                  [v0_min  (km/s)]
  29.33                                  [vd_min  (km/s)]
 1.1015                                  [AV_min  (mag)]
 0.0000                                  [YAV_min (mag)]

# j     x_j(%)      Mini_j(%)     Mcor_j(%)     age_j(yr)     Z_j      (L/M)_j    YAV?  Mstars   component_j        a/Fe...       SSP_chi2r SSP_adev(%)   SSP_AV   SSP_x(%)
  1      0.0000     0.0000E+00    0.0000E+00    1.000000E+06  0.00010  8.160E-03    0   1.0000   age020_m22            0.0000     5.4140E+02    19.4506   4.0000    88.7140
  2      0.0000     0.0000E+00    0.0000E+00    3.160000E+06  0.00010  4.759E-02    0   1.0000   age045_m22            0.0000     2.7848E+01     4.3789   2.6091    95.1344
  3      1.2863     2.1742E-03    4.2068E-03    5.010000E+06  0.00010  1.932E-02    0   0.9582   age055_m22            0.0000     1.9298E+02    11.9470   2.8640    82.2314
  4      0.0000     0.0000E+00    0.0000E+00    6.610000E+06  0.00010  9.973E-03    0   0.9297   age061_m22            0.0000     4.9738E+02    18.4574   4.0000    91.0014
  5      0.0000     0.0000E+00    0.0000E+00    8.710000E+06  0.00010  7.690E-03    0   0.9030   age067_m22            0.0000     4.7758E+02    18.0504   4.0000    91.3434
  6      0.0000     0.0000E+00    0.0000E+00    1.000000E+07  0.00010  6.375E-03    0   0.8902   age070_m22            0.0000     4.8329E+02    18.0195   4.0000    91.8414
  7      0.0000     0.0000E+00    0.0000E+00    1.445000E+07  0.00010  4.874E-03    0   0.8589   age078_m22            0.0000     2.6881E+02    13.8842   4.0000    91.0739
  8      0.0001     4.2745E-07    7.0552E-07    2.512000E+07  0.00010  4.103E-03    0   0.8174   age090_m22            0.0000     6.3955E+01     7.0822   3.9689    88.4379
  9      0.0000     0.0000E+00    0.0000E+00    4.000000E+07  0.00010  3.654E-03    0   0.7830   age104_m22            0.0000     4.7422E+01     5.2014   3.6795    93.6474
 10      0.0000     0.0000E+00    0.0000E+00    5.500000E+07  0.00010  3.093E-03    0   0.7597   age110_m22            0.0000     4.9430E+01     4.8444   3.5875    95.1119
 11      0.0000     0.0000E+00    0.0000E+00    1.015200E+08  0.00010  2.431E-03    0   0.7138   age116_m22            0.0000     6.3422E+01     4.9515   3.2381    98.3813
 12      0.0000     0.0000E+00    0.0000E+00    1.609000E+08  0.00010  1.319E-03    0   0.6775   age120_m22            0.0000     5.7630E+01     4.5858   2.7685   100.2906
 13      0.0000     0.0000E+00    0.0000E+00    2.861200E+08  0.00010  1.075E-03    0   0.6412   age125_m22            0.0000     1.7634E+02     8.3531   2.8722   103.1474
 14      0.0000     0.0000E+00    0.0000E+00    5.088000E+08  0.00010  7.183E-04    0   0.6083   age130_m22            0.0000     2.2148E+02     9.6834   2.6593   104.3640
 15      0.0000     0.0000E+00    0.0000E+00    9.047900E+08  0.00010  4.524E-04    0   0.5785   age135_m22            0.0000     2.2421E+02     9.8647   2.4620   105.4477
 16      0.0000     0.0000E+00    0.0000E+00    1.278050E+09  0.00010  3.018E-04    0   0.5588   age138_m22            0.0000     9.9071E+01     6.4872   1.9106   104.0768
 17      0.0000     0.0000E+00    0.0000E+00    1.434000E+09  0.00010  2.691E-04    0   0.5532   age139_m22            0.0000     7.8647E+01     5.7983   1.7531   103.5052
 18      0.0000     0.0000E+00    0.0000E+00    2.500000E+09  0.00010  1.582E-04    0   0.5296   age150_m22            0.0000     6.3911E+01     5.1255   1.6269   104.5147
 19      0.0000     7.6437E-06    7.8870E-06    4.250000E+09  0.00010  1.007E-04    0   0.5110   age158_m22            0.0000     3.1496E+01     3.6258   1.4736   102.6397
 20      0.0000     0.0000E+00    0.0000E+00    6.250000E+09  0.00010  6.869E-05    0   0.4985   age166_m22            0.0000     1.2643E+01     2.3800   1.4146    99.6121
 21      6.4290     3.5749E+00    3.5595E+00    7.500000E+09  0.00010  5.873E-05    0   0.4931   age171_m22            0.0000     1.1250E+01     2.2634   1.3977    99.1505
 22      4.4175     3.2194E+00    3.1555E+00    1.000000E+10  0.00010  4.481E-05    0   0.4854   age181_m22            0.0000     1.0564E+01     2.2026   1.3601    98.7771
 23      3.3158     3.1036E+00    3.0025E+00    1.300000E+10  0.00010  3.489E-05    0   0.4791   age193_m22            0.0000     9.1950E+00     2.0715   1.3059    98.1603
 24      5.9218     6.3719E+00    6.1321E+00    1.500000E+10  0.00010  3.035E-05    0   0.4766   age201_m22            0.0000     8.3373E+00     1.9878   1.2670    97.9702
 25     11.6054     1.5100E+01    1.4437E+01    1.800000E+10  0.00010  2.510E-05    0   0.4735   age213_m22            0.0000     6.7755E+00     1.8112   1.1989    97.3361
 26      0.0000     0.0000E+00    0.0000E+00    1.000000E+06  0.00040  8.458E-03    0   1.0000   age020_m32            0.0000     5.5699E+02    19.5228   4.0000    89.7315
 27      0.0000     0.0000E+00    0.0000E+00    3.160000E+06  0.00040  3.973E-02    0   1.0000   age045_m32            0.0000     6.8239E+01     7.4156   3.8604    88.5917
 28      0.0000     0.0000E+00    0.0000E+00    5.010000E+06  0.00040  1.935E-02    0   0.9532   age055_m32            0.0000     1.6241E+02    11.3470   4.0000    84.4333
 29      0.0000     0.0000E+00    0.0000E+00    6.610000E+06  0.00040  1.204E-02    0   0.9243   age061_m32            0.0000     3.2599E+02    15.3337   4.0000    90.1807
 30      0.0000     0.0000E+00    0.0000E+00    8.710000E+06  0.00040  9.433E-03    0   0.9001   age067_m32            0.0000     2.8620E+02    14.4407   4.0000    90.5607
 31      0.0000     0.0000E+00    0.0000E+00    1.000000E+07  0.00040  8.053E-03    0   0.8877   age070_m32            0.0000     2.5446E+02    13.7130   4.0000    90.2152
 32      0.0000     0.0000E+00    0.0000E+00    1.445000E+07  0.00040  7.027E-03    0   0.8578   age078_m32            0.0000     9.1461E+01     8.6354   3.8004    87.5055
 33      0.0000     0.0000E+00    0.0000E+00    2.512000E+07  0.00040  4.707E-03    0   0.8166   age090_m32            0.0000     5.6890E+01     6.7410   3.5158    91.4953
 34      0.0000     0.0000E+00    0.0000E+00    4.000000E+07  0.00040  3.714E-03    0   0.7827   age104_m32            0.0000     4.1925E+01     5.0866   3.3230    95.0594
 35      0.0000     0.0000E+00    0.0000E+00    5.500000E+07  0.00040  2.982E-03    0   0.7593   age110_m32            0.0000     4.3549E+01     4.7445   3.2668    96.2661
 36      0.0000     0.0000E+00    0.0000E+00    1.015200E+08  0.00040  2.188E-03    0   0.7143   age116_m32            0.0000     9.1090E+01     5.6629   3.0261   100.4551
 37      0.0000     0.0000E+00    0.0000E+00    1.609000E+08  0.00040  1.690E-03    0   0.6856   age120_m32            0.0000     1.3760E+02     7.0821   2.8301   103.0205
 38      0.0000     0.0000E+00    0.0000E+00    2.861200E+08  0.00040  1.152E-03    0   0.6509   age125_m32            0.0000     1.8723E+02     8.7666   2.6342   104.0195
 39      0.0000     0.0000E+00    0.0000E+00    5.088000E+08  0.00040  7.331E-04    0   0.6182   age130_m32            0.0000     2.0832E+02     9.4574   2.4834   104.3702
 40      0.0000     0.0000E+00    0.0000E+00    9.047900E+08  0.00040  3.960E-04    0   0.5890   age135_m32            0.0000     1.0847E+02     7.0132   2.0171   102.9615
 41      0.0000     0.0000E+00    0.0000E+00    1.278050E+09  0.00040  2.854E-04    0   0.5687   age138_m32            0.0000     7.8574E+01     5.8045   1.7023   105.2918
 42      0.0000     0.0000E+00    0.0000E+00    1.434000E+09  0.00040  2.531E-04    0   0.5632   age139_m32            0.0000     7.4981E+01     5.6591   1.6393   105.3210
 43      7.8869     1.7309E+00    1.8825E+00    2.500000E+09  0.00040  1.488E-04    0   0.5386   age150_m32            0.0000     4.8983E+01     4.6764   1.3867   103.3572
 44     11.2462     4.0439E+00    4.2453E+00    4.250000E+09  0.00040  9.082E-05    0   0.5199   age158_m32            0.0000     1.1983E+01     2.3738   1.2867    99.6980
 45     21.7576     1.1169E+01    1.1447E+01    6.250000E+09  0.00040  6.362E-05    0   0.5076   age166_m32            0.0000     5.9885E+00     1.8474   1.2379    96.1831
 46     17.1307     1.0577E+01    1.0737E+01    7.500000E+09  0.00040  5.289E-05    0   0.5027   age171_m32            0.0000     6.8619E+00     2.0202   1.2040    94.8371
 47      0.0049     4.0061E-03    4.0026E-03    1.000000E+10  0.00040  3.972E-05    0   0.4948   age181_m32            0.0000     7.7819E+00     2.1132   1.1464    93.3838
 48      0.0000     3.3100E-05    3.2549E-05    1.300000E+10  0.00040  3.283E-05    0   0.4870   age193_m32            0.0000     4.1452E+00     1.5872   1.1035    96.2781
 49      0.0084     9.3488E-03    9.1631E-03    1.500000E+10  0.00040  2.925E-05    0   0.4854   age201_m32            0.0000     5.3940E+00     1.8412   1.0862    97.9505
 50      0.0056     7.4445E-03    7.2440E-03    1.800000E+10  0.00040  2.469E-05    0   0.4819   age213_m32            0.0000     6.5331E+00     2.0227   1.0470    98.5106
 51      0.0000     0.0000E+00    0.0000E+00    1.000000E+06  0.00400  1.114E-02    0   1.0000   age020_m42            0.0000     4.7087E+02    18.1051   4.0000    88.7747
 52      0.0000     0.0000E+00    0.0000E+00    3.160000E+06  0.00400  4.073E-02    0   0.9999   age045_m42            0.0000     4.3959E+01     5.7759   3.5861    90.9017
 53      0.0000     0.0000E+00    0.0000E+00    5.010000E+06  0.00400  2.534E-02    0   0.9488   age055_m42            0.0000     1.0058E+02     8.9081   3.9667    84.7150
 54      0.0000     0.0000E+00    0.0000E+00    6.610000E+06  0.00400  2.583E-02    0   0.9220   age061_m42            0.0000     3.7624E+01     5.2704   3.3925    92.3008
 55      0.0000     0.0000E+00    0.0000E+00    8.710000E+06  0.00400  1.706E-02    0   0.8983   age067_m42            0.0000     6.0086E+01     7.1934   3.1924    90.7916
 56      0.0000     0.0000E+00    0.0000E+00    1.000000E+07  0.00400  1.271E-02    0   0.8862   age070_m42            0.0000     9.6995E+01     9.1814   3.1639    89.4772
 57      0.0000     0.0000E+00    0.0000E+00    1.445000E+07  0.00400  7.666E-03    0   0.8571   age078_m42            0.0000     1.2666E+02    10.1049   3.5743    85.6025
 58      0.0000     0.0000E+00    0.0000E+00    2.512000E+07  0.00400  5.070E-03    0   0.8174   age090_m42            0.0000     8.3351E+01     8.5718   3.0415    90.9419
 59      0.0000     0.0000E+00    0.0000E+00    4.000000E+07  0.00400  3.505E-03    0   0.7851   age104_m42            0.0000     4.6872E+01     6.5469   2.7398    93.8313
 60      0.0000     0.0000E+00    0.0000E+00    5.500000E+07  0.00400  3.059E-03    0   0.7629   age110_m42            0.0000     2.8691E+01     3.8388   2.8174    98.5331
 61      0.0000     0.0000E+00    0.0000E+00    1.015200E+08  0.00400  2.268E-03    0   0.7207   age116_m42            0.0000     1.1433E+02     6.5500   2.7553   103.5557
 62      0.0000     0.0000E+00    0.0000E+00    1.609000E+08  0.00400  1.720E-03    0   0.6930   age120_m42            0.0000     1.3461E+02     7.4380   2.6328   104.5435
 63      0.0000     0.0000E+00    0.0000E+00    2.861200E+08  0.00400  1.079E-03    0   0.6613   age125_m42            0.0000     1.3000E+02     7.4014   2.2793   104.8841
 64      0.0000     0.0000E+00    0.0000E+00    5.088000E+08  0.00400  6.261E-04    0   0.6313   age130_m42            0.0000     1.5148E+02     8.0996   2.0820   107.9358
 65      0.0000     0.0000E+00    0.0000E+00    9.047900E+08  0.00400  3.535E-04    0   0.6024   age135_m42            0.0000     8.3768E+01     6.2511   1.6845   107.9299
 66      0.0000     0.0000E+00    0.0000E+00    1.278050E+09  0.00400  2.677E-04    0   0.5837   age138_m42            0.0000     4.6628E+01     5.1923   1.0358   104.2124
 67      0.0000     0.0000E+00    0.0000E+00    1.434000E+09  0.00400  1.910E-04    0   0.5716   age139_m42            0.0000     4.8837E+01     5.2081   1.2003   105.2258
 68      0.0000     0.0000E+00    0.0000E+00    2.500000E+09  0.00400  9.818E-05    0   0.5463   age150_m42            0.0000     3.4539E+01     4.4519   0.9555    99.3264
 69      0.0000     0.0000E+00    0.0000E+00    4.250000E+09  0.00400  5.491E-05    0   0.5269   age158_m42            0.0000     4.0728E+01     4.5424   0.8339    96.3678
 70      0.0000     0.0000E+00    0.0000E+00    6.250000E+09  0.00400  3.857E-05    0   0.5151   age166_m42            0.0000     5.7485E+01     5.1979   0.7212    94.6878
 71      0.0000     0.0000E+00    0.0000E+00    7.500000E+09  0.00400  3.243E-05    0   0.5110   age171_m42            0.0000     7.0046E+01     5.6243   0.6532    93.8870
 72      0.0000     0.0000E+00    0.0000E+00    1.000000E+10  0.00400  2.424E-05    0   0.5028   age181_m42            0.0000     8.8040E+01     6.2130   0.5860    92.9433
 73      0.0000     0.0000E+00    0.0000E+00    1.300000E+10  0.00400  1.883E-05    0   0.4927   age193_m42            0.0000     1.0312E+02     6.6902   0.5535    92.4222
 74      0.0000     0.0000E+00    0.0000E+00    1.500000E+10  0.00400  1.685E-05    0   0.4919   age201_m42            0.0000     9.9595E+01     6.5970   0.5553    92.5294
 75      0.0000     0.0000E+00    0.0000E+00    1.800000E+10  0.00400  1.452E-05    0   0.4874   age213_m42            0.0000     9.3236E+01     6.4264   0.5649    92.9542
 76      0.0000     0.0000E+00    0.0000E+00    1.000000E+06  0.00800  1.286E-02    0   1.0000   age020_m52            0.0000     4.2229E+02    17.0324   4.0000    90.3320
 77      0.0000     0.0000E+00    0.0000E+00    3.160000E+06  0.00800  3.147E-02    0   0.9966   age045_m52            0.0000     3.3557E+02    15.4941   4.0000    90.1168
 78      0.0000     0.0000E+00    0.0000E+00    5.010000E+06  0.00800  2.664E-02    0   0.9443   age055_m52            0.0000     1.2856E+02    10.0854   4.0000    85.8290
 79      0.0000     0.0000E+00    0.0000E+00    6.610000E+06  0.00800  2.151E-02    0   0.9177   age061_m52            0.0000     7.6011E+01     7.9560   2.7790    90.6276
 80      0.0000     0.0000E+00    0.0000E+00    8.710000E+06  0.00800  1.628E-02    0   0.8948   age067_m52            0.0000     7.2191E+01     7.9917   3.1438    91.2849
 81      0.0000     0.0000E+00    0.0000E+00    1.000000E+07  0.00800  1.215E-02    0   0.8827   age070_m52            0.0000     8.9730E+01     8.8253   3.4834    89.2590
 82      0.0000     0.0000E+00    0.0000E+00    1.445000E+07  0.00800  8.739E-03    0   0.8552   age078_m52            0.0000     7.0376E+01     7.7976   3.5254    90.7052
 83      0.0000     0.0000E+00    0.0000E+00    2.512000E+07  0.00800  5.676E-03    0   0.8162   age090_m52            0.0000     4.7828E+01     6.0025   3.1255    96.1056
 84      0.0000     0.0000E+00    0.0000E+00    4.000000E+07  0.00800  3.939E-03    0   0.7841   age104_m52            0.0000     4.0791E+01     4.7753   2.9800    98.4104
 85      0.0000     0.0000E+00    0.0000E+00    5.500000E+07  0.00800  3.155E-03    0   0.7627   age110_m52            0.0000     4.8896E+01     4.5016   2.9622    99.9540
 86      0.0000     0.0000E+00    0.0000E+00    1.015200E+08  0.00800  2.206E-03    0   0.7226   age116_m52            0.0000     8.5764E+01     5.5022   2.8041   103.3961
 87      0.0000     0.0000E+00    0.0000E+00    1.609000E+08  0.00800  1.596E-03    0   0.6963   age120_m52            0.0000     1.0490E+02     6.3447   2.6031   104.7002
 88      0.0000     0.0000E+00    0.0000E+00    2.861200E+08  0.00800  1.002E-03    0   0.6665   age125_m52            0.0000     1.6791E+02     8.7485   2.3414   106.8007
 89      0.0000     0.0000E+00    0.0000E+00    5.088000E+08  0.00800  5.759E-04    0   0.6377   age130_m52            0.0000     1.8741E+02     9.6648   2.0207   110.0193
 90      0.0000     0.0000E+00    0.0000E+00    9.047900E+08  0.00800  2.972E-04    0   0.6086   age135_m52            0.0000     1.1604E+02     7.8530   1.5106   107.7120
 91      0.0000     0.0000E+00    0.0000E+00    1.278050E+09  0.00800  2.242E-04    0   0.5907   age138_m52            0.0000     7.0081E+01     6.2164   0.8971   106.1332
 92      0.0000     0.0000E+00    0.0000E+00    1.434000E+09  0.00800  1.645E-04    0   0.5787   age139_m52            0.0000     5.6245E+01     5.6638   1.0419   105.5469
 93      0.0000     0.0000E+00    0.0000E+00    2.500000E+09  0.00800  7.723E-05    0   0.5519   age150_m52            0.0000     6.8999E+01     5.9082   0.7244   100.9885
 94      0.0000     0.0000E+00    0.0000E+00    4.250000E+09  0.00800  4.151E-05    0   0.5320   age158_m52            0.0000     7.3809E+01     6.0179   0.6605    98.1611
 95      0.0000     0.0000E+00    0.0000E+00    6.250000E+09  0.00800  3.010E-05    0   0.5197   age166_m52            0.0000     1.0535E+02     6.9429   0.4878    96.2325
 96      0.0000     0.0000E+00    0.0000E+00    7.500000E+09  0.00800  2.467E-05    0   0.5139   age171_m52            0.0000     1.1425E+02     7.1752   0.4520    95.7058
 97      0.0000     0.0000E+00    0.0000E+00    1.000000E+10  0.00800  1.862E-05    0   0.5054   age181_m52            0.0000     1.4493E+02     7.9520   0.3393    94.9415
 98      0.0000     0.0000E+00    0.0000E+00    1.300000E+10  0.00800  1.433E-05    0   0.4988   age193_m52            0.0000     1.8082E+02     8.7927   0.2604    95.1388
 99      0.0000     0.0000E+00    0.0000E+00    1.500000E+10  0.00800  1.244E-05    0   0.4936   age201_m52            0.0000     1.9567E+02     9.1035   0.2369    95.4424
100      0.0000     0.0000E+00    0.0000E+00    1.800000E+10  0.00800  1.070E-05    0   0.4888   age213_m52            0.0000     2.0630E+02     9.3272   0.2074    95.1937
101      0.0000     0.0000E+00    0.0000E+00    1.000000E+06  0.02000  1.989E-02    0   1.0000   age020_m62            0.0000     4.4036E+02    17.2998   4.0000    88.7355
102      0.0000     0.0000E+00    0.0000E+00    3.160000E+06  0.02000  3.772E-02    0   0.9858   age045_m62            0.0000     3.0043E+02    14.7699   4.0000    88.1620
103      0.0000     0.0000E+00    0.0000E+00    5.010000E+06  0.02000  3.227E-02    0   0.9342   age055_m62            0.0000     7.1716E+01     7.6170   3.8196    88.0503
104      0.0000     0.0000E+00    0.0000E+00    6.610000E+06  0.02000  2.387E-02    0   0.9090   age061_m62            0.0000     1.1692E+02     9.9088   3.5469    87.8427
105      0.0000     0.0000E+00    0.0000E+00    8.710000E+06  0.02000  1.102E-02    0   0.8861   age067_m62            0.0000     3.9761E+02    17.1946   3.1409    83.2579
106      0.0000     0.0000E+00    0.0000E+00    1.000000E+07  0.02000  1.011E-02    0   0.8751   age070_m62            0.0000     2.6164E+02    14.2054   3.1763    85.6397
107      0.0000     0.0000E+00    0.0000E+00    1.445000E+07  0.02000  7.331E-03    0   0.8472   age078_m62            0.0000     1.6945E+02    11.6597   3.2107    86.9079
108      0.0000     0.0000E+00    0.0000E+00    2.512000E+07  0.02000  4.206E-03    0   0.8099   age090_m62            0.0000     1.7332E+02    11.8776   3.1178    86.5326
109      0.0000     0.0000E+00    0.0000E+00    4.000000E+07  0.02000  3.373E-03    0   0.7799   age104_m62            0.0000     4.2608E+01     5.9477   2.9430    95.7396
110      0.0000     0.0000E+00    0.0000E+00    5.500000E+07  0.02000  2.747E-03    0   0.7595   age110_m62            0.0000     3.7011E+01     4.3971   2.8863    99.4696
111      0.0000     0.0000E+00    0.0000E+00    1.015200E+08  0.02000  1.878E-03    0   0.7221   age116_m62            0.0000     8.8567E+01     5.4551   2.7671   104.4323
112      0.0000     0.0000E+00    0.0000E+00    1.609000E+08  0.02000  1.378E-03    0   0.6978   age120_m62            0.0000     1.4015E+02     7.2903   2.6305   106.7111
113      0.0000     0.0000E+00    0.0000E+00    2.861200E+08  0.02000  8.869E-04    0   0.6700   age125_m62            0.0000     2.2807E+02     9.9016   2.2898   110.4452
114      0.0000     0.0000E+00    0.0000E+00    5.088000E+08  0.02000  4.834E-04    0   0.6430   age130_m62            0.0000     2.0701E+02    10.0481   1.8906   111.5450
115      0.0000     0.0000E+00    0.0000E+00    9.047900E+08  0.02000  2.312E-04    0   0.6152   age135_m62            0.0000     1.0182E+02     7.4771   1.3040   110.0141
116      0.0000     0.0000E+00    0.0000E+00    1.278050E+09  0.02000  1.387E-04    0   0.5927   age138_m62            0.0000     6.0733E+01     5.8935   0.9367   104.9413
117      0.0000     0.0000E+00    0.0000E+00    1.434000E+09  0.02000  1.168E-04    0   0.5865   age139_m62            0.0000     5.8625E+01     5.7633   0.9158   103.1077
118      0.0000     0.0000E+00    0.0000E+00    2.500000E+09  0.02000  5.505E-05    0   0.5610   age150_m62            0.0000     9.3755E+01     6.7887   0.5764    99.2599
119      0.0000     0.0000E+00    0.0000E+00    4.250000E+09  0.02000  3.070E-05    0   0.5407   age158_m62            0.0000     1.6384E+02     8.5741   0.3180    98.3309
120      0.0000     0.0000E+00    0.0000E+00    6.250000E+09  0.02000  2.104E-05    0   0.5277   age166_m62            0.0000     2.0763E+02     9.4653   0.2031    98.2961
121      0.0000     0.0000E+00    0.0000E+00    7.500000E+09  0.02000  1.770E-05    0   0.5223   age171_m62            0.0000     2.3116E+02     9.9568   0.1256    98.4037
122      0.0000     0.0000E+00    0.0000E+00    1.000000E+10  0.02000  1.297E-05    0   0.5121   age181_m62            0.0000     2.8238E+02    10.9433  -0.0125    98.3681
123      0.0000     0.0000E+00    0.0000E+00    1.300000E+10  0.02000  9.691E-06    0   0.5047   age193_m62            0.0000     3.1775E+02    11.5741  -0.0826    98.3684
124      0.0000     0.0000E+00    0.0000E+00    1.500000E+10  0.02000  8.360E-06    0   0.4999   age201_m62            0.0000     3.4859E+02    12.1211  -0.1418    98.3143
125      0.0000     0.0000E+00    0.0000E+00    1.800000E+10  0.02000  6.911E-06    0   0.4946   age213_m62            0.0000     3.8790E+02    12.7923  -0.2002    98.1771
126      0.0000     0.0000E+00    0.0000E+00    1.000000E+06  0.05000  2.651E-02    0   0.9998   age020_m72            0.0000     4.3401E+02    17.0164   4.0000    89.7956
127      0.0000     0.0000E+00    0.0000E+00    3.160000E+06  0.05000  4.817E-02    0   0.9577   age045_m72            0.0000     1.7296E+02    11.4926   4.0000    88.2802
128      0.0000     0.0000E+00    0.0000E+00    5.010000E+06  0.05000  3.101E-02    0   0.9147   age055_m72            0.0000     1.2061E+02     9.5483   3.8351    86.0225
129      0.6444     1.4297E-03    2.5627E-03    6.610000E+06  0.05000  1.472E-02    0   0.8877   age061_m72            0.0000     3.0104E+02    14.4448   3.3651    84.3688
130      0.0000     2.3779E-08    4.1475E-08    8.710000E+06  0.05000  1.050E-02    0   0.8638   age067_m72            0.0000     1.8983E+02    11.4829   3.7789    84.5212
131      0.0000     0.0000E+00    0.0000E+00    1.000000E+07  0.05000  8.954E-03    0   0.8524   age070_m72            0.0000     1.3944E+02     9.9802   4.0000    86.3179
132      0.0000     0.0000E+00    0.0000E+00    1.445000E+07  0.05000  6.392E-03    0   0.8262   age078_m72            0.0000     1.1273E+02     8.9349   4.0000    86.0817
133      0.0000     0.0000E+00    0.0000E+00    2.512000E+07  0.05000  4.207E-03    0   0.7902   age090_m72            0.0000     6.0786E+01     6.6827   3.6536    90.1866
134      0.0000     0.0000E+00    0.0000E+00    4.000000E+07  0.05000  3.198E-03    0   0.7618   age104_m72            0.0000     5.4234E+01     4.5163   3.1580    99.1518
135      0.0000     0.0000E+00    0.0000E+00    5.500000E+07  0.05000  2.593E-03    0   0.7432   age110_m72            0.0000     7.2868E+01     5.0058   3.0605   101.4807
136      0.0000     0.0000E+00    0.0000E+00    1.015200E+08  0.05000  1.716E-03    0   0.7092   age116_m72            0.0000     1.1671E+02     6.3188   2.8685   104.2911
137      0.0000     0.0000E+00    0.0000E+00    1.609000E+08  0.05000  1.218E-03    0   0.6876   age120_m72            0.0000     1.7369E+02     8.2787   2.6187   106.7800
138      0.0000     0.0000E+00    0.0000E+00    2.861200E+08  0.05000  7.047E-04    0   0.6618   age125_m72            0.0000     2.3000E+02    10.2463   2.1153   109.9796
139      0.0000     0.0000E+00    0.0000E+00    5.088000E+08  0.05000  3.590E-04    0   0.6356   age130_m72            0.0000     1.8707E+02     9.7694   1.5741   111.4836
140      0.0000     0.0000E+00    0.0000E+00    9.047900E+08  0.05000  1.484E-04    0   0.6088   age135_m72            0.0000     9.5046E+01     7.3281   0.8720   103.6246
141      0.0000     0.0000E+00    0.0000E+00    1.278050E+09  0.05000  9.435E-05    0   0.5924   age138_m72            0.0000     1.3498E+02     8.2144   0.5103    99.5107
142      0.0000     0.0000E+00    0.0000E+00    1.434000E+09  0.05000  7.827E-05    0   0.5847   age139_m72            0.0000     1.3321E+02     8.0390   0.5211    98.8731
143      0.0000     0.0000E+00    0.0000E+00    2.500000E+09  0.05000  3.759E-05    0   0.5583   age150_m72            0.0000     2.0217E+02     9.4296   0.2215    97.4165
144      0.0000     0.0000E+00    0.0000E+00    4.250000E+09  0.05000  1.842E-05    0   0.5374   age158_m72            0.0000     2.8855E+02    11.0014  -0.0692    96.3928
145      0.0000     0.0000E+00    0.0000E+00    6.250000E+09  0.05000  1.207E-05    0   0.5242   age166_m72            0.0000     3.6925E+02    12.3701  -0.2786    95.4561
146      0.0000     0.0000E+00    0.0000E+00    7.500000E+09  0.05000  9.993E-06    0   0.5183   age171_m72            0.0000     3.8235E+02    12.5804  -0.3190    95.3512
147      0.0000     0.0000E+00    0.0000E+00    1.000000E+10  0.05000  7.291E-06    0   0.5081   age181_m72            0.0000     4.3729E+02    13.4831  -0.4207    94.8142
148      2.2186     1.3630E+01    1.3810E+01    1.300000E+10  0.05000  5.316E-06    0   0.5018   age193_m72            0.0000     5.2740E+02    14.9494  -0.5725    93.9948
149      3.7807     2.7456E+01    2.7564E+01    1.500000E+10  0.05000  4.497E-06    0   0.4972   age201_m72            0.0000     5.7181E+02    15.6703  -0.6312    93.9197
150      0.0000     0.0000E+00    0.0000E+00    1.800000E+10  0.05000  3.739E-06    0   0.4924   age213_m72            0.0000     6.2974E+02    16.6265  -0.7132    93.4930


## Synthesis Results - Average & Chains ##

# j      x_j: min, <> & last-chain-values for 1 ...  7 chains
  1      0.0000      0.0316      0.0251      0.0751      0.0000      0.0752      0.0567      0.0000      0.0000
  2      0.0000      0.0731      0.1690      0.0317      0.0000      0.0739      0.0000      0.0394      0.0000
  3      1.2863      0.0968      0.1786      0.4925      0.1238      0.0000      0.0705      0.2076      0.3627
  4      0.0000      0.0214      0.0540      0.0000      0.0000      0.0216      0.0000      0.0586      0.0000
  5      0.0000      0.0150      0.0000      0.0000      0.0000      0.0000      0.0000      0.0000      0.0000
  6      0.0000      0.0467      0.0000      0.0000      0.0000      0.0521      0.0000      0.0000      0.0377
  7      0.0000      0.0186      0.0000      0.0000      0.1172      0.0000      0.0100      0.0000      0.0000
  8      0.0001      0.0429      0.0000      0.0416      0.0000      0.0000      0.1565      0.3227      0.1100
  9      0.0000      0.1138      0.2291      0.3235      0.0852      0.1926      0.0000      0.0519      0.0000
 10      0.0000      0.0481      0.0000      0.0000      0.0000      0.0114      0.0000      0.0294      0.0000
 11      0.0000      0.0603      0.0000      0.2856      0.0000      0.2187      0.0000      0.1635      0.0000
 12      0.0000      0.0112      0.0875      0.0000      0.0000      0.0000      0.0000      0.0000      0.0000
 13      0.0000      0.0074      0.0000      0.0000      0.0296      0.0000      0.0000      0.0000      0.0000
 14      0.0000      0.0078      0.0027      0.0000      0.0000      0.0000      0.0000      0.0069      0.0000
 15      0.0000      0.0115      0.0000      0.0000      0.0000      0.0000      0.0000      0.0000      0.0000
 16      0.0000      0.0172      0.0000      0.0000      0.1860      0.0316      0.0000      0.0000      0.0000
 17      0.0000      0.0235      0.0000      0.0000      0.0520      0.0000      0.0000      0.1602      0.0000
 18      0.0000      0.0469      0.0000      0.0000      0.0408      0.0000      0.2338      0.0082      0.0000
 19      0.0000      0.0909      0.0000      0.0000      0.1437      0.0083      0.0000      0.1867      0.0000
 20      0.0000      0.1976      0.1294      0.0000      0.0943      0.2786      0.0921      0.0000      0.4937
 21      6.4290      5.7050      6.1214      5.8194      5.4434      6.0618      6.1268      6.0100      6.8642
 22      4.4175      2.6645      1.7071      2.7090      2.7353      2.1256      2.5208      2.2340      2.8552
 23      3.3158      1.6111      1.7042      1.1000      1.6432      1.9890      2.6563      2.4988      1.7863
 24      5.9218      4.7534      4.6736      5.6116      4.2030      5.1353      4.4829      4.1715      5.0330
 25     11.6054     11.0882     11.9918     10.2418     11.0786     10.6710     11.6714     11.4843     11.1786
 26      0.0000      0.0523      0.0000      0.0000      0.0000      0.0000      0.0000      0.0000      0.0000
 27      0.0000      0.0325      0.0929      0.0000      0.0144      0.0000      0.0000      0.0000      0.0000
 28      0.0000      0.0549      0.0000      0.0000      0.0000      0.0000      0.2111      0.0538      0.0854
 29      0.0000      0.0602      0.0000      0.1401      0.0000      0.1613      0.1148      0.0000      0.0000
 30      0.0000      0.0288      0.0000      0.0000      0.0000      0.0000      0.0485      0.0206      0.0000
 31      0.0000      0.0345      0.0000      0.0000      0.1817      0.0000      0.0000      0.0243      0.1109
 32      0.0000      0.0493      0.0000      0.0000      0.1154      0.0464      0.3518      0.0000      0.0000
 33      0.0000      0.0192      0.0000      0.0000      0.0000      0.0996      0.0843      0.0528      0.0000
 34      0.0000      0.0418      0.0000      0.1448      0.1602      0.0000      0.1365      0.0000      0.0000
 35      0.0000      0.0264      0.0000      0.0000      0.2459      0.0000      0.0000      0.0000      0.0000
 36      0.0000      0.0122      0.0000      0.0000      0.0000      0.0000      0.0342      0.0000      0.0396
 37      0.0000      0.0089      0.0000      0.0000      0.0636      0.0000      0.0000      0.0000      0.0000
 38      0.0000      0.0105      0.0000      0.0029      0.0934      0.0000      0.0310      0.0000      0.0000
 39      0.0000      0.0248      0.0065      0.0000      0.0000      0.0000      0.0000      0.0000      0.0000
 40      0.0000      0.0130      0.0907      0.0000      0.0000      0.0000      0.0000      0.0000      0.1020
 41      0.0000      0.0296      0.0000      0.0646      0.0000      0.1035      0.0000      0.0000      0.0000
 42      0.0000      0.0892      0.0000      0.0000      0.0000      0.0000      0.1602      0.0000      0.1830
 43      7.8869      0.8244      1.1277      0.9125      0.8140      1.0939      0.9260      0.6293      0.7332
 44     11.2462      5.7953      6.1735      5.9342      5.8957      6.0991      5.5456      5.9690      6.4122
 45     21.7576     11.1790     11.3963     12.4936     11.7852     13.0682     11.3478     11.2566     11.5462
 46     17.1307     10.3783     10.6809     10.2749     12.1161     10.4381     10.1802     11.5656     10.4968
 47      0.0049      2.4298      2.4620      2.2465      2.1045      1.3117      2.4180      2.2377      2.0775
 48      0.0000      7.2731      8.1648      7.3387      6.6360      6.7677      7.1255      6.5934      7.4140
 49      0.0084      9.6822      9.3091      9.2521      9.2790     10.0102      8.7641      9.2847      8.6047
 50      0.0056     15.6864     14.2349     15.6138     15.3857     14.4135     15.5597     15.3792     14.4852
 51      0.0000      0.0108      0.0000      0.0000      0.0000      0.0000      0.0000      0.0000      0.0000
 52      0.0000      0.0348      0.0000      0.0278      0.0000      0.0576      0.1200      0.1528      0.0000
 53      0.0000      0.0274      0.0000      0.0381      0.0000      0.0000      0.0000      0.0000      0.0000
 54      0.0000      0.0347      0.0000      0.0262      0.0546      0.0374      0.1199      0.0000      0.0000
 55      0.0000      0.0367      0.0000      0.0000      0.0000      0.0000      0.0000      0.0315      0.0000
 56      0.0000      0.0241      0.0000      0.0000      0.0000      0.0737      0.1282      0.0626      0.0000
 57      0.0000      0.0208      0.0000      0.0000      0.0000      0.0000      0.0000      0.0000      0.0000
 58      0.0000      0.0230      0.0000      0.0000      0.0000      0.0000      0.0000      0.0349      0.0000
 59      0.0000      0.0230      0.0000      0.0224      0.1900      0.0000      0.0000      0.0000      0.0000
 60      0.0000      0.0092      0.0000      0.0000      0.0000      0.0000      0.0000      0.0000      0.0000
 61      0.0000      0.0102      0.0000      0.0000      0.0000      0.0495      0.0044      0.0000      0.0000
 62      0.0000      0.0134      0.0000      0.0000      0.0000      0.0820      0.0140      0.0006      0.0000
 63      0.0000      0.0078      0.0000      0.0000      0.0000      0.0000      0.0000      0.0508      0.0373
 64      0.0000      0.0204      0.0000      0.0687      0.0000      0.0000      0.0000      0.0000      0.0436
 65      0.0000      0.0265      0.0000      0.1749      0.0000      0.0572      0.0000      0.0000      0.0000
 66      0.0000      0.0149      0.0000      0.0000      0.0100      0.0000      0.0000      0.0309      0.0000
 67      0.0000      0.0189      0.0066      0.0000      0.0000      0.0000      0.0000      0.0000      0.0000
 68      0.0000      0.0156      0.0483      0.0000      0.0000      0.0000      0.0000      0.0332      0.1304
 69      0.0000      0.0131      0.0000      0.0062      0.0000      0.0000      0.0000      0.0000      0.0000
 70      0.0000      0.0154      0.0094      0.0000      0.0410      0.0000      0.0000      0.0000      0.0000
 71      0.0000      0.0110      0.0000      0.0000      0.0278      0.0000      0.0000      0.0000      0.0000
 72      0.0000      0.0108      0.0000      0.0000      0.0000      0.0000      0.0053      0.0019      0.0000
 73      0.0000      0.0083      0.0000      0.0000      0.0000      0.0000      0.0124      0.0000      0.0000
 74      0.0000      0.0077      0.0000      0.0000      0.0000      0.0000      0.0000      0.0000      0.0000
 75      0.0000      0.0097      0.0000      0.0000      0.0000      0.0000      0.0094      0.0000      0.0000
 76      0.0000      0.0260      0.0750      0.0000      0.0016      0.0000      0.0000      0.0000      0.0000
 77      0.0000      0.0354      0.0000      0.0000      0.0000      0.0000      0.0000      0.0000      0.1537
 78      0.0000      0.0190      0.0000      0.0000      0.2485      0.0000      0.0000      0.0034      0.0000
 79      0.0000      0.0149      0.0000      0.1012      0.0000      0.0000      0.0026      0.0381      0.0251
 80      0.0000      0.0130      0.0000      0.0179      0.0000      0.0000      0.0000      0.0000      0.0000
 81      0.0000      0.0324      0.0000      0.0000      0.0000      0.0000      0.0000      0.1121      0.0000
 82      0.0000      0.0217      0.0000      0.0000      0.0000      0.0000      0.0000      0.0000      0.0000
 83      0.0000      0.0400      0.0016      0.0000      0.0000      0.0283      0.0000      0.0000      0.0000
 84      0.0000      0.0154      0.0000      0.0000      0.0000      0.0000      0.0000      0.1808      0.0000
 85      0.0000      0.0287      0.0000      0.0000      0.0306      0.0907      0.0000      0.0000      0.0000
 86      0.0000      0.0128      0.0512      0.0000      0.0000      0.0000      0.0000      0.0000      0.0000
 87      0.0000      0.0072      0.0000      0.0000      0.0403      0.0000      0.0000      0.0000      0.0000
 88      0.0000      0.0090      0.0000      0.0000      0.0000      0.0000      0.0000      0.0000      0.0000
 89      0.0000      0.0068      0.0000      0.0000      0.0000      0.0279      0.0000      0.0000      0.0060
 90      0.0000      0.0055      0.0000      0.0330      0.0024      0.0000      0.0000      0.0000      0.0000
 91      0.0000      0.0042      0.0000      0.0000      0.0000      0.0000      0.0000      0.0051      0.0000
 92      0.0000      0.0076      0.0000      0.0000      0.0000      0.0000      0.0000      0.0000      0.0000
 93      0.0000      0.0079      0.0000      0.0382      0.0000      0.0000      0.0607      0.0000      0.0000
 94      0.0000      0.0101      0.0000      0.0000      0.0000      0.0464      0.0000      0.0000      0.0000
 95      0.0000      0.0072      0.0000      0.0000      0.0000      0.0000      0.0000      0.0436      0.0000
 96      0.0000      0.0086      0.0000      0.0000      0.0000      0.0284      0.0000      0.0000      0.0000
 97      0.0000      0.0115      0.0000      0.0000      0.0000      0.0000      0.0000      0.0000      0.0000
 98      0.0000      0.0080      0.0000      0.0000      0.0000      0.0000      0.0000      0.0000      0.0000
 99      0.0000      0.0054      0.0000      0.0000      0.0000      0.0000      0.0000      0.0000      0.0000
100      0.0000      0.0039      0.0000      0.0000      0.0000      0.0496      0.0000      0.0000      0.0000
101      0.0000      0.0277      0.0000      0.0000      0.0000      0.0554      0.0000      0.0000      0.0000
102      0.0000      0.0104      0.0000      0.0000      0.0000      0.0033      0.1124      0.0000      0.0000
103      0.0000      0.0339      0.0000      0.0000      0.0466      0.0151      0.0000      0.0000      0.1031
104      0.0000      0.0261      0.0311      0.0707      0.0517      0.0982      0.0257      0.0000      0.0000
105      0.0000      0.0408      0.2213      0.0908      0.0372      0.2268      0.0000      0.0000      0.0000
106      0.0000      0.0370      0.2762      0.0000      0.0000      0.0000      0.0000      0.0000      0.2109
107      0.0000      0.0384      0.0672      0.0000      0.0000      0.0000      0.0000      0.0223      0.0000
108      0.0000      0.0199      0.0000      0.0000      0.0096      0.0000      0.0000      0.0479      0.0000
109      0.0000      0.0094      0.0000      0.0000      0.0000      0.0000      0.0000      0.0832      0.0000
110      0.0000      0.0270      0.0058      0.0000      0.0000      0.0000      0.0446      0.0001      0.0000
111      0.0000      0.0069      0.0000      0.0000      0.0000      0.0000      0.0000      0.0000      0.0000
112      0.0000      0.0039      0.0000      0.0000      0.0000      0.0000      0.0000      0.0000      0.0000
113      0.0000      0.0046      0.0000      0.0000      0.0000      0.0000      0.0000      0.0000      0.0000
114      0.0000      0.0057      0.0000      0.0000      0.0000      0.0000      0.0000      0.0000      0.0000
115      0.0000      0.0067      0.0026      0.0264      0.0000      0.0000      0.0000      0.0000      0.0000
116      0.0000      0.0087      0.0000      0.0000      0.0000      0.0000      0.0000      0.0000      0.0000
117      0.0000      0.0059      0.0000      0.0000      0.0000      0.0000      0.0000      0.0000      0.0000
118      0.0000      0.0105      0.0000      0.0197      0.0000      0.0000      0.0000      0.0000      0.0000
119      0.0000      0.0059      0.0000      0.0000      0.0000      0.0000      0.0000      0.0000      0.0000
120      0.0000      0.0039      0.0000      0.0000      0.0000      0.0000      0.0000      0.0000      0.0000
121      0.0000      0.0090      0.0000      0.0000      0.0000      0.0000      0.0000      0.0162      0.0000
122      0.0000      0.0084      0.0285      0.0000      0.0717      0.0000      0.0000      0.0000      0.0000
123      0.0000      0.0073      0.0000      0.0000      0.0000      0.0000      0.0000      0.0000      0.0294
124      0.0000      0.0073      0.0179      0.0000      0.0185      0.0000      0.0000      0.0000      0.0000
125      0.0000      0.0053      0.0000      0.0000      0.0000      0.0000      0.0000      0.0000      0.0000
126      0.0000      0.0142      0.0000      0.0054      0.0000      0.1019      0.0000      0.0000      0.0000
127      0.0000      0.0360      0.0000      0.2001      0.0000      0.0590      0.1147      0.0000      0.0986
128      0.0000      0.0473      0.0000      0.0000      0.0883      0.1187      0.0318      0.0000      0.1279
129      0.6444      0.1182      0.0000      0.1681      0.1224      0.0057      0.1543      0.3533      0.1326
130      0.0000      0.0353      0.1087      0.0000      0.0660      0.0245      0.0000      0.2198      0.0992
131      0.0000      0.0420      0.3466      0.0000      0.0000      0.0551      0.0000      0.0000      0.0000
132      0.0000      0.0231      0.0000      0.0000      0.0000      0.1054      0.0000      0.0000      0.0000
133      0.0000      0.0116      0.0000      0.0000      0.0000      0.1411      0.0000      0.0000      0.0000
134      0.0000      0.0063      0.0000      0.0000      0.1551      0.0799      0.0000      0.0000      0.1092
135      0.0000      0.0109      0.0505      0.0000      0.0000      0.0000      0.0000      0.0000      0.0000
136      0.0000      0.0098      0.0000      0.0000      0.0000      0.0050      0.0000      0.0000      0.0061
137      0.0000      0.0101      0.0000      0.0000      0.0000      0.0000      0.0000      0.0000      0.0000
138      0.0000      0.0068      0.0000      0.0000      0.0000      0.0000      0.0063      0.0000      0.0044
139      0.0000      0.0067      0.0000      0.0025      0.0000      0.0000      0.0000      0.0000      0.0000
140      0.0000      0.0081      0.0000      0.0000      0.0000      0.0000      0.0000      0.0000      0.0000
141      0.0000      0.0089      0.0000      0.0000      0.0000      0.0000      0.0000      0.0407      0.0000
142      0.0000      0.0136      0.0000      0.0000      0.0000      0.0000      0.0000      0.0000      0.0000
143      0.0000      0.0148      0.0000      0.0000      0.0000      0.0000      0.0000      0.0000      0.0000
144      0.0000      0.0168      0.0382      0.0000      0.1107      0.0000      0.1221      0.0000      0.0000
145      0.0000      0.0230      0.0000      0.0000      0.0000      0.0117      0.0000      0.0000      0.0000
146      0.0000      0.0109      0.0000      0.0000      0.0972      0.0000      0.0000      0.0000      0.0000
147      0.0000      0.0137      0.0000      0.0000      0.0000      0.0000      0.0000      0.0000      0.0009
148      2.2186      1.9726      1.9454      1.9981      1.7923      1.9849      2.1479      1.8950      1.9834
149      3.7807      3.2062      3.3248      3.2502      3.2253      3.2819      3.1390      3.1381      3.1948
150      0.0000      0.0541      0.0000      0.0000      0.1084      0.0000      0.0000      0.1316      0.0000

# j      m_j: min, <> & last-chain-values for 1 ...  7 chains
  1  0.0000E+00  2.1841E-04  1.7438E-04  5.2485E-04  0.0000E+00  5.2733E-04  3.9244E-04  0.0000E+00  0.0000E+00
  2  0.0000E+00  8.6742E-05  2.0123E-04  3.7942E-05  0.0000E+00  8.8874E-05  0.0000E+00  4.7206E-05  0.0000E+00
  3  4.2068E-03  2.7094E-04  5.0195E-04  1.3927E-03  3.5019E-04  0.0000E+00  1.9756E-04  5.8705E-04  1.0323E-03
  4  0.0000E+00  1.1257E-04  2.8538E-04  0.0000E+00  0.0000E+00  1.1536E-04  0.0000E+00  3.1168E-04  0.0000E+00
  5  0.0000E+00  9.9258E-05  0.0000E+00  0.0000E+00  0.0000E+00  0.0000E+00  0.0000E+00  0.0000E+00  0.0000E+00
  6  0.0000E+00  3.6786E-04  0.0000E+00  0.0000E+00  0.0000E+00  4.1669E-04  0.0000E+00  0.0000E+00  3.0174E-04
  7  0.0000E+00  1.8526E-04  0.0000E+00  0.0000E+00  1.1778E-03  0.0000E+00  9.9210E-05  0.0000E+00  0.0000E+00
  8  7.0552E-07  4.8280E-04  0.0000E+00  4.7270E-04  0.0000E+00  0.0000E+00  1.7620E-03  3.6661E-03  1.2579E-03
  9  0.0000E+00  1.3772E-03  2.7814E-03  3.9524E-03  1.0413E-03  2.3627E-03  0.0000E+00  6.3405E-04  0.0000E+00
 10  0.0000E+00  6.6733E-04  0.0000E+00  0.0000E+00  0.0000E+00  1.6065E-04  0.0000E+00  4.1242E-04  0.0000E+00
 11  0.0000E+00  9.9920E-04  0.0000E+00  4.7811E-03  0.0000E+00  3.6760E-03  0.0000E+00  2.7372E-03  0.0000E+00
 12  0.0000E+00  3.2589E-04  2.5465E-03  0.0000E+00  0.0000E+00  0.0000E+00  0.0000E+00  0.0000E+00  0.0000E+00
 13  0.0000E+00  2.5051E-04  0.0000E+00  0.0000E+00  1.0082E-03  0.0000E+00  0.0000E+00  0.0000E+00  0.0000E+00
 14  0.0000E+00  3.7434E-04  1.3135E-04  0.0000E+00  0.0000E+00  0.0000E+00  0.0000E+00  3.3150E-04  0.0000E+00
 15  0.0000E+00  8.3011E-04  0.0000E+00  0.0000E+00  0.0000E+00  0.0000E+00  0.0000E+00  0.0000E+00  0.0000E+00
 16  0.0000E+00  1.8001E-03  0.0000E+00  0.0000E+00  1.9643E-02  3.3512E-03  0.0000E+00  0.0000E+00  0.0000E+00
 17  0.0000E+00  2.7286E-03  0.0000E+00  0.0000E+00  6.0978E-03  0.0000E+00  0.0000E+00  1.8778E-02  0.0000E+00
 18  0.0000E+00  8.8616E-03  0.0000E+00  0.0000E+00  7.7845E-03  0.0000E+00  4.4229E-02  1.5724E-03  0.0000E+00
 19  7.8870E-06  2.6048E-02  0.0000E+00  0.0000E+00  4.1578E-02  2.4186E-03  0.0000E+00  5.4031E-02  0.0000E+00
 20  0.0000E+00  8.0963E-02  5.3204E-02  0.0000E+00  3.9026E-02  1.1577E-01  3.7762E-02  0.0000E+00  2.0558E-01
 21  3.5595E+00  2.7044E+00  2.9117E+00  2.7860E+00  2.6065E+00  2.9138E+00  2.9067E+00  2.8771E+00  3.3069E+00
 22  3.1555E+00  1.6296E+00  1.0476E+00  1.6733E+00  1.6899E+00  1.3183E+00  1.5430E+00  1.3798E+00  1.7747E+00
 23  3.0025E+00  1.2491E+00  1.3257E+00  8.6126E-01  1.2869E+00  1.5637E+00  2.0611E+00  1.9565E+00  1.4075E+00
 24  6.1321E+00  4.2145E+00  4.1578E+00  5.0246E+00  3.7643E+00  4.6169E+00  3.9778E+00  3.7351E+00  4.5351E+00
 25  1.4437E+01  1.1810E+01  1.2816E+01  1.1017E+01  1.1919E+01  1.1525E+01  1.2441E+01  1.2353E+01  1.2100E+01
 26  0.0000E+00  3.4905E-04  0.0000E+00  0.0000E+00  0.0000E+00  0.0000E+00  0.0000E+00  0.0000E+00  0.0000E+00
 27  0.0000E+00  4.6142E-05  1.3252E-04  0.0000E+00  2.0696E-05  0.0000E+00  0.0000E+00  0.0000E+00  0.0000E+00
 28  0.0000E+00  1.5265E-04  0.0000E+00  0.0000E+00  0.0000E+00  0.0000E+00  5.8753E-04  1.5105E-04  2.4135E-04
 29  0.0000E+00  2.6093E-04  0.0000E+00  6.1306E-04  0.0000E+00  7.0875E-04  4.9787E-04  0.0000E+00  0.0000E+00
 30  0.0000E+00  1.5503E-04  0.0000E+00  0.0000E+00  0.0000E+00  0.0000E+00  2.6146E-04  1.1181E-04  0.0000E+00
 31  0.0000E+00  2.1471E-04  0.0000E+00  0.0000E+00  1.1425E-03  0.0000E+00  0.0000E+00  1.5251E-04  7.0163E-04
 32  0.0000E+00  3.3982E-04  0.0000E+00  0.0000E+00  8.0359E-04  3.2400E-04  2.4265E-03  0.0000E+00  0.0000E+00
 33  0.0000E+00  1.8767E-04  0.0000E+00  0.0000E+00  0.0000E+00  9.8945E-04  8.2682E-04  5.2262E-04  0.0000E+00
 34  0.0000E+00  4.9751E-04  0.0000E+00  1.7405E-03  1.9256E-03  0.0000E+00  1.6260E-03  0.0000E+00  0.0000E+00
 35  0.0000E+00  3.7985E-04  0.0000E+00  0.0000E+00  3.5708E-03  0.0000E+00  0.0000E+00  0.0000E+00  0.0000E+00
 36  0.0000E+00  2.2450E-04  0.0000E+00  0.0000E+00  0.0000E+00  0.0000E+00  6.3020E-04  0.0000E+00  7.4139E-04
 37  0.0000E+00  2.0352E-04  0.0000E+00  0.0000E+00  1.4714E-03  0.0000E+00  0.0000E+00  0.0000E+00  0.0000E+00
 38  0.0000E+00  3.3364E-04  0.0000E+00  9.4908E-05  3.0083E-03  0.0000E+00  9.9120E-04  0.0000E+00  0.0000E+00
 39  0.0000E+00  1.1811E-03  3.0873E-04  0.0000E+00  0.0000E+00  0.0000E+00  0.0000E+00  0.0000E+00  0.0000E+00
 40  0.0000E+00  1.0904E-03  7.6388E-03  0.0000E+00  0.0000E+00  0.0000E+00  0.0000E+00  0.0000E+00  8.7018E-03
 41  0.0000E+00  3.3280E-03  0.0000E+00  7.3363E-03  0.0000E+00  1.1803E-02  0.0000E+00  0.0000E+00  0.0000E+00
 42  0.0000E+00  1.1207E-02  0.0000E+00  0.0000E+00  0.0000E+00  0.0000E+00  2.0145E-02  0.0000E+00  2.3366E-02
 43  1.8825E+00  1.6847E-01  2.3125E-01  1.8832E-01  1.6804E-01  2.2669E-01  1.8940E-01  1.2988E-01  1.5229E-01
 44  4.2453E+00  1.8731E+00  2.0021E+00  1.9370E+00  1.9248E+00  1.9989E+00  1.7938E+00  1.9483E+00  2.1062E+00
 45  1.1447E+01  5.0359E+00  5.1512E+00  5.6838E+00  5.3627E+00  5.9694E+00  5.1159E+00  5.1209E+00  5.2860E+00
 46  1.0737E+01  5.5694E+00  5.7512E+00  5.5685E+00  6.5678E+00  5.6799E+00  5.4674E+00  6.2678E+00  5.7247E+00
 47  4.0026E-03  1.7090E+00  1.7375E+00  1.5957E+00  1.4951E+00  9.3547E-01  1.7020E+00  1.5894E+00  1.4850E+00
 48  3.2549E-05  6.0915E+00  6.8615E+00  6.2073E+00  5.6142E+00  5.7476E+00  5.9726E+00  5.5767E+00  6.3106E+00
 49  9.1631E-03  9.0718E+00  8.7517E+00  8.7546E+00  8.7820E+00  9.5104E+00  8.2181E+00  8.7852E+00  8.1935E+00
 50  7.2440E-03  1.7286E+01  1.5740E+01  1.7377E+01  1.7127E+01  1.6106E+01  1.7160E+01  1.7115E+01  1.6223E+01
 51  0.0000E+00  5.4734E-05  0.0000E+00  0.0000E+00  0.0000E+00  0.0000E+00  0.0000E+00  0.0000E+00  0.0000E+00
 52  0.0000E+00  4.8170E-05  0.0000E+00  3.8906E-05  0.0000E+00  8.0887E-05  1.6651E-04  2.1389E-04  0.0000E+00
 53  0.0000E+00  5.7925E-05  0.0000E+00  8.1294E-05  0.0000E+00  0.0000E+00  0.0000E+00  0.0000E+00  0.0000E+00
 54  0.0000E+00  6.9870E-05  0.0000E+00  5.3412E-05  1.1106E-04  7.6450E-05  2.4177E-04  0.0000E+00  0.0000E+00
 55  0.0000E+00  1.0919E-04  0.0000E+00  0.0000E+00  0.0000E+00  0.0000E+00  0.0000E+00  9.4498E-05  0.0000E+00
 56  0.0000E+00  9.4916E-05  0.0000E+00  0.0000E+00  0.0000E+00  2.9412E-04  5.0505E-04  2.4898E-04  0.0000E+00
 57  0.0000E+00  1.3101E-04  0.0000E+00  0.0000E+00  0.0000E+00  0.0000E+00  0.0000E+00  0.0000E+00  0.0000E+00
 58  0.0000E+00  2.0897E-04  0.0000E+00  0.0000E+00  0.0000E+00  0.0000E+00  0.0000E+00  3.2038E-04  0.0000E+00
 59  0.0000E+00  2.9065E-04  0.0000E+00  2.8599E-04  2.4267E-03  0.0000E+00  0.0000E+00  0.0000E+00  0.0000E+00
 60  0.0000E+00  1.2969E-04  0.0000E+00  0.0000E+00  0.0000E+00  0.0000E+00  0.0000E+00  0.0000E+00  0.0000E+00
 61  0.0000E+00  1.8314E-04  0.0000E+00  0.0000E+00  0.0000E+00  9.0014E-04  7.8843E-05  0.0000E+00  0.0000E+00
 62  0.0000E+00  3.0557E-04  0.0000E+00  0.0000E+00  0.0000E+00  1.8923E-03  3.1866E-04  1.3452E-05  0.0000E+00
 63  0.0000E+00  2.7155E-04  0.0000E+00  0.0000E+00  0.0000E+00  0.0000E+00  0.0000E+00  1.7765E-03  1.3123E-03
 64  0.0000E+00  1.1626E-03  0.0000E+00  3.9478E-03  0.0000E+00  0.0000E+00  0.0000E+00  0.0000E+00  2.5227E-03
 65  0.0000E+00  2.5478E-03  0.0000E+00  1.6998E-02  0.0000E+00  5.5795E-03  0.0000E+00  0.0000E+00  0.0000E+00
 66  0.0000E+00  1.8351E-03  0.0000E+00  0.0000E+00  1.2390E-03  0.0000E+00  0.0000E+00  3.8401E-03  0.0000E+00
 67  0.0000E+00  3.1957E-03  1.1257E-03  0.0000E+00  0.0000E+00  0.0000E+00  0.0000E+00  0.0000E+00  0.0000E+00
 68  0.0000E+00  4.9009E-03  1.5216E-02  0.0000E+00  0.0000E+00  0.0000E+00  0.0000E+00  1.0529E-02  4.1649E-02
 69  0.0000E+00  7.0835E-03  0.0000E+00  3.3932E-03  0.0000E+00  0.0000E+00  0.0000E+00  0.0000E+00  0.0000E+00
 70  0.0000E+00  1.1623E-02  7.0975E-03  0.0000E+00  3.1246E-02  0.0000E+00  0.0000E+00  0.0000E+00  0.0000E+00
 71  0.0000E+00  9.7915E-03  0.0000E+00  0.0000E+00  2.4975E-02  0.0000E+00  0.0000E+00  0.0000E+00  0.0000E+00
 72  0.0000E+00  1.2672E-02  0.0000E+00  0.0000E+00  0.0000E+00  0.0000E+00  6.1573E-03  2.2944E-03  0.0000E+00
 73  0.0000E+00  1.2241E-02  0.0000E+00  0.0000E+00  0.0000E+00  0.0000E+00  1.8390E-02  0.0000E+00  0.0000E+00
 74  0.0000E+00  1.2755E-02  0.0000E+00  0.0000E+00  0.0000E+00  0.0000E+00  0.0000E+00  0.0000E+00  0.0000E+00
 75  0.0000E+00  1.8355E-02  0.0000E+00  0.0000E+00  0.0000E+00  0.0000E+00  1.7787E-02  0.0000E+00  0.0000E+00
 76  0.0000E+00  1.1418E-04  3.3061E-04  0.0000E+00  7.1482E-06  0.0000E+00  0.0000E+00  0.0000E+00  0.0000E+00
 77  0.0000E+00  6.3233E-05  0.0000E+00  0.0000E+00  0.0000E+00  0.0000E+00  0.0000E+00  0.0000E+00  2.7924E-04
 78  0.0000E+00  3.8067E-05  0.0000E+00  0.0000E+00  5.0230E-04  0.0000E+00  0.0000E+00  6.9709E-06  0.0000E+00
 79  0.0000E+00  3.5850E-05  0.0000E+00  2.4619E-04  0.0000E+00  0.0000E+00  6.2731E-06  9.2795E-05  6.1554E-05
 80  0.0000E+00  4.0423E-05  0.0000E+00  5.6140E-05  0.0000E+00  0.0000E+00  0.0000E+00  0.0000E+00  0.0000E+00
 81  0.0000E+00  1.3288E-04  0.0000E+00  0.0000E+00  0.0000E+00  0.0000E+00  0.0000E+00  4.6434E-04  0.0000E+00
 82  0.0000E+00  1.1983E-04  0.0000E+00  0.0000E+00  0.0000E+00  0.0000E+00  0.0000E+00  0.0000E+00  0.0000E+00
 83  0.0000E+00  3.2472E-04  1.3353E-05  0.0000E+00  0.0000E+00  2.3299E-04  0.0000E+00  0.0000E+00  0.0000E+00
 84  0.0000E+00  1.7260E-04  0.0000E+00  0.0000E+00  0.0000E+00  0.0000E+00  0.0000E+00  2.0519E-03  0.0000E+00
 85  0.0000E+00  3.9135E-04  0.0000E+00  0.0000E+00  4.2187E-04  1.2554E-03  0.0000E+00  0.0000E+00  0.0000E+00
 86  0.0000E+00  2.3657E-04  9.5052E-04  0.0000E+00  0.0000E+00  0.0000E+00  0.0000E+00  0.0000E+00  0.0000E+00
 87  0.0000E+00  1.7816E-04  0.0000E+00  0.0000E+00  1.0039E-03  0.0000E+00  0.0000E+00  0.0000E+00  0.0000E+00
 88  0.0000E+00  3.3699E-04  0.0000E+00  0.0000E+00  0.0000E+00  0.0000E+00  0.0000E+00  0.0000E+00  0.0000E+00
 89  0.0000E+00  4.2261E-04  0.0000E+00  0.0000E+00  0.0000E+00  1.7689E-03  0.0000E+00  0.0000E+00  3.7864E-04
 90  0.0000E+00  6.3049E-04  0.0000E+00  3.8514E-03  2.7659E-04  0.0000E+00  0.0000E+00  0.0000E+00  0.0000E+00
 91  0.0000E+00  6.2128E-04  0.0000E+00  0.0000E+00  0.0000E+00  0.0000E+00  0.0000E+00  7.7162E-04  0.0000E+00
 92  0.0000E+00  1.5018E-03  0.0000E+00  0.0000E+00  0.0000E+00  0.0000E+00  0.0000E+00  0.0000E+00  0.0000E+00
 93  0.0000E+00  3.1772E-03  0.0000E+00  1.5562E-02  0.0000E+00  0.0000E+00  2.4527E-02  0.0000E+00  0.0000E+00
 94  0.0000E+00  7.2792E-03  0.0000E+00  0.0000E+00  0.0000E+00  3.4050E-02  0.0000E+00  0.0000E+00  0.0000E+00
 95  0.0000E+00  7.0297E-03  0.0000E+00  0.0000E+00  0.0000E+00  0.0000E+00  0.0000E+00  4.2948E-02  0.0000E+00
 96  0.0000E+00  1.0119E-02  0.0000E+00  0.0000E+00  0.0000E+00  3.3855E-02  0.0000E+00  0.0000E+00  0.0000E+00
 97  0.0000E+00  1.7646E-02  0.0000E+00  0.0000E+00  0.0000E+00  0.0000E+00  0.0000E+00  0.0000E+00  0.0000E+00
 98  0.0000E+00  1.5658E-02  0.0000E+00  0.0000E+00  0.0000E+00  0.0000E+00  0.0000E+00  0.0000E+00  0.0000E+00
 99  0.0000E+00  1.2103E-02  0.0000E+00  0.0000E+00  0.0000E+00  0.0000E+00  0.0000E+00  0.0000E+00  0.0000E+00
100  0.0000E+00  9.9929E-03  0.0000E+00  0.0000E+00  0.0000E+00  1.2972E-01  0.0000E+00  0.0000E+00  0.0000E+00
101  0.0000E+00  7.8668E-05  0.0000E+00  0.0000E+00  0.0000E+00  1.5946E-04  0.0000E+00  0.0000E+00  0.0000E+00
102  0.0000E+00  1.5275E-05  0.0000E+00  0.0000E+00  0.0000E+00  5.0004E-06  1.6598E-04  0.0000E+00  0.0000E+00
103  0.0000E+00  5.5365E-05  0.0000E+00  0.0000E+00  7.6857E-05  2.4975E-05  0.0000E+00  0.0000E+00  1.7130E-04
104  0.0000E+00  5.6051E-05  6.7059E-05  1.5349E-04  1.1233E-04  2.1400E-04  5.5387E-05  0.0000E+00  0.0000E+00
105  0.0000E+00  1.8530E-04  1.0080E-03  4.1643E-04  1.7043E-04  1.0439E-03  0.0000E+00  0.0000E+00  0.0000E+00
106  0.0000E+00  1.8104E-04  1.3546E-03  0.0000E+00  0.0000E+00  0.0000E+00  0.0000E+00  0.0000E+00  1.0475E-03
107  0.0000E+00  2.5078E-04  4.3973E-04  0.0000E+00  0.0000E+00  0.0000E+00  0.0000E+00  1.4671E-04  0.0000E+00
108  0.0000E+00  2.1615E-04  0.0000E+00  0.0000E+00  1.0516E-04  0.0000E+00  0.0000E+00  5.2565E-04  0.0000E+00
109  0.0000E+00  1.2269E-04  0.0000E+00  0.0000E+00  0.0000E+00  0.0000E+00  0.0000E+00  1.0974E-03  0.0000E+00
110  0.0000E+00  4.2167E-04  9.0719E-05  0.0000E+00  0.0000E+00  0.0000E+00  6.9656E-04  1.9496E-06  0.0000E+00
111  0.0000E+00  1.5022E-04  0.0000E+00  0.0000E+00  0.0000E+00  0.0000E+00  0.0000E+00  0.0000E+00  0.0000E+00
112  0.0000E+00  1.1223E-04  0.0000E+00  0.0000E+00  0.0000E+00  0.0000E+00  0.0000E+00  0.0000E+00  0.0000E+00
113  0.0000E+00  1.9578E-04  0.0000E+00  0.0000E+00  0.0000E+00  0.0000E+00  0.0000E+00  0.0000E+00  0.0000E+00
114  0.0000E+00  4.3118E-04  0.0000E+00  0.0000E+00  0.0000E+00  0.0000E+00  0.0000E+00  0.0000E+00  0.0000E+00
115  0.0000E+00  1.0051E-03  3.9748E-04  4.0043E-03  0.0000E+00  0.0000E+00  0.0000E+00  0.0000E+00  0.0000E+00
116  0.0000E+00  2.1047E-03  0.0000E+00  0.0000E+00  0.0000E+00  0.0000E+00  0.0000E+00  0.0000E+00  0.0000E+00
117  0.0000E+00  1.6625E-03  0.0000E+00  0.0000E+00  0.0000E+00  0.0000E+00  0.0000E+00  0.0000E+00  0.0000E+00
118  0.0000E+00  6.0574E-03  0.0000E+00  1.1430E-02  0.0000E+00  0.0000E+00  0.0000E+00  0.0000E+00  0.0000E+00
119  0.0000E+00  5.8349E-03  0.0000E+00  0.0000E+00  0.0000E+00  0.0000E+00  0.0000E+00  0.0000E+00  0.0000E+00
120  0.0000E+00  5.4646E-03  0.0000E+00  0.0000E+00  0.0000E+00  0.0000E+00  0.0000E+00  0.0000E+00  0.0000E+00
121  0.0000E+00  1.4939E-02  0.0000E+00  0.0000E+00  0.0000E+00  0.0000E+00  0.0000E+00  2.7236E-02  0.0000E+00
122  0.0000E+00  1.8690E-02  6.3791E-02  0.0000E+00  1.6138E-01  0.0000E+00  0.0000E+00  0.0000E+00  0.0000E+00
123  0.0000E+00  2.1485E-02  0.0000E+00  0.0000E+00  0.0000E+00  0.0000E+00  0.0000E+00  0.0000E+00  8.7762E-02
124  0.0000E+00  2.4720E-02  6.0756E-02  0.0000E+00  6.2924E-02  0.0000E+00  0.0000E+00  0.0000E+00  0.0000E+00
125  0.0000E+00  2.1325E-02  0.0000E+00  0.0000E+00  0.0000E+00  0.0000E+00  0.0000E+00  0.0000E+00  0.0000E+00
126  0.0000E+00  3.0289E-05  0.0000E+00  1.1680E-05  0.0000E+00  2.1993E-04  0.0000E+00  0.0000E+00  0.0000E+00
127  0.0000E+00  4.0453E-05  0.0000E+00  2.2680E-04  0.0000E+00  6.7167E-05  1.2888E-04  0.0000E+00  1.1244E-04
128  0.0000E+00  7.8820E-05  0.0000E+00  0.0000E+00  1.4855E-04  2.0040E-04  5.3068E-05  0.0000E+00  2.1652E-04
129  2.5627E-03  4.0242E-04  0.0000E+00  5.7787E-04  4.2097E-04  1.9791E-05  5.2594E-04  1.2147E-03  4.5884E-04
130  4.1475E-08  1.6384E-04  5.0682E-04  0.0000E+00  3.0967E-04  1.1554E-04  0.0000E+00  1.0311E-03  4.6829E-04
131  0.0000E+00  2.2600E-04  1.8692E-03  0.0000E+00  0.0000E+00  3.0041E-04  0.0000E+00  0.0000E+00  0.0000E+00
132  0.0000E+00  1.6890E-04  0.0000E+00  0.0000E+00  0.0000E+00  7.7977E-04  0.0000E+00  0.0000E+00  0.0000E+00
133  0.0000E+00  1.2289E-04  0.0000E+00  0.0000E+00  0.0000E+00  1.5172E-03  0.0000E+00  0.0000E+00  0.0000E+00
134  0.0000E+00  8.5022E-05  0.0000E+00  0.0000E+00  2.1067E-03  1.0897E-03  0.0000E+00  0.0000E+00  1.4924E-03
135  0.0000E+00  1.7607E-04  8.1975E-04  0.0000E+00  0.0000E+00  0.0000E+00  0.0000E+00  0.0000E+00  0.0000E+00
136  0.0000E+00  2.2843E-04  0.0000E+00  0.0000E+00  0.0000E+00  1.1717E-04  0.0000E+00  0.0000E+00  1.4520E-04
137  0.0000E+00  3.2327E-04  0.0000E+00  0.0000E+00  0.0000E+00  0.0000E+00  0.0000E+00  0.0000E+00  0.0000E+00
138  0.0000E+00  3.6015E-04  0.0000E+00  0.0000E+00  0.0000E+00  0.0000E+00  3.3589E-04  0.0000E+00  2.3586E-04
139  0.0000E+00  6.7451E-04  0.0000E+00  2.5180E-04  0.0000E+00  0.0000E+00  0.0000E+00  0.0000E+00  0.0000E+00
140  0.0000E+00  1.8797E-03  0.0000E+00  0.0000E+00  0.0000E+00  0.0000E+00  0.0000E+00  0.0000E+00  0.0000E+00
141  0.0000E+00  3.1446E-03  0.0000E+00  0.0000E+00  0.0000E+00  0.0000E+00  0.0000E+00  1.4560E-02  0.0000E+00
142  0.0000E+00  5.7153E-03  0.0000E+00  0.0000E+00  0.0000E+00  0.0000E+00  0.0000E+00  0.0000E+00  0.0000E+00
143  0.0000E+00  1.2446E-02  0.0000E+00  0.0000E+00  0.0000E+00  0.0000E+00  0.0000E+00  0.0000E+00  0.0000E+00
144  0.0000E+00  2.7727E-02  6.3067E-02  0.0000E+00  1.8422E-01  0.0000E+00  2.0124E-01  0.0000E+00  0.0000E+00
145  0.0000E+00  5.6420E-02  0.0000E+00  0.0000E+00  0.0000E+00  2.9156E-02  0.0000E+00  0.0000E+00  0.0000E+00
146  0.0000E+00  3.1824E-02  0.0000E+00  0.0000E+00  2.8738E-01  0.0000E+00  0.0000E+00  0.0000E+00  0.0000E+00
147  0.0000E+00  5.3841E-02  0.0000E+00  0.0000E+00  0.0000E+00  0.0000E+00  0.0000E+00  0.0000E+00  3.6974E-03
148  1.3810E+01  1.0513E+01  1.0403E+01  1.0754E+01  9.6487E+00  1.0727E+01  1.1457E+01  1.0199E+01  1.0743E+01
149  2.7564E+01  2.0014E+01  2.0825E+01  2.0490E+01  2.0338E+01  2.0774E+01  1.9611E+01  1.9783E+01  2.0268E+01
150  0.0000E+00  4.0210E-01  0.0000E+00  0.0000E+00  8.1416E-01  0.0000E+00  0.0000E+00  9.8795E-01  0.0000E+00

# AV, chi2 & Mass for <> & i_chain = 1 ...  7 solutions
AV       1.1015      1.0592      1.0587      1.0633      1.0626      1.0688      1.0629      1.0683      1.0662
chi2 2.6684E+00  2.8429E+00  2.8308E+00  2.8180E+00  2.8312E+00  2.8162E+00  2.8198E+00  2.8120E+00  2.8123E+00
Mass 1.7874E-09  1.9726E-09  1.9644E-09  1.9638E-09  1.9616E-09  1.9705E-09  1.9806E-09  1.9772E-09  1.9592E-09
  -7.40                                  [v0_min (km/s) before EX0s...]
  29.33                                  [vd_min (km/s) before EX0s...]


## Synthetic spectrum (Best Model) ##l_obs f_obs f_syn wei
 3070    [Nl_obs]
 3359.00    0.00000   0.35812   -2.000
 3360.00    0.15197   0.34147   -1.000
 3361.00    0.22526   0.35344   -1.000
 3362.00    0.23290   0.37880   -1.000
 3363.00    0.24274   0.41026   -1.000
 3364.00    0.26546   0.42951   -1.000
 3365.00    0.27399   0.42583   -1.000
 3366.00    0.26498   0.41822   -1.000
 3367.00    0.25983   0.41366   -1.000
 3368.00    0.26247   0.40691   -1.000
 3369.00    0.25948   0.39766   -1.000
 3370.00    0.25677   0.37393   -1.000
 3371.00    0.25764   0.35698   -1.000
 3372.00    0.25397   0.35970   -1.000
 3373.00    0.25291   0.38004   -1.000
 3374.00    0.27073   0.40577   -1.000
 3375.00    0.28310   0.42948   -1.000
 3376.00    0.29084   0.43929   -1.000
 3377.00    0.29989   0.43515   -1.000
 3378.00    0.30175   0.42216   -1.000
 3379.00    0.29689   0.41335   -1.000
 3380.00    0.29667   0.41568   -1.000
 3381.00    0.29057   0.42215   -1.000
 3382.00    0.29599   0.42764   -1.000
 3383.00    0.30702   0.43211   -1.000
 3384.00    0.30888   0.43714   -1.000
 3385.00    0.30839   0.44273   -1.000
 3386.00    0.32150   0.43534   -1.000
 3387.00    0.32733   0.41941   -1.000
 3388.00    0.33079   0.41117   -1.000
 3389.00    0.33210   0.42221   -1.000
 3390.00    0.33764   0.43759   -1.000
 3391.00    0.34709   0.44723   -1.000
 3392.00    0.34698   0.43878   -1.000
 3393.00    0.34461   0.42861   -1.000
 3394.00    0.34954   0.43228   -1.000
 3395.00    0.35661   0.44418   -1.000
 3396.00    0.36481   0.46029   -1.000
 3397.00    0.36984   0.47226   -1.000
 3398.00    0.38154   0.48218   -1.000
 3399.00    0.38946   0.48670   28.754
 3400.00    0.39073   0.48326   28.171
 3401.00    0.39842   0.47234   28.245
 3402.00    0.40319   0.45233   29.198
 3403.00    0.39350   0.44223   29.796
 3404.00    0.38708   0.43702   30.250
 3405.00    0.38737   0.44281   30.799
 3406.00    0.38634   0.44530   31.318
 3407.00    0.39048   0.43937   31.568
 3408.00    0.39694   0.43045   31.967
 3409.00    0.38968   0.43200   32.243
 3410.00    0.38938   0.44385   32.149
 3411.00    0.38662   0.44323   31.391
 3412.00    0.39674   0.43481   30.936
 3413.00    0.40041   0.42263   31.810
 3414.00    0.40027   0.42196   32.642
 3415.00    0.39763   0.43719   32.759
 3416.00    0.39820   0.45344   32.151
 3417.00    0.40977   0.46400   30.928
 3418.00    0.41510   0.47057   29.498
 3419.00    0.41606   0.47571   28.033
 3420.00    0.42164   0.48076   27.537
 3421.00    0.42474   0.47905   27.376
 3422.00    0.42584   0.46302   27.438
 3423.00    0.43375   0.44441   28.057
 3424.00    0.43533   0.43860   28.753
 3425.00    0.43601   0.44481   28.353
 3426.00    0.43941   0.45343   27.578
 3427.00    0.44077   0.46531   27.260
 3428.00    0.45388   0.48230   71.885
 3429.00    0.46238   0.49797   -1.000
 3430.00    0.46362   0.50322   -1.000
 3431.00    0.46121   0.48591   -1.000
 3432.00    0.45489   0.46566  243.057
 3433.00    0.44866   0.45825   37.790
 3434.00    0.45031   0.47160   27.200
 3435.00    0.46052   0.49006   71.549
 3436.00    0.46430   0.49219   -1.000
 3437.00    0.45698   0.47882   37.523
 3438.00    0.44826   0.46192   28.012
 3439.00    0.43868   0.44628   29.589
 3440.00    0.42957   0.43263   31.770
 3441.00    0.41652   0.41879   33.441
 3442.00    0.41503   0.41192   33.880
 3443.00    0.42430   0.41363   33.791
 3444.00    0.42433   0.42232   32.797
 3445.00    0.43681   0.43553   31.138
 3446.00    0.44590   0.45649   29.418
 3447.00    0.46190   0.47988   28.217
 3448.00    0.47969   0.49692   72.921
 3449.00    0.48602   0.50341   -1.000
 3450.00    0.49214   0.49024  243.057
 3451.00    0.49480   0.46810   -1.000
 3452.00    0.48515   0.45274   -1.000
 3453.00    0.46650   0.45177   -1.000
 3454.00    0.47374   0.46058   -1.000
 3455.00    0.48935   0.47096   -1.000
 3456.00    0.48990   0.47442   -1.000
 3457.00    0.48460   0.47229   -1.000
 3458.00    0.47412   0.46618   -1.000
 3459.00    0.46967   0.45785   37.703
 3460.00    0.46917   0.44630   27.472
 3461.00    0.47877   0.44113   27.457
 3462.00    0.48405   0.45005   71.643
 3463.00    0.49229   0.45905   -1.000
 3464.00    0.49718   0.46357   -1.000
 3465.00    0.49972   0.45861   -1.000
 3466.00    0.48463   0.46041   -1.000
 3467.00    0.47783   0.47382  243.057
 3468.00    0.49098   0.49167  239.476
 3469.00    0.50149   0.50505  233.165
 3470.00    0.50322   0.50876  230.499
 3471.00    0.50276   0.50209  231.531
 3472.00    0.49744   0.48947  237.699
 3473.00    0.49118   0.46682   -1.000
 3474.00    0.48049   0.44805   -1.000
 3475.00    0.46657   0.44026   38.070
 3476.00    0.45976   0.44499   28.152
 3477.00    0.46329   0.46466   28.039
 3478.00    0.47980   0.48335   72.000
 3479.00    0.50387   0.49555   -1.000
 3480.00    0.51693   0.50463   -1.000
 3481.00    0.51675   0.50482   -1.000
 3482.00    0.51195   0.49952   -1.000
 3483.00    0.51125   0.49440   -1.000
 3484.00    0.51203   0.49258   -1.000
 3485.00    0.52159   0.49972   -1.000
 3486.00    0.52699   0.50913   -1.000
 3487.00    0.52809   0.50901   -1.000
 3488.00    0.51984   0.49907   -1.000
 3489.00    0.50779   0.48211   -1.000
 3490.00    0.49402   0.46947   -1.000
 3491.00    0.48656   0.47301   -1.000
 3492.00    0.48243   0.48488  243.057
 3493.00    0.49145   0.48913  243.057
 3494.00    0.49417   0.48593   -1.000
 3495.00    0.48449   0.47728  243.057
 3496.00    0.48431   0.46990   -1.000
 3497.00    0.48544   0.47233   -1.000
 3498.00    0.49671   0.47481   -1.000
 3499.00    0.51523   0.48031   -1.000
 3500.00    0.52104   0.48186   -1.000
 3501.00    0.52216   0.48246   -1.000
 3502.00    0.52637   0.48938   -1.000
 3503.00    0.53489   0.49457   -1.000
 3504.00    0.53194   0.49548   -1.000
 3505.00    0.51803   0.48860   -1.000
 3506.00    0.51644   0.48048   -1.000
 3507.00    0.52472   0.47545   -1.000
 3508.00    0.52024   0.47264   -1.000
 3509.00    0.51731   0.47570   -1.000
 3510.00    0.51166   0.47711   -1.000
 3511.00    0.50889   0.47535   -1.000
 3512.00    0.50780   0.46866   -1.000
 3513.00    0.50380   0.46166   -1.000
 3514.00    0.49560   0.46314   -1.000
 3515.00    0.50514   0.47569   -1.000
 3516.00    0.51601   0.49989   -1.000
 3517.00    0.52748   0.51848  222.778
 3518.00    0.52930   0.51964  216.294
 3519.00    0.52118   0.50233   -1.000
 3520.00    0.51601   0.48496   -1.000
 3521.00    0.50744   0.47418   -1.000
 3522.00    0.49665   0.46734   -1.000
 3523.00    0.48863   0.45956   -1.000
 3524.00    0.48031   0.44764   37.978
 3525.00    0.46927   0.44090   27.873
 3526.00    0.46751   0.44899   28.058
 3527.00    0.48307   0.46408   71.815
 3528.00    0.49969   0.48276   -1.000
 3529.00    0.50875   0.49891   -1.000
 3530.00    0.52056   0.50955   -1.000
 3531.00    0.52575   0.51509   -1.000
 3532.00    0.52620   0.50812   -1.000
 3533.00    0.52652   0.48948   -1.000
 3534.00    0.52469   0.47761   -1.000
 3535.00    0.52370   0.47880   -1.000
 3536.00    0.53160   0.49794   -1.000
 3537.00    0.53818   0.52065   -1.000
 3538.00    0.54372   0.53275   -1.000
 3539.00    0.54640   0.53715  214.521
 3540.00    0.54258   0.53374  214.955
 3541.00    0.53646   0.52886  218.389
 3542.00    0.53599   0.52884  220.988
 3543.00    0.54021   0.53656  220.579
 3544.00    0.54416   0.54273  217.803
 3545.00    0.54374   0.54098  216.319
 3546.00    0.53747   0.53541  218.899
 3547.00    0.53366   0.52862  223.663
 3548.00    0.53157   0.52558  225.867
 3549.00    0.52589   0.52856  225.785
 3550.00    0.52807   0.53626  224.517
 3551.00    0.53022   0.54258  226.150
 3552.00    0.52733   0.53672  232.010
 3553.00    0.52095   0.52167  238.927
 3554.00    0.51743   0.51163  243.057
 3555.00    0.51972   0.51415  243.057
 3556.00    0.51831   0.52441  238.791
 3557.00    0.52261   0.53729  237.827
 3558.00    0.52279   0.54440   -1.000
 3559.00    0.51600   0.54427   -1.000
 3560.00    0.51728   0.54283   -1.000
 3561.00    0.52303   0.54214   -1.000
 3562.00    0.52680   0.53780  236.998
 3563.00    0.52218   0.52508  237.088
 3564.00    0.51148   0.50613  243.057
 3565.00    0.49408   0.48775   38.460
 3566.00    0.48345   0.47995   28.242
 3567.00    0.48805   0.48103   28.378
 3568.00    0.48636   0.48198   28.162
 3569.00    0.47836   0.47827   28.769
 3570.00    0.47474   0.46855   29.448
 3571.00    0.47696   0.46184   28.970
 3572.00    0.48698   0.46293   27.785
 3573.00    0.49707   0.46756   69.980
 3574.00    0.49744   0.47446   -1.000
 3575.00    0.49942   0.48375   -1.000
 3576.00    0.50776   0.49177   -1.000
 3577.00    0.50918   0.49748   -1.000
 3578.00    0.50538   0.49991  243.057
 3579.00    0.49041   0.49214   39.852
 3580.00    0.47008   0.47846   29.912
 3581.00    0.45982   0.46580   31.801
 3582.00    0.46103   0.45913   32.488
 3583.00    0.46222   0.46005   32.640
 3584.00    0.45716   0.45662   33.247
 3585.00    0.45201   0.44362   34.267
 3586.00    0.44527   0.42736   34.957
 3587.00    0.44276   0.42201   33.870
 3588.00    0.44911   0.43511   32.083
 3589.00    0.46936   0.46186   30.484
 3590.00    0.49121   0.48634   28.122
 3591.00    0.50958   0.49919   68.974
 3592.00    0.52249   0.50017   -1.000
 3593.00    0.52598   0.49942   -1.000
 3594.00    0.52785   0.50517   -1.000
 3595.00    0.52969   0.51856   -1.000
 3596.00    0.54173   0.53114   -1.000
 3597.00    0.55537   0.53730   -1.000
 3598.00    0.55905   0.53890   -1.000
 3599.00    0.55887   0.53911   -1.000
 3600.00    0.55696   0.53562   -1.000
 3601.00    0.54877   0.52248   -1.000
 3602.00    0.54015   0.51004   -1.000
 3603.00    0.53259   0.50406   -1.000
 3604.00    0.51925   0.50820   -1.000
 3605.00    0.52275   0.51263   -1.000
 3606.00    0.52720   0.50922   -1.000
 3607.00    0.52068   0.50139   -1.000
 3608.00    0.50476   0.49353   -1.000
 3609.00    0.49480   0.49147  243.057
 3610.00    0.49914   0.49327  243.057
 3611.00    0.50978   0.49930   -1.000
 3612.00    0.51700   0.50841   -1.000
 3613.00    0.52493   0.51736  236.119
 3614.00    0.53520   0.52927  231.442
 3615.00    0.54206   0.54400  224.287
 3616.00    0.53496   0.54315  222.030
 3617.00    0.52121   0.52902  235.136
 3618.00    0.50693   0.50853  243.057
 3619.00    0.49516   0.49655   38.223
 3620.00    0.50417   0.50519   68.179
 3621.00    0.52680   0.52172  238.608
 3622.00    0.54774   0.53469   -1.000
 3623.00    0.55562   0.54362   -1.000
 3624.00    0.55736   0.55269  211.704
 3625.00    0.56347   0.56913  205.463
 3626.00    0.57423   0.58954  197.102
 3627.00    0.57720   0.60438   -1.000
 3628.00    0.57720   0.59642   -1.000
 3629.00    0.56287   0.56825  203.322
 3630.00    0.53665   0.53052  223.757
 3631.00    0.50842   0.50939  243.057
 3632.00    0.49771   0.51320  243.057
 3633.00    0.50954   0.53047   -1.000
 3634.00    0.52285   0.54162   -1.000
 3635.00    0.53672   0.54193  234.110
 3636.00    0.54647   0.54379  226.377
 3637.00    0.55142   0.55591  216.332
 3638.00    0.56580   0.57049  206.427
 3639.00    0.57427   0.57937  198.771
 3640.00    0.57418   0.58118  196.522
 3641.00    0.56832   0.57481  199.859
 3642.00    0.55479   0.56236  206.103
 3643.00    0.53377   0.55066   -1.000
 3644.00    0.52934   0.54194  224.076
 3645.00    0.53389   0.53611  228.745
 3646.00    0.53316   0.53169  232.356
 3647.00    0.52734   0.52903  236.403
 3648.00    0.52745   0.52847  237.917
 3649.00    0.53571   0.52889  233.474
 3650.00    0.53984   0.53277  224.932
 3651.00    0.55117   0.54111  214.548
 3652.00    0.56827   0.55555   -1.000
 3653.00    0.57725   0.56924  198.952
 3654.00    0.58031   0.58301  195.539
 3655.00    0.57700   0.59623   -1.000
 3656.00    0.58096   0.60580   -1.000
 3657.00    0.59094   0.61018   -1.000
 3658.00    0.59129   0.60932   -1.000
 3659.00    0.59544   0.60806  186.685
 3660.00    0.60252   0.60525  186.758
 3661.00    0.59659   0.59702  188.172
 3662.00    0.57972   0.58707  190.229
 3663.00    0.57540   0.58087  193.111
 3664.00    0.58816   0.58301  195.181
 3665.00    0.58856   0.58912  193.995
 3666.00    0.58347   0.59198  193.310
 3667.00    0.57707   0.58977  196.159
 3668.00    0.57167   0.58104  198.979
 3669.00    0.57504   0.57215  203.032
 3670.00    0.57736   0.57074  203.744
 3671.00    0.58174   0.57758  197.973
 3672.00    0.58745   0.58812  192.869
 3673.00    0.58986   0.59472  191.205
 3674.00    0.59056   0.59376  190.982
 3675.00    0.58440   0.58687  191.273
 3676.00    0.57476   0.57312  195.457
 3677.00    0.57440   0.55708   -1.000
 3678.00    0.56657   0.54557   -1.000
 3679.00    0.55594   0.54477   -1.000
 3680.00    0.55740   0.55026  214.683
 3681.00    0.56262   0.55533  210.575
 3682.00    0.56872   0.55977  204.620
 3683.00    0.57307   0.56103   -1.000
 3684.00    0.57247   0.55945   -1.000
 3685.00    0.56922   0.55277   -1.000
 3686.00    0.55883   0.54672   -1.000
 3687.00    0.55152   0.54939  225.920
 3688.00    0.55616   0.56342  222.761
 3689.00    0.56612   0.58240  210.485
 3690.00    0.57793   0.59302  196.474
 3691.00    0.59340   0.59620  188.321
 3692.00    0.60132   0.59429  187.525
 3693.00    0.60369   0.59180  191.583
 3694.00    0.60070   0.59216  195.104
 3695.00    0.59153   0.59473  195.341
 3696.00    0.59266   0.59299  193.852
 3697.00    0.59810   0.59094  191.674
 3698.00    0.60929   0.60094  186.585
 3699.00    0.62522   0.61784  181.384
 3700.00    0.63440   0.63348  178.284
 3701.00    0.63163   0.62694  179.855
 3702.00    0.60984   0.59590  186.614
 3703.00    0.58072   0.55539   -1.000
 3704.00    0.55130   0.52608   -1.000
 3705.00    0.53154   0.51697   -1.000
 3706.00    0.53457   0.52416   -1.000
 3707.00    0.55864   0.53776   -1.000
 3708.00    0.56966   0.55048   -1.000
 3709.00    0.56380   0.55248   -1.000
 3710.00    0.56393   0.54403   -1.000
 3711.00    0.57158   0.53783   -1.000
 3712.00    0.59481   0.54561   -1.000
 3713.00    0.61368   0.57119   -1.000
 3714.00    0.63182   0.60248   -1.000
 3715.00    0.65598   0.62703   -1.000
 3716.00    0.66497   0.63718   -1.000
 3717.00    0.64631   0.63081   -1.000
 3718.00    0.61103   0.60460  200.854
 3719.00    0.56272   0.55922  227.036
 3720.00    0.51725   0.50163   -1.000
 3721.00    0.49812   0.46719   39.437
 3722.00    0.50985   0.47337   68.085
 3723.00    0.54433   0.51298   -1.000
 3724.00    0.58487   0.56524   -1.000
 3725.00    0.61974   0.60223   -1.000
 3726.00    0.63326   0.61653   -1.000
 3727.00    0.63480   0.62091   -1.000
 3728.00    0.63550   0.62444   -1.000
 3729.00    0.64372   0.62770   -1.000
 3730.00    0.63887   0.62295   -1.000
 3731.00    0.61452   0.59595   -1.000
 3732.00    0.57146   0.53869   -1.000
 3733.00    0.51367   0.48008   38.569
 3734.00    0.47152   0.43887   29.219
 3735.00    0.46161   0.43158   31.145
 3736.00    0.48039   0.46063   30.444
 3737.00    0.52105   0.51260   27.978
 3738.00    0.57172   0.56425   65.928
 3739.00    0.62161   0.61321  222.802
 3740.00    0.65501   0.64322   -1.000
 3741.00    0.66318   0.65025   -1.000
 3742.00    0.65552   0.63593   -1.000
 3743.00    0.63958   0.61559   -1.000
 3744.00    0.61780   0.59311   -1.000
 3745.00    0.59415   0.57259   -1.000
 3746.00    0.56921   0.55274   -1.000
 3747.00    0.54143   0.52394   39.351
 3748.00    0.50669   0.49129   28.663
 3749.00    0.47836   0.46383   29.491
 3750.00    0.48597   0.45897   72.117
 3751.00    0.52678   0.48990   -1.000
 3752.00    0.57891   0.54313   -1.000
 3753.00    0.63391   0.59981   -1.000
 3754.00    0.67299   0.64231   -1.000
 3755.00    0.69091   0.66276   -1.000
 3756.00    0.69314   0.66027   -1.000
 3757.00    0.66969   0.64036   -1.000
 3758.00    0.63991   0.62216   -1.000
 3759.00    0.63060   0.61571   -1.000
 3760.00    0.64295   0.61998   -1.000
 3761.00    0.66216   0.63415   -1.000
 3762.00    0.67823   0.64374   -1.000
 3763.00    0.67842   0.64477   -1.000
 3764.00    0.67398   0.63859   -1.000
 3765.00    0.67170   0.62714   -1.000
 3766.00    0.64993   0.61156   -1.000
 3767.00    0.62790   0.58824   -1.000
 3768.00    0.60301   0.55332   -1.000
 3769.00    0.58146   0.51867   -1.000
 3770.00    0.56855   0.49886   -1.000
 3771.00    0.57829   0.51086   -1.000
 3772.00    0.60014   0.54797   -1.000
 3773.00    0.62624   0.59529   -1.000
 3774.00    0.66136   0.62971   -1.000
 3775.00    0.68835   0.64704   -1.000
 3776.00    0.70832   0.65664   -1.000
 3777.00    0.72247   0.67124   -1.000
 3778.00    0.73771   0.69411   -1.000
 3779.00    0.75522   0.71778   -1.000
 3780.00    0.76813   0.73720   -1.000
 3781.00    0.78226   0.74531   -1.000
 3782.00    0.79316   0.74440   -1.000
 3783.00    0.78985   0.73851   -1.000
 3784.00    0.77913   0.73016   -1.000
 3785.00    0.76983   0.71669   -1.000
 3786.00    0.75353   0.70185   -1.000
 3787.00    0.72828   0.68562   -1.000
 3788.00    0.71021   0.67364   -1.000
 3789.00    0.70407   0.67027   -1.000
 3790.00    0.70266   0.67050   -1.000
 3791.00    0.69740   0.66783   -1.000
 3792.00    0.68362   0.65735   -1.000
 3793.00    0.66169   0.63456   -1.000
 3794.00    0.63127   0.60172   -1.000
 3795.00    0.60040   0.56105   -1.000
 3796.00    0.56369   0.51897   -1.000
 3797.00    0.52449   0.48234   -1.000
 3798.00    0.51223   0.46990   -1.000
 3799.00    0.54013   0.49473   -1.000
 3800.00    0.58721   0.55469   -1.000
 3801.00    0.63448   0.61503   -1.000
 3802.00    0.67464   0.66269  199.124
 3803.00    0.70670   0.68689   -1.000
 3804.00    0.72448   0.69782   -1.000
 3805.00    0.72665   0.69962   -1.000
 3806.00    0.72508   0.70052   -1.000
 3807.00    0.73480   0.70800   -1.000
 3808.00    0.75353   0.72327   -1.000
 3809.00    0.77072   0.74183   -1.000
 3810.00    0.78382   0.75490   -1.000
 3811.00    0.78161   0.75229   -1.000
 3812.00    0.76385   0.73130   -1.000
 3813.00    0.74664   0.70729   -1.000
 3814.00    0.73327   0.68929   -1.000
 3815.00    0.71509   0.68739   -1.000
 3816.00    0.71686   0.69913   -1.000
 3817.00    0.73183   0.71379   -1.000
 3818.00    0.73444   0.71518   -1.000
 3819.00    0.71585   0.69791   -1.000
 3820.00    0.69669   0.68091   -1.000
 3821.00    0.69851   0.67565   -1.000
 3822.00    0.70605   0.68269   -1.000
 3823.00    0.69799   0.68257   -1.000
 3824.00    0.68006   0.66391   -1.000
 3825.00    0.65216   0.64299   41.022
 3826.00    0.63566   0.62776   28.822
 3827.00    0.62838   0.61662   28.854
 3828.00    0.62458   0.60721   28.451
 3829.00    0.61970   0.59766   27.984
 3830.00    0.60680   0.58517   28.066
 3831.00    0.57329   0.56200   29.044
 3832.00    0.53162   0.52686   31.046
 3833.00    0.49566   0.48054   32.527
 3834.00    0.47644   0.44181   32.402
 3835.00    0.47591   0.42864   31.288
 3836.00    0.47820   0.44046   30.409
 3837.00    0.49141   0.46862   30.627
 3838.00    0.51313   0.50328   31.354
 3839.00    0.54269   0.53681   31.223
 3840.00    0.57939   0.56937   29.811
 3841.00    0.62171   0.60680   70.015
 3842.00    0.66585   0.64433   -1.000
 3843.00    0.70456   0.68170   -1.000
 3844.00    0.72124   0.70801   -1.000
 3845.00    0.73229   0.72280  220.400
 3846.00    0.74761   0.73519  220.344
 3847.00    0.75567   0.74584  220.582
 3848.00    0.75200   0.75018  224.319
 3849.00    0.75108   0.74588  232.100
 3850.00    0.75078   0.74226  237.602
 3851.00    0.75594   0.75172  235.005
 3852.00    0.76594   0.76931  228.911
 3853.00    0.77005   0.78335   -1.000
 3854.00    0.76411   0.78223   -1.000
 3855.00    0.75894   0.77044   -1.000
 3856.00    0.75046   0.75618  243.057
 3857.00    0.73287   0.74299  243.057
 3858.00    0.71582   0.73040   38.990
 3859.00    0.70221   0.72647   28.021
 3860.00    0.70610   0.73432   28.186
 3861.00    0.73476   0.75273   66.605
 3862.00    0.76744   0.77162  232.966
 3863.00    0.78710   0.78228  218.162
 3864.00    0.79133   0.78144  215.962
 3865.00    0.78577   0.77766  219.431
 3866.00    0.78283   0.77879  223.126
 3867.00    0.78434   0.78311  227.152
 3868.00    0.77589   0.78680   -1.000
 3869.00    0.75882   0.78286   -1.000
 3870.00    0.73750   0.76820   -1.000
 3871.00    0.72082   0.75029   39.643
 3872.00    0.71256   0.73228   65.709
 3873.00    0.72470   0.72488  243.057
 3874.00    0.74673   0.72849   -1.000
 3875.00    0.76132   0.73600   -1.000
 3876.00    0.75586   0.73103   -1.000
 3877.00    0.73234   0.71293   -1.000
 3878.00    0.70449   0.69537  243.057
 3879.00    0.69075   0.68909  243.057
 3880.00    0.68367   0.69534  243.057
 3881.00    0.67448   0.69777   -1.000
 3882.00    0.66289   0.68860   -1.000
 3883.00    0.65972   0.67387  236.714
 3884.00    0.65985   0.65196  220.273
 3885.00    0.64482   0.61576   -1.000
 3886.00    0.61184   0.56839   -1.000
 3887.00    0.56775   0.51567   -1.000
 3888.00    0.53575   0.48384   -1.000
 3889.00    0.53864   0.48570   -1.000
 3890.00    0.57333   0.52249   -1.000
 3891.00    0.63382   0.57596   -1.000
 3892.00    0.68569   0.62485   -1.000
 3893.00    0.70190   0.65124   -1.000
 3894.00    0.71090   0.66366   -1.000
 3895.00    0.72717   0.67673   -1.000
 3896.00    0.74441   0.69282   -1.000
 3897.00    0.76288   0.71043   -1.000
 3898.00    0.77432   0.72409   -1.000
 3899.00    0.78192   0.72967   -1.000
 3900.00    0.79157   0.73607   -1.000
 3901.00    0.79582   0.74471   -1.000
 3902.00    0.79722   0.74865   -1.000
 3903.00    0.79819   0.74809   -1.000
 3904.00    0.79322   0.74203   -1.000
 3905.00    0.78389   0.74066   -1.000
 3906.00    0.78450   0.74908   -1.000
 3907.00    0.80897   0.77050   -1.000
 3908.00    0.83632   0.79696   -1.000
 3909.00    0.85583   0.82003   -1.000
 3910.00    0.86281   0.83159   -1.000
 3911.00    0.86333   0.83523   -1.000
 3912.00    0.85814   0.83523   -1.000
 3913.00    0.85179   0.83054   -1.000
 3914.00    0.84321   0.82006   -1.000
 3915.00    0.84666   0.81381   -1.000
 3916.00    0.85249   0.81286   -1.000
 3917.00    0.84088   0.80903   -1.000
 3918.00    0.83099   0.80010   -1.000
 3919.00    0.82354   0.78922   -1.000
 3920.00    0.81591   0.78252   -1.000
 3921.00    0.80280   0.77862   -1.000
 3922.00    0.79988   0.78004   -1.000
 3923.00    0.80515   0.78510   -1.000
 3924.00    0.80237   0.78650   -1.000
 3925.00    0.78743   0.77984  207.425
 3926.00    0.75579   0.75654  224.183
 3927.00    0.71472   0.72243  243.057
 3928.00    0.66256   0.67765   43.747
 3929.00    0.60754   0.62449   33.269
 3930.00    0.56163   0.55958   38.954
 3931.00    0.49704   0.46880   45.903
 3932.00    0.42469   0.37802   -1.000
 3933.00    0.37623   0.31821   -1.000
 3934.00    0.37605   0.32048   -1.000
 3935.00    0.42763   0.38443   54.247
 3936.00    0.49965   0.48281   45.501
 3937.00    0.56673   0.57321   37.430
 3938.00    0.62768   0.65400   31.238
 3939.00    0.67957   0.70756   69.066
 3940.00    0.71531   0.74104   -1.000
 3941.00    0.73424   0.76058   -1.000
 3942.00    0.74340   0.76609   -1.000
 3943.00    0.74971   0.76651   -1.000
 3944.00    0.76578   0.77198  222.940
 3945.00    0.78895   0.78309  205.324
 3946.00    0.81463   0.79777   -1.000
 3947.00    0.82530   0.80553   -1.000
 3948.00    0.82493   0.80436   -1.000
 3949.00    0.83570   0.80096   -1.000
 3950.00    0.84418   0.79876   -1.000
 3951.00    0.83524   0.79702   -1.000
 3952.00    0.83293   0.79705   -1.000
 3953.00    0.84960   0.80326   -1.000
 3954.00    0.85258   0.80647   -1.000
 3955.00    0.84277   0.80135   -1.000
 3956.00    0.82484   0.79022   -1.000
 3957.00    0.80752   0.77920   -1.000
 3958.00    0.80532   0.77626   -1.000
 3959.00    0.79712   0.77015   -1.000
 3960.00    0.77161   0.74627   -1.000
 3961.00    0.72650   0.71469   -1.000
 3962.00    0.67874   0.67764  239.890
 3963.00    0.63832   0.64318  243.057
 3964.00    0.59033   0.60423   41.476
 3965.00    0.52827   0.53668   31.314
 3966.00    0.44741   0.45001   37.911
 3967.00    0.36407   0.35193   46.558
 3968.00    0.30960   0.28556   53.469
 3969.00    0.30299   0.27395   52.723
 3970.00    0.34189   0.32339   45.088
 3971.00    0.40680   0.40485   37.060
 3972.00    0.48329   0.49750   30.830
 3973.00    0.56167   0.57101   67.296
 3974.00    0.62860   0.63180  230.952
 3975.00    0.68337   0.67825  206.748
 3976.00    0.73011   0.71540  189.156
 3977.00    0.76898   0.74796   -1.000
 3978.00    0.80775   0.77520   -1.000
 3979.00    0.83549   0.79747   -1.000
 3980.00    0.85304   0.80750   -1.000
 3981.00    0.86475   0.81047   -1.000
 3982.00    0.86357   0.81477   -1.000
 3983.00    0.87074   0.82267   -1.000
 3984.00    0.88436   0.83622   -1.000
 3985.00    0.89552   0.85130   -1.000
 3986.00    0.90754   0.86428   -1.000
 3987.00    0.92225   0.87635   -1.000
 3988.00    0.93126   0.88532   -1.000
 3989.00    0.93897   0.88801   -1.000
 3990.00    0.94136   0.89032   -1.000
 3991.00    0.95264   0.89675   -1.000
 3992.00    0.95936   0.90583   -1.000
 3993.00    0.95776   0.91448   -1.000
 3994.00    0.95223   0.91528   -1.000
 3995.00    0.94127   0.90524   -1.000
 3996.00    0.92739   0.88828   -1.000
 3997.00    0.91535   0.87847   -1.000
 3998.00    0.91797   0.88266   -1.000
 3999.00    0.94390   0.89874   -1.000
 4000.00    0.96288   0.91397   -1.000
 4001.00    0.97397   0.92475   -1.000
 4002.00    0.98633   0.92707   -1.000
 4003.00    0.98629   0.92069   -1.000
 4004.00    0.96009   0.90504   -1.000
 4005.00    0.93035   0.89131   -1.000
 4006.00    0.93440   0.89183   -1.000
 4007.00    0.95430   0.90669   -1.000
 4008.00    0.97696   0.92772   -1.000
 4009.00    0.98871   0.94098   -1.000
 4010.00    0.99796   0.94661   -1.000
 4011.00    0.99549   0.94889   -1.000
 4012.00    0.98931   0.94878   -1.000
 4013.00    0.99026   0.94882   -1.000
 4014.00    0.99301   0.95138   -1.000
 4015.00    0.99640   0.95629   -1.000
 4016.00    0.99664   0.96069   -1.000
 4017.00    0.99311   0.96359   -1.000
 4018.00    0.99300   0.96787  131.185
 4019.00    1.00304   0.97244   -1.000
 4020.00    1.00928   0.97540   -1.000
 4021.00    1.00695   0.97244   -1.000
 4022.00    1.00363   0.96669   -1.000
 4023.00    0.99497   0.96145   -1.000
 4024.00    0.98686   0.95813   -1.000
 4025.00    0.98336   0.96054  131.607
 4026.00    1.00029   0.97054   -1.000
 4027.00    1.02237   0.98297   -1.000
 4028.00    1.01996   0.98401   -1.000
 4029.00    0.99689   0.97028  127.739
 4030.00    0.96873   0.94480  135.358
 4031.00    0.95260   0.92333   -1.000
 4032.00    0.94576   0.91404   -1.000
 4033.00    0.95282   0.91666   -1.000
 4034.00    0.96708   0.92891   -1.000
 4035.00    0.99035   0.95123   -1.000
 4036.00    1.01455   0.97745   -1.000
 4037.00    1.03697   1.00056   -1.000
 4038.00    1.04524   1.00921   -1.000
 4039.00    1.03195   1.00533  122.797
 4040.00    1.01656   0.99565  125.669
 4041.00    1.01590   0.98859   -1.000
 4042.00    1.01542   0.98170   -1.000
 4043.00    1.00187   0.96324   -1.000
 4044.00    0.96191   0.93313   -1.000
 4045.00    0.93258   0.90683   -1.000
 4046.00    0.93451   0.90431   -1.000
 4047.00    0.97314   0.92960   -1.000
 4048.00    1.00617   0.96361   -1.000
 4049.00    1.02026   0.98818   -1.000
 4050.00    1.02858   0.99684   -1.000
 4051.00    1.03088   0.99849   -1.000
 4052.00    1.02266   0.99307   -1.000
 4053.00    1.01184   0.98409   -1.000
 4054.00    1.00617   0.97639   -1.000
 4055.00    1.00255   0.97074   -1.000
 4056.00    1.00000   0.96804   -1.000
 4057.00    0.99220   0.96710  137.345
 4058.00    0.99402   0.97210  136.775
 4059.00    1.00675   0.98468  132.880
 4060.00    1.01776   0.99164  129.455
 4061.00    1.01456   0.98123   -1.000
 4062.00    0.98768   0.95191   -1.000
 4063.00    0.96216   0.92712   -1.000
 4064.00    0.95572   0.91678   -1.000
 4065.00    0.97273   0.92072   -1.000
 4066.00    0.98488   0.93273   -1.000
 4067.00    0.99667   0.94351   -1.000
 4068.00    1.01022   0.94842   -1.000
 4069.00    1.01738   0.94751   -1.000
 4070.00    1.00338   0.93741   -1.000
 4071.00    0.98169   0.92038   -1.000
 4072.00    0.97843   0.91345   -1.000
 4073.00    0.99333   0.92054   -1.000
 4074.00    0.99731   0.92955   -1.000
 4075.00    0.97853   0.92495   -1.000
 4076.00    0.95162   0.90480   -1.000
 4077.00    0.92805   0.88661   -1.000
 4078.00    0.92862   0.88300   -1.000
 4079.00    0.95671   0.90230   -1.000
 4080.00    0.98673   0.92995   -1.000
 4081.00    1.00445   0.95003   -1.000
 4082.00    0.99788   0.95240   -1.000
 4083.00    0.98600   0.94206   -1.000
 4084.00    0.97273   0.93003   -1.000
 4085.00    0.97367   0.92559   -1.000
 4086.00    0.98952   0.93306   -1.000
 4087.00    1.00198   0.94526   -1.000
 4088.00    1.01370   0.95550   -1.000
 4089.00    1.01737   0.95716   -1.000
 4090.00    1.00726   0.95118   -1.000
 4091.00    0.98882   0.94246   -1.000
 4092.00    0.97253   0.93288   -1.000
 4093.00    0.96604   0.91787   -1.000
 4094.00    0.95676   0.90085   -1.000
 4095.00    0.92955   0.87887   -1.000
 4096.00    0.90236   0.85288   -1.000
 4097.00    0.87178   0.82524   -1.000
 4098.00    0.84280   0.78972   -1.000
 4099.00    0.80129   0.74079   -1.000
 4100.00    0.73445   0.67739   -1.000
 4101.00    0.67541   0.63084   -1.000
 4102.00    0.66961   0.62635   -1.000
 4103.00    0.72264   0.67623   -1.000
 4104.00    0.79558   0.74411   -1.000
 4105.00    0.85312   0.80552   -1.000
 4106.00    0.88410   0.84292   -1.000
 4107.00    0.90196   0.86453   -1.000
 4108.00    0.91409   0.87729   -1.000
 4109.00    0.92218   0.88561   -1.000
 4110.00    0.93007   0.89506   -1.000
 4111.00    0.93944   0.90556   -1.000
 4112.00    0.95247   0.91893   -1.000
 4113.00    0.97081   0.93391   -1.000
 4114.00    0.98694   0.94944   -1.000
 4115.00    0.99403   0.96192   -1.000
 4116.00    1.00058   0.96424   -1.000
 4117.00    0.99642   0.95825   -1.000
 4118.00    0.98414   0.94860   -1.000
 4119.00    0.97914   0.94116   -1.000
 4120.00    0.97795   0.94255   -1.000
 4121.00    0.98568   0.95024   -1.000
 4122.00    0.99372   0.95931   -1.000
 4123.00    1.00116   0.96705   -1.000
 4124.00    1.01662   0.97462   -1.000
 4125.00    1.01777   0.98120   -1.000
 4126.00    1.01460   0.98246   -1.000
 4127.00    1.00658   0.97948  133.537
 4128.00    0.99675   0.97653  135.286
 4129.00    0.99416   0.97512  136.095
 4130.00    0.99067   0.96913  137.447
 4131.00    0.97788   0.95730  140.893
 4132.00    0.95684   0.94524  145.400
 4133.00    0.96023   0.94603  147.260
 4134.00    0.97929   0.96037  144.133
 4135.00    0.99919   0.97965  137.613
 4136.00    1.01961   0.99750  132.247
 4137.00    1.03714   1.01255  129.393
 4138.00    1.04637   1.02391  127.374
 4139.00    1.05223   1.03101  126.352
 4140.00    1.04677   1.02536  127.878
 4141.00    1.02033   1.00617  133.205
 4142.00    0.98451   0.97977  143.037
 4143.00    0.96029   0.96082  152.348
 4144.00    0.96900   0.96044  151.356
 4145.00    0.99829   0.97620  143.248
 4146.00    1.01338   0.99596  136.728
 4147.00    1.01537   1.00449  134.069
 4148.00    1.00825   1.00522  135.281
 4149.00    1.00529   1.00558  138.716
 4150.00    1.00141   1.00671  141.231
 4151.00    1.00559   1.00690  141.139
 4152.00    1.00338   1.00202  140.212
 4153.00    0.99292   0.99518  140.786
 4154.00    0.98302   0.98962  142.795
 4155.00    0.98590   0.98946  141.265
 4156.00    0.99061   0.99693  139.173
 4157.00    0.99982   1.00748  139.973
 4158.00    1.01269   1.01852  136.599
 4159.00    1.05435   1.02652  135.243
 4160.00    1.14757   1.03168   -1.000
 4161.00    1.09968   1.03527   -1.000
 4162.00    0.95747   1.03901   -1.000
 4163.00    0.96089   1.04458   -1.000
 4164.00    1.03614   1.04819  131.512
 4165.00    1.03391   1.04607  133.573
 4166.00    1.01360   1.03638   -1.000
 4167.00    1.01488   1.02946  138.691
 4168.00    1.02070   1.02653  138.730
 4169.00    1.01924   1.02524  136.733
 4170.00    1.01098   1.01840  136.798
 4171.00    0.98583   0.99743  142.608
 4172.00    0.95058   0.97652   -1.000
 4173.00    0.93353   0.96840   -1.000
 4174.00    0.94581   0.97574   -1.000
 4175.00    0.96886   0.99338   -1.000
 4176.00    0.97794   1.00329   -1.000
 4177.00    0.97426   1.00734   -1.000
 4178.00    0.98348   1.01188   -1.000
 4179.00    0.99662   1.01822   -1.000
 4180.00    0.99871   1.02566   -1.000
 4181.00    0.99947   1.02283   -1.000
 4182.00    1.00191   1.01864   -1.000
 4183.00    1.00498   1.02463   -1.000
 4184.00    1.01343   1.03148   -1.000
 4185.00    1.01570   1.03099  133.897
 4186.00    0.99862   1.02087   -1.000
 4187.00    0.98340   1.01033   -1.000
 4188.00    0.98552   1.00919   -1.000
 4189.00    0.99500   1.01477   -1.000
 4190.00    1.00140   1.02039   -1.000
 4191.00    1.01086   1.02308  136.024
 4192.00    1.02191   1.02562  133.440
 4193.00    1.03074   1.03191  131.257
 4194.00    1.02683   1.03547  133.131
 4195.00    1.01060   1.02518  139.146
 4196.00    0.98880   1.00666   -1.000
 4197.00    0.96725   0.98796   -1.000
 4198.00    0.96072   0.97554  149.188
 4199.00    0.96269   0.97082  148.194
 4200.00    0.97116   0.97459  146.036
 4201.00    0.98371   0.97968  144.948
 4202.00    0.98718   0.98281  144.233
 4203.00    0.98432   0.99194  142.406
 4204.00    0.98722   1.00595   -1.000
 4205.00    0.99403   1.01830   -1.000
 4206.00    1.00788   1.02683   -1.000
 4207.00    1.02372   1.03421  132.646
 4208.00    1.02974   1.03844  131.330
 4209.00    1.02865   1.03896  131.492
 4210.00    1.02518   1.03905  131.521
 4211.00    1.02432   1.04207  130.801
 4212.00    1.02529   1.04828   -1.000
 4213.00    1.01970   1.04321   -1.000
 4214.00    0.99612   1.02523   -1.000
 4215.00    0.97319   1.00958   -1.000
 4216.00    0.97016   1.00377   -1.000
 4217.00    0.99650   1.01523   -1.000
 4218.00    1.02643   1.03286  127.813
 4219.00    1.04120   1.04683  123.569
 4220.00    1.05485   1.05419  121.534
 4221.00    1.05881   1.05447  121.820
 4222.00    1.03644   1.04346  125.493
 4223.00    1.00393   1.01811  133.080
 4224.00    0.97013   0.97349  144.955
 4225.00    0.91879   0.93026  162.666
 4226.00    0.87630   0.90427   -1.000
 4227.00    0.88213   0.91584   -1.000
 4228.00    0.93812   0.95828   -1.000
 4229.00    1.00094   1.01381  138.625
 4230.00    1.03830   1.04610  129.089
 4231.00    1.03840   1.05046  126.175
 4232.00    1.02157   1.04258   -1.000
 4233.00    1.01371   1.02876  131.033
 4234.00    1.01142   1.01582  133.094
 4235.00    1.00690   1.01463  135.550
 4236.00    0.99633   1.01721   -1.000
 4237.00    0.99330   1.02075   -1.000
 4238.00    1.00667   1.02896   -1.000
 4239.00    1.01649   1.03861   -1.000
 4240.00    1.02284   1.05225   -1.000
 4241.00    1.02831   1.06747   -1.000
 4242.00    1.03284   1.07773   -1.000
 4243.00    1.03965   1.08028   -1.000
 4244.00    1.04799   1.07555   -1.000
 4245.00    1.04738   1.06775   -1.000
 4246.00    1.02665   1.05081   -1.000
 4247.00    1.00109   1.03084   -1.000
 4248.00    0.98163   1.01517   -1.000
 4249.00    0.97616   1.00732   -1.000
 4250.00    0.98229   1.00904   -1.000
 4251.00    1.00033   1.02193   -1.000
 4252.00    1.02010   1.03382  133.159
 4253.00    1.02013   1.03762  132.334
 4254.00    1.00927   1.03567   -1.000
 4255.00    1.01020   1.03736   -1.000
 4256.00    1.02643   1.04839   -1.000
 4257.00    1.03449   1.05564   -1.000
 4258.00    1.02049   1.04598   -1.000
 4259.00    1.00235   1.02695   -1.000
 4260.00    0.98699   1.01660   -1.000
 4261.00    0.98749   1.02569   -1.000
 4262.00    1.01485   1.04788   -1.000
 4263.00    1.04663   1.07122   -1.000
 4264.00    1.06114   1.08407   -1.000
 4265.00    1.06579   1.08391  120.847
 4266.00    1.06299   1.07922  122.071
 4267.00    1.04495   1.07086   -1.000
 4268.00    1.02666   1.05557   -1.000
 4269.00    1.01544   1.03422  134.052
 4270.00    0.98771   1.00709   -1.000
 4271.00    0.95218   0.98613   -1.000
 4272.00    0.93958   0.97799   -1.000
 4273.00    0.94587   0.98344   -1.000
 4274.00    0.95441   0.99848   -1.000
 4275.00    0.97130   1.01838   -1.000
 4276.00    1.00523   1.04378   -1.000
 4277.00    1.03426   1.06878   -1.000
 4278.00    1.03802   1.07791   -1.000
 4279.00    1.01921   1.07118   -1.000
 4280.00    0.99935   1.05377   -1.000
 4281.00    0.99342   1.04169   -1.000
 4282.00    0.99600   1.04026   -1.000
 4283.00    1.00528   1.04272   -1.000
 4284.00    1.00921   1.04524   -1.000
 4285.00    0.99543   1.04147   -1.000
 4286.00    0.97532   1.03036   -1.000
 4287.00    0.96502   1.01127   -1.000
 4288.00    0.94901   0.98814   -1.000
 4289.00    0.92576   0.96636   -1.000
 4290.00    0.91761   0.96086   -1.000
 4291.00    0.93726   0.97377   -1.000
 4292.00    0.96218   0.99443   -1.000
 4293.00    0.97474   1.00615   -1.000
 4294.00    0.97659   1.00446   -1.000
 4295.00    0.97527   1.00067   -1.000
 4296.00    0.96854   0.99467   -1.000
 4297.00    0.93650   0.97507   -1.000
 4298.00    0.89495   0.94804   -1.000
 4299.00    0.86068   0.91814   -1.000
 4300.00    0.84321   0.89761   -1.000
 4301.00    0.84505   0.89211   -1.000
 4302.00    0.85710   0.89963   -1.000
 4303.00    0.87175   0.91134   -1.000
 4304.00    0.88649   0.92279   -1.000
 4305.00    0.89319   0.92331   -1.000
 4306.00    0.88070   0.91094   -1.000
 4307.00    0.85461   0.89535   -1.000
 4308.00    0.84028   0.88768   -1.000
 4309.00    0.84891   0.89558   -1.000
 4310.00    0.86444   0.91198   -1.000
 4311.00    0.88479   0.93065   -1.000
 4312.00    0.90490   0.94592   -1.000
 4313.00    0.92141   0.96084   -1.000
 4314.00    0.94992   0.98665   -1.000
 4315.00    0.99872   1.02063   -1.000
 4316.00    1.04790   1.06322  120.984
 4317.00    1.07613   1.09225  115.070
 4318.00    1.08444   1.10053  113.723
 4319.00    1.08044   1.09478  114.955
 4320.00    1.06806   1.08448  117.320
 4321.00    1.04696   1.06964   -1.000
 4322.00    1.01519   1.04644   -1.000
 4323.00    0.97567   1.01477   -1.000
 4324.00    0.93644   0.98115   -1.000
 4325.00    0.91875   0.96364   -1.000
 4326.00    0.93605   0.97733   -1.000
 4327.00    0.97652   1.00901   -1.000
 4328.00    1.01909   1.04112   -1.000
 4329.00    1.04276   1.05608  119.657
 4330.00    1.03994   1.05474  119.315
 4331.00    1.02644   1.05107   -1.000
 4332.00    1.02131   1.04954   -1.000
 4333.00    1.02249   1.04489   -1.000
 4334.00    1.01573   1.02938  115.400
 4335.00    0.99431   1.00017  116.615
 4336.00    0.95249   0.95474  122.188
 4337.00    0.88599   0.89131  132.774
 4338.00    0.80842   0.81061  145.471
 4339.00    0.74322   0.74594  158.052
 4340.00    0.71502   0.71718  165.173
 4341.00    0.73597   0.74404  158.206
 4342.00    0.80621   0.81460  143.561
 4343.00    0.88259   0.89654  132.837
 4344.00    0.92796   0.95220   -1.000
 4345.00    0.96308   0.98972   -1.000
 4346.00    0.99426   1.01699   -1.000
 4347.00    1.01539   1.03973   -1.000
 4348.00    1.02899   1.05476   -1.000
 4349.00    1.03038   1.05396   -1.000
 4350.00    1.00984   1.03483   -1.000
 4351.00    0.98320   1.01297   -1.000
 4352.00    0.97045   1.00417   -1.000
 4353.00    0.99062   1.01999   -1.000
 4354.00    1.02742   1.05056   -1.000
 4355.00    1.04993   1.07742   -1.000
 4356.00    1.06639   1.09074   -1.000
 4357.00    1.06730   1.09420   -1.000
 4358.00    1.05866   1.09308   -1.000
 4359.00    1.05001   1.09261   -1.000
 4360.00    1.06425   1.09926   -1.000
 4361.00    1.08531   1.11032   -1.000
 4362.00    1.09388   1.12175   -1.000
 4363.00    1.10417   1.12900   -1.000
 4364.00    1.10951   1.13190  113.277
 4365.00    1.10374   1.13016   -1.000
 4366.00    1.08961   1.12199   -1.000
 4367.00    1.07233   1.10880   -1.000
 4368.00    1.06684   1.09975   -1.000
 4369.00    1.07162   1.09590   -1.000
 4370.00    1.07196   1.09400   -1.000
 4371.00    1.07573   1.09069  119.831
 4372.00    1.07280   1.08017  120.586
 4373.00    1.05406   1.06440  124.228
 4374.00    1.03318   1.04556  129.341
 4375.00    1.02690   1.04027  131.200
 4376.00    1.04340   1.05599  127.531
 4377.00    1.07171   1.08580  121.375
 4378.00    1.08974   1.10787  117.824
 4379.00    1.09778   1.11234  117.638
 4380.00    1.09424   1.10029  119.314
 4381.00    1.06799   1.07274  123.736
 4382.00    1.01944   1.03099  134.649
 4383.00    0.96734   0.99692   -1.000
 4384.00    0.94832   0.98726   -1.000
 4385.00    0.97799   1.00524   -1.000
 4386.00    1.02090   1.03881   -1.000
 4387.00    1.05050   1.06382  126.281
 4388.00    1.06386   1.07490  125.068
 4389.00    1.06071   1.07799  126.079
 4390.00    1.05870   1.07965   -1.000
 4391.00    1.07096   1.08361  125.362
 4392.00    1.08007   1.08767  122.598
 4393.00    1.08041   1.08632  122.150
 4394.00    1.06603   1.07752  124.301
 4395.00    1.06156   1.07475  125.024
 4396.00    1.07608   1.08723  120.992
 4397.00    1.10025   1.10127  116.647
 4398.00    1.10934   1.10441  116.552
 4399.00    1.08634   1.09587  120.054
 4400.00    1.06402   1.08589   -1.000
 4401.00    1.06846   1.08170  124.336
 4402.00    1.08410   1.08031  122.229
 4403.00    1.07920   1.07589  124.172
 4404.00    1.05657   1.06549  130.610
 4405.00    1.04363   1.06033  134.106
 4406.00    1.04877   1.06705   -1.000
 4407.00    1.05339   1.07976   -1.000
 4408.00    1.05575   1.09068   -1.000
 4409.00    1.06570   1.10619   -1.000
 4410.00    1.09192   1.12793   -1.000
 4411.00    1.11768   1.14466   -1.000
 4412.00    1.12637   1.14478  111.723
 4413.00    1.11829   1.12909  113.256
 4414.00    1.09260   1.10430  118.675
 4415.00    1.06344   1.08062  124.005
 4416.00    1.05256   1.07551   -1.000
 4417.00    1.06415   1.08981   -1.000
 4418.00    1.08775   1.11769   -1.000
 4419.00    1.10933   1.14058   -1.000
 4420.00    1.11337   1.15163   -1.000
 4421.00    1.10570   1.14803   -1.000
 4422.00    1.08665   1.13932   -1.000
 4423.00    1.07262   1.13439   -1.000
 4424.00    1.07421   1.13198   -1.000
 4425.00    1.07011   1.12782   -1.000
 4426.00    1.05971   1.12475   -1.000
 4427.00    1.06245   1.12696   -1.000
 4428.00    1.07333   1.13572   -1.000
 4429.00    1.07445   1.14407   -1.000
 4430.00    1.07477   1.14869   -1.000
 4431.00    1.08390   1.14996   -1.000
 4432.00    1.08611   1.14665   -1.000
 4433.00    1.07649   1.13405   -1.000
 4434.00    1.05817   1.11627   -1.000
 4435.00    1.04472   1.10522   -1.000
 4436.00    1.06034   1.11674   -1.000
 4437.00    1.10217   1.14742   -1.000
 4438.00    1.13613   1.17584   -1.000
 4439.00    1.14124   1.18582   -1.000
 4440.00    1.12562   1.17034   -1.000
 4441.00    1.10238   1.14348   -1.000
 4442.00    1.07655   1.11787   -1.000
 4443.00    1.06052   1.11278   -1.000
 4444.00    1.07998   1.12770   -1.000
 4445.00    1.11080   1.15214   -1.000
 4446.00    1.12907   1.17039   -1.000
 4447.00    1.13991   1.17553   -1.000
 4448.00    1.14090   1.17674   -1.000
 4449.00    1.13841   1.17748   -1.000
 4450.00    1.13395   1.17741   -1.000
 4451.00    1.13282   1.17572   -1.000
 4452.00    1.13309   1.17013   -1.000
 4453.00    1.11884   1.15608   -1.000
 4454.00    1.09605   1.13432   -1.000
 4455.00    1.07670   1.11992   -1.000
 4456.00    1.08011   1.12186   -1.000
 4457.00    1.09303   1.13512   -1.000
 4458.00    1.09963   1.14302   -1.000
 4459.00    1.09915   1.14379   -1.000
 4460.00    1.09344   1.14239   -1.000
 4461.00    1.09415   1.14333   -1.000
 4462.00    1.10638   1.15154   -1.000
 4463.00    1.11955   1.16349   -1.000
 4464.00    1.13067   1.17289   -1.000
 4465.00    1.13488   1.17437   -1.000
 4466.00    1.13470   1.16733   -1.000
 4467.00    1.12966   1.15559   -1.000
 4468.00    1.11876   1.14671   -1.000
 4469.00    1.10987   1.14623   -1.000
 4470.00    1.11469   1.15750   -1.000
 4471.00    1.13555   1.17901   -1.000
 4472.00    1.16168   1.19919   -1.000
 4473.00    1.18435   1.21268   -1.000
 4474.00    1.18716   1.21549   -1.000
 4475.00    1.18884   1.21420   -1.000
 4476.00    1.19621   1.21365  105.521
 4477.00    1.20243   1.21602  104.762
 4478.00    1.20309   1.21330  105.155
 4479.00    1.18463   1.19504  108.023
 4480.00    1.15539   1.17076  112.705
 4481.00    1.13465   1.15522   -1.000
 4482.00    1.13283   1.15852   -1.000
 4483.00    1.15051   1.18097   -1.000
 4484.00    1.17926   1.20936   -1.000
 4485.00    1.19558   1.22890   -1.000
 4486.00    1.20459   1.23375   -1.000
 4487.00    1.20008   1.22601   -1.000
 4488.00    1.17636   1.21007   -1.000
 4489.00    1.15900   1.19783   -1.000
 4490.00    1.15990   1.19852   -1.000
 4491.00    1.17200   1.21070   -1.000
 4492.00    1.18203   1.21848   -1.000
 4493.00    1.18334   1.21196   -1.000
 4494.00    1.17130   1.20076   -1.000
 4495.00    1.15863   1.19561   -1.000
 4496.00    1.15862   1.19877   -1.000
 4497.00    1.17830   1.20625   -1.000
 4498.00    1.19838   1.21229  108.322
 4499.00    1.20176   1.21092  106.542
 4500.00    1.18786   1.20211  107.003
 4501.00    1.17654   1.19962   -1.000
 4502.00    1.18685   1.20996   -1.000
 4503.00    1.20969   1.23131   -1.000
 4504.00    1.23183   1.24845  100.399
 4505.00    1.23682   1.25438  100.232
 4506.00    1.23079   1.24982  101.854
 4507.00    1.22557   1.24253  103.291
 4508.00    1.22876   1.24044  103.680
 4509.00    1.23158   1.24220  103.177
 4510.00    1.22998   1.24547  102.408
 4511.00    1.22883   1.24412  102.704
 4512.00    1.21792   1.23834  104.362
 4513.00    1.20920   1.23307   -1.000
 4514.00    1.20484   1.22962   -1.000
 4515.00    1.20273   1.22875   -1.000
 4516.00    1.20386   1.22742   -1.000
 4517.00    1.19575   1.22448   -1.000
 4518.00    1.18992   1.21948   -1.000
 4519.00    1.19659   1.21714   -1.000
 4520.00    1.20404   1.22166  105.715
 4521.00    1.20469   1.22546   -1.000
 4522.00    1.19702   1.22187   -1.000
 4523.00    1.18784   1.21179   -1.000
 4524.00    1.18370   1.20434   -1.000
 4525.00    1.17401   1.19951   -1.000
 4526.00    1.15729   1.19099   -1.000
 4527.00    1.14333   1.17766   -1.000
 4528.00    1.13637   1.16460   -1.000
 4529.00    1.13631   1.16039   -1.000
 4530.00    1.14736   1.16497   -1.000
 4531.00    1.16149   1.17189  116.599
 4532.00    1.15947   1.17067  115.456
 4533.00    1.14641   1.15787  117.321
 4534.00    1.12733   1.14519   -1.000
 4535.00    1.12315   1.14790   -1.000
 4536.00    1.15189   1.16864  116.485
 4537.00    1.19430   1.20025  109.567
 4538.00    1.21626   1.22915  105.340
 4539.00    1.21927   1.24273   -1.000
 4540.00    1.21463   1.24211   -1.000
 4541.00    1.21012   1.23688   -1.000
 4542.00    1.21574   1.23438   -1.000
 4543.00    1.21278   1.23523   -1.000
 4544.00    1.19945   1.23335   -1.000
 4545.00    1.19122   1.22693   67.147
 4546.00    1.18649   1.22132   -1.000
 4547.00    1.20029   1.21405   67.591
 4548.00    1.08835   1.19947   -1.000
 4549.00    0.44951   1.18473   -1.000
 4550.00    0.00157   1.18383   -1.000
 4551.00    0.08562   1.19871   -1.000
 4552.00    0.64015   1.20939   -1.000
 4553.00    0.52879   1.20443   -1.000
 4554.00    0.70695   1.19285   -1.000
 4555.00    1.13859   1.18989   -1.000
 4556.00    1.19773   1.20327  110.281
 4557.00    1.21298   1.22757  105.926
 4558.00    1.23747   1.24945  103.170
 4559.00    1.24625   1.26073  102.912
 4560.00    1.24864   1.26601  103.142
 4561.00    1.24130   1.26432   -1.000
 4562.00    1.22894   1.25437   -1.000
 4563.00    1.21396   1.24033   -1.000
 4564.00    1.20059   1.23114   -1.000
 4565.00    1.20314   1.23337   -1.000
 4566.00    1.22513   1.24602   -1.000
 4567.00    1.24957   1.26007  104.224
 4568.00    1.25741   1.26820  102.540
 4569.00    1.24568   1.26351  102.901
 4570.00    1.22264   1.24835   -1.000
 4571.00    1.20172   1.23113   -1.000
 4572.00    1.19809   1.22520   -1.000
 4573.00    1.21587   1.23815   -1.000
 4574.00    1.23440   1.25610   -1.000
 4575.00    1.23994   1.26440   -1.000
 4576.00    1.24105   1.26188  103.581
 4577.00    1.23612   1.25632  104.146
 4578.00    1.22637   1.24846   -1.000
 4579.00    1.21447   1.23621   -1.000
 4580.00    1.20558   1.22239  110.833
 4581.00    1.20023   1.21516  111.471
 4582.00    1.20143   1.21556  110.304
 4583.00    1.19981   1.21871  109.182
 4584.00    1.19459   1.22136   -1.000
 4585.00    1.20186   1.22493   -1.000
 4586.00    1.21685   1.23012  108.995
 4587.00    1.22954   1.23782  106.577
 4588.00    1.23996   1.24696  104.081
 4589.00    1.24639   1.25255  103.165
 4590.00    1.23662   1.25416  104.095
 4591.00    1.21864   1.25171   -1.000
 4592.00    1.21292   1.24465   -1.000
 4593.00    1.21863   1.24129   -1.000
 4594.00    1.22398   1.24423   -1.000
 4595.00    1.22552   1.25037   -1.000
 4596.00    1.23396   1.25719   -1.000
 4597.00    1.24314   1.26174  106.404
 4598.00    1.24421   1.26114  106.171
 4599.00    1.23763   1.25738   -1.000
 4600.00    1.22587   1.25060   -1.000
 4601.00    1.21532   1.24390   -1.000
 4602.00    1.21484   1.24182   -1.000
 4603.00    1.22854   1.24424  106.360
 4604.00    1.24349   1.24933  106.016
 4605.00    1.24778   1.25394  106.006
 4606.00    1.24961   1.25734  105.208
 4607.00    1.25729   1.26345  103.451
 4608.00    1.26827   1.27251  101.275
 4609.00    1.27520   1.28327   99.710
 4610.00    1.27801   1.28637   99.564
 4611.00    1.27461   1.28162  100.624
 4612.00    1.26468   1.27569  101.869
 4613.00    1.25793   1.27256  102.701
 4614.00    1.26002   1.27306  102.625
 4615.00    1.25830   1.27547  101.834
 4616.00    1.26455   1.27668  101.227
 4617.00    1.26657   1.27629  101.507
 4618.00    1.25917   1.27539  102.261
 4619.00    1.25924   1.27551  102.490
 4620.00    1.26816   1.28047  101.821
 4621.00    1.27546   1.28848  100.420
 4622.00    1.28313   1.29321   99.779
 4623.00    1.28200   1.29264   99.963
 4624.00    1.27359   1.28744  100.186
 4625.00    1.27119   1.28188  100.833
 4626.00    1.27302   1.27810  101.357
 4627.00    1.27440   1.27806  101.400
 4628.00    1.26950   1.27908  101.781
 4629.00    1.26278   1.27955  102.185
 4630.00    1.26269   1.28154  101.937
 4631.00    1.26979   1.28607  100.990
 4632.00    1.26930   1.28914  100.808
 4633.00    1.26664   1.28800  101.936
 4634.00    1.26830   1.28372  103.229
 4635.00    1.26863   1.28111  103.592
 4636.00    1.26038   1.27946  104.047
 4637.00    1.25426   1.27603   -1.000
 4638.00    1.25432   1.27216  106.065
 4639.00    1.25954   1.27127  106.112
 4640.00    1.26789   1.27646  104.918
 4641.00    1.28111   1.28619  102.598
 4642.00    1.28901   1.29359  100.752
 4643.00    1.28770   1.29631  100.506
 4644.00    1.28407   1.29078  101.865
 4645.00    1.27014   1.28108  104.407
 4646.00    1.25094   1.26646  107.349
 4647.00    1.24779   1.25548  108.766
 4648.00    1.25341   1.25807  107.676
 4649.00    1.25773   1.27126  105.327
 4650.00    1.26432   1.28415   -1.000
 4651.00    1.27099   1.29063  102.856
 4652.00    1.26872   1.29102   -1.000
 4653.00    1.26002   1.28726   -1.000
 4654.00    1.25583   1.27990   -1.000
 4655.00    1.24814   1.27459   -1.000
 4656.00    1.24302   1.27517   -1.000
 4657.00    1.25979   1.28161   -1.000
 4658.00    1.28787   1.29782  100.588
 4659.00    1.30490   1.31843   97.709
 4660.00    1.31003   1.33182   96.849
 4661.00    1.30563   1.33041   -1.000
 4662.00    1.29172   1.32032   -1.000
 4663.00    1.28201   1.30922   -1.000
 4664.00    1.28082   1.29878  102.670
 4665.00    1.27322   1.28707  103.756
 4666.00    1.24730   1.27159   -1.000
 4667.00    1.22028   1.25180   -1.000
 4668.00    1.20908   1.24187   -1.000
 4669.00    1.22054   1.24916   -1.000
 4670.00    1.24642   1.26700   -1.000
 4671.00    1.26911   1.28479  103.580
 4672.00    1.28024   1.29434  102.170
 4673.00    1.28265   1.29455  102.040
 4674.00    1.28768   1.29640  102.020
 4675.00    1.29627   1.30212  101.148
 4676.00    1.30799   1.30831   99.669
 4677.00    1.30667   1.30821   99.397
 4678.00    1.29089   1.29837  100.972
 4679.00    1.27979   1.28702  103.093
 4680.00    1.27087   1.27665  104.920
 4681.00    1.26094   1.27013  106.205
 4682.00    1.25938   1.27177  105.756
 4683.00    1.27180   1.28040  103.532
 4684.00    1.29042   1.29029  101.663
 4685.00    1.29908   1.29499  101.397
 4686.00    1.29754   1.29567  101.596
 4687.00    1.29463   1.29459  101.961
 4688.00    1.29082   1.29397  102.203
 4689.00    1.29318   1.29496  102.196
 4690.00    1.29453   1.29454  102.655
 4691.00    1.28873   1.29185  103.091
 4692.00    1.29367   1.29196  102.400
 4693.00    1.30704   1.29577  100.954
 4694.00    1.31312   1.29992   98.976
 4695.00    1.31908   1.30362   97.333
 4696.00    1.32807   1.30615   97.175
 4697.00    1.32017   1.30190   99.121
 4698.00    1.30300   1.29082  102.136
 4699.00    1.29548   1.27961  104.065
 4700.00    1.29688   1.27343  103.961
 4701.00    1.29398   1.26820  104.065
 4702.00    1.27928   1.26208  105.545
 4703.00    1.26697   1.25787  106.634
 4704.00    1.27534   1.26260  105.554
 4705.00    1.29101   1.27259  103.761
 4706.00    1.28851   1.27741  104.066
 4707.00    1.27244   1.27284  105.993
 4708.00    1.26004   1.26451  107.463
 4709.00    1.26318   1.26307  107.485
 4710.00    1.27964   1.27168  105.259
 4711.00    1.29731   1.28411  102.225
 4712.00    1.30881   1.29149  100.533
 4713.00    1.30867   1.28969  100.782
 4714.00    1.29926   1.28404  102.379
 4715.00    1.29000   1.28304  103.156
 4716.00    1.29344   1.29063  101.836
 4717.00    1.30883   1.30314   99.803
 4718.00    1.31765   1.31284   98.687
 4719.00    1.32013   1.31906   98.270
 4720.00    1.32291   1.32261   97.934
 4721.00    1.31866   1.32263   98.316
 4722.00    1.31204   1.32038   99.102
 4723.00    1.31299   1.32041   99.012
 4724.00    1.31532   1.32499   98.092
 4725.00    1.31187   1.32745   97.760
 4726.00    1.30055   1.32436   99.299
 4727.00    1.28741   1.31324   -1.000
 4728.00    1.27662   1.29739  105.583
 4729.00    1.27790   1.28865  106.215
 4730.00    1.28535   1.28569  105.326
 4731.00    1.28871   1.28677  104.385
 4732.00    1.29130   1.29394  103.301
 4733.00    1.29609   1.30267  102.257
 4734.00    1.30652   1.30779  101.568
 4735.00    1.31085   1.30862  101.005
 4736.00    1.30520   1.30532  101.449
 4737.00    1.30584   1.30324  101.998
 4738.00    1.31323   1.30548  101.207
 4739.00    1.31719   1.31033  100.687
 4740.00    1.31265   1.31302  101.100
 4741.00    1.31241   1.31272  101.425
 4742.00    1.31775   1.31414  100.964
 4743.00    1.32429   1.31955   99.948
 4744.00    1.32463   1.32450   99.639
 4745.00    1.32590   1.32724   99.806
 4746.00    1.33068   1.32996   99.378
 4747.00    1.33257   1.33693   98.450
 4748.00    1.33263   1.34508   97.929
 4749.00    1.33320   1.34890   97.962
 4750.00    1.33282   1.35188   98.068
 4751.00    1.33355   1.35444   98.527
 4752.00    1.32780   1.35303   -1.000
 4753.00    1.31847   1.34717   -1.000
 4754.00    1.30889   1.34120   -1.000
 4755.00    1.30443   1.33928   -1.000
 4756.00    1.30900   1.34038   -1.000
 4757.00    1.31373   1.34295   -1.000
 4758.00    1.31039   1.34559   -1.000
 4759.00    1.30366   1.34601   -1.000
 4760.00    1.30472   1.34377   -1.000
 4761.00    1.30016   1.33724   -1.000
 4762.00    1.28100   1.32654   -1.000
 4763.00    1.26932   1.31591   -1.000
 4764.00    1.26912   1.30946   -1.000
 4765.00    1.27381   1.30898   -1.000
 4766.00    1.28532   1.31383   -1.000
 4767.00    1.29657   1.32244   -1.000
 4768.00    1.30866   1.33414   -1.000
 4769.00    1.31867   1.34686   -1.000
 4770.00    1.31598   1.35392   -1.000
 4771.00    1.30948   1.35266   -1.000
 4772.00    1.30994   1.34637   -1.000
 4773.00    1.31671   1.34476   -1.000
 4774.00    1.32554   1.35231   -1.000
 4775.00    1.33293   1.36067   -1.000
 4776.00    1.33576   1.36335   -1.000
 4777.00    1.33219   1.36251   -1.000
 4778.00    1.32486   1.36045   -1.000
 4779.00    1.31522   1.35625   -1.000
 4780.00    1.31428   1.35151   -1.000
 4781.00    1.31896   1.34953   -1.000
 4782.00    1.31682   1.34974   -1.000
 4783.00    1.31175   1.34659   -1.000
 4784.00    1.31124   1.34274   -1.000
 4785.00    1.31007   1.34078   -1.000
 4786.00    1.30502   1.33826   -1.000
 4787.00    1.30012   1.33567   -1.000
 4788.00    1.29985   1.33595   -1.000
 4789.00    1.30389   1.33833   -1.000
 4790.00    1.30880   1.34260   -1.000
 4791.00    1.31400   1.35164   -1.000
 4792.00    1.32860   1.36462   -1.000
 4793.00    1.34499   1.37683   -1.000
 4794.00    1.35444   1.38773   -1.000
 4795.00    1.35350   1.39304   -1.000
 4796.00    1.34814   1.39121   -1.000
 4797.00    1.33787   1.38396   -1.000
 4798.00    1.32517   1.37312   -1.000
 4799.00    1.31835   1.36590   -1.000
 4800.00    1.32381   1.36716   -1.000
 4801.00    1.33372   1.37708   -1.000
 4802.00    1.34515   1.38909   -1.000
 4803.00    1.34817   1.39419   -1.000
 4804.00    1.33842   1.38298   -1.000
 4805.00    1.32359   1.36959   -1.000
 4806.00    1.31723   1.36300   -1.000
 4807.00    1.32592   1.36240   -1.000
 4808.00    1.33435   1.36653   -1.000
 4809.00    1.33611   1.37328   -1.000
 4810.00    1.33758   1.37712   -1.000
 4811.00    1.34138   1.37883   -1.000
 4812.00    1.34070   1.38155   -1.000
 4813.00    1.34317   1.38577   -1.000
 4814.00    1.35116   1.39125   -1.000
 4815.00    1.35179   1.39534   -1.000
 4816.00    1.35108   1.39841   -1.000
 4817.00    1.35560   1.40134   -1.000
 4818.00    1.36329   1.40257   -1.000
 4819.00    1.36678   1.40162   -1.000
 4820.00    1.36335   1.40014   -1.000
 4821.00    1.36293   1.39587   -1.000
 4822.00    1.35492   1.38538   -1.000
 4823.00    1.33434   1.36991   -1.000
 4824.00    1.32619   1.35837   -1.000
 4825.00    1.33452   1.35877   -1.000
 4826.00    1.34774   1.36797   -1.000
 4827.00    1.35360   1.37532   -1.000
 4828.00    1.34873   1.37447   -1.000
 4829.00    1.34122   1.36967   -1.000
 4830.00    1.33465   1.36637   -1.000
 4831.00    1.32952   1.36493   -1.000
 4832.00    1.33150   1.36279   -1.000
 4833.00    1.34097   1.36389   -1.000
 4834.00    1.34750   1.36736   99.445
 4835.00    1.34854   1.37225   -1.000
 4836.00    1.35016   1.37407   -1.000
 4837.00    1.34945   1.37381   -1.000
 4838.00    1.33888   1.37221   -1.000
 4839.00    1.32609   1.36724   -1.000
 4840.00    1.32328   1.36247   -1.000
 4841.00    1.32833   1.36151   -1.000
 4842.00    1.32471   1.36035   -1.000
 4843.00    1.32673   1.35673   -1.000
 4844.00    1.33395   1.35485   -1.000
 4845.00    1.34213   1.35724   98.983
 4846.00    1.34737   1.36256   98.038
 4847.00    1.33896   1.36176   -1.000
 4848.00    1.32074   1.35308   -1.000
 4849.00    1.31432   1.34537   -1.000
 4850.00    1.31692   1.34234   -1.000
 4851.00    1.31209   1.33944   -1.000
 4852.00    1.30246   1.33509   -1.000
 4853.00    1.29196   1.32573   -1.000
 4854.00    1.27312   1.30674   -1.000
 4855.00    1.24480   1.28018   -1.000
 4856.00    1.22738   1.25925   -1.000
 4857.00    1.21817   1.24438   -1.000
 4858.00    1.18226   1.21415   -1.000
 4859.00    1.09904   1.14405   -1.000
 4860.00    0.99486   1.02798   -1.000
 4861.00    0.93011   0.93529  136.169
 4862.00    0.95313   0.92612  133.497
 4863.00    1.04329   1.01142  122.767
 4864.00    1.13062   1.12134  114.000
 4865.00    1.18417   1.20018   -1.000
 4866.00    1.21721   1.24370   -1.000
 4867.00    1.24474   1.27150   -1.000
 4868.00    1.26616   1.29391   -1.000
 4869.00    1.26585   1.30540   -1.000
 4870.00    1.24939   1.29849   -1.000
 4871.00    1.23481   1.27991   -1.000
 4872.00    1.23744   1.26989   -1.000
 4873.00    1.26399   1.28261   -1.000
 4874.00    1.28303   1.30954   -1.000
 4875.00    1.28560   1.33153   -1.000
 4876.00    1.29000   1.34119   -1.000
 4877.00    1.29726   1.34380   -1.000
 4878.00    1.29833   1.34849   -1.000
 4879.00    1.30525   1.36005   -1.000
 4880.00    1.31567   1.37484   -1.000
 4881.00    1.31249   1.38062   -1.000
 4882.00    1.30715   1.37324   -1.000
 4883.00    1.30793   1.36756   -1.000
 4884.00    1.31145   1.36600   -1.000
 4885.00    1.31207   1.36484   -1.000
 4886.00    1.30830   1.36335   -1.000
 4887.00    1.30984   1.36333   -1.000
 4888.00    1.31258   1.36254   -1.000
 4889.00    1.30325   1.35480   -1.000
 4890.00    1.29047   1.34061   -1.000
 4891.00    1.28811   1.32756   -1.000
 4892.00    1.30958   1.33551   -1.000
 4893.00    1.34716   1.36539   -1.000
 4894.00    1.37788   1.39781   97.175
 4895.00    1.39422   1.42301   -1.000
 4896.00    1.40129   1.43552   -1.000
 4897.00    1.40034   1.44021   -1.000
 4898.00    1.38797   1.43843   -1.000
 4899.00    1.37446   1.42964   -1.000
 4900.00    1.36653   1.41744   -1.000
 4901.00    1.36348   1.41035   -1.000
 4902.00    1.36463   1.40738   -1.000
 4903.00    1.36442   1.40282   -1.000
 4904.00    1.36635   1.40115   -1.000
 4905.00    1.38004   1.41169   -1.000
 4906.00    1.39300   1.42831   -1.000
 4907.00    1.39337   1.43374   -1.000
 4908.00    1.38167   1.42630   -1.000
 4909.00    1.36220   1.41434   -1.000
 4910.00    1.35235   1.40194   -1.000
 4911.00    1.35515   1.39574   -1.000
 4912.00    1.36726   1.39970   -1.000
 4913.00    1.38498   1.40965   -1.000
 4914.00    1.39261   1.41997   -1.000
 4915.00    1.39980   1.42831   -1.000
 4916.00    1.40224   1.42904   -1.000
 4917.00    1.37915   1.41568   -1.000
 4918.00    1.34370   1.38339   -1.000
 4919.00    1.30696   1.34388   -1.000
 4920.00    1.28513   1.31467   -1.000
 4921.00    1.29626   1.31111  110.724
 4922.00    1.32206   1.33147  106.791
 4923.00    1.33388   1.35236  104.238
 4924.00    1.33719   1.36253   -1.000
 4925.00    1.35052   1.37068  102.779
 4926.00    1.37327   1.38890  100.635
 4927.00    1.39443   1.41161   98.462
 4928.00    1.40888   1.42953   97.200
 4929.00    1.41884   1.44259   96.442
 4930.00    1.42450   1.44879   95.831
 4931.00    1.41967   1.44491   -1.000
 4932.00    1.39677   1.42812   -1.000
 4933.00    1.36798   1.40169   -1.000
 4934.00    1.35730   1.38133   -1.000
 4935.00    1.36577   1.38231  101.998
 4936.00    1.37378   1.39215  101.147
 4937.00    1.36301   1.39012   -1.000
 4938.00    1.34564   1.37368   -1.000
 4939.00    1.33674   1.36168   -1.000
 4940.00    1.35156   1.36980  103.970
 4941.00    1.38327   1.39532  100.499
 4942.00    1.40679   1.42414   98.069
 4943.00    1.42078   1.44223   96.805
 4944.00    1.42121   1.44848   -1.000
 4945.00    1.41271   1.44589   -1.000
 4946.00    1.41217   1.44152   -1.000
 4947.00    1.41576   1.44196   -1.000
 4948.00    1.42206   1.44896   -1.000
 4949.00    1.42907   1.45708   -1.000
 4950.00    1.43204   1.46044   -1.000
 4951.00    1.42868   1.46021   -1.000
 4952.00    1.42322   1.45773   -1.000
 4953.00    1.42261   1.45321   -1.000
 4954.00    1.41365   1.44595   -1.000
 4955.00    1.38825   1.42661   -1.000
 4956.00    1.34996   1.38960   -1.000
 4957.00    1.31262   1.34522   -1.000
 4958.00    1.31178   1.32622  109.137
 4959.00    1.35299   1.35141  104.447
 4960.00    1.39603   1.39483   99.784
 4961.00    1.40996   1.42760   97.911
 4962.00    1.40829   1.44031   -1.000
 4963.00    1.40477   1.44151   -1.000
 4964.00    1.38928   1.43528   -1.000
 4965.00    1.37517   1.42237   -1.000
 4966.00    1.37587   1.40858   -1.000
 4967.00    1.37833   1.40278   -1.000
 4968.00    1.37938   1.40381   -1.000
 4969.00    1.38710   1.40892   -1.000
 4970.00    1.39384   1.41862   -1.000
 4971.00    1.39832   1.42983   -1.000
 4972.00    1.40494   1.43847   -1.000
 4973.00    1.41272   1.44416   -1.000
 4974.00    1.42092   1.44594   -1.000
 4975.00    1.42611   1.44481   98.136
 4976.00    1.42121   1.44181   99.037
 4977.00    1.41230   1.43492  100.260
 4978.00    1.40175   1.42634   -1.000
 4979.00    1.38307   1.42073   -1.000
 4980.00    1.36656   1.41060   -1.000
 4981.00    1.34665   1.39001   -1.000
 4982.00    1.32100   1.36428   -1.000
 4983.00    1.31117   1.34540   -1.000
 4984.00    1.32200   1.34592   -1.000
 4985.00    1.34130   1.36268   -1.000
 4986.00    1.36827   1.38465  105.020
 4987.00    1.39554   1.40847  102.097
 4988.00    1.40302   1.42623   -1.000
 4989.00    1.39274   1.42640   -1.000
 4990.00    1.38027   1.41446   -1.000
 4991.00    1.38011   1.40362   -1.000
 4992.00    1.38676   1.40315  103.212
 4993.00    1.39085   1.41015  102.552
 4994.00    1.39248   1.41718   -1.000
 4995.00    1.39788   1.42502   -1.000
 4996.00    1.40300   1.43258   -1.000
 4997.00    1.40467   1.43368   -1.000
 4998.00    1.39466   1.42237   -1.000
 4999.00    1.37836   1.40086   -1.000
 5000.00    1.36824   1.37962  106.154
 5001.00    1.36189   1.37478  106.761
 5002.00    1.36363   1.38233  106.197
 5003.00    1.36857   1.39149   -1.000
 5004.00    1.36434   1.39147   -1.000
 5005.00    1.35106   1.37608   -1.000
 5006.00    1.34218   1.35590  109.693
 5007.00    1.35051   1.35147  108.382
 5008.00    1.37400   1.37067  105.302
 5009.00    1.39552   1.39307  103.268
 5010.00    1.39494   1.40216  103.580
 5011.00    1.37302   1.39451   -1.000
 5012.00    1.34440   1.37503   -1.000
 5013.00    1.32106   1.35523   -1.000
 5014.00    1.31601   1.34487   -1.000
 5015.00    1.33241   1.35044  111.974
 5016.00    1.35122   1.36227  109.541
 5017.00    1.35575   1.36773  108.289
 5018.00    1.35269   1.36430  108.130
 5019.00    1.36051   1.36600  107.445
 5020.00    1.37981   1.38043  106.398
 5021.00    1.38950   1.39199  106.292
 5022.00    1.38512   1.39541  106.650
 5023.00    1.38002   1.39857  106.402
 5024.00    1.38979   1.40936  105.484
 5025.00    1.39866   1.42200   -1.000
 5026.00    1.39841   1.42689   -1.000
 5027.00    1.39491   1.42168   -1.000
 5028.00    1.39111   1.41734   -1.000
 5029.00    1.39997   1.42056  103.202
 5030.00    1.41752   1.42829  101.510
 5031.00    1.42550   1.43788   99.952
 5032.00    1.43459   1.44826   98.593
 5033.00    1.44130   1.45395   98.197
 5034.00    1.42214   1.44711   -1.000
 5035.00    1.39028   1.42933   -1.000
 5036.00    1.37092   1.41165   -1.000
 5037.00    1.36651   1.40641   -1.000
 5038.00    1.36323   1.40462   -1.000
 5039.00    1.34413   1.38879   -1.000
 5040.00    1.31496   1.35938   -1.000
 5041.00    1.30368   1.33602   -1.000
 5042.00    1.32339   1.34293  114.645
 5043.00    1.36507   1.37566  108.113
 5044.00    1.40352   1.41426  102.710
 5045.00    1.43007   1.44645   99.711
 5046.00    1.44849   1.46499   96.642
 5047.00    1.44731   1.46710   96.649
 5048.00    1.41988   1.45197   41.104
 5049.00    1.43011   1.42631   52.213
 5050.00    1.09830   1.40374   -1.000
 5051.00    0.42453   1.39444   -1.000
 5052.00    0.03016   1.40191   -1.000
 5053.00    0.29152   1.42113   -1.000
 5054.00    1.03797   1.44446   -1.000
 5055.00    1.45084   1.46053   98.536
 5056.00    1.46470   1.46796   97.963
 5057.00    1.46423   1.47082   97.938
 5058.00    1.45977   1.47236   98.127
 5059.00    1.45653   1.47482   98.184
 5060.00    1.45849   1.47791   97.782
 5061.00    1.46223   1.48125   97.513
 5062.00    1.45958   1.48058   98.292
 5063.00    1.44226   1.46899   -1.000
 5064.00    1.41938   1.44755   -1.000
 5065.00    1.40470   1.42771  106.150
 5066.00    1.40406   1.42204  105.899
 5067.00    1.41257   1.42644  104.387
 5068.00    1.42312   1.43011  103.507
 5069.00    1.43058   1.43330  103.108
 5070.00    1.43889   1.43864  102.505
 5071.00    1.43797   1.44207  102.676
 5072.00    1.43092   1.43906  103.527
 5073.00    1.43220   1.43473  103.152
 5074.00    1.43701   1.43440  102.106
 5075.00    1.43937   1.43559  101.692
 5076.00    1.44244   1.43595  101.599
 5077.00    1.43800   1.43187  102.123
 5078.00    1.41128   1.41763  104.579
 5079.00    1.37752   1.39528  109.038
 5080.00    1.36623   1.38089  112.054
 5081.00    1.38208   1.38378  111.183
 5082.00    1.39592   1.39355  108.756
 5083.00    1.40221   1.40149  106.924
 5084.00    1.42123   1.41278  105.167
 5085.00    1.44295   1.43017  103.272
 5086.00    1.44929   1.44544  102.092
 5087.00    1.45207   1.45255  101.715
 5088.00    1.46078   1.45416  101.374
 5089.00    1.46625   1.45641  100.728
 5090.00    1.46658   1.46076  100.094
 5091.00    1.46954   1.46483   99.564
 5092.00    1.47502   1.47081   98.686
 5093.00    1.48146   1.47827   97.677
 5094.00    1.48555   1.48197   97.804
 5095.00    1.47719   1.47767   99.382
 5096.00    1.45797   1.46340  101.526
 5097.00    1.45752   1.44596  103.873
 5098.00    1.45966   1.42931  106.209
 5099.00    1.42922   1.41932  107.363
 5100.00    1.42116   1.42610  105.961
 5101.00    1.44825   1.44360  103.029
 5102.00    1.46701   1.45803  101.215
 5103.00    1.46963   1.46267  101.207
 5104.00    1.46008   1.46025  102.250
 5105.00    1.44678   1.45382  103.585
 5106.00    1.42876   1.44085  104.871
 5107.00    1.41652   1.42253  106.173
 5108.00    1.40871   1.41213  106.661
 5109.00    1.40463   1.41182  106.171
 5110.00    1.41759   1.41779  105.434
 5111.00    1.43609   1.43003  104.241
 5112.00    1.45314   1.44772  102.851
 5113.00    1.46745   1.46261  101.600
 5114.00    1.47437   1.47224  100.544
 5115.00    1.48251   1.47866   99.853
 5116.00    1.49390   1.48472   99.029
 5117.00    1.50074   1.49091   98.094
 5118.00    1.50248   1.49440   97.907
 5119.00    1.50104   1.49217   98.780
 5120.00    1.48806   1.48393  100.207
 5121.00    1.46530   1.47130  101.804
 5122.00    1.44309   1.45488  104.019
 5123.00    1.41899   1.43666  106.984
 5124.00    1.40485   1.42396  108.824
 5125.00    1.41183   1.42148  108.546
 5126.00    1.41945   1.42516  107.791
 5127.00    1.42243   1.42707  107.208
 5128.00    1.42471   1.42616  107.014
 5129.00    1.42825   1.42634  107.045
 5130.00    1.43254   1.43104  106.202
 5131.00    1.44026   1.44215  104.542
 5132.00    1.44907   1.45416  103.279
 5133.00    1.45621   1.46253  102.377
 5134.00    1.46884   1.46760  101.439
 5135.00    1.47650   1.47008  100.905
 5136.00    1.46662   1.46745  101.828
 5137.00    1.44333   1.45594  104.078
 5138.00    1.41967   1.43716  106.140
 5139.00    1.41307   1.42378  106.938
 5140.00    1.41988   1.42347  106.420
 5141.00    1.42165   1.43101  106.425
 5142.00    1.42013   1.43458  107.793
 5143.00    1.42091   1.43550  108.221
 5144.00    1.42945   1.44274  106.852
 5145.00    1.44110   1.45218  105.835
 5146.00    1.43889   1.45309  106.269
 5147.00    1.43509   1.44901  106.882
 5148.00    1.44138   1.44818  106.229
 5149.00    1.44667   1.44850  105.288
 5150.00    1.43778   1.44307  105.783
 5151.00    1.42127   1.43143  107.492
 5152.00    1.41218   1.42250  108.766
 5153.00    1.41878   1.42422  108.733
 5154.00    1.43590   1.43051  107.279
 5155.00    1.45665   1.44241  104.805
 5156.00    1.47870   1.46157  102.124
 5157.00    1.49238   1.48168   99.917
 5158.00    1.49692   1.49373   98.705
 5159.00    1.50144   1.49851   98.406
 5160.00    1.49942   1.49833   98.602
 5161.00    1.49570   1.49336   99.074
 5162.00    1.49248   1.48434   99.959
 5163.00    1.48233   1.47396  101.341
 5164.00    1.46138   1.45649  104.207
 5165.00    1.41279   1.41760  110.793
 5166.00    1.33132   1.34987  121.434
 5167.00    1.26021   1.27662  131.742
 5168.00    1.24684   1.24526  133.909
 5169.00    1.28693   1.26495  128.026
 5170.00    1.31779   1.30106  123.748
 5171.00    1.29555   1.30187  127.536
 5172.00    1.25648   1.26921  136.317
 5173.00    1.25812   1.25981  137.050
 5174.00    1.32234   1.30329  125.586
 5175.00    1.40486   1.37588  113.677
 5176.00    1.45470   1.43114  107.297
 5177.00    1.47468   1.45485  104.972
 5178.00    1.48186   1.46328  104.393
 5179.00    1.47924   1.46337  104.906
 5180.00    1.46129   1.45203  107.448
 5181.00    1.41583   1.41809  113.498
 5182.00    1.33901   1.35458  124.554
 5183.00    1.26996   1.28879   -1.000
 5184.00    1.26398   1.26390  137.391
 5185.00    1.32627   1.30701  125.252
 5186.00    1.40394   1.38026  112.921
 5187.00    1.44819   1.42834  106.790
 5188.00    1.46168   1.44667  104.945
 5189.00    1.46201   1.44908  104.354
 5190.00    1.45117   1.44530  104.809
 5191.00    1.42879   1.43012  107.217
 5192.00    1.40853   1.40887  110.447
 5193.00    1.40469   1.39887  111.278
 5194.00    1.41679   1.40813  109.718
 5195.00    1.43348   1.42261  107.956
 5196.00    1.45315   1.43594  106.379
 5197.00    1.47102   1.45027  104.488
 5198.00    1.48000   1.46424  102.555
 5199.00    1.48603   1.47554  101.334
 5200.00    1.49337   1.48223  100.941
 5201.00    1.48856   1.48149  101.377
 5202.00    1.47387   1.46985  102.797
 5203.00    1.45365   1.44789  104.968
 5204.00    1.42591   1.41696  107.894
 5205.00    1.40419   1.38674  111.281
 5206.00    1.39928   1.37155  112.997
 5207.00    1.39879   1.36954  113.431
 5208.00    1.40312   1.37051   -1.000
 5209.00    1.41090   1.37299   -1.000
 5210.00    1.43453   1.39218   -1.000
 5211.00    1.47072   1.43011   -1.000
 5212.00    1.50326   1.46772   -1.000
 5213.00    1.52337   1.49120   99.239
 5214.00    1.51883   1.49201   99.012
 5215.00    1.49857   1.47617  100.903
 5216.00    1.48119   1.46043  102.678
 5217.00    1.48462   1.46038  102.699
 5218.00    1.50148   1.47879  101.004
 5219.00    1.52055   1.50148   99.154
 5220.00    1.53879   1.51826   98.091
 5221.00    1.54473   1.52612   97.561
 5222.00    1.54181   1.52610   98.112
 5223.00    1.52520   1.51451  100.401
 5224.00    1.48643   1.48769  104.129
 5225.00    1.43844   1.44598  108.796
 5226.00    1.40100   1.40220  112.754
 5227.00    1.40372   1.38204  112.662
 5228.00    1.44604   1.40436   -1.000
 5229.00    1.49300   1.45054   -1.000
 5230.00    1.52047   1.48755   99.865
 5231.00    1.52033   1.49598   99.071
 5232.00    1.50432   1.48247  100.177
 5233.00    1.49105   1.46275  102.140
 5234.00    1.48988   1.45639  102.793
 5235.00    1.50311   1.47287  101.286
 5236.00    1.52273   1.49933   98.845
 5237.00    1.54422   1.52230   97.193
 5238.00    1.55607   1.53278   96.706
 5239.00    1.55642   1.53315   96.871
 5240.00    1.55686   1.53062   96.918
 5241.00    1.54954   1.52792   96.502
 5242.00    1.54760   1.52637   96.326
 5243.00    1.55588   1.52753   96.301
 5244.00    1.56102   1.53114   96.116
 5245.00    1.55134   1.53077   97.136
 5246.00    1.52151   1.51811   99.774
 5247.00    1.49798   1.49768  102.490
 5248.00    1.49474   1.48395  103.647
 5249.00    1.49270   1.48100  103.805
 5250.00    1.48941   1.47924  104.268
 5251.00    1.49737   1.47930  104.293
 5252.00    1.50589   1.48633  103.217
 5253.00    1.50972   1.49427  101.989
 5254.00    1.51334   1.49761  101.574
 5255.00    1.52358   1.49980  101.198
 5256.00    1.54095   1.50871   99.507
 5257.00    1.56286   1.52713   -1.000
 5258.00    1.57910   1.54311   -1.000
 5259.00    1.57579   1.54667   95.483
 5260.00    1.55302   1.53510   97.399
 5261.00    1.51670   1.50877  100.946
 5262.00    1.47635   1.47461  105.577
 5263.00    1.44626   1.44208  109.861
 5264.00    1.42528   1.41622  112.757
 5265.00    1.41338   1.40256  113.896
 5266.00    1.42362   1.40202  112.837
 5267.00    1.43744   1.40888  110.776
 5268.00    1.42777   1.40352  111.259
 5269.00    1.40281   1.37391  114.988
 5270.00    1.39894   1.35276   -1.000
 5271.00    1.43677   1.37298   -1.000
 5272.00    1.48278   1.42555   -1.000
 5273.00    1.50454   1.46969   -1.000
 5274.00    1.51160   1.48388  102.401
 5275.00    1.51860   1.48675  102.319
 5276.00    1.53338   1.49387   -1.000
 5277.00    1.55736   1.51267   -1.000
 5278.00    1.58247   1.53607   -1.000
 5279.00    1.58849   1.54711   -1.000
 5280.00    1.56748   1.53861   96.894
 5281.00    1.54233   1.51763   99.395
 5282.00    1.52452   1.49595  101.557
 5283.00    1.51437   1.48198  102.625
 5284.00    1.52287   1.48722   -1.000
 5285.00    1.55449   1.51156   -1.000
 5286.00    1.59017   1.54362   -1.000
 5287.00    1.60190   1.56548   -1.000
 5288.00    1.59448   1.57223   94.091
 5289.00    1.58367   1.57306   94.338
 5290.00    1.58883   1.57256   93.999
 5291.00    1.60108   1.57069   93.629
 5292.00    1.59736   1.56856   93.865
 5293.00    1.59165   1.56706   94.632
 5294.00    1.58579   1.56397   95.743
 5295.00    1.56868   1.55338   97.770
 5296.00    1.53249   1.53053  101.093
 5297.00    1.49815   1.50240  104.369
 5298.00    1.49865   1.48649  105.174
 5299.00    1.51702   1.49097  103.257
 5300.00    1.53341   1.50821  100.972
 5301.00    1.54550   1.52174   99.816
 5302.00    1.55276   1.53115   98.883
 5303.00    1.57046   1.54404   96.814
 5304.00    1.59806   1.56055   -1.000
 5305.00    1.60956   1.57266   -1.000
 5306.00    1.60161   1.57327   94.218
 5307.00    1.59266   1.56699   95.120
 5308.00    1.59498   1.56413   95.123
 5309.00    1.60492   1.56849   -1.000
 5310.00    1.60934   1.57625   93.457
 5311.00    1.61183   1.57964   93.262
 5312.00    1.61502   1.57800   -1.000
 5313.00    1.61364   1.57449   -1.000
 5314.00    1.60548   1.56764   -1.000
 5315.00    1.59065   1.55710   95.491
 5316.00    1.57934   1.54591   96.391
 5317.00    1.57656   1.54078   -1.000
 5318.00    1.58245   1.54652   -1.000
 5319.00    1.58911   1.55618   95.789
 5320.00    1.58926   1.56309   95.821
 5321.00    1.58784   1.56221   96.381
 5322.00    1.57800   1.55159   97.327
 5323.00    1.55876   1.53303   98.805
 5324.00    1.54868   1.51653  100.101
 5325.00    1.54906   1.50895   -1.000
 5326.00    1.52665   1.49382  101.940
 5327.00    1.47639   1.45644  106.933
 5328.00    1.44096   1.41519  112.059
 5329.00    1.45454   1.40888   -1.000
 5330.00    1.50585   1.45308   -1.000
 5331.00    1.55061   1.50673   -1.000
 5332.00    1.56951   1.53459   -1.000
 5333.00    1.57672   1.54485   97.552
 5334.00    1.58947   1.55194   -1.000
 5335.00    1.59622   1.55750   -1.000
 5336.00    1.58952   1.55940   95.961
 5337.00    1.58480   1.55600   96.617
 5338.00    1.57864   1.54718   97.484
 5339.00    1.56157   1.53066   99.350
 5340.00    1.53995   1.51050  101.491
 5341.00    1.53897   1.50136   -1.000
 5342.00    1.56317   1.51530   -1.000
 5343.00    1.58655   1.53749   -1.000
 5344.00    1.59447   1.54924   -1.000
 5345.00    1.58881   1.54870   -1.000
 5346.00    1.57994   1.54157   -1.000
 5347.00    1.57389   1.53421   -1.000
 5348.00    1.56953   1.52868   -1.000
 5349.00    1.56537   1.52491   -1.000
 5350.00    1.57201   1.53105   -1.000
 5351.00    1.59553   1.54779   -1.000
 5352.00    1.61312   1.56440   -1.000
 5353.00    1.61595   1.57570   -1.000
 5354.00    1.62094   1.58184   -1.000
 5355.00    1.63141   1.58959   -1.000
 5356.00    1.63700   1.59784   -1.000
 5357.00    1.63744   1.60253   -1.000
 5358.00    1.63989   1.60355   -1.000
 5359.00    1.63815   1.60141   -1.000
 5360.00    1.62824   1.59562   92.905
 5361.00    1.61440   1.58726   94.289
 5362.00    1.59956   1.57712   95.778
 5363.00    1.58746   1.56712   96.764
 5364.00    1.57972   1.55696   97.350
 5365.00    1.57088   1.54976   97.924
 5366.00    1.56563   1.54884   98.013
 5367.00    1.57115   1.55085   97.845
 5368.00    1.57527   1.54752   98.415
 5369.00    1.55973   1.52971  100.267
 5370.00    1.53472   1.49969   -1.000
 5371.00    1.52723   1.47533   -1.000
 5372.00    1.54495   1.47877   -1.000
 5373.00    1.57991   1.51372   -1.000
 5374.00    1.61338   1.55397   -1.000
 5375.00    1.63040   1.58029   -1.000
 5376.00    1.63768   1.58692   -1.000
 5377.00    1.63805   1.58707   -1.000
 5378.00    1.63047   1.59001   -1.000
 5379.00    1.62244   1.59172   93.997
 5380.00    1.61374   1.58801   94.774
 5381.00    1.60692   1.57903   95.726
 5382.00    1.60248   1.56919   -1.000
 5383.00    1.59969   1.56413   -1.000
 5384.00    1.60487   1.56466   -1.000
 5385.00    1.61816   1.57264   -1.000
 5386.00    1.63051   1.58442   -1.000
 5387.00    1.63289   1.59141   -1.000
 5388.00    1.62555   1.58915   -1.000
 5389.00    1.61562   1.57898   -1.000
 5390.00    1.60391   1.56571   -1.000
 5391.00    1.59111   1.55556   -1.000
 5392.00    1.58602   1.54932   -1.000
 5393.00    1.58725   1.54546   -1.000
 5394.00    1.58430   1.54234   -1.000
 5395.00    1.57200   1.53457   -1.000
 5396.00    1.55122   1.51624   -1.000
 5397.00    1.53855   1.49756   -1.000
 5398.00    1.55344   1.50144   -1.000
 5399.00    1.58347   1.52634   -1.000
 5400.00    1.60263   1.55215   -1.000
 5401.00    1.60543   1.56598   -1.000
 5402.00    1.59463   1.56562   97.813
 5403.00    1.57398   1.54896   99.841
 5404.00    1.54658   1.51693  103.103
 5405.00    1.52488   1.48566   -1.000
 5406.00    1.53098   1.47621   -1.000
 5407.00    1.55511   1.49536   -1.000
 5408.00    1.56767   1.51743   -1.000
 5409.00    1.56492   1.52398   -1.000
 5410.00    1.56547   1.52117   -1.000
 5411.00    1.58493   1.53001   -1.000
 5412.00    1.61153   1.55293   -1.000
 5413.00    1.62095   1.57066   -1.000
 5414.00    1.61416   1.57491   -1.000
 5415.00    1.61155   1.57423   -1.000
 5416.00    1.61912   1.57826   -1.000
 5417.00    1.62525   1.58716   -1.000
 5418.00    1.62397   1.59292   95.090
 5419.00    1.62110   1.59279   95.837
 5420.00    1.61872   1.59076   96.599
 5421.00    1.62135   1.58763   -1.000
 5422.00    1.61857   1.58316   -1.000
 5423.00    1.60424   1.57656   96.774
 5424.00    1.59361   1.56870   97.945
 5425.00    1.59718   1.57011   97.715
 5426.00    1.61611   1.58341   96.242
 5427.00    1.62364   1.59304   95.680
 5428.00    1.60198   1.58131   97.381
 5429.00    1.57583   1.55194  100.426
 5430.00    1.57051   1.53384   -1.000
 5431.00    1.58505   1.53920   -1.000
 5432.00    1.59518   1.54992   -1.000
 5433.00    1.58497   1.54684   -1.000
 5434.00    1.56865   1.53004   -1.000
 5435.00    1.56536   1.52329   -1.000
 5436.00    1.58351   1.53848   -1.000
 5437.00    1.61269   1.56508   -1.000
 5438.00    1.63625   1.59067   -1.000
 5439.00    1.64907   1.60669   -1.000
 5440.00    1.65504   1.61637   -1.000
 5441.00    1.65832   1.62225   -1.000
 5442.00    1.65713   1.62529   93.119
 5443.00    1.64940   1.62219   93.675
 5444.00    1.62695   1.60529   95.557
 5445.00    1.58985   1.57135   98.958
 5446.00    1.55268   1.53187  102.664
 5447.00    1.54115   1.51052  103.674
 5448.00    1.56440   1.52123   -1.000
 5449.00    1.60083   1.55100   -1.000
 5450.00    1.62401   1.57853   -1.000
 5451.00    1.62592   1.59028   -1.000
 5452.00    1.61825   1.58797   96.635
 5453.00    1.60393   1.57385   98.296
 5454.00    1.57833   1.54803  100.961
 5455.00    1.55571   1.51968   -1.000
 5456.00    1.56015   1.51295   -1.000
 5457.00    1.59001   1.53593   -1.000
 5458.00    1.62081   1.57259   -1.000
 5459.00    1.63489   1.59629   -1.000
 5460.00    1.63095   1.60055   96.625
 5461.00    1.61948   1.59216   98.219
 5462.00    1.60734   1.57793   99.807
 5463.00    1.59994   1.56716  100.680
 5464.00    1.60363   1.56739   -1.000
 5465.00    1.61601   1.57689   -1.000
 5466.00    1.62839   1.58758   -1.000
 5467.00    1.63561   1.59503   -1.000
 5468.00    1.64353   1.59890   -1.000
 5469.00    1.64571   1.60063   -1.000
 5470.00    1.64245   1.59967   -1.000
 5471.00    1.64079   1.59437   -1.000
 5472.00    1.63067   1.58851   -1.000
 5473.00    1.61897   1.58280   -1.000
 5474.00    1.60677   1.57318  101.134
 5475.00    1.58654   1.55640  102.999
 5476.00    1.56951   1.53679  104.909
 5477.00    1.56922   1.52831   -1.000
 5478.00    1.59163   1.54450   -1.000
 5479.00    1.61967   1.57052   -1.000
 5480.00    1.62689   1.58200   -1.000
 5481.00    1.61365   1.57828   -1.000
 5482.00    1.60521   1.57304  101.383
 5483.00    1.61598   1.57802   -1.000
 5484.00    1.63536   1.59277   -1.000
 5485.00    1.64674   1.60477   -1.000
 5486.00    1.64124   1.60741   97.072
 5487.00    1.62765   1.60043   98.355
 5488.00    1.62217   1.59200   99.315
 5489.00    1.62539   1.58853   -1.000
 5490.00    1.62533   1.59154   -1.000
 5491.00    1.62734   1.59779   98.377
 5492.00    1.63889   1.60315   -1.000
 5493.00    1.64240   1.60488   -1.000
 5494.00    1.63873   1.60306   -1.000
 5495.00    1.63772   1.59732   -1.000
 5496.00    1.63368   1.58718   -1.000
 5497.00    1.62429   1.57611   -1.000
 5498.00    1.62239   1.57422   -1.000
 5499.00    1.63077   1.58185   -1.000
 5500.00    1.63352   1.58419   -1.000
 5501.00    1.62476   1.57620   -1.000
 5502.00    1.62227   1.56820   -1.000
 5503.00    1.62749   1.57081   -1.000
 5504.00    1.62795   1.57844   -1.000
 5505.00    1.62002   1.57426   -1.000
 5506.00    1.60217   1.56130   -1.000
 5507.00    1.60051   1.55652   -1.000
 5508.00    1.61676   1.56742   -1.000
 5509.00    1.63381   1.58604   -1.000
 5510.00    1.63633   1.59344   -1.000
 5511.00    1.62166   1.58543   -1.000
 5512.00    1.60778   1.57195   -1.000
 5513.00    1.60396   1.56129   -1.000
 5514.00    1.60969   1.55951   -1.000
 5515.00    1.62089   1.56579   -1.000
 5516.00    1.64263   1.57731   -1.000
 5517.00    1.66149   1.59209   -1.000
 5518.00    1.67055   1.60690   -1.000
 5519.00    1.67381   1.61623   -1.000
 5520.00    1.67086   1.61921   -1.000
 5521.00    1.66982   1.61739   -1.000
 5522.00    1.66754   1.61736   -1.000
 5523.00    1.66024   1.61939   -1.000
 5524.00    1.65451   1.61881   -1.000
 5525.00    1.64980   1.61032   -1.000
 5526.00    1.62965   1.58935   -1.000
 5527.00    1.60001   1.56393   -1.000
 5528.00    1.58922   1.54722   -1.000
 5529.00    1.60346   1.55274   -1.000
 5530.00    1.63367   1.57770   -1.000
 5531.00    1.65581   1.60125   -1.000
 5532.00    1.65558   1.60981   -1.000
 5533.00    1.64751   1.60483   -1.000
 5534.00    1.64199   1.59679   -1.000
 5535.00    1.63925   1.59363   -1.000
 5536.00    1.64234   1.59861   -1.000
 5537.00    1.65567   1.60563   -1.000
 5538.00    1.66670   1.61189   -1.000
 5539.00    1.67232   1.61794   -1.000
 5540.00    1.68215   1.62375   -1.000
 5541.00    1.68876   1.62711   -1.000
 5542.00    1.68071   1.62545   -1.000
 5543.00    1.66652   1.61965   -1.000
 5544.00    1.66174   1.61513   -1.000
 5545.00    1.66346   1.61486   -1.000
 5546.00    1.66872   1.61656   -1.000
 5547.00    1.68065   1.61951   -1.000
 5548.00    1.68843   1.62700   -1.000
 5549.00    1.69166   1.63651   -1.000
 5550.00    1.69619   1.64081   -1.000
 5551.00    1.69320   1.63919   -1.000
 5552.00    1.68826   1.63449   -1.000
 5553.00    1.67898   1.63030   -1.000
 5554.00    1.66960   1.62671   -1.000
 5555.00    1.67270   1.62536   -1.000
 5556.00    1.67924   1.62515   -1.000
 5557.00    1.68088   1.62610   -1.000
 5558.00    1.67907   1.62715   -1.000
 5559.00    1.67769   1.62849   -1.000
 5560.00    1.67883   1.63001   -1.000
 5561.00    1.67846   1.62833   -1.000
 5562.00    1.67210   1.62279   -1.000
 5563.00    1.66768   1.61787   -1.000
 5564.00    1.66178   1.61614   -1.000
 5565.00    1.65380   1.61545   -1.000
 5566.00    1.65328   1.61251   -1.000
 5567.00    1.65498   1.60944   -1.000
 5568.00    1.65318   1.60678   -1.000
 5569.00    1.64974   1.60412   -1.000
 5570.00    1.64932   1.60444   -1.000
 5571.00    1.64926   1.60318   -1.000
 5572.00    1.64584   1.59739   -1.000
 5573.00    1.65039   1.59558   -1.000
 5574.00    1.66295   1.60023   -1.000
 5575.00    1.67517   1.60933   -1.000
 5576.00    1.69745   1.61762   -1.000
 5577.00    1.72714   1.62327   -1.000
 5578.00    1.73407   1.62911   -1.000
 5579.00    1.71778   1.63485   -1.000
 5580.00    1.70615   1.63583   -1.000
 5581.00    1.68969   1.63100   -1.000
 5582.00    1.67241   1.62691   -1.000
 5583.00    1.67325   1.62562   -1.000
 5584.00    1.67396   1.62387   -1.000
 5585.00    1.65927   1.61154   -1.000
 5586.00    1.63038   1.58769   -1.000
 5587.00    1.60019   1.56280   -1.000
 5588.00    1.58655   1.54814   -1.000
 5589.00    1.59362   1.55033   -1.000
 5590.00    1.61409   1.56481   -1.000
 5591.00    1.63417   1.58450   -1.000
 5592.00    1.64661   1.59688   -1.000
 5593.00    1.64528   1.59930   -1.000
 5594.00    1.63994   1.59846   -1.000
 5595.00    1.64726   1.60489   -1.000
 5596.00    1.65611   1.61556   -1.000
 5597.00    1.65378   1.61434   -1.000
 5598.00    1.63934   1.60110   -1.000
 5599.00    1.63048   1.59052   -1.000
 5600.00    1.62896   1.58375   -1.000
 5601.00    1.62490   1.57676   -1.000
 5602.00    1.61955   1.57454   -1.000
 5603.00    1.62809   1.58385   -1.000
 5604.00    1.65817   1.60461   -1.000
 5605.00    1.68453   1.62893   -1.000
 5606.00    1.69785   1.64525   -1.000
 5607.00    1.70388   1.65283   -1.000
 5608.00    1.70646   1.65485   -1.000
 5609.00    1.70606   1.65511   -1.000
 5610.00    1.70172   1.65693   -1.000
 5611.00    1.70256   1.65984   -1.000
 5612.00    1.70393   1.65802   -1.000
 5613.00    1.68703   1.64431   -1.000
 5614.00    1.65429   1.61677   -1.000
 5615.00    1.63174   1.58785   -1.000
 5616.00    1.63578   1.58212   -1.000
 5617.00    1.65918   1.59792   -1.000
 5618.00    1.67947   1.61851   -1.000
 5619.00    1.68689   1.63044   -1.000
 5620.00    1.69255   1.63481   -1.000
 5621.00    1.69699   1.63788   -1.000
 5622.00    1.69276   1.63950   -1.000
 5623.00    1.67996   1.63308   -1.000
 5624.00    1.66500   1.62130   -1.000
 5625.00    1.65705   1.61388   -1.000
 5626.00    1.66580   1.61817   -1.000
 5627.00    1.68288   1.62957   -1.000
 5628.00    1.69333   1.63784   -1.000
 5629.00    1.70298   1.64351   -1.000
 5630.00    1.71258   1.64717   -1.000
 5631.00    1.71501   1.64943   -1.000
 5632.00    1.71212   1.64990   -1.000
 5633.00    1.71240   1.64830   -1.000
 5634.00    1.71187   1.64704   -1.000
 5635.00    1.70549   1.64379   -1.000
 5636.00    1.69566   1.63726   -1.000
 5637.00    1.68412   1.63167   -1.000
 5638.00    1.67488   1.62966   -1.000
 5639.00    1.67310   1.62987   -1.000
 5640.00    1.68021   1.62860   -1.000
 5641.00    1.68442   1.62562   -1.000
 5642.00    1.68324   1.62485   -1.000
 5643.00    1.68609   1.62874   -1.000
 5644.00    1.69148   1.63340   -1.000
 5645.00    1.69670   1.63600   -1.000
 5646.00    1.69949   1.63752   -1.000
 5647.00    1.69903   1.63802   -1.000
 5648.00    1.70295   1.63906   -1.000
 5649.00    1.70662   1.63988   -1.000
 5650.00    1.71039   1.64122   -1.000
 5651.00    1.71582   1.64539   -1.000
 5652.00    1.71737   1.64961   -1.000
 5653.00    1.71461   1.65124   -1.000
 5654.00    1.70538   1.64907   -1.000
 5655.00    1.69174   1.64333   -1.000
 5656.00    1.67572   1.63016   -1.000
 5657.00    1.65622   1.60755   -1.000
 5658.00    1.63462   1.58898   -1.000
 5659.00    1.63424   1.58807   -1.000
 5660.00    1.65813   1.60139   -1.000
 5661.00    1.66920   1.61454   -1.000
 5662.00    1.66789   1.61759   -1.000
 5663.00    1.67766   1.62240   -1.000
 5664.00    1.68877   1.63580   -1.000
 5665.00    1.69280   1.64578   -1.000
 5666.00    1.69457   1.64446   -1.000
 5667.00    1.68938   1.63516   -1.000
 5668.00    1.68277   1.62785   -1.000
 5669.00    1.68462   1.62818   -1.000
 5670.00    1.69219   1.63269   -1.000
 5671.00    1.70315   1.63885   -1.000
 5672.00    1.70798   1.64595   -1.000
 5673.00    1.71178   1.65256   -1.000
 5674.00    1.71730   1.65591   -1.000
 5675.00    1.71714   1.65745   -1.000
 5676.00    1.71892   1.65936   -1.000
 5677.00    1.72050   1.66177   -1.000
 5678.00    1.71925   1.66250   -1.000
 5679.00    1.71902   1.66004   -1.000
 5680.00    1.71804   1.65440   -1.000
 5681.00    1.70735   1.64582   -1.000
 5682.00    1.69147   1.63524   -1.000
 5683.00    1.68583   1.62745   -1.000
 5684.00    1.68878   1.62845   -1.000
 5685.00    1.69246   1.63559   -1.000
 5686.00    1.69320   1.63939   -1.000
 5687.00    1.68983   1.63653   -1.000
 5688.00    1.68361   1.63167   -1.000
 5689.00    1.68352   1.63079   -1.000
 5690.00    1.70041   1.63703   -1.000
 5691.00    1.71709   1.64795   -1.000
 5692.00    1.72397   1.65841   -1.000
 5693.00    1.72558   1.66349   -1.000
 5694.00    1.72566   1.66426   -1.000
 5695.00    1.72916   1.66376   -1.000
 5696.00    1.72447   1.66274   -1.000
 5697.00    1.71457   1.65980   -1.000
 5698.00    1.70186   1.65357   -1.000
 5699.00    1.68765   1.64569   -1.000
 5700.00    1.67957   1.63898   -1.000
 5701.00    1.67460   1.63353   -1.000
 5702.00    1.67724   1.63210   -1.000
 5703.00    1.68250   1.63783   -1.000
 5704.00    1.68291   1.64501   -1.000
 5705.00    1.68034   1.64701   -1.000
 5706.00    1.67186   1.64159  100.880
 5707.00    1.65814   1.62926  102.610
 5708.00    1.64447   1.61497  104.379
 5709.00    1.63537   1.60293   -1.000
 5710.00    1.63399   1.59832   -1.000
 5711.00    1.64216   1.60322   -1.000
 5712.00    1.66005   1.61633   -1.000
 5713.00    1.68695   1.63270   -1.000
 5714.00    1.71208   1.64710   -1.000
 5715.00    1.72324   1.65476   -1.000
 5716.00    1.72683   1.65990   -1.000
 5717.00    1.72400   1.66389   -1.000
 5718.00    1.72143   1.66683   -1.000
 5719.00    1.72815   1.67006   -1.000
 5720.00    1.73484   1.67412   -1.000
 5721.00    1.74197   1.67800   -1.000
 5722.00    1.74227   1.68054   -1.000
 5723.00    1.74290   1.68277   -1.000
 5724.00    1.74766   1.68343   -1.000
 5725.00    1.74095   1.67876   -1.000
 5726.00    1.72890   1.66825   -1.000
 5727.00    1.71566   1.65991   -1.000
 5728.00    1.71435   1.65836   -1.000
 5729.00    1.72901   1.66258   -1.000
 5730.00    1.73364   1.66734   -1.000
 5731.00    1.72756   1.66903   -1.000
 5732.00    1.73059   1.66985   -1.000
 5733.00    1.74162   1.67389   -1.000
 5734.00    1.75123   1.68140   -1.000
 5735.00    1.74793   1.68487   -1.000
 5736.00    1.73953   1.68377   -1.000
 5737.00    1.73757   1.68256   -1.000
 5738.00    1.73777   1.68093   -1.000
 5739.00    1.73897   1.68099   -1.000
 5740.00    1.74036   1.68221   -1.000
 5741.00    1.73682   1.68271   -1.000
 5742.00    1.73428   1.68106   -1.000
 5743.00    1.73821   1.68050   -1.000
 5744.00    1.73962   1.68401   -1.000
 5745.00    1.74474   1.68893   -1.000
 5746.00    1.74442   1.68964   -1.000
 5747.00    1.73244   1.68481   -1.000
 5748.00    1.73252   1.67979   -1.000
 5749.00    1.74242   1.68183   -1.000
 5750.00    1.74831   1.68608   -1.000
 5751.00    1.74277   1.68583   -1.000
 5752.00    1.72651   1.67785   -1.000
 5753.00    1.71253   1.66573   -1.000
 5754.00    1.71116   1.66188   -1.000
 5755.00    1.72538   1.67035   -1.000
 5756.00    1.74596   1.68489   -1.000
 5757.00    1.75498   1.69713   -1.000
 5758.00    1.75085   1.70315   -1.000
 5759.00    1.74578   1.69988   -1.000
 5760.00    1.73971   1.68859   -1.000
 5761.00    1.73073   1.67499   -1.000
 5762.00    1.71894   1.66536   -1.000
 5763.00    1.71271   1.66726   -1.000
 5764.00    1.71949   1.68105   -1.000
 5765.00    1.73436   1.69624   -1.000
 5766.00    1.74650   1.70231   -1.000
 5767.00    1.75036   1.70339   -1.000
 5768.00    1.74873   1.70282   -1.000
 5769.00    1.74154   1.70164   -1.000
 5770.00    1.73344   1.69920   -1.000
 5771.00    1.72691   1.69676   95.643
 5772.00    1.72279   1.69457   96.225
 5773.00    1.71936   1.69179   96.628
 5774.00    1.71627   1.68720   96.776
 5775.00    1.71798   1.68268   -1.000
 5776.00    1.71681   1.68227   -1.000
 5777.00    1.70513   1.68367   96.048
 5778.00    1.67810   1.68213   96.203
 5779.00    1.63948   1.67636   -1.000
 5780.00    1.61436   1.66645   -1.000
 5781.00    1.61900   1.65570   -1.000
 5782.00    1.64749   1.64903  101.244
 5783.00    1.67490   1.64884  100.858
 5784.00    1.69032   1.65104   -1.000
 5785.00    1.70634   1.65317   -1.000
 5786.00    1.72005   1.65704   -1.000
 5787.00    1.73165   1.66417   -1.000
 5788.00    1.74097   1.67145   -1.000
 5789.00    1.73820   1.67716   -1.000
 5790.00    1.73454   1.67840   -1.000
 5791.00    1.73496   1.67762   -1.000
 5792.00    1.73599   1.68127   -1.000
 5793.00    1.74089   1.69059   -1.000
 5794.00    1.74171   1.70176   -1.000
 5795.00    1.73730   1.70803   95.079
 5796.00    1.72669   1.70667   95.393
 5797.00    1.72096   1.69947   96.024
 5798.00    1.72732   1.69531   -1.000
 5799.00    1.73722   1.69995   -1.000
 5800.00    1.75016   1.70935   -1.000
 5801.00    1.76404   1.71762   -1.000
 5802.00    1.76959   1.71994   -1.000
 5803.00    1.76054   1.71591   -1.000
 5804.00    1.75090   1.70930   -1.000
 5805.00    1.75315   1.70602   -1.000
 5806.00    1.75719   1.70688   -1.000
 5807.00    1.75712   1.71075   -1.000
 5808.00    1.76279   1.71423   -1.000
 5809.00    1.76723   1.71552   -1.000
 5810.00    1.76812   1.71639   -1.000
 5811.00    1.77199   1.71727   -1.000
 5812.00    1.77246   1.71708   -1.000
 5813.00    1.77167   1.71452   -1.000
 5814.00    1.76926   1.70865   -1.000
 5815.00    1.76077   1.70144   -1.000
 5816.00    1.75664   1.69764   -1.000
 5817.00    1.76385   1.70192   -1.000
 5818.00    1.77586   1.71061   -1.000
 5819.00    1.78300   1.71654   -1.000
 5820.00    1.78204   1.71890   -1.000
 5821.00    1.78167   1.71974   -1.000
 5822.00    1.78528   1.71988   -1.000
 5823.00    1.78566   1.71869   -1.000
 5824.00    1.78472   1.71774   -1.000
 5825.00    1.78507   1.71764   -1.000
 5826.00    1.78383   1.71954   -1.000
 5827.00    1.78551   1.72220   -1.000
 5828.00    1.79136   1.72506   -1.000
 5829.00    1.79110   1.72806   -1.000
 5830.00    1.78802   1.72884   -1.000
 5831.00    1.78857   1.72788   -1.000
 5832.00    1.78811   1.72657   -1.000
 5833.00    1.78731   1.72402   -1.000
 5834.00    1.78800   1.72071   -1.000
 5835.00    1.79090   1.71838   -1.000
 5836.00    1.79595   1.71946   -1.000
 5837.00    1.79428   1.72145   -1.000
 5838.00    1.78944   1.72322   -1.000
 5839.00    1.79050   1.72563   -1.000
 5840.00    1.78475   1.72865   -1.000
 5841.00    1.78075   1.73114   -1.000
 5842.00    1.78875   1.73219   -1.000
 5843.00    1.79118   1.72916   -1.000
 5844.00    1.78949   1.72415   -1.000
 5845.00    1.78856   1.71936   -1.000
 5846.00    1.78166   1.71562   -1.000
 5847.00    1.77460   1.71233   -1.000
 5848.00    1.77043   1.71027   -1.000
 5849.00    1.77111   1.70838   -1.000
 5850.00    1.76369   1.70599   -1.000
 5851.00    1.75029   1.70033   -1.000
 5852.00    1.74387   1.69024   -1.000
 5853.00    1.74187   1.68241   -1.000
 5854.00    1.73906   1.68079   -1.000
 5855.00    1.73951   1.68008   -1.000
 5856.00    1.73948   1.67172   -1.000
 5857.00    1.72864   1.65837   -1.000
 5858.00    1.72396   1.65363   -1.000
 5859.00    1.73674   1.66238   -1.000
 5860.00    1.75193   1.67762   -1.000
 5861.00    1.75818   1.68794   -1.000
 5862.00    1.75940   1.69214   -1.000
 5863.00    1.76196   1.69372   -1.000
 5864.00    1.76720   1.69362   -1.000
 5865.00    1.76337   1.69073   -1.000
 5866.00    1.75267   1.68566   -1.000
 5867.00    1.75219   1.68374   -1.000
 5868.00    1.76399   1.68978   -1.000
 5869.00    1.77823   1.69985   -1.000
 5870.00    1.78352   1.70715   -1.000
 5871.00    1.78261   1.70906   -1.000
 5872.00    1.78287   1.70664   -1.000
 5873.00    1.78078   1.70330   -1.000
 5874.00    1.77554   1.70043   -1.000
 5875.00    1.77511   1.69790   -1.000
 5876.00    1.77588   1.69601   -1.000
 5877.00    1.77003   1.69318   -1.000
 5878.00    1.76531   1.68708   -1.000
 5879.00    1.75969   1.67939   -1.000
 5880.00    1.75642   1.67442   -1.000
 5881.00    1.75611   1.67262   -1.000
 5882.00    1.75392   1.67253   -1.000
 5883.00    1.75333   1.67059   -1.000
 5884.00    1.74975   1.66542   -1.000
 5885.00    1.74685   1.65762   -1.000
 5886.00    1.72305   1.64469   -1.000
 5887.00    1.64763   1.61436   -1.000
 5888.00    1.52555   1.55568   -1.000
 5889.00    1.40037   1.48744   -1.000
 5890.00    1.35295   1.45607   -1.000
 5891.00    1.42868   1.47677   -1.000
 5892.00    1.55005   1.52295  112.374
 5893.00    1.59346   1.55088   -1.000
 5894.00    1.53980   1.53999  108.916
 5895.00    1.45910   1.50743   -1.000
 5896.00    1.44062   1.49025   -1.000
 5897.00    1.51099   1.51428  110.555
 5898.00    1.60967   1.55795   -1.000
 5899.00    1.67887   1.59371   -1.000
 5900.00    1.71069   1.61924   -1.000
 5901.00    1.72178   1.63835   -1.000
 5902.00    1.73163   1.65257   -1.000
 5903.00    1.74684   1.66258   -1.000
 5904.00    1.75422   1.66731   -1.000
 5905.00    1.75436   1.66914   -1.000
 5906.00    1.75154   1.67055   -1.000
 5907.00    1.74881   1.67227   -1.000
 5908.00    1.74955   1.67549   -1.000
 5909.00    1.74465   1.67902   -1.000
 5910.00    1.74494   1.68149   -1.000
 5911.00    1.74599   1.68132   -1.000
 5912.00    1.74113   1.67707   -1.000
 5913.00    1.73433   1.66808   -1.000
 5914.00    1.72488   1.65824   -1.000
 5915.00    1.72290   1.65251   -1.000
 5916.00    1.72865   1.65377   -1.000
 5917.00    1.73122   1.65923   -1.000
 5918.00    1.73381   1.66601   -1.000
 5919.00    1.73469   1.67116   -1.000
 5920.00    1.73229   1.67387   -1.000
 5921.00    1.73533   1.67496   -1.000
 5922.00    1.74024   1.67479   -1.000
 5923.00    1.73995   1.67437   -1.000
 5924.00    1.73739   1.67744   -1.000
 5925.00    1.74293   1.68349   -1.000
 5926.00    1.75249   1.68855   -1.000
 5927.00    1.75748   1.69062   -1.000
 5928.00    1.75923   1.68719   -1.000
 5929.00    1.75356   1.68088   -1.000
 5930.00    1.74422   1.67802   -1.000
 5931.00    1.74366   1.68127   -1.000
 5932.00    1.74765   1.68584   -1.000
 5933.00    1.74346   1.68714   -1.000
 5934.00    1.74364   1.68445   -1.000
 5935.00    1.75183   1.68197   -1.000
 5936.00    1.75397   1.68404   -1.000
 5937.00    1.75547   1.68973   -1.000
 5938.00    1.75903   1.69318   -1.000
 5939.00    1.75944   1.69086   -1.000
 5940.00    1.74971   1.68398   -1.000
 5941.00    1.73597   1.67805   -1.000
 5942.00    1.72958   1.67531   -1.000
 5943.00    1.73423   1.67796   -1.000
 5944.00    1.74578   1.68530   -1.000
 5945.00    1.74838   1.69083   -1.000
 5946.00    1.74339   1.69179   -1.000
 5947.00    1.74174   1.68812   -1.000
 5948.00    1.73844   1.68281   -1.000
 5949.00    1.72879   1.68154   -1.000
 5950.00    1.72836   1.68509   -1.000
 5951.00    1.74401   1.68705   -1.000
 5952.00    1.75024   1.68718   -1.000
 5953.00    1.74798   1.68707   -1.000
 5954.00    1.75191   1.68707   -1.000
 5955.00    1.74798   1.68407   -1.000
 5956.00    1.73652   1.67930   -1.000
 5957.00    1.73104   1.67696   -1.000
 5958.00    1.74057   1.68022   -1.000
 5959.00    1.74943   1.68881   -1.000
 5960.00    1.75978   1.69796   -1.000
 5961.00    1.77485   1.70496   -1.000
 5962.00    1.77847   1.70749   -1.000
 5963.00    1.77049   1.70614   -1.000
 5964.00    1.76167   1.70225   -1.000
 5965.00    1.75669   1.69703   -1.000
 5966.00    1.75125   1.69362   -1.000
 5967.00    1.75170   1.69537   -1.000
 5968.00    1.75538   1.69972   -1.000
 5969.00    1.75988   1.70339   -1.000
 5970.00    1.76773   1.70651   -1.000
 5971.00    1.77116   1.70885   -1.000
 5972.00    1.76834   1.70854   -1.000
 5973.00    1.76549   1.70672   -1.000
 5974.00    1.76052   1.70487   -1.000
 5975.00    1.75538   1.69971   -1.000
 5976.00    1.74538   1.69289   -1.000
 5977.00    1.73745   1.68900   -1.000
 5978.00    1.74699   1.68950   -1.000
 5979.00    1.75951   1.69532   -1.000
 5980.00    1.76249   1.70148   -1.000
 5981.00    1.76048   1.70421   -1.000
 5982.00    1.75700   1.70074   -1.000
 5983.00    1.74824   1.69266   -1.000
 5984.00    1.74062   1.68654   -1.000
 5985.00    1.74385   1.68720   -1.000
 5986.00    1.75283   1.69388   -1.000
 5987.00    1.75778   1.70061   -1.000
 5988.00    1.76155   1.70534   -1.000
 5989.00    1.76280   1.70794   -1.000
 5990.00    1.76244   1.70787   -1.000
 5991.00    1.76662   1.70760   -1.000
 5992.00    1.77280   1.71141   -1.000
 5993.00    1.77845   1.71976   -1.000
 5994.00    1.77959   1.72683   -1.000
 5995.00    1.77614   1.72729   -1.000
 5996.00    1.77036   1.72117   -1.000
 5997.00    1.76785   1.71435   -1.000
 5998.00    1.76840   1.71173   -1.000
 5999.00    1.76704   1.71293   -1.000
 6000.00    1.76431   1.71348   -1.000
 6001.00    1.76139   1.71203   -1.000
 6002.00    1.75951   1.70961   -1.000
 6003.00    1.75389   1.70821   -1.000
 6004.00    1.74883   1.70901   -1.000
 6005.00    1.74822   1.70800   -1.000
 6006.00    1.74475   1.70157   -1.000
 6007.00    1.73960   1.69325   -1.000
 6008.00    1.73577   1.69079   -1.000
 6009.00    1.73800   1.69766   -1.000
 6010.00    1.74789   1.70865   -1.000
 6011.00    1.75742   1.71344   -1.000
 6012.00    1.75752   1.71196   -1.000
 6013.00    1.75766   1.70976   -1.000
 6014.00    1.76320   1.71035   -1.000
 6015.00    1.76009   1.71248   -1.000
 6016.00    1.76080   1.71094   -1.000
 6017.00    1.76756   1.70784   -1.000
 6018.00    1.76282   1.70607   -1.000
 6019.00    1.75477   1.70395   -1.000
 6020.00    1.75178   1.70216   -1.000
 6021.00    1.75058   1.70220   -1.000
 6022.00    1.75207   1.70330   -1.000
 6023.00    1.75752   1.70529   -1.000
 6024.00    1.75944   1.70992   -1.000
 6025.00    1.76402   1.71673   -1.000
 6026.00    1.77047   1.72294   -1.000
 6027.00    1.77413   1.72721   -1.000
 6028.00    1.77704   1.73072   -1.000
 6029.00    1.78109   1.73319   -1.000
 6030.00    1.78360   1.73361   -1.000
 6031.00    1.78393   1.73434   -1.000
 6032.00    1.78617   1.73601   -1.000
 6033.00    1.78934   1.73866   -1.000
 6034.00    1.79308   1.74239   -1.000
 6035.00    1.78942   1.74532   -1.000
 6036.00    1.78209   1.74509   -1.000
 6037.00    1.78310   1.74119   -1.000
 6038.00    1.78733   1.73601   -1.000
 6039.00    1.78343   1.73070   -1.000
 6040.00    1.77908   1.72775   -1.000
 6041.00    1.78229   1.72895   -1.000
 6042.00    1.78858   1.72938   -1.000
 6043.00    1.79641   1.73027   -1.000
 6044.00    1.80064   1.73796   -1.000
 6045.00    1.80165   1.74697   -1.000
 6046.00    1.80285   1.75163   -1.000
 6047.00    1.80334   1.75283   -1.000
 6048.00    1.80022   1.75301   -1.000
 6049.00    1.79484   1.75235   -1.000
 6050.00    1.79341   1.75177   -1.000
 6051.00    1.80160   1.75010   -1.000
 6052.00    1.80479   1.74678   -1.000
 6053.00    1.79948   1.74323   -1.000
 6054.00    1.79416   1.73950   -1.000
 6055.00    1.78974   1.73548   -1.000
 6056.00    1.78770   1.73229   -1.000
 6057.00    1.78679   1.73137   -1.000
 6058.00    1.78638   1.73198   -1.000
 6059.00    1.78836   1.73505   -1.000
 6060.00    1.79412   1.73938   -1.000
 6061.00    1.79328   1.73988   -1.000
 6062.00    1.78257   1.73370   -1.000
 6063.00    1.77362   1.72083   -1.000
 6064.00    1.76316   1.70804   -1.000
 6065.00    1.73831   1.70217   -1.000
 6066.00    1.71083   1.70893   52.689
 6067.00    1.73746   1.72494   43.690
 6068.00    1.71918   1.74015  105.692
 6069.00    1.35370   1.74893   -1.000
 6070.00    0.92756   1.75352   -1.000
 6071.00    1.22097   1.75593   -1.000
 6072.00    1.74877   1.75750   94.607
 6073.00    1.83435   1.75807   -1.000
 6074.00    1.84663   1.75697   -1.000
 6075.00    1.89538   1.75420   -1.000
 6076.00    1.87225   1.74953   -1.000
 6077.00    1.78252   1.74419   -1.000
 6078.00    1.77779   1.73979   -1.000
 6079.00    1.77688   1.73668   -1.000
 6080.00    1.77444   1.73416   -1.000
 6081.00    1.77365   1.73086   -1.000
 6082.00    1.77300   1.72788   -1.000
 6083.00    1.77149   1.72881   -1.000
 6084.00    1.77628   1.73190   -1.000
 6085.00    1.77915   1.73434   -1.000
 6086.00    1.77945   1.73689   -1.000
 6087.00    1.77817   1.74050   -1.000
 6088.00    1.77558   1.74240   -1.000
 6089.00    1.77280   1.73990   -1.000
 6090.00    1.76870   1.73406   -1.000
 6091.00    1.76862   1.72958   -1.000
 6092.00    1.77549   1.73041   -1.000
 6093.00    1.78220   1.73533   -1.000
 6094.00    1.78813   1.74188   -1.000
 6095.00    1.79259   1.74699   -1.000
 6096.00    1.79182   1.75007   -1.000
 6097.00    1.79407   1.75256   -1.000
 6098.00    1.79595   1.75477   -1.000
 6099.00    1.78839   1.75342   -1.000
 6100.00    1.77238   1.74356   -1.000
 6101.00    1.75488   1.72371   -1.000
 6102.00    1.73722   1.70134   -1.000
 6103.00    1.72544   1.69432   -1.000
 6104.00    1.74191   1.70605   -1.000
 6105.00    1.76811   1.72335   -1.000
 6106.00    1.77410   1.73594   -1.000
 6107.00    1.77060   1.74336   98.987
 6108.00    1.77038   1.74877   99.337
 6109.00    1.77161   1.75303   99.417
 6110.00    1.77526   1.75356   99.267
 6111.00    1.77709   1.75139   98.925
 6112.00    1.77706   1.75107   98.691
 6113.00    1.77440   1.75400   98.440
 6114.00    1.77507   1.75697   98.022
 6115.00    1.77685   1.75711   98.133
 6116.00    1.77282   1.75511   98.696
 6117.00    1.77132   1.75471   99.097
 6118.00    1.76982   1.74790   99.372
 6119.00    1.75615   1.72857  100.382
 6120.00    1.73606   1.70715   -1.000
 6121.00    1.72048   1.68732   -1.000
 6122.00    1.71601   1.68052   -1.000
 6123.00    1.72697   1.69556   -1.000
 6124.00    1.74065   1.71797  100.945
 6125.00    1.74967   1.73306  100.342
 6126.00    1.75098   1.73900  100.715
 6127.00    1.75212   1.74012  100.966
 6128.00    1.75742   1.74171  100.733
 6129.00    1.76222   1.74795  100.201
 6130.00    1.76713   1.75637   99.271
 6131.00    1.77372   1.76283   98.708
 6132.00    1.77147   1.76489   98.760
 6133.00    1.76062   1.75880   99.356
 6134.00    1.74128   1.74012  101.024
 6135.00    1.71055   1.70710  103.772
 6136.00    1.67796   1.67302  106.657
 6137.00    1.66356   1.66244  108.078
 6138.00    1.68117   1.68015  106.650
 6139.00    1.71016   1.70447  103.608
 6140.00    1.72499   1.71607  101.598
 6141.00    1.72505   1.71567  101.270
 6142.00    1.72435   1.72049  101.518
 6143.00    1.73776   1.73471  101.054
 6144.00    1.75574   1.74798   99.849
 6145.00    1.76550   1.75377   99.189
 6146.00    1.76698   1.75288   99.428
 6147.00    1.76088   1.74768  100.011
 6148.00    1.75334   1.73904  100.702
 6149.00    1.74376   1.73195  101.365
 6150.00    1.73773   1.73016  101.644
 6151.00    1.73762   1.73423  101.413
 6152.00    1.74333   1.73986  100.844
 6153.00    1.75278   1.74176  100.416
 6154.00    1.74800   1.73856  100.843
 6155.00    1.73851   1.73352  101.593
 6156.00    1.73689   1.72987  101.848
 6157.00    1.73391   1.72624  102.074
 6158.00    1.72168   1.72019  102.870
 6159.00    1.69783   1.70579  104.457
 6160.00    1.67233   1.67667  107.117
 6161.00    1.64367   1.64080  110.387
 6162.00    1.62505   1.61741  112.470
 6163.00    1.62775   1.62140  111.971
 6164.00    1.64548   1.64309  109.384
 6165.00    1.66676   1.66488  106.979
 6166.00    1.67865   1.67801  106.058
 6167.00    1.67717   1.68233  106.050
 6168.00    1.66366   1.67636  106.943
 6169.00    1.65375   1.66647  108.259
 6170.00    1.65779   1.66561  108.339
 6171.00    1.67793   1.67722  106.725
 6172.00    1.69482   1.69226  104.877
 6173.00    1.69784   1.70098  104.274
 6174.00    1.69851   1.70595  104.475
 6175.00    1.69924   1.71064  104.363
 6176.00    1.70008   1.71298  104.113
 6177.00    1.70192   1.71491  103.880
 6178.00    1.70287   1.71752  103.469
 6179.00    1.70673   1.71897  103.011
 6180.00    1.71162   1.72019  102.675
 6181.00    1.71453   1.72353  102.270
 6182.00    1.71898   1.72660  101.894
 6183.00    1.72050   1.72708  101.894
 6184.00    1.71316   1.72572  102.213
 6185.00    1.70772   1.72201  102.816
 6186.00    1.70706   1.71438  103.833
 6187.00    1.70079   1.70634  104.958
 6188.00    1.68677   1.69797  105.989
 6189.00    1.67207   1.68457  106.867
 6190.00    1.66068   1.66712  107.948
 6191.00    1.65483   1.65595  109.046
 6192.00    1.66203   1.66269  108.679
 6193.00    1.67831   1.68234  106.545
 6194.00    1.69639   1.70163  104.275
 6195.00    1.70452   1.71365  103.211
 6196.00    1.70555   1.72033  102.894
 6197.00    1.70677   1.72074  103.195
 6198.00    1.70474   1.71358  104.207
 6199.00    1.69556   1.70445  105.267
 6200.00    1.68802   1.70470  105.593
 6201.00    1.68653   1.71333   -1.000
 6202.00    1.68270   1.72274   -1.000
 6203.00    1.68699   1.72951   -1.000
 6204.00    1.69993   1.73258   -1.000
 6205.00    1.70801   1.73416  102.737
 6206.00    1.71383   1.73583  102.634
 6207.00    1.72358   1.73756  102.857
 6208.00    1.72603   1.73833  103.075
 6209.00    1.72062   1.73608  103.267
 6210.00    1.71408   1.73089  104.025
 6211.00    1.70747   1.72295  104.941
 6212.00    1.69526   1.71071  105.850
 6213.00    1.67508   1.69621  107.210
 6214.00    1.66741   1.68645  108.607
 6215.00    1.67167   1.68322  109.228
 6216.00    1.67583   1.68403  108.561
 6217.00    1.67758   1.68427  107.475
 6218.00    1.67830   1.68254  107.745
 6219.00    1.68013   1.68012  108.028
 6220.00    1.68234   1.68125  107.303
 6221.00    1.68610   1.68663  107.248
 6222.00    1.68788   1.69104  111.715
 6223.00    1.68618   1.69168  114.388
 6224.00    1.68907   1.69276  108.762
 6225.00    1.70179   1.69552  106.196
 6226.00    1.58238   1.69808   -1.000
 6227.00    1.44527   1.69661   -1.000
 6228.00    1.58388   1.68645   -1.000
 6229.00    1.68416   1.66813  109.577
 6230.00    1.65407   1.65053  111.201
 6231.00    1.65569   1.64639  111.609
 6232.00    1.66451   1.65760  110.404
 6233.00    1.68276   1.67690  108.489
 6234.00    1.69839   1.69498  106.555
 6235.00    1.70360   1.70528  105.487
 6236.00    1.70393   1.70491  105.703
 6237.00    1.69823   1.69868  106.680
 6238.00    1.68723   1.69044  107.780
 6239.00    1.68001   1.68363  108.900
 6240.00    1.67967   1.67996  109.706
 6241.00    1.67770   1.67893  109.849
 6242.00    1.67185   1.67629  110.211
 6243.00    1.66579   1.67037  111.052
 6244.00    1.65802   1.66456  111.354
 6245.00    1.65587   1.66222  110.897
 6246.00    1.66623   1.66742  109.947
 6247.00    1.68093   1.68062  108.672
 6248.00    1.69077   1.69413  107.395
 6249.00    1.69339   1.70125  106.812
 6250.00    1.69014   1.69861  107.335
 6251.00    1.67700   1.68551  108.911
 6252.00    1.66108   1.66952  110.658
 6253.00    1.65184   1.66120  111.650
 6254.00    1.64710   1.66141  112.148
 6255.00    1.64344   1.66446  112.249
 6256.00    1.64127   1.66408  112.719
 6257.00    1.64114   1.66045  113.823
 6258.00    1.64270   1.66167  114.062
 6259.00    1.65419   1.67029  112.837
 6260.00    1.67511   1.68258  111.064
 6261.00    1.69068   1.69484  109.491
 6262.00    1.69793   1.70572  107.907
 6263.00    1.70248   1.71142  106.788
 6264.00    1.69743   1.71105  107.038
 6265.00    1.69245   1.70862  107.911
 6266.00    1.69614   1.70931  107.998
 6267.00    1.68907   1.71216  107.276
 6268.00    1.67880   1.71224   -1.000
 6269.00    1.67696   1.71043   -1.000
 6270.00    1.67708   1.70990   -1.000
 6271.00    1.68324   1.71117   -1.000
 6272.00    1.69490   1.71089  107.187
 6273.00    1.69857   1.70587  107.212
 6274.00    1.69070   1.69470  107.783
 6275.00    1.67224   1.67941  108.643
 6276.00    1.64530   1.66416  109.954
 6277.00    1.61611   1.65205   -1.000
 6278.00    1.58976   1.64654   -1.000
 6279.00    1.57415   1.64564   -1.000
 6280.00    1.57160   1.64931   -1.000
 6281.00    1.56998   1.65918   -1.000
 6282.00    1.56781   1.67511   -1.000
 6283.00    1.57883   1.69264   -1.000
 6284.00    1.59404   1.70656   -1.000
 6285.00    1.61738   1.71472   -1.000
 6286.00    1.64822   1.72005   -1.000
 6287.00    1.67234   1.72388   -1.000
 6288.00    1.68956   1.72469   -1.000
 6289.00    1.70306   1.72044  106.502
 6290.00    1.70313   1.71464  107.290
 6291.00    1.69507   1.70984  108.165
 6292.00    1.68997   1.70686  108.664
 6293.00    1.69197   1.70384  108.788
 6294.00    1.69763   1.70058  108.942
 6295.00    1.69105   1.69457  109.465
 6296.00    1.67502   1.68619  110.299
 6297.00    1.66824   1.68120  110.733
 6298.00    1.66564   1.68258  110.698
 6299.00    1.65621   1.68670   -1.000
 6300.00    1.64271   1.68769   -1.000
 6301.00    1.63548   1.68565   -1.000
 6302.00    1.64683   1.68789   -1.000
 6303.00    1.67208   1.69636  111.469
 6304.00    1.69445   1.70572  109.968
 6305.00    1.70759   1.71156  108.381
 6306.00    1.71771   1.71655  107.284
 6307.00    1.72267   1.72345  106.361
 6308.00    1.73140   1.72956  105.777
 6309.00    1.73587   1.73215  105.976
 6310.00    1.72375   1.73178  106.606
 6311.00    1.71556   1.72954  107.191
 6312.00    1.71299   1.72629  107.594
 6313.00    1.70528   1.72263  107.873
 6314.00    1.70030   1.71807  108.390
 6315.00    1.69580   1.71433  109.160
 6316.00    1.68606   1.71195  109.271
 6317.00    1.68233   1.70801  109.156
 6318.00    1.68222   1.70599  109.179
 6319.00    1.68820   1.71208  109.078
 6320.00    1.70481   1.72242  108.182
 6321.00    1.71016   1.72960  106.939
 6322.00    1.71354   1.73439  106.228
 6323.00    1.72362   1.74043  105.885
 6324.00    1.72849   1.74667  105.421
 6325.00    1.73190   1.74969  104.952
 6326.00    1.73692   1.74983  104.774
 6327.00    1.73528   1.74971  104.503
 6328.00    1.73669   1.75003  104.248
 6329.00    1.73735   1.75076  104.382
 6330.00    1.73599   1.75218  104.448
 6331.00    1.73581   1.75593  104.299
 6332.00    1.73829   1.75895  103.990
 6333.00    1.73835   1.75429  104.057
 6334.00    1.72711   1.74122  104.358
 6335.00    1.71230   1.72616  105.668
 6336.00    1.70656   1.72119  107.212
 6337.00    1.71085   1.72814  106.730
 6338.00    1.75446   1.73892  105.685
 6339.00    1.78572   1.74857   -1.000
 6340.00    1.75742   1.75507  103.712
 6341.00    1.74367   1.75751  103.248
 6342.00    1.74186   1.75500  103.020
 6343.00    1.73895   1.74823  103.553
 6344.00    1.73151   1.74236  104.163
 6345.00    1.72916   1.74357  104.042
 6346.00    1.73548   1.74996  103.598
 6347.00    1.73812   1.75757  102.940
 6348.00    1.73961   1.76454  102.368
 6349.00    1.74262   1.77093  102.201
 6350.00    1.74409   1.77460  102.128
 6351.00    1.74116   1.77385   -1.000
 6352.00    1.73297   1.76918   -1.000
 6353.00    1.72086   1.76190   -1.000
 6354.00    1.71526   1.75453   -1.000
 6355.00    1.71370   1.75088   -1.000
 6356.00    1.70989   1.74930   -1.000
 6357.00    1.70749   1.74525   -1.000
 6358.00    1.69930   1.73816   -1.000
 6359.00    1.69373   1.73275   -1.000
 6360.00    1.69551   1.73021   -1.000
 6361.00    1.69752   1.72798   -1.000
 6362.00    1.70067   1.72693  106.290
 6363.00    1.70364   1.72995  106.075
 6364.00    1.70971   1.73735  105.528
 6365.00    1.71748   1.74530  104.823
 6366.00    1.72049   1.75193   -1.000
 6367.00    1.72642   1.75816   -1.000
 6368.00    1.73484   1.76308  102.923
 6369.00    1.73800   1.76354  102.437
 6370.00    1.73761   1.76221  102.360
 6371.00    1.74151   1.76176  102.251
 6372.00    1.74601   1.76382  101.849
 6373.00    1.74457   1.76856  101.765
 6374.00    1.74009   1.77184  101.986
 6375.00    1.74096   1.77216  102.117
 6376.00    1.73797   1.77131  102.424
 6377.00    1.72491   1.76808   -1.000
 6378.00    1.71537   1.76243   -1.000
 6379.00    1.71570   1.75705   -1.000
 6380.00    1.71720   1.75329   -1.000
 6381.00    1.71876   1.75252   -1.000
 6382.00    1.72033   1.75442   -1.000
 6383.00    1.72429   1.75757  104.343
 6384.00    1.72457   1.76001   -1.000
 6385.00    1.71960   1.76166   -1.000
 6386.00    1.71764   1.76395   -1.000
 6387.00    1.71782   1.76570   -1.000
 6388.00    1.70988   1.76599   -1.000
 6389.00    1.69610   1.76540   -1.000
 6390.00    1.68607   1.76174   -1.000
 6391.00    1.67384   1.75154   -1.000
 6392.00    1.65764   1.73735   -1.000
 6393.00    1.64459   1.72862   -1.000
 6394.00    1.64502   1.73417   -1.000
 6395.00    1.65504   1.74962   -1.000
 6396.00    1.65703   1.76225   -1.000
 6397.00    1.64700   1.76407   -1.000
 6398.00    1.63247   1.75285   -1.000
 6399.00    1.61319   1.73734   -1.000
 6400.00    1.59568   1.73071   -1.000
 6401.00    1.60281   1.74115   -1.000
 6402.00    1.61857   1.76027   -1.000
 6403.00    1.62784   1.77490   -1.000
 6404.00    1.63122   1.78131   -1.000
 6405.00    1.62612   1.77900   -1.000
 6406.00    1.60834   1.77004   -1.000
 6407.00    1.58468   1.76007   -1.000
 6408.00    1.57407   1.75549   -1.000
 6409.00    1.56896   1.75812   -1.000
 6410.00    1.55932   1.76059   -1.000
 6411.00    1.55133   1.75824   -1.000
 6412.00    1.54675   1.75623   -1.000
 6413.00    1.53729   1.75864   -1.000
 6414.00    1.53064   1.76439   -1.000
 6415.00    1.52899   1.77033   -1.000
 6416.00    1.52478   1.77365   -1.000
 6417.00    1.51536   1.77225   -1.000
 6418.00    1.49725   1.76507   -1.000
 6419.00    1.47357   1.75270   -1.000
 6420.00    1.45668   1.74214   -1.000
 6421.00    1.44617   1.74227   -1.000
 6422.00    1.44055   1.75431   -1.000
 6423.00    1.44195   1.76955   -1.000
 6424.00    1.43884   1.78112   -1.000
 6425.00    1.43031   1.78765   -1.000
 6426.00    1.42184   1.79120   -1.000
 6427.00    1.41029   1.79088   -1.000
 6428.00    1.39493   1.78193   -1.000
