###################################################################
## OUTPUT of StarlightChains_v04.for    [Cid@UFSC - 01/Apr/2007] ##
###################################################################

## Some input info
NGC6528_b_1.cxt                          [arq_obs]
Base.BC03.S                              [arq_base]
NGC6528_b_1.msk                          [arq_masks]
StCv04.C11.config                        [arq_config]
  150                                    [N_base]
    0                                    [N_YAV_components = # of components with extra extinction!]
    0                                    [i_FitPowerLaw (1/0 = Yes/No)]
-9.99                                    [alpha_PowerLaw]
CCM                                      [red_law_option]
 1.458241                                [q_norm = A(l_norm)/A(V)]

## (Re)Sampling Parameters
 3359.00                                 [l_ini (A)]
 6428.00                                 [l_fin (A)]
    1.00                                 [dl    (A)]     (OBS: dl_cushion =    50.00 A)

## Normalization info
 4020.00                                 [l_norm (A) - for base]
 4010.00                                 [llow_norm (A) - window for f_obs]
 4060.00                                 [lupp_norm (A) - window for f_obs]
2.920007E-15                             [fobs_norm (in input units)]

## S/N
 4730.00                                 [llow_SN (A) - window for S/N]
 4780.00                                 [lupp_SN (A) - window for S/N]
  27.543                                 [S/N in S/N window]
  15.038                                 [S/N in norm. window]
 201.971                                 [S/N_err in S/N window]
 110.275                                 [S/N_err in norm. window]
  1.0000                                 [fscale_chi2]

## etc...
  2147483604                             [idum_orig]
  3069                                   [NOl_eff]
   797                                   [Nl_eff]
  2272    NSIGMA                         [Ntot_cliped & clip_method]
  2951410                                [Nglobal_steps]
   7                                     [N_chains]
  40                                     [NEX0s_base = N_base in EX0s-fits]
 0   0   1      129   2.0   2.622E+02    [Clip-Bug, RC-Crash & Burn-In warning-flags, n_censored_weights, wei_nsig_threshold & wei_limit]
   101    100.864    100.860      0.004  [idt_all, wdt_TotTime, wdt_UsrTime & wdt_SysTime (sec)]

## Synthesis Results - Best model ##

 2.37902E+00                             [chi2/Nl_eff]
     1.63960                             [adev (%)]

    96.72881                             [sum-of-x (%)]
 2.18077E-14                             [Flux_tot (units of input spectrum!)]
 1.99843E-09                             [Mini_tot (???)]
 9.95501E-10                             [Mcor_tot (???)]

 -32.87                                  [v0_min  (km/s)]
  82.86                                  [vd_min  (km/s)]
 1.5218                                  [AV_min  (mag)]
 0.0000                                  [YAV_min (mag)]

# j     x_j(%)      Mini_j(%)     Mcor_j(%)     age_j(yr)     Z_j      (L/M)_j    YAV?  Mstars   component_j        a/Fe...       SSP_chi2r SSP_adev(%)   SSP_AV   SSP_x(%)
  1      0.0000     0.0000E+00    0.0000E+00    1.000000E+06  0.00010  8.160E-03    0   1.0000   age020_m22            0.0000     7.2967E+03    62.5924   4.0000   117.5745
  2      4.0978     9.7141E-04    1.9501E-03    3.160000E+06  0.00010  4.759E-02    0   1.0000   age045_m22            0.0000     3.6898E+02    11.8688   3.7857    94.3060
  3      6.1259     3.5771E-03    6.8807E-03    5.010000E+06  0.00010  1.932E-02    0   0.9582   age055_m22            0.0000     6.3756E+02    19.2854   3.9246    84.6467
  4      0.4719     5.3385E-04    9.9635E-04    6.610000E+06  0.00010  9.973E-03    0   0.9297   age061_m22            0.0000     6.9857E+03    61.4053   4.0000   120.8167
  5      0.0000     0.0000E+00    0.0000E+00    8.710000E+06  0.00010  7.690E-03    0   0.9030   age067_m22            0.0000     6.9203E+03    60.9554   4.0000   121.3548
  6      0.2489     4.4043E-04    7.8706E-04    1.000000E+07  0.00010  6.375E-03    0   0.8902   age070_m22            0.0000     7.0217E+03    60.9598   4.0000   121.7537
  7      0.1623     3.7574E-04    6.4786E-04    1.445000E+07  0.00010  4.874E-03    0   0.8589   age078_m22            0.0000     5.7012E+03    55.4809   4.0000   123.4046
  8      0.8420     2.3151E-03    3.7989E-03    2.512000E+07  0.00010  4.103E-03    0   0.8174   age090_m22            0.0000     3.3207E+03    42.5884   4.0000   123.9976
  9      0.8589     2.6518E-03    4.1682E-03    4.000000E+07  0.00010  3.654E-03    0   0.7830   age104_m22            0.0000     2.1332E+03    32.5002   4.0000   122.2489
 10      0.0000     0.0000E+00    0.0000E+00    5.500000E+07  0.00010  3.093E-03    0   0.7597   age110_m22            0.0000     1.8176E+03    28.8788   4.0000   121.1266
 11      0.0000     0.0000E+00    0.0000E+00    1.015200E+08  0.00010  2.431E-03    0   0.7138   age116_m22            0.0000     9.3945E+02    19.4140   4.0000   112.7306
 12      0.0000     0.0000E+00    0.0000E+00    1.609000E+08  0.00010  1.319E-03    0   0.6775   age120_m22            0.0000     4.6068E+02    13.5761   3.9941    97.5052
 13      0.0000     0.0000E+00    0.0000E+00    2.861200E+08  0.00010  1.075E-03    0   0.6412   age125_m22            0.0000     6.4584E+02    16.8311   4.0000   104.3473
 14      0.0000     0.0000E+00    0.0000E+00    5.088000E+08  0.00010  7.183E-04    0   0.6083   age130_m22            0.0000     6.3852E+02    17.5322   3.9630    98.9346
 15      0.0000     0.0000E+00    0.0000E+00    9.047900E+08  0.00010  4.524E-04    0   0.5785   age135_m22            0.0000     6.3501E+02    17.5493   3.7634   100.0629
 16      0.0000     0.0000E+00    0.0000E+00    1.278050E+09  0.00010  3.018E-04    0   0.5588   age138_m22            0.0000     4.4878E+02    14.1621   3.1705   100.0573
 17      0.0000     0.0000E+00    0.0000E+00    1.434000E+09  0.00010  2.691E-04    0   0.5532   age139_m22            0.0000     4.1330E+02    13.4780   3.0042    99.8159
 18      0.0000     0.0000E+00    0.0000E+00    2.500000E+09  0.00010  1.582E-04    0   0.5296   age150_m22            0.0000     4.1213E+02    13.3498   2.8640   101.2514
 19      0.0000     0.0000E+00    0.0000E+00    4.250000E+09  0.00010  1.007E-04    0   0.5110   age158_m22            0.0000     3.4907E+02    11.7421   2.6904   100.2521
 20      0.0000     0.0000E+00    0.0000E+00    6.250000E+09  0.00010  6.869E-05    0   0.4985   age166_m22            0.0000     3.0081E+02    10.2707   2.6091    98.1642
 21      0.0000     0.0000E+00    0.0000E+00    7.500000E+09  0.00010  5.873E-05    0   0.4931   age171_m22            0.0000     3.0358E+02    10.2402   2.5853    97.9081
 22      0.0000     0.0000E+00    0.0000E+00    1.000000E+10  0.00010  4.481E-05    0   0.4854   age181_m22            0.0000     2.9740E+02    10.1266   2.5470    97.5728
 23      0.0000     0.0000E+00    0.0000E+00    1.300000E+10  0.00010  3.489E-05    0   0.4791   age193_m22            0.0000     2.8547E+02     9.8611   2.4922    97.0056
 24      0.0000     0.0000E+00    0.0000E+00    1.500000E+10  0.00010  3.035E-05    0   0.4766   age201_m22            0.0000     2.7938E+02     9.7176   2.4515    96.8824
 25      0.0000     0.0000E+00    0.0000E+00    1.800000E+10  0.00010  2.510E-05    0   0.4735   age213_m22            0.0000     2.6702E+02     9.4061   2.3793    96.4145
 26      0.0000     0.0000E+00    0.0000E+00    1.000000E+06  0.00040  8.458E-03    0   1.0000   age020_m32            0.0000     7.4039E+03    62.7227   4.0000   118.5763
 27      0.0000     0.0000E+00    0.0000E+00    3.160000E+06  0.00040  3.973E-02    0   1.0000   age045_m32            0.0000     2.7886E+03    39.8843   4.0000   121.2228
 28      0.2755     1.6065E-04    3.0740E-04    5.010000E+06  0.00040  1.935E-02    0   0.9532   age055_m32            0.0000     3.8719E+03    48.6481   4.0000   118.3541
 29      0.0000     0.0000E+00    0.0000E+00    6.610000E+06  0.00040  1.204E-02    0   0.9243   age061_m32            0.0000     5.9310E+03    57.3396   4.0000   121.7874
 30      0.3633     4.3447E-04    7.8504E-04    8.710000E+06  0.00040  9.433E-03    0   0.9001   age067_m32            0.0000     5.7280E+03    56.2015   4.0000   122.6535
 31      0.0000     0.0000E+00    0.0000E+00    1.000000E+07  0.00040  8.053E-03    0   0.8877   age070_m32            0.0000     5.4785E+03    55.1243   4.0000   122.7168
 32      0.0000     0.0000E+00    0.0000E+00    1.445000E+07  0.00040  7.027E-03    0   0.8578   age078_m32            0.0000     2.5186E+03    39.4111   4.0000   117.9441
 33      0.0000     0.0000E+00    0.0000E+00    2.512000E+07  0.00040  4.707E-03    0   0.8166   age090_m32            0.0000     1.4622E+03    29.9331   4.0000   114.2317
 34      0.0000     0.0000E+00    0.0000E+00    4.000000E+07  0.00040  3.714E-03    0   0.7827   age104_m32            0.0000     1.0115E+03    23.1724   4.0000   111.9106
 35      0.0000     0.0000E+00    0.0000E+00    5.500000E+07  0.00040  2.982E-03    0   0.7593   age110_m32            0.0000     9.2058E+02    21.1569   4.0000   111.3159
 36      0.0000     0.0000E+00    0.0000E+00    1.015200E+08  0.00040  2.188E-03    0   0.7143   age116_m32            0.0000     6.6667E+02    15.9719   4.0000   107.2647
 37      0.0000     0.0000E+00    0.0000E+00    1.609000E+08  0.00040  1.690E-03    0   0.6856   age120_m32            0.0000     5.8300E+02    16.2979   4.0000   102.4674
 38      0.0000     0.0000E+00    0.0000E+00    2.861200E+08  0.00040  1.152E-03    0   0.6509   age125_m32            0.0000     6.0078E+02    16.9006   3.9306    98.8490
 39      0.0000     0.0000E+00    0.0000E+00    5.088000E+08  0.00040  7.331E-04    0   0.6182   age130_m32            0.0000     6.1042E+02    17.1018   3.7835    99.1035
 40      0.0000     0.0000E+00    0.0000E+00    9.047900E+08  0.00040  3.960E-04    0   0.5890   age135_m32            0.0000     4.4977E+02    14.2318   3.2883    98.8080
 41      0.0000     0.0000E+00    0.0000E+00    1.278050E+09  0.00040  2.854E-04    0   0.5687   age138_m32            0.0000     4.2916E+02    13.7415   2.9490   101.7909
 42      0.0000     0.0000E+00    0.0000E+00    1.434000E+09  0.00040  2.531E-04    0   0.5632   age139_m32            0.0000     4.2222E+02    13.6714   2.8840   101.8469
 43      0.0000     0.0000E+00    0.0000E+00    2.500000E+09  0.00040  1.488E-04    0   0.5386   age150_m32            0.0000     3.5925E+02    12.5270   2.6246   100.2735
 44      1.4279     1.7737E-01    1.8512E-01    4.250000E+09  0.00040  9.082E-05    0   0.5199   age158_m32            0.0000     2.7341E+02     9.9366   2.4885    98.0546
 45      5.4128     9.5983E-01    9.7805E-01    6.250000E+09  0.00040  6.362E-05    0   0.5076   age166_m32            0.0000     2.4306E+02     8.6739   2.4044    95.8299
 46      4.8106     1.0261E+00    1.0355E+00    7.500000E+09  0.00040  5.289E-05    0   0.5027   age171_m32            0.0000     2.2921E+02     8.4045   2.3665    94.6602
 47      1.6215     4.6054E-01    4.5745E-01    1.000000E+10  0.00040  3.972E-05    0   0.4948   age181_m32            0.0000     2.1266E+02     8.0912   2.3081    93.2779
 48      0.7767     2.6688E-01    2.6091E-01    1.300000E+10  0.00040  3.283E-05    0   0.4870   age193_m32            0.0000     2.1924E+02     8.3574   2.2830    95.5059
 49      0.0000     0.0000E+00    0.0000E+00    1.500000E+10  0.00040  2.925E-05    0   0.4854   age201_m32            0.0000     2.2856E+02     8.7711   2.2756    96.7838
 50      0.1953     8.9231E-02    8.6321E-02    1.800000E+10  0.00040  2.469E-05    0   0.4819   age213_m32            0.0000     2.2827E+02     8.8964   2.2395    97.2101
 51      0.0000     0.0000E+00    0.0000E+00    1.000000E+06  0.00400  1.114E-02    0   1.0000   age020_m42            0.0000     6.8574E+03    60.8442   4.0000   118.4398
 52      0.4695     1.3004E-04    2.6103E-04    3.160000E+06  0.00400  4.073E-02    0   0.9999   age045_m42            0.0000     1.6419E+03    30.1845   4.0000   116.0485
 53      0.0000     0.0000E+00    0.0000E+00    5.010000E+06  0.00400  2.534E-02    0   0.9488   age055_m42            0.0000     3.2592E+03    43.8844   4.0000   119.0447
 54      0.7473     3.2639E-04    6.0411E-04    6.610000E+06  0.00400  2.583E-02    0   0.9220   age061_m42            0.0000     1.1139E+03    24.9242   4.0000   111.2469
 55      1.0645     7.0392E-04    1.2694E-03    8.710000E+06  0.00400  1.706E-02    0   0.8983   age067_m42            0.0000     6.8772E+02    21.5701   4.0000   102.3752
 56      1.3871     1.2312E-03    2.1904E-03    1.000000E+07  0.00400  1.271E-02    0   0.8862   age070_m42            0.0000     6.8181E+02    22.2290   4.0000    99.7094
 57      0.0000     0.0000E+00    0.0000E+00    1.445000E+07  0.00400  7.666E-03    0   0.8571   age078_m42            0.0000     1.5767E+03    33.6521   4.0000   108.9506
 58      0.0000     0.0000E+00    0.0000E+00    2.512000E+07  0.00400  5.070E-03    0   0.8174   age090_m42            0.0000     5.2503E+02    18.8549   4.0000    97.0993
 59      0.0097     3.1146E-05    4.9088E-05    4.000000E+07  0.00400  3.505E-03    0   0.7851   age104_m42            0.0000     3.7856E+02    14.3062   3.8717    93.9754
 60      0.0000     0.0000E+00    0.0000E+00    5.500000E+07  0.00400  3.059E-03    0   0.7629   age110_m42            0.0000     3.6382E+02    12.1684   4.0000    97.0682
 61      0.0000     0.0000E+00    0.0000E+00    1.015200E+08  0.00400  2.268E-03    0   0.7207   age116_m42            0.0000     4.8810E+02    15.0081   4.0000   100.0853
 62      0.0000     0.0000E+00    0.0000E+00    1.609000E+08  0.00400  1.720E-03    0   0.6930   age120_m42            0.0000     4.9465E+02    15.1558   3.9128    99.9210
 63      0.0000     0.0000E+00    0.0000E+00    2.861200E+08  0.00400  1.079E-03    0   0.6613   age125_m42            0.0000     4.6569E+02    14.7193   3.5514   100.3853
 64      0.0000     0.0000E+00    0.0000E+00    5.088000E+08  0.00400  6.261E-04    0   0.6313   age130_m42            0.0000     5.0390E+02    15.5508   3.3555   103.2759
 65      0.0000     0.0000E+00    0.0000E+00    9.047900E+08  0.00400  3.535E-04    0   0.6024   age135_m42            0.0000     3.7345E+02    12.9716   2.9357   104.1825
 66      0.0000     0.0000E+00    0.0000E+00    1.278050E+09  0.00400  2.677E-04    0   0.5837   age138_m42            0.0000     1.5133E+02     8.2269   2.2646   101.5069
 67      0.1004     5.9285E-03    6.8027E-03    1.434000E+09  0.00400  1.910E-04    0   0.5716   age139_m42            0.0000     1.9869E+02     9.2921   2.4383   102.2502
 68      0.0000     0.0000E+00    0.0000E+00    2.500000E+09  0.00400  9.818E-05    0   0.5463   age150_m42            0.0000     9.2800E+01     5.7303   2.1641    97.8261
 69      0.0000     0.0000E+00    0.0000E+00    4.250000E+09  0.00400  5.491E-05    0   0.5269   age158_m42            0.0000     5.9405E+01     4.3569   2.0230    95.5640
 70      0.0000     0.0000E+00    0.0000E+00    6.250000E+09  0.00400  3.857E-05    0   0.5151   age166_m42            0.0000     4.1648E+01     3.8177   1.9084    94.0686
 71      0.0000     0.0000E+00    0.0000E+00    7.500000E+09  0.00400  3.243E-05    0   0.5110   age171_m42            0.0000     3.4609E+01     3.6708   1.8403    93.3070
 72      0.0000     0.0000E+00    0.0000E+00    1.000000E+10  0.00400  2.424E-05    0   0.5028   age181_m42            0.0000     2.9008E+01     3.6441   1.7709    92.4842
 73      0.0000     0.0000E+00    0.0000E+00    1.300000E+10  0.00400  1.883E-05    0   0.4927   age193_m42            0.0000     2.6454E+01     3.6746   1.7339    92.1097
 74      0.0000     0.0000E+00    0.0000E+00    1.500000E+10  0.00400  1.685E-05    0   0.4919   age201_m42            0.0000     2.6109E+01     3.5942   1.7362    92.1724
 75      0.0000     0.0000E+00    0.0000E+00    1.800000E+10  0.00400  1.452E-05    0   0.4874   age213_m42            0.0000     2.6128E+01     3.4967   1.7458    92.5406
 76      0.0000     0.0000E+00    0.0000E+00    1.000000E+06  0.00800  1.286E-02    0   1.0000   age020_m52            0.0000     6.6809E+03    59.7678   4.0000   120.6788
 77      0.0000     0.0000E+00    0.0000E+00    3.160000E+06  0.00800  3.147E-02    0   0.9966   age045_m52            0.0000     6.0336E+03    57.6439   4.0000   121.6588
 78      0.0000     0.0000E+00    0.0000E+00    5.010000E+06  0.00800  2.664E-02    0   0.9443   age055_m52            0.0000     3.8929E+03    47.8850   4.0000   120.5065
 79      0.0000     0.0000E+00    0.0000E+00    6.610000E+06  0.00800  2.151E-02    0   0.9177   age061_m52            0.0000     4.0668E+02    15.4419   3.8871    91.8054
 80      0.0530     3.6722E-05    6.5963E-05    8.710000E+06  0.00800  1.628E-02    0   0.8948   age067_m52            0.0000     6.0939E+02    20.8994   4.0000   101.1265
 81      0.0000     0.0000E+00    0.0000E+00    1.000000E+07  0.00800  1.215E-02    0   0.8827   age070_m52            0.0000     1.3000E+03    30.6453   4.0000   110.2932
 82      0.0000     0.0000E+00    0.0000E+00    1.445000E+07  0.00800  8.739E-03    0   0.8552   age078_m52            0.0000     1.4512E+03    31.2671   4.0000   113.4348
 83      0.0000     0.0000E+00    0.0000E+00    2.512000E+07  0.00800  5.676E-03    0   0.8162   age090_m52            0.0000     6.3568E+02    19.4048   4.0000   105.5201
 84      0.0000     0.0000E+00    0.0000E+00    4.000000E+07  0.00800  3.939E-03    0   0.7841   age104_m52            0.0000     4.9166E+02    15.2905   4.0000   102.7953
 85      0.0000     0.0000E+00    0.0000E+00    5.500000E+07  0.00800  3.155E-03    0   0.7627   age110_m52            0.0000     4.9724E+02    14.3333   4.0000   103.9453
 86      0.0000     0.0000E+00    0.0000E+00    1.015200E+08  0.00800  2.206E-03    0   0.7226   age116_m52            0.0000     4.6458E+02    13.9500   4.0000   101.8106
 87      0.0000     0.0000E+00    0.0000E+00    1.609000E+08  0.00800  1.596E-03    0   0.6963   age120_m52            0.0000     4.6226E+02    14.3217   3.8604   100.8109
 88      0.0000     0.0000E+00    0.0000E+00    2.861200E+08  0.00800  1.002E-03    0   0.6665   age125_m52            0.0000     4.9317E+02    15.4666   3.6245   101.9800
 89      0.0000     0.0000E+00    0.0000E+00    5.088000E+08  0.00800  5.759E-04    0   0.6377   age130_m52            0.0000     4.7005E+02    15.1024   3.3126   104.9659
 90      0.0000     0.0000E+00    0.0000E+00    9.047900E+08  0.00800  2.972E-04    0   0.6086   age135_m52            0.0000     2.9184E+02    11.3362   2.7863   103.5606
 91      0.0000     0.0000E+00    0.0000E+00    1.278050E+09  0.00800  2.242E-04    0   0.5907   age138_m52            0.0000     1.1074E+02     7.0369   2.1322   103.4447
 92      0.0026     1.7899E-04    2.0794E-04    1.434000E+09  0.00800  1.645E-04    0   0.5787   age139_m52            0.0000     1.1345E+02     6.9535   2.2720   103.0661
 93      0.0000     0.0000E+00    0.0000E+00    2.500000E+09  0.00800  7.723E-05    0   0.5519   age150_m52            0.0000     4.8311E+01     4.7098   1.9335    99.6493
 94      0.0000     0.0000E+00    0.0000E+00    4.250000E+09  0.00800  4.151E-05    0   0.5320   age158_m52            0.0000     3.8386E+01     4.1843   1.8581    97.3909
 95      0.3660     1.3718E-01    1.4312E-01    6.250000E+09  0.00800  3.010E-05    0   0.5197   age166_m52            0.0000     2.5426E+01     3.8515   1.6808    95.7620
 96      0.2505     1.1455E-01    1.1818E-01    7.500000E+09  0.00800  2.467E-05    0   0.5139   age171_m52            0.0000     2.4987E+01     3.9452   1.6453    95.2552
 97      0.0000     0.0000E+00    0.0000E+00    1.000000E+10  0.00800  1.862E-05    0   0.5054   age181_m52            0.0000     2.8735E+01     4.5958   1.5374    94.4335
 98      0.0000     0.0000E+00    0.0000E+00    1.300000E+10  0.00800  1.433E-05    0   0.4988   age193_m52            0.0000     3.5274E+01     5.3752   1.4598    94.6532
 99      0.4620     4.1894E-01    4.1512E-01    1.500000E+10  0.00800  1.244E-05    0   0.4936   age201_m52            0.0000     3.8540E+01     5.6656   1.4361    94.9628
100      0.2189     2.3084E-01    2.2651E-01    1.800000E+10  0.00800  1.070E-05    0   0.4888   age213_m52            0.0000     4.2365E+01     5.9449   1.4078    94.6787
101      0.0000     0.0000E+00    0.0000E+00    1.000000E+06  0.02000  1.989E-02    0   1.0000   age020_m62            0.0000     6.5471E+03    59.5803   4.0000   119.0459
102      0.0000     1.3569E-08    2.6852E-08    3.160000E+06  0.02000  3.772E-02    0   0.9858   age045_m62            0.0000     5.5465E+03    56.1658   4.0000   120.2492
103      0.0000     0.0000E+00    0.0000E+00    5.010000E+06  0.02000  3.227E-02    0   0.9342   age055_m62            0.0000     2.5883E+03    39.0625   4.0000   119.4559
104      0.0000     0.0000E+00    0.0000E+00    6.610000E+06  0.02000  2.387E-02    0   0.9090   age061_m62            0.0000     1.5290E+03    33.1731   4.0000   110.6156
105      0.0000     0.0000E+00    0.0000E+00    8.710000E+06  0.02000  1.102E-02    0   0.8861   age067_m62            0.0000     1.0826E+03    27.4586   4.0000    91.1107
106      0.0000     0.0000E+00    0.0000E+00    1.000000E+07  0.02000  1.011E-02    0   0.8751   age070_m62            0.0000     8.8166E+02    25.6022   4.0000    95.2959
107      0.0000     0.0000E+00    0.0000E+00    1.445000E+07  0.02000  7.331E-03    0   0.8472   age078_m62            0.0000     7.7491E+02    24.4616   4.0000    98.3115
108      0.0000     0.0000E+00    0.0000E+00    2.512000E+07  0.02000  4.206E-03    0   0.8099   age090_m62            0.0000     6.8292E+02    22.8263   4.0000    94.7015
109      0.0000     0.0000E+00    0.0000E+00    4.000000E+07  0.02000  3.373E-03    0   0.7799   age104_m62            0.0000     4.3032E+02    15.4359   4.0000    98.6090
110      0.0000     0.0000E+00    0.0000E+00    5.500000E+07  0.02000  2.747E-03    0   0.7595   age110_m62            0.0000     4.1777E+02    13.4508   4.0000   100.4746
111      0.0000     0.0000E+00    0.0000E+00    1.015200E+08  0.02000  1.878E-03    0   0.7221   age116_m62            0.0000     4.6976E+02    14.2187   4.0000   101.1146
112      0.0000     0.0000E+00    0.0000E+00    1.609000E+08  0.02000  1.378E-03    0   0.6978   age120_m62            0.0000     5.1894E+02    15.5502   3.8972   102.1790
113      0.0000     0.0000E+00    0.0000E+00    2.861200E+08  0.02000  8.869E-04    0   0.6700   age125_m62            0.0000     5.9019E+02    17.1725   3.5779   105.0225
114      0.0000     0.0000E+00    0.0000E+00    5.088000E+08  0.02000  4.834E-04    0   0.6430   age130_m62            0.0000     4.9012E+02    15.3730   3.1876   106.1627
115      0.0000     0.0000E+00    0.0000E+00    9.047900E+08  0.02000  2.312E-04    0   0.6152   age135_m62            0.0000     2.5983E+02    10.6931   2.5743   105.9166
116      0.0000     2.2138E-07    2.6340E-07    1.278050E+09  0.02000  1.387E-04    0   0.5927   age138_m62            0.0000     1.1400E+02     6.8693   2.1737   102.3754
117      0.0000     0.0000E+00    0.0000E+00    1.434000E+09  0.02000  1.168E-04    0   0.5865   age139_m62            0.0000     9.4621E+01     6.1633   2.1464   100.9034
118      0.0000     0.0000E+00    0.0000E+00    2.500000E+09  0.02000  5.505E-05    0   0.5610   age150_m62            0.0000     3.6539E+01     4.4508   1.7909    97.9765
119      0.0000     0.0000E+00    0.0000E+00    4.250000E+09  0.02000  3.070E-05    0   0.5407   age158_m62            0.0000     3.6710E+01     5.3445   1.5394    97.0264
120      0.1110     5.9542E-02    6.3075E-02    6.250000E+09  0.02000  2.104E-05    0   0.5277   age166_m62            0.0000     4.7256E+01     6.2990   1.4256    97.0231
121      0.2118     1.3498E-01    1.4153E-01    7.500000E+09  0.02000  1.770E-05    0   0.5223   age171_m62            0.0000     5.7504E+01     6.8708   1.3511    97.0719
122      0.6272     5.4558E-01    5.6087E-01    1.000000E+10  0.02000  1.297E-05    0   0.5121   age181_m62            0.0000     8.3546E+01     8.0552   1.2173    96.9683
123     14.0289     1.6331E+01    1.6546E+01    1.300000E+10  0.02000  9.691E-06    0   0.5047   age193_m62            0.0000     1.0397E+02     8.8024   1.1487    96.9175
124     23.2700     3.1402E+01    3.1513E+01    1.500000E+10  0.02000  8.360E-06    0   0.4999   age201_m62            0.0000     1.2568E+02     9.5365   1.0939    96.7482
125     21.3776     3.4897E+01    3.4649E+01    1.800000E+10  0.02000  6.911E-06    0   0.4946   age213_m62            0.0000     1.5687E+02    10.5144   1.0419    96.4448
126      0.0000     0.0000E+00    0.0000E+00    1.000000E+06  0.05000  2.651E-02    0   0.9998   age020_m72            0.0000     6.5565E+03    59.3344   4.0000   120.5665
127      0.0000     0.0000E+00    0.0000E+00    3.160000E+06  0.05000  4.817E-02    0   0.9577   age045_m72            0.0000     4.5970E+03    51.0879   4.0000   122.5473
128      0.0000     0.0000E+00    0.0000E+00    5.010000E+06  0.05000  3.101E-02    0   0.9147   age055_m72            0.0000     2.5912E+03    40.8886   4.0000   117.4421
129      0.0000     0.0000E+00    0.0000E+00    6.610000E+06  0.05000  1.472E-02    0   0.8877   age061_m72            0.0000     1.2227E+03    30.7965   4.0000   100.4101
130      0.0000     0.0000E+00    0.0000E+00    8.710000E+06  0.05000  1.050E-02    0   0.8638   age067_m72            0.0000     2.3258E+03    40.3135   4.0000   113.7813
131      0.0001     7.5653E-08    1.2945E-07    1.000000E+07  0.05000  8.954E-03    0   0.8524   age070_m72            0.0000     3.7543E+03    47.0859   4.0000   121.6486
132      0.0000     0.0000E+00    0.0000E+00    1.445000E+07  0.05000  6.392E-03    0   0.8262   age078_m72            0.0000     3.4723E+03    45.0498   4.0000   121.9643
133      0.0000     0.0000E+00    0.0000E+00    2.512000E+07  0.05000  4.207E-03    0   0.7902   age090_m72            0.0000     1.7766E+03    32.9588   4.0000   117.5382
134      0.0000     0.0000E+00    0.0000E+00    4.000000E+07  0.05000  3.198E-03    0   0.7618   age104_m72            0.0000     6.7551E+02    16.7080   4.0000   110.7546
135      0.0000     0.0000E+00    0.0000E+00    5.500000E+07  0.05000  2.593E-03    0   0.7432   age110_m72            0.0000     6.0082E+02    15.0155   4.0000   109.4470
136      0.0000     0.0000E+00    0.0000E+00    1.015200E+08  0.05000  1.716E-03    0   0.7092   age116_m72            0.0000     5.2543E+02    14.9013   4.0000   105.0034
137      0.0000     0.0000E+00    0.0000E+00    1.609000E+08  0.05000  1.218E-03    0   0.6876   age120_m72            0.0000     5.4240E+02    16.0529   3.8972   101.9390
138      0.0000     0.0000E+00    0.0000E+00    2.861200E+08  0.05000  7.047E-04    0   0.6618   age125_m72            0.0000     5.3609E+02    16.2951   3.4139   104.4389
139      0.0000     0.0000E+00    0.0000E+00    5.088000E+08  0.05000  3.590E-04    0   0.6356   age130_m72            0.0000     3.9270E+02    13.5948   2.8722   106.1474
140      0.0000     0.0000E+00    0.0000E+00    9.047900E+08  0.05000  1.484E-04    0   0.6088   age135_m72            0.0000     1.2269E+02     7.6051   2.1294   100.5115
141      0.0000     0.0000E+00    0.0000E+00    1.278050E+09  0.05000  9.435E-05    0   0.5924   age138_m72            0.0000     6.8232E+01     6.3730   1.7581    97.2203
142      0.0000     0.0000E+00    0.0000E+00    1.434000E+09  0.05000  7.827E-05    0   0.5847   age139_m72            0.0000     5.5613E+01     5.9253   1.7604    96.8997
143      0.0000     0.0000E+00    0.0000E+00    2.500000E+09  0.05000  3.759E-05    0   0.5583   age150_m72            0.0000     5.1153E+01     6.4788   1.4488    96.0595
144      0.0000     0.0000E+00    0.0000E+00    4.250000E+09  0.05000  1.842E-05    0   0.5374   age158_m72            0.0000     9.8533E+01     8.1638   1.1619    94.7995
145      0.0000     0.0000E+00    0.0000E+00    6.250000E+09  0.05000  1.207E-05    0   0.5242   age166_m72            0.0000     1.5809E+02     9.9390   0.9669    93.4847
146      0.0000     0.0000E+00    0.0000E+00    7.500000E+09  0.05000  9.993E-06    0   0.5183   age171_m72            0.0000     1.7092E+02    10.2302   0.9308    93.2364
147      0.0687     1.0633E-01    1.0845E-01    1.000000E+10  0.05000  7.291E-06    0   0.5081   age181_m72            0.0000     2.2303E+02    11.6515   0.8441    92.2425
148      0.0600     1.2733E-01    1.2827E-01    1.300000E+10  0.05000  5.316E-06    0   0.5018   age193_m72            0.0000     3.1809E+02    13.8106   0.7148    90.7720
149      0.0563     1.4117E-01    1.4091E-01    1.500000E+10  0.05000  4.497E-06    0   0.4972   age201_m72            0.0000     3.6757E+02    14.8444   0.6687    90.3142
150      4.0944     1.2354E+01    1.2211E+01    1.800000E+10  0.05000  3.739E-06    0   0.4924   age213_m72            0.0000     4.3362E+02    16.1606   0.6001    89.5576


## Synthesis Results - Average & Chains ##

# j      x_j: min, <> & last-chain-values for 1 ...  7 chains
  1      0.0000      0.0421      0.0000      0.0000      0.2131      0.0228      0.0000      0.0000      0.1374
  2      4.0978      3.3667      3.3832      3.3887      3.5787      3.3697      3.4133      3.3541      3.4465
  3      6.1259      5.8590      5.8676      5.6826      5.8745      5.8310      5.6782      5.9668      5.8955
  4      0.4719      0.5160      0.4999      0.5698      0.5387      0.5218      0.5395      0.5294      0.5528
  5      0.0000      0.0174      0.0000      0.0580      0.0000      0.0405      0.0000      0.0791      0.0000
  6      0.2489      0.2641      0.1958      0.3063      0.2396      0.4835      0.4130      0.2707      0.3375
  7      0.1623      0.1914      0.2178      0.1921      0.1622      0.1529      0.2667      0.2869      0.0000
  8      0.8420      0.7802      0.7764      0.8547      0.6683      0.7435      0.7725      0.8259      0.8610
  9      0.8589      0.5646      0.6967      0.5706      0.5047      0.5394      0.7335      0.5898      0.5952
 10      0.0000      0.0344      0.0000      0.0000      0.0000      0.0000      0.0000      0.0930      0.0000
 11      0.0000      0.0203      0.0000      0.0000      0.0321      0.0000      0.0000      0.1476      0.0000
 12      0.0000      0.0112      0.0000      0.0000      0.0000      0.0630      0.0077      0.0000      0.0016
 13      0.0000      0.0159      0.0000      0.0000      0.0000      0.0694      0.0474      0.0000      0.0115
 14      0.0000      0.0172      0.0451      0.0000      0.0000      0.0000      0.0000      0.0000      0.0154
 15      0.0000      0.0084      0.0000      0.0000      0.0000      0.0000      0.0000      0.0000      0.0000
 16      0.0000      0.0212      0.0000      0.2056      0.0646      0.0000      0.0000      0.1412      0.0102
 17      0.0000      0.0129      0.0000      0.0000      0.0000      0.0000      0.0085      0.0000      0.0000
 18      0.0000      0.0307      0.0000      0.0000      0.0000      0.0000      0.0000      0.0000      0.3387
 19      0.0000      0.0470      0.0000      0.1828      0.0332      0.0823      0.0196      0.1772      0.1260
 20      0.0000      0.0496      0.0519      0.0000      0.0000      0.0717      0.0000      0.0860      0.0000
 21      0.0000      0.0525      0.0765      0.1101      0.1633      0.0000      0.0000      0.2951      0.0000
 22      0.0000      0.0472      0.0000      0.1283      0.1091      0.0196      0.0128      0.0790      0.2472
 23      0.0000      0.1362      0.1779      0.1763      0.0000      0.0000      0.2495      0.0000      0.0230
 24      0.0000      0.0711      0.2015      0.1449      0.0525      0.0000      0.2084      0.0000      0.2820
 25      0.0000      0.0693      0.0196      0.1699      0.1461      0.0000      0.5301      0.1015      0.1427
 26      0.0000      0.0766      0.1575      0.0000      0.1519      0.0000      0.1363      0.0858      0.0000
 27      0.0000      0.0204      0.0894      0.1564      0.0000      0.0213      0.0000      0.0537      0.1183
 28      0.2755      0.1903      0.1895      0.2181      0.1885      0.2026      0.2991      0.2737      0.1993
 29      0.0000      0.0707      0.0648      0.0531      0.0869      0.0000      0.0000      0.1131      0.0000
 30      0.3633      0.3891      0.3801      0.3849      0.3839      0.3721      0.3190      0.3560      0.3082
 31      0.0000      0.0263      0.0000      0.0270      0.0000      0.0000      0.0000      0.0000      0.0816
 32      0.0000      0.0435      0.0000      0.0000      0.0410      0.1010      0.0113      0.0000      0.0692
 33      0.0000      0.0352      0.0000      0.0781      0.0000      0.0590      0.0169      0.1599      0.0925
 34      0.0000      0.0570      0.0117      0.0763      0.0000      0.1030      0.0000      0.0598      0.0287
 35      0.0000      0.0190      0.1215      0.0000      0.0000      0.0990      0.0000      0.0000      0.0000
 36      0.0000      0.0090      0.0748      0.0000      0.0000      0.0912      0.0000      0.0000      0.0625
 37      0.0000      0.0156      0.0243      0.0023      0.0718      0.0000      0.0000      0.0503      0.0680
 38      0.0000      0.0186      0.0548      0.0000      0.0077      0.0000      0.0764      0.0000      0.0000
 39      0.0000      0.0104      0.0000      0.0000      0.1284      0.0000      0.0000      0.0102      0.0000
 40      0.0000      0.0107      0.0449      0.0000      0.0000      0.0000      0.0000      0.0000      0.0000
 41      0.0000      0.0289      0.0000      0.0000      0.0317      0.0750      0.0000      0.0299      0.0000
 42      0.0000      0.0185      0.0000      0.0637      0.0000      0.0000      0.0000      0.0000      0.0534
 43      0.0000      0.0477      0.0208      0.0000      0.3023      0.0000      0.0350      0.0000      0.0000
 44      1.4279      1.4502      1.5029      1.3901      1.2644      1.4486      1.4317      1.5003      1.1820
 45      5.4128      4.9896      4.9349      5.0382      5.2008      4.9317      4.8571      5.1778      4.9816
 46      4.8106      4.5113      4.6240      4.6381      4.7196      4.6625      4.6324      4.4962      4.5691
 47      1.6215      1.4668      1.4910      1.3966      1.6186      1.5347      1.4922      1.4850      1.5839
 48      0.7767      0.8800      0.8510      1.3410      0.9239      0.9070      0.5230      0.7281      0.8841
 49      0.0000      0.1007      0.0519      0.0000      0.0000      0.0000      0.1066      0.0274      0.0017
 50      0.1953      0.2842      0.4936      0.2866      0.0000      0.4762      0.5296      0.1607      0.1709
 51      0.0000      0.0330      0.0618      0.0241      0.0000      0.0000      0.0000      0.0000      0.1341
 52      0.4695      0.0587      0.0113      0.0000      0.0000      0.1085      0.4244      0.1003      0.1718
 53      0.0000      0.0464      0.1332      0.0000      0.0241      0.0000      0.0078      0.0774      0.0000
 54      0.7473      0.2798      0.2582      0.2920      0.2945      0.3673      0.2849      0.2109      0.2525
 55      1.0645      0.9670      1.0048      0.9753      0.9497      1.0255      0.8423      0.9946      0.7747
 56      1.3871      1.1314      1.2042      1.0980      1.1400      1.1857      0.9824      1.1007      1.1752
 57      0.0000      0.0721      0.2760      0.0000      0.0000      0.0000      0.0000      0.1216      0.0379
 58      0.0000      0.0837      0.1290      0.0555      0.0000      0.0000      0.0000      0.0753      0.2002
 59      0.0097      0.0371      0.1665      0.0000      0.0023      0.1645      0.0685      0.0000      0.0000
 60      0.0000      0.0167      0.0000      0.0000      0.0000      0.0000      0.0000      0.0000      0.0000
 61      0.0000      0.0108      0.0000      0.0000      0.0000      0.0000      0.0000      0.0000      0.0000
 62      0.0000      0.0106      0.0000      0.0000      0.0000      0.0000      0.0000      0.0433      0.0237
 63      0.0000      0.0188      0.0000      0.0000      0.0000      0.0000      0.0000      0.0000      0.1429
 64      0.0000      0.0176      0.0000      0.0000      0.0222      0.0000      0.1125      0.0000      0.0000
 65      0.0000      0.0183      0.0627      0.0000      0.0000      0.0000      0.0000      0.0000      0.0000
 66      0.0000      0.0364      0.0000      0.0000      0.0000      0.0000      0.0545      0.0000      0.0681
 67      0.1004      0.0363      0.0000      0.0000      0.1379      0.1563      0.0000      0.0000      0.0000
 68      0.0000      0.0435      0.0000      0.1607      0.2238      0.0000      0.1847      0.1338      0.0000
 69      0.0000      0.0624      0.3265      0.1856      0.1931      0.0068      0.0000      0.0000      0.0000
 70      0.0000      0.0813      0.0467      0.0000      0.0000      0.0000      0.0000      0.0000      0.1755
 71      0.0000      0.0748      0.0000      0.0000      0.0817      0.0000      0.0000      0.0000      0.2802
 72      0.0000      0.0659      0.0167      0.0000      0.0000      0.0000      0.0304      0.0000      0.0000
 73      0.0000      0.0649      0.0000      0.1100      0.0009      0.0000      0.2023      0.0000      0.0000
 74      0.0000      0.0740      0.0000      0.0000      0.0000      0.0000      0.0000      0.0898      0.0000
 75      0.0000      0.0678      0.0717      0.0144      0.0000      0.0000      0.0045      0.0283      0.1004
 76      0.0000      0.0471      0.0615      0.2710      0.0000      0.0031      0.0264      0.0000      0.0000
 77      0.0000      0.0288      0.0000      0.0833      0.0000      0.0000      0.0000      0.0000      0.0000
 78      0.0000      0.0261      0.0000      0.0000      0.0493      0.0568      0.0721      0.0682      0.0000
 79      0.0000      0.0234      0.0000      0.0033      0.0000      0.0000      0.0000      0.0000      0.0035
 80      0.0530      0.0655      0.0000      0.2606      0.0285      0.2549      0.0407      0.1333      0.0370
 81      0.0000      0.0148      0.0000      0.0000      0.0000      0.0346      0.0731      0.0159      0.0003
 82      0.0000      0.0110      0.0000      0.0545      0.0000      0.0000      0.0000      0.0000      0.0000
 83      0.0000      0.0366      0.0000      0.0000      0.0655      0.0789      0.0998      0.0000      0.0000
 84      0.0000      0.0158      0.0000      0.0000      0.0000      0.0000      0.0000      0.0000      0.0000
 85      0.0000      0.0331      0.0353      0.0240      0.0000      0.1059      0.1118      0.0000      0.0263
 86      0.0000      0.0193      0.0000      0.0333      0.0000      0.0000      0.0000      0.0000      0.0290
 87      0.0000      0.0224      0.0000      0.0290      0.0000      0.0000      0.0000      0.1695      0.0027
 88      0.0000      0.0090      0.0650      0.0000      0.0000      0.0000      0.0000      0.0000      0.0000
 89      0.0000      0.0146      0.0000      0.0734      0.0000      0.0000      0.0000      0.0000      0.0000
 90      0.0000      0.0134      0.0000      0.0000      0.0263      0.0000      0.0000      0.0000      0.0000
 91      0.0000      0.0295      0.0444      0.0000      0.0732      0.0000      0.0000      0.0000      0.0000
 92      0.0026      0.0191      0.0000      0.0256      0.0000      0.1237      0.0021      0.0000      0.0000
 93      0.0000      0.0552      0.0271      0.0000      0.0000      0.0133      0.0000      0.1389      0.0000
 94      0.0000      0.0731      0.0000      0.0000      0.0000      0.0713      0.0000      0.0000      0.0000
 95      0.3660      0.1523      0.1989      0.1528      0.0887      0.4432      0.0240      0.2682      0.0290
 96      0.2505      0.1384      0.0399      0.1216      0.1076      0.1474      0.0000      0.2281      0.3072
 97      0.0000      0.1615      0.1278      0.1754      0.2265      0.0000      0.1712      0.0000      0.2830
 98      0.0000      0.2110      0.2824      0.0000      0.0000      0.0886      0.1522      0.3502      0.0000
 99      0.4620      0.1885      0.1260      0.0448      0.0095      0.2863      0.0000      0.0051      0.2555
100      0.2189      0.1750      0.3174      0.1489      0.0521      0.8794      0.6188      0.0000      0.4636
101      0.0000      0.0385      0.0000      0.0698      0.0000      0.0208      0.0000      0.0558      0.0000
102      0.0000      0.0208      0.0000      0.0172      0.0106      0.1162      0.0000      0.0000      0.0587
103      0.0000      0.0213      0.0845      0.0658      0.0044      0.0000      0.0000      0.0000      0.0715
104      0.0000      0.0777      0.0000      0.0565      0.3917      0.0817      0.1952      0.0239      0.0000
105      0.0000      0.0826      0.0000      0.0033      0.2169      0.0000      0.0000      0.0589      0.0264
106      0.0000      0.0214      0.0000      0.0235      0.0015      0.0000      0.0399      0.0000      0.0000
107      0.0000      0.0408      0.1795      0.0449      0.0000      0.0000      0.0556      0.0000      0.0458
108      0.0000      0.0159      0.0000      0.0000      0.0722      0.0000      0.1420      0.0000      0.0000
109      0.0000      0.0203      0.0826      0.0000      0.0000      0.0000      0.0000      0.0000      0.0000
110      0.0000      0.0240      0.0000      0.0000      0.0513      0.0870      0.0000      0.0000      0.0000
111      0.0000      0.0119      0.0000      0.0000      0.0000      0.0000      0.0000      0.0000      0.0000
112      0.0000      0.0110      0.0000      0.0000      0.0000      0.0000      0.0000      0.0168      0.0000
113      0.0000      0.0095      0.0000      0.0000      0.0000      0.0000      0.0339      0.0000      0.0000
114      0.0000      0.0148      0.0000      0.0000      0.0000      0.0000      0.0000      0.0000      0.0000
115      0.0000      0.0142      0.0000      0.0000      0.0000      0.0000      0.0000      0.0000      0.0000
116      0.0000      0.0222      0.0000      0.0000      0.0000      0.1219      0.0000      0.0000      0.0160
117      0.0000      0.0270      0.0000      0.0000      0.0000      0.0453      0.0000      0.0000      0.0000
118      0.0000      0.0577      0.0162      0.0000      0.1931      0.0000      0.0000      0.0000      0.0211
119      0.0000      0.1075      0.0000      0.0000      0.1440      0.0000      0.0264      0.0540      0.0009
120      0.1110      0.1337      0.0000      0.5008      0.1930      0.2595      0.1729      0.2648      0.0000
121      0.2118      0.3146      0.4056      0.1205      0.0000      0.4327      0.1304      0.1082      0.2134
122      0.6272      0.1937      0.1205      0.4599      0.4445      0.1365      0.1027      0.6219      0.0834
123     14.0289     14.3705     14.4232     14.3943     14.4646     14.2992     14.5300     14.6294     14.4214
124     23.2700     22.9702     23.1934     22.8061     23.2535     22.5800     23.1377     22.9707     23.0642
125     21.3776     20.7578     20.9908     21.0222     21.0381     20.9841     21.0568     20.9004     21.1821
126      0.0000      0.0097      0.0000      0.0000      0.0000      0.0000      0.0000      0.0000      0.0000
127      0.0000      0.0354      0.0000      0.0014      0.0000      0.0000      0.0000      0.0609      0.0417
128      0.0000      0.0624      0.0504      0.0000      0.0795      0.0000      0.0000      0.0000      0.1789
129      0.0000      0.0167      0.0000      0.0000      0.0000      0.0000      0.0000      0.0000      0.0522
130      0.0000      0.0167      0.0000      0.0000      0.0000      0.0000      0.0000      0.0000      0.0000
131      0.0001      0.0382      0.0000      0.0000      0.0818      0.1380      0.1340      0.0000      0.1105
132      0.0000      0.0170      0.0000      0.0000      0.0000      0.0000      0.1566      0.0000      0.0000
133      0.0000      0.0127      0.0000      0.0000      0.0606      0.0000      0.0000      0.0000      0.0004
134      0.0000      0.0062      0.0023      0.0000      0.0000      0.0000      0.0000      0.0000      0.0000
135      0.0000      0.0094      0.0000      0.0000      0.0000      0.0000      0.0000      0.0000      0.0000
136      0.0000      0.0106      0.0000      0.0000      0.0000      0.0000      0.0000      0.0000      0.1205
137      0.0000      0.0128      0.0000      0.0000      0.0593      0.0654      0.0000      0.0000      0.0000
138      0.0000      0.0136      0.0000      0.0000      0.0000      0.0000      0.0000      0.0000      0.0000
139      0.0000      0.0157      0.0000      0.0000      0.0000      0.0081      0.0000      0.0606      0.0000
140      0.0000      0.0299      0.0000      0.0000      0.0000      0.0000      0.0000      0.0000      0.0000
141      0.0000      0.0400      0.0000      0.0000      0.0000      0.0000      0.0000      0.0000      0.0000
142      0.0000      0.0516      0.1658      0.0000      0.0000      0.0000      0.0000      0.0000      0.0887
143      0.0000      0.0930      0.0000      0.0119      0.0177      0.0000      0.0000      0.0000      0.0000
144      0.0000      0.1172      0.0000      0.0407      0.0000      0.0896      0.1059      0.1019      0.0000
145      0.0000      0.0794      0.0000      0.1736      0.1391      0.0571      0.1955      0.0000      0.0000
146      0.0000      0.1053      0.0000      0.0963      0.2188      0.0000      0.0000      0.1689      0.1350
147      0.0687      0.0324      0.0000      0.0000      0.0000      0.1404      0.1213      0.0000      0.0000
148      0.0600      0.1591      0.2854      0.1312      0.2115      0.1117      0.0822      0.1321      0.0471
149      0.0563      0.2600      0.0652      0.2927      0.0000      0.2464      0.1897      0.1824      0.2207
150      4.0944      4.1274      4.2132      4.0549      4.0993      4.0469      4.1413      4.1990      4.1103

# j      m_j: min, <> & last-chain-values for 1 ...  7 chains
  1  0.0000E+00  1.1678E-04  0.0000E+00  0.0000E+00  5.9244E-04  6.3265E-05  0.0000E+00  0.0000E+00  3.8017E-04
  2  1.9501E-03  1.6017E-03  1.6035E-03  1.6119E-03  1.7060E-03  1.6050E-03  1.6125E-03  1.5927E-03  1.6349E-03
  3  6.8807E-03  6.5790E-03  6.5640E-03  6.3801E-03  6.6099E-03  6.5556E-03  6.3315E-03  6.6876E-03  6.6011E-03
  4  9.9635E-04  1.0890E-03  1.0512E-03  1.2024E-03  1.1393E-03  1.1027E-03  1.1307E-03  1.1154E-03  1.1633E-03
  5  0.0000E+00  4.6222E-05  0.0000E+00  1.5408E-04  0.0000E+00  1.0791E-04  0.0000E+00  2.0982E-04  0.0000E+00
  6  7.8706E-04  8.3505E-04  6.1659E-04  9.6817E-04  7.5898E-04  1.5305E-03  1.2967E-03  8.5428E-04  1.0638E-03
  7  6.4786E-04  7.6373E-04  8.6566E-04  7.6627E-04  6.4860E-04  6.1071E-04  1.0568E-03  1.1425E-03  0.0000E+00
  8  3.7989E-03  3.5193E-03  3.4890E-03  3.8546E-03  3.0204E-03  3.3575E-03  3.4599E-03  3.7184E-03  3.8723E-03
  9  4.1682E-03  2.7393E-03  3.3673E-03  2.7679E-03  2.4536E-03  2.6199E-03  3.5338E-03  2.8561E-03  2.8792E-03
 10  0.0000E+00  1.9110E-04  0.0000E+00  0.0000E+00  0.0000E+00  0.0000E+00  0.0000E+00  5.1598E-04  0.0000E+00
 11  0.0000E+00  1.3528E-04  0.0000E+00  0.0000E+00  2.1365E-04  0.0000E+00  0.0000E+00  9.7930E-04  0.0000E+00
 12  0.0000E+00  1.3034E-04  0.0000E+00  0.0000E+00  0.0000E+00  7.3381E-04  8.8572E-05  0.0000E+00  1.8782E-05
 13  0.0000E+00  2.1522E-04  0.0000E+00  0.0000E+00  0.0000E+00  9.3898E-04  6.3570E-04  0.0000E+00  1.5477E-04
 14  0.0000E+00  3.3066E-04  8.6104E-04  0.0000E+00  0.0000E+00  0.0000E+00  0.0000E+00  0.0000E+00  2.9376E-04
 15  0.0000E+00  2.4334E-04  0.0000E+00  0.0000E+00  0.0000E+00  0.0000E+00  0.0000E+00  0.0000E+00  0.0000E+00
 16  0.0000E+00  8.8787E-04  0.0000E+00  8.6184E-03  2.7129E-03  0.0000E+00  0.0000E+00  5.9063E-03  4.2505E-04
 17  0.0000E+00  6.0057E-04  0.0000E+00  0.0000E+00  0.0000E+00  0.0000E+00  3.9104E-04  0.0000E+00  0.0000E+00
 18  0.0000E+00  2.3305E-03  0.0000E+00  0.0000E+00  0.0000E+00  0.0000E+00  0.0000E+00  0.0000E+00  2.5599E-02
 19  0.0000E+00  5.4046E-03  0.0000E+00  2.1001E-02  3.8219E-03  9.4622E-03  2.2355E-03  2.0319E-02  1.4429E-02
 20  0.0000E+00  8.1537E-03  8.4967E-03  0.0000E+00  0.0000E+00  1.1789E-02  0.0000E+00  1.4105E-02  0.0000E+00
 21  0.0000E+00  9.9728E-03  1.4482E-02  2.0933E-02  3.1111E-02  0.0000E+00  0.0000E+00  5.5989E-02  0.0000E+00
 22  0.0000E+00  1.1574E-02  0.0000E+00  3.1469E-02  2.6822E-02  4.8158E-03  3.1279E-03  1.9335E-02  6.0455E-02
 23  0.0000E+00  4.2333E-02  5.5103E-02  5.4805E-02  0.0000E+00  0.0000E+00  7.7034E-02  0.0000E+00  7.1192E-03
 24  0.0000E+00  2.5271E-02  7.1355E-02  5.1505E-02  1.8698E-02  0.0000E+00  7.3567E-02  0.0000E+00  9.9990E-02
 25  0.0000E+00  2.9586E-02  8.3593E-03  7.2551E-02  6.2548E-02  0.0000E+00  2.2482E-01  4.3287E-02  6.0791E-02
 26  0.0000E+00  2.0505E-04  4.2006E-04  0.0000E+00  4.0737E-04  0.0000E+00  3.6228E-04  2.2936E-04  0.0000E+00
 27  0.0000E+00  1.1610E-05  5.0770E-05  8.9132E-05  0.0000E+00  1.2156E-05  0.0000E+00  3.0565E-05  6.7202E-05
 28  3.0740E-04  2.1220E-04  2.1059E-04  2.4323E-04  2.1066E-04  2.2621E-04  3.3122E-04  3.0469E-04  2.2163E-04
 29  0.0000E+00  1.2285E-04  1.1214E-04  9.2275E-05  1.5129E-04  0.0000E+00  0.0000E+00  1.9624E-04  0.0000E+00
 30  7.8504E-04  8.4063E-04  8.1813E-04  8.3144E-04  8.3115E-04  8.0489E-04  6.8440E-04  7.6761E-04  6.6391E-04
 31  0.0000E+00  6.5685E-05  0.0000E+00  6.7373E-05  0.0000E+00  0.0000E+00  0.0000E+00  0.0000E+00  2.0297E-04
 32  0.0000E+00  1.2032E-04  0.0000E+00  0.0000E+00  1.1352E-04  2.7942E-04  3.1085E-05  0.0000E+00  1.9083E-04
 33  0.0000E+00  1.3846E-04  0.0000E+00  3.0656E-04  0.0000E+00  2.3215E-04  6.5917E-05  6.2674E-04  3.6243E-04
 34  0.0000E+00  2.7187E-04  5.5820E-05  3.6412E-04  0.0000E+00  4.9189E-04  0.0000E+00  2.8475E-04  1.3665E-04
 35  0.0000E+00  1.0975E-04  6.9803E-04  0.0000E+00  0.0000E+00  5.7156E-04  0.0000E+00  0.0000E+00  0.0000E+00
 36  0.0000E+00  6.6163E-05  5.5083E-04  0.0000E+00  0.0000E+00  6.7497E-04  0.0000E+00  0.0000E+00  4.6057E-04
 37  0.0000E+00  1.4366E-04  2.2255E-04  2.1540E-05  6.6104E-04  0.0000E+00  0.0000E+00  4.6112E-04  6.2315E-04
 38  0.0000E+00  2.3730E-04  6.9863E-04  0.0000E+00  9.8249E-05  0.0000E+00  9.7072E-04  0.0000E+00  0.0000E+00
 39  0.0000E+00  1.9915E-04  0.0000E+00  0.0000E+00  2.4571E-03  0.0000E+00  0.0000E+00  1.9409E-04  0.0000E+00
 40  0.0000E+00  3.6191E-04  1.5058E-03  0.0000E+00  0.0000E+00  0.0000E+00  0.0000E+00  0.0000E+00  0.0000E+00
 41  0.0000E+00  1.3031E-03  0.0000E+00  0.0000E+00  1.4310E-03  3.3875E-03  0.0000E+00  1.3457E-03  0.0000E+00
 42  0.0000E+00  9.3041E-04  0.0000E+00  3.2081E-03  0.0000E+00  0.0000E+00  0.0000E+00  0.0000E+00  2.6816E-03
 43  0.0000E+00  3.9083E-03  1.6995E-03  0.0000E+00  2.4828E-02  0.0000E+00  2.8481E-03  0.0000E+00  0.0000E+00
 44  1.8512E-01  1.8795E-01  1.9405E-01  1.8014E-01  1.6421E-01  1.8797E-01  1.8427E-01  1.9408E-01  1.5275E-01
 45  9.7805E-01  9.0133E-01  8.8810E-01  9.0998E-01  9.4140E-01  8.9194E-01  8.7128E-01  9.3359E-01  8.9731E-01
 46  1.0355E+00  9.7079E-01  9.9130E-01  9.9794E-01  1.0177E+00  1.0045E+00  9.8990E-01  9.6575E-01  9.8041E-01
 47  4.5745E-01  4.1371E-01  4.1894E-01  3.9384E-01  4.5745E-01  4.3336E-01  4.1791E-01  4.1805E-01  4.4545E-01
 48  2.6091E-01  2.9555E-01  2.8472E-01  4.5031E-01  3.1092E-01  3.0498E-01  1.7442E-01  2.4409E-01  2.9608E-01
 49  0.0000E+00  3.7816E-02  1.9442E-02  0.0000E+00  0.0000E+00  0.0000E+00  3.9772E-02  1.0286E-02  6.2099E-04
 50  8.6321E-02  1.2557E-01  2.1730E-01  1.2663E-01  0.0000E+00  2.1070E-01  2.3241E-01  7.0880E-02  7.5307E-02
 51  0.0000E+00  6.7160E-05  1.2506E-04  4.8953E-05  0.0000E+00  0.0000E+00  0.0000E+00  0.0000E+00  2.7185E-04
 52  2.6103E-04  3.2610E-05  6.2448E-06  0.0000E+00  0.0000E+00  6.0382E-05  2.3424E-04  5.5635E-05  9.5228E-05
 53  0.0000E+00  3.9341E-05  1.1250E-04  0.0000E+00  2.0507E-05  0.0000E+00  6.5363E-06  6.5485E-05  0.0000E+00
 54  6.0411E-04  2.2609E-04  2.0787E-04  2.3594E-04  2.3848E-04  2.9720E-04  2.2862E-04  1.7013E-04  2.0349E-04
 55  1.2694E-03  1.1529E-03  1.1934E-03  1.1625E-03  1.1345E-03  1.2241E-03  9.9716E-04  1.1835E-03  9.2091E-04
 56  2.1904E-03  1.7860E-03  1.8938E-03  1.7331E-03  1.8034E-03  1.8740E-03  1.5400E-03  1.7344E-03  1.8498E-03
 57  0.0000E+00  1.8241E-04  6.9614E-04  0.0000E+00  0.0000E+00  0.0000E+00  0.0000E+00  3.0734E-04  9.5594E-05
 58  0.0000E+00  3.0559E-04  4.6918E-04  2.0249E-04  0.0000E+00  0.0000E+00  0.0000E+00  2.7438E-04  7.2859E-04
 59  4.9088E-05  1.8795E-04  8.4097E-04  0.0000E+00  1.1825E-05  8.3546E-04  3.4519E-04  0.0000E+00  0.0000E+00
 60  0.0000E+00  9.4400E-05  0.0000E+00  0.0000E+00  0.0000E+00  0.0000E+00  0.0000E+00  0.0000E+00  0.0000E+00
 61  0.0000E+00  7.7558E-05  0.0000E+00  0.0000E+00  0.0000E+00  0.0000E+00  0.0000E+00  0.0000E+00  0.0000E+00
 62  0.0000E+00  9.6369E-05  0.0000E+00  0.0000E+00  0.0000E+00  0.0000E+00  0.0000E+00  3.9432E-04  2.1590E-04
 63  0.0000E+00  2.6102E-04  0.0000E+00  0.0000E+00  0.0000E+00  0.0000E+00  0.0000E+00  0.0000E+00  1.9769E-03
 64  0.0000E+00  4.0287E-04  0.0000E+00  0.0000E+00  5.0862E-04  0.0000E+00  2.5505E-03  0.0000E+00  0.0000E+00
 65  0.0000E+00  7.0580E-04  2.4112E-03  0.0000E+00  0.0000E+00  0.0000E+00  0.0000E+00  0.0000E+00  0.0000E+00
 66  0.0000E+00  1.7991E-03  0.0000E+00  0.0000E+00  0.0000E+00  0.0000E+00  2.6734E-03  0.0000E+00  3.3522E-03
 67  6.8027E-03  2.4569E-03  0.0000E+00  0.0000E+00  9.3599E-03  1.0601E-02  0.0000E+00  0.0000E+00  0.0000E+00
 68  0.0000E+00  5.4862E-03  0.0000E+00  2.0236E-02  2.8250E-02  0.0000E+00  2.3110E-02  1.6824E-02  0.0000E+00
 69  0.0000E+00  1.3546E-02  7.0660E-02  4.0316E-02  4.2038E-02  1.4695E-03  0.0000E+00  0.0000E+00  0.0000E+00
 70  0.0000E+00  2.4589E-02  1.4063E-02  0.0000E+00  0.0000E+00  0.0000E+00  0.0000E+00  0.0000E+00  5.2903E-02
 71  0.0000E+00  2.6696E-02  0.0000E+00  0.0000E+00  2.9211E-02  0.0000E+00  0.0000E+00  0.0000E+00  9.9661E-02
 72  0.0000E+00  3.0963E-02  7.8294E-03  0.0000E+00  0.0000E+00  0.0000E+00  1.4194E-02  0.0000E+00  0.0000E+00
 73  0.0000E+00  3.8441E-02  0.0000E+00  6.5182E-02  5.2810E-04  0.0000E+00  1.1901E-01  0.0000E+00  0.0000E+00
 74  0.0000E+00  4.8941E-02  0.0000E+00  0.0000E+00  0.0000E+00  0.0000E+00  0.0000E+00  5.9266E-02  0.0000E+00
 75  0.0000E+00  5.1506E-02  5.4290E-02  1.0941E-02  0.0000E+00  0.0000E+00  3.3597E-03  2.1440E-02  7.6076E-02
 76  0.0000E+00  8.2998E-05  1.0790E-04  4.7703E-04  0.0000E+00  5.4825E-06  4.6125E-05  0.0000E+00  0.0000E+00
 77  0.0000E+00  2.0657E-05  0.0000E+00  5.9729E-05  0.0000E+00  0.0000E+00  0.0000E+00  0.0000E+00  0.0000E+00
 78  0.0000E+00  2.0909E-05  0.0000E+00  0.0000E+00  3.9676E-05  4.5656E-05  5.7482E-05  5.4637E-05  0.0000E+00
 79  0.0000E+00  2.2608E-05  0.0000E+00  3.1609E-06  0.0000E+00  0.0000E+00  0.0000E+00  0.0000E+00  3.3328E-06
 80  6.5963E-05  8.1457E-05  0.0000E+00  3.2423E-04  3.5592E-05  3.1755E-04  5.0303E-05  1.6554E-04  4.5881E-05
 81  0.0000E+00  2.4371E-05  0.0000E+00  0.0000E+00  0.0000E+00  5.6947E-05  1.1947E-04  2.6036E-05  5.3646E-07
 82  0.0000E+00  2.4472E-05  0.0000E+00  1.2079E-04  0.0000E+00  0.0000E+00  0.0000E+00  0.0000E+00  0.0000E+00
 83  0.0000E+00  1.1910E-04  0.0000E+00  0.0000E+00  2.1372E-04  2.5728E-04  3.2256E-04  0.0000E+00  0.0000E+00
 84  0.0000E+00  7.1337E-05  0.0000E+00  0.0000E+00  0.0000E+00  0.0000E+00  0.0000E+00  0.0000E+00  0.0000E+00
 85  0.0000E+00  1.8132E-04  1.9272E-04  1.3127E-04  0.0000E+00  5.8032E-04  6.0785E-04  0.0000E+00  1.4376E-04
 86  0.0000E+00  1.4315E-04  0.0000E+00  2.4723E-04  0.0000E+00  0.0000E+00  0.0000E+00  0.0000E+00  2.1448E-04
 87  0.0000E+00  2.2091E-04  0.0000E+00  2.8633E-04  0.0000E+00  0.0000E+00  0.0000E+00  1.6713E-03  2.6809E-05
 88  0.0000E+00  1.3579E-04  9.7526E-04  0.0000E+00  0.0000E+00  0.0000E+00  0.0000E+00  0.0000E+00  0.0000E+00
 89  0.0000E+00  3.6585E-04  0.0000E+00  1.8399E-03  0.0000E+00  0.0000E+00  0.0000E+00  0.0000E+00  0.0000E+00
 90  0.0000E+00  6.2036E-04  0.0000E+00  0.0000E+00  1.2222E-03  0.0000E+00  0.0000E+00  0.0000E+00  0.0000E+00
 91  0.0000E+00  1.7574E-03  2.6366E-03  0.0000E+00  4.3755E-03  0.0000E+00  0.0000E+00  0.0000E+00  0.0000E+00
 92  2.0794E-04  1.5193E-03  0.0000E+00  2.0376E-03  0.0000E+00  9.8606E-03  1.6281E-04  0.0000E+00  0.0000E+00
 93  0.0000E+00  8.9385E-03  4.3648E-03  0.0000E+00  0.0000E+00  2.1535E-03  0.0000E+00  2.2433E-02  0.0000E+00
 94  0.0000E+00  2.1212E-02  0.0000E+00  0.0000E+00  0.0000E+00  2.0705E-02  0.0000E+00  0.0000E+00  0.0000E+00
 95  1.4312E-01  5.9548E-02  7.7466E-02  5.9716E-02  3.4761E-02  1.7345E-01  9.3341E-03  1.0463E-01  1.1316E-02
 96  1.1818E-01  6.5293E-02  1.8761E-02  5.7343E-02  5.0834E-02  6.9609E-02  0.0000E+00  1.0738E-01  1.4447E-01
 97  0.0000E+00  9.9234E-02  7.8257E-02  1.0778E-01  1.3949E-01  0.0000E+00  1.0447E-01  0.0000E+00  1.7340E-01
 98  0.0000E+00  1.6631E-01  2.2168E-01  0.0000E+00  0.0000E+00  6.9937E-02  1.1909E-01  2.7551E-01  0.0000E+00
 99  4.1512E-01  1.6934E-01  1.1278E-01  4.0278E-02  8.5940E-03  2.5751E-01  0.0000E+00  4.5486E-03  2.2883E-01
100  2.2651E-01  1.8098E-01  3.2704E-01  1.5396E-01  5.4021E-02  9.1070E-01  6.3559E-01  0.0000E+00  4.7811E-01
101  0.0000E+00  4.3848E-05  0.0000E+00  7.9452E-05  0.0000E+00  2.3720E-05  0.0000E+00  6.3344E-05  0.0000E+00
102  2.6852E-08  1.2316E-05  0.0000E+00  1.0154E-05  6.2961E-06  6.8868E-05  0.0000E+00  0.0000E+00  3.4608E-05
103  0.0000E+00  1.3972E-05  5.5192E-05  4.3116E-05  2.8710E-06  0.0000E+00  0.0000E+00  0.0000E+00  4.6748E-05
104  0.0000E+00  6.6961E-05  0.0000E+00  4.8707E-05  3.3838E-04  7.0569E-05  1.6717E-04  2.0567E-05  0.0000E+00
105  0.0000E+00  1.5040E-04  0.0000E+00  6.0642E-06  3.9572E-04  0.0000E+00  0.0000E+00  1.0701E-04  4.7926E-05
106  0.0000E+00  4.1840E-05  0.0000E+00  4.5959E-05  2.9101E-06  0.0000E+00  7.7588E-05  0.0000E+00  0.0000E+00
107  0.0000E+00  1.0673E-04  4.6801E-04  1.1750E-04  0.0000E+00  0.0000E+00  1.4457E-04  0.0000E+00  1.1941E-04
108  0.0000E+00  6.9519E-05  0.0000E+00  0.0000E+00  3.1558E-04  0.0000E+00  6.1464E-04  0.0000E+00  0.0000E+00
109  0.0000E+00  1.0648E-04  4.3057E-04  0.0000E+00  0.0000E+00  0.0000E+00  0.0000E+00  0.0000E+00  0.0000E+00
110  0.0000E+00  1.5001E-04  0.0000E+00  0.0000E+00  3.2162E-04  5.4518E-04  0.0000E+00  0.0000E+00  0.0000E+00
111  0.0000E+00  1.0370E-04  0.0000E+00  0.0000E+00  0.0000E+00  0.0000E+00  0.0000E+00  0.0000E+00  0.0000E+00
112  0.0000E+00  1.2610E-04  0.0000E+00  0.0000E+00  0.0000E+00  0.0000E+00  0.0000E+00  1.9252E-04  0.0000E+00
113  0.0000E+00  1.6318E-04  0.0000E+00  0.0000E+00  0.0000E+00  0.0000E+00  5.7505E-04  0.0000E+00  0.0000E+00
114  0.0000E+00  4.4637E-04  0.0000E+00  0.0000E+00  0.0000E+00  0.0000E+00  0.0000E+00  0.0000E+00  0.0000E+00
115  0.0000E+00  8.5650E-04  0.0000E+00  0.0000E+00  0.0000E+00  0.0000E+00  0.0000E+00  0.0000E+00  0.0000E+00
116  2.6340E-07  2.1456E-03  0.0000E+00  0.0000E+00  0.0000E+00  1.1806E-02  0.0000E+00  0.0000E+00  1.5431E-03
117  0.0000E+00  3.0725E-03  0.0000E+00  0.0000E+00  0.0000E+00  5.1512E-03  0.0000E+00  0.0000E+00  0.0000E+00
118  0.0000E+00  1.3317E-02  3.7205E-03  0.0000E+00  4.4636E-02  0.0000E+00  0.0000E+00  0.0000E+00  4.8522E-03
119  0.0000E+00  4.2878E-02  0.0000E+00  0.0000E+00  5.7525E-02  0.0000E+00  1.0458E-02  2.1473E-02  3.4667E-04
120  6.3075E-02  7.5940E-02  0.0000E+00  2.8433E-01  1.0983E-01  1.4755E-01  9.7488E-02  1.5011E-01  0.0000E+00
121  1.4153E-01  2.1019E-01  2.6994E-01  8.0520E-02  0.0000E+00  2.8944E-01  8.6509E-02  7.2171E-02  1.4219E-01
122  5.6087E-01  1.7319E-01  1.0727E-01  4.1110E-01  3.9816E-01  1.2218E-01  9.1160E-02  5.5489E-01  7.4312E-02
123  1.6546E+01  1.6944E+01  1.6943E+01  1.6970E+01  1.7090E+01  1.6881E+01  1.7013E+01  1.7218E+01  1.6956E+01
124  3.1513E+01  3.1098E+01  3.1282E+01  3.0872E+01  3.1546E+01  3.0607E+01  3.1106E+01  3.1041E+01  3.1136E+01
125  3.4649E+01  3.3634E+01  3.3884E+01  3.4058E+01  3.4158E+01  3.4042E+01  3.3881E+01  3.3803E+01  3.4224E+01
126  0.0000E+00  8.2937E-06  0.0000E+00  0.0000E+00  0.0000E+00  0.0000E+00  0.0000E+00  0.0000E+00  0.0000E+00
127  0.0000E+00  1.5940E-05  0.0000E+00  6.4609E-07  0.0000E+00  0.0000E+00  0.0000E+00  2.7357E-05  1.8714E-05
128  0.0000E+00  4.1669E-05  3.3511E-05  0.0000E+00  5.3202E-05  0.0000E+00  0.0000E+00  0.0000E+00  1.1911E-04
129  0.0000E+00  2.2821E-05  0.0000E+00  0.0000E+00  0.0000E+00  0.0000E+00  0.0000E+00  0.0000E+00  7.1094E-05
130  0.0000E+00  3.1115E-05  0.0000E+00  0.0000E+00  0.0000E+00  0.0000E+00  0.0000E+00  0.0000E+00  0.0000E+00
131  1.2945E-07  8.2422E-05  0.0000E+00  0.0000E+00  1.7661E-04  2.9778E-04  2.8682E-04  0.0000E+00  2.3751E-04
132  0.0000E+00  4.9718E-05  0.0000E+00  0.0000E+00  0.0000E+00  0.0000E+00  4.5498E-04  0.0000E+00  0.0000E+00
133  0.0000E+00  5.3806E-05  0.0000E+00  0.0000E+00  2.5842E-04  0.0000E+00  0.0000E+00  0.0000E+00  1.7656E-06
134  0.0000E+00  3.3663E-05  1.2342E-05  0.0000E+00  0.0000E+00  0.0000E+00  0.0000E+00  0.0000E+00  0.0000E+00
135  0.0000E+00  6.0999E-05  0.0000E+00  0.0000E+00  0.0000E+00  0.0000E+00  0.0000E+00  0.0000E+00  0.0000E+00
136  0.0000E+00  9.9583E-05  0.0000E+00  0.0000E+00  0.0000E+00  0.0000E+00  0.0000E+00  0.0000E+00  1.1239E-03
137  0.0000E+00  1.6362E-04  0.0000E+00  0.0000E+00  7.5992E-04  8.3745E-04  0.0000E+00  0.0000E+00  0.0000E+00
138  0.0000E+00  2.8895E-04  0.0000E+00  0.0000E+00  0.0000E+00  0.0000E+00  0.0000E+00  0.0000E+00  0.0000E+00
139  0.0000E+00  6.2773E-04  0.0000E+00  0.0000E+00  0.0000E+00  3.2338E-04  0.0000E+00  2.4246E-03  0.0000E+00
140  0.0000E+00  2.7733E-03  0.0000E+00  0.0000E+00  0.0000E+00  0.0000E+00  0.0000E+00  0.0000E+00  0.0000E+00
141  0.0000E+00  5.6861E-03  0.0000E+00  0.0000E+00  0.0000E+00  0.0000E+00  0.0000E+00  0.0000E+00  0.0000E+00
142  0.0000E+00  8.7224E-03  2.7935E-02  0.0000E+00  0.0000E+00  0.0000E+00  0.0000E+00  0.0000E+00  1.4956E-02
143  0.0000E+00  3.1287E-02  0.0000E+00  4.0068E-03  5.9715E-03  0.0000E+00  0.0000E+00  0.0000E+00  0.0000E+00
144  0.0000E+00  7.7384E-02  0.0000E+00  2.6911E-02  0.0000E+00  5.9246E-02  6.9473E-02  6.7173E-02  0.0000E+00
145  0.0000E+00  7.8077E-02  0.0000E+00  1.7067E-01  1.3702E-01  5.6257E-02  1.9088E-01  0.0000E+00  0.0000E+00
146  0.0000E+00  1.2362E-01  0.0000E+00  1.1306E-01  2.5749E-01  0.0000E+00  0.0000E+00  1.9802E-01  1.5810E-01
147  1.0845E-01  5.1042E-02  0.0000E+00  0.0000E+00  0.0000E+00  2.2187E-01  1.8999E-01  0.0000E+00  0.0000E+00
148  1.2827E-01  3.4000E-01  6.0765E-01  2.8041E-01  4.5289E-01  2.3899E-01  1.7443E-01  2.8173E-01  1.0035E-01
149  1.4091E-01  6.5077E-01  1.6261E-01  7.3268E-01  0.0000E+00  6.1747E-01  4.7166E-01  4.5563E-01  5.5084E-01
150  1.2211E+01  1.2306E+01  1.2515E+01  1.2089E+01  1.2248E+01  1.2081E+01  1.2262E+01  1.2497E+01  1.2220E+01

# AV, chi2 & Mass for <> & i_chain = 1 ...  7 solutions
AV       1.5218      1.5158      1.5176      1.5186      1.5180      1.5206      1.5168      1.5172      1.5187
chi2 2.3790E+00  2.4259E+00  2.4128E+00  2.4076E+00  2.4123E+00  2.4102E+00  2.4123E+00  2.4094E+00  2.4114E+00
Mass 9.9550E-10  9.8780E-10  9.9387E-10  9.9164E-10  9.8869E-10  9.9290E-10  9.9602E-10  9.9143E-10  9.9451E-10
 -32.87                                  [v0_min (km/s) before EX0s...]
  82.86                                  [vd_min (km/s) before EX0s...]


## Synthetic spectrum (Best Model) ##l_obs f_obs f_syn wei
 3070    [Nl_obs]
 3359.00    0.23337   0.33747   -1.000
 3360.00    0.21837   0.32643   -1.000
 3361.00    0.24356   0.33833   -1.000
 3362.00    0.23956   0.36589   -1.000
 3363.00    0.23084   0.39394   -1.000
 3364.00    0.25042   0.40801   -1.000
 3365.00    0.27942   0.40306   -1.000
 3366.00    0.28410   0.38598   -1.000
 3367.00    0.27359   0.36669   -1.000
 3368.00    0.28991   0.35062   -1.000
 3369.00    0.28567   0.33988   -1.000
 3370.00    0.25771   0.33397   -1.000
 3371.00    0.25819   0.33520   -1.000
 3372.00    0.23897   0.34691   -1.000
 3373.00    0.24753   0.36860   -1.000
 3374.00    0.29404   0.39457   -1.000
 3375.00    0.29805   0.41615   -1.000
 3376.00    0.32900   0.42434   -1.000
 3377.00    0.31456   0.41599   -1.000
 3378.00    0.30032   0.39825   -1.000
 3379.00    0.29737   0.38336   -1.000
 3380.00    0.29424   0.37999   -1.000
 3381.00    0.30490   0.38815   -1.000
 3382.00    0.28439   0.40074   -1.000
 3383.00    0.27996   0.41271   -1.000
 3384.00    0.30399   0.42204   -1.000
 3385.00    0.31186   0.42781   -1.000
 3386.00    0.31179   0.42861   -1.000
 3387.00    0.30967   0.42636   -1.000
 3388.00    0.32856   0.42402   -1.000
 3389.00    0.35873   0.42141   -1.000
 3390.00    0.35335   0.41468   -1.000
 3391.00    0.34900   0.40388   -1.000
 3392.00    0.33566   0.39634   -1.000
 3393.00    0.31376   0.39911   -1.000
 3394.00    0.33522   0.41251   -1.000
 3395.00    0.33797   0.43057   -1.000
 3396.00    0.36227   0.44749   32.113
 3397.00    0.38269   0.46213   30.910
 3398.00    0.39716   0.47241   30.522
 3399.00    0.41046   0.47560   30.823
 3400.00    0.39901   0.47094   32.194
 3401.00    0.38993   0.45971   32.508
 3402.00    0.37780   0.44607   33.086
 3403.00    0.38746   0.43480   33.690
 3404.00    0.38664   0.42647   34.232
 3405.00    0.39997   0.41963   34.386
 3406.00    0.38835   0.41327   34.944
 3407.00    0.41083   0.40937   35.120
 3408.00    0.39318   0.41086   34.878
 3409.00    0.39011   0.41667   33.813
 3410.00    0.39481   0.42004   33.594
 3411.00    0.39772   0.41339   35.081
 3412.00    0.40469   0.39848   35.693
 3413.00    0.39231   0.38465   35.582
 3414.00    0.38724   0.38195   34.664
 3415.00    0.41341   0.39384   33.156
 3416.00    0.38986   0.41460   31.580
 3417.00    0.37944   0.43734   30.012
 3418.00    0.39227   0.45656   29.915
 3419.00    0.43447   0.46850   29.714
 3420.00    0.43502   0.46851   29.921
 3421.00    0.41261   0.45642   30.812
 3422.00    0.42448   0.44004   31.465
 3423.00    0.43906   0.43012   30.534
 3424.00    0.43753   0.42857   29.747
 3425.00    0.42272   0.43255   30.307
 3426.00    0.40628   0.44020   -1.000
 3427.00    0.43439   0.45266   -1.000
 3428.00    0.46855   0.46879  262.234
 3429.00    0.45652   0.47911   -1.000
 3430.00    0.46242   0.47412  231.505
 3431.00    0.42555   0.45745   29.721
 3432.00    0.43743   0.44144   30.337
 3433.00    0.43546   0.43723  262.234
 3434.00    0.41541   0.44269   -1.000
 3435.00    0.39752   0.44618   29.554
 3436.00    0.41353   0.43958   30.969
 3437.00    0.42415   0.42136   32.863
 3438.00    0.41542   0.39513   35.454
 3439.00    0.39753   0.36705   36.818
 3440.00    0.36676   0.34457   36.855
 3441.00    0.35230   0.33309   36.647
 3442.00    0.33824   0.33508   35.152
 3443.00    0.33681   0.34618   33.218
 3444.00    0.37316   0.36136   31.404
 3445.00    0.39330   0.37846   31.417
 3446.00    0.37939   0.39774   -1.000
 3447.00    0.40564   0.41862   -1.000
 3448.00    0.45490   0.43837   -1.000
 3449.00    0.47329   0.44938   -1.000
 3450.00    0.46086   0.44646   -1.000
 3451.00    0.45353   0.43558   -1.000
 3452.00    0.43094   0.42849  262.234
 3453.00    0.44459   0.43069   -1.000
 3454.00    0.46330   0.43817   -1.000
 3455.00    0.46176   0.44041   -1.000
 3456.00    0.42525   0.43202  205.321
 3457.00    0.43568   0.41583   29.618
 3458.00    0.43166   0.39850   29.995
 3459.00    0.42753   0.38660   31.076
 3460.00    0.43251   0.38314   -1.000
 3461.00    0.42596   0.39088   -1.000
 3462.00    0.41029   0.40682  262.234
 3463.00    0.42658   0.42042  262.234
 3464.00    0.45103   0.42375   -1.000
 3465.00    0.46883   0.42260   -1.000
 3466.00    0.45024   0.42593   -1.000
 3467.00    0.43358   0.43725  251.780
 3468.00    0.46198   0.45210  250.281
 3469.00    0.47961   0.46177   -1.000
 3470.00    0.48296   0.46046   -1.000
 3471.00    0.46732   0.44643   -1.000
 3472.00    0.47113   0.42363   -1.000
 3473.00    0.43081   0.39827   29.906
 3474.00    0.42313   0.37840   30.942
 3475.00    0.41919   0.37105   31.862
 3476.00    0.42322   0.37970   -1.000
 3477.00    0.42374   0.39893   -1.000
 3478.00    0.41528   0.41972  253.713
 3479.00    0.45796   0.43440   -1.000
 3480.00    0.46999   0.43967   -1.000
 3481.00    0.46026   0.43579   -1.000
 3482.00    0.42696   0.42761  259.029
 3483.00    0.42789   0.42312  253.022
 3484.00    0.46979   0.42830   -1.000
 3485.00    0.47486   0.44104   -1.000
 3486.00    0.47944   0.45098   -1.000
 3487.00    0.46927   0.44841   -1.000
 3488.00    0.47499   0.43132   -1.000
 3489.00    0.47059   0.40935   -1.000
 3490.00    0.42385   0.39510   -1.000
 3491.00    0.41867   0.39497   -1.000
 3492.00    0.44282   0.40477   -1.000
 3493.00    0.45146   0.41484   -1.000
 3494.00    0.44149   0.41780   -1.000
 3495.00    0.42504   0.41358   -1.000
 3496.00    0.40460   0.41167  262.234
 3497.00    0.39744   0.42137   -1.000
 3498.00    0.40779   0.44206   -1.000
 3499.00    0.44503   0.46250   -1.000
 3500.00    0.48110   0.47492  230.794
 3501.00    0.48513   0.48323  229.708
 3502.00    0.50481   0.48967   -1.000
 3503.00    0.53826   0.49091   -1.000
 3504.00    0.52135   0.48495   -1.000
 3505.00    0.51833   0.47513   -1.000
 3506.00    0.52133   0.46734   -1.000
 3507.00    0.50649   0.46211   -1.000
 3508.00    0.49388   0.45509   -1.000
 3509.00    0.47540   0.44495   -1.000
 3510.00    0.46918   0.43330   -1.000
 3511.00    0.46737   0.42075   -1.000
 3512.00    0.48167   0.40902   -1.000
 3513.00    0.46451   0.40284   -1.000
 3514.00    0.44693   0.40991   -1.000
 3515.00    0.45019   0.43303   -1.000
 3516.00    0.44400   0.46243   -1.000
 3517.00    0.46759   0.48239   -1.000
 3518.00    0.49488   0.48374   -1.000
 3519.00    0.49414   0.46746   -1.000
 3520.00    0.48424   0.44301   -1.000
 3521.00    0.45440   0.41847   -1.000
 3522.00    0.44244   0.39787   29.674
 3523.00    0.45054   0.38061   30.644
 3524.00    0.42311   0.37036   32.932
 3525.00    0.39017   0.37370   -1.000
 3526.00    0.38795   0.39268  262.234
 3527.00    0.40223   0.42132   -1.000
 3528.00    0.43608   0.44876  246.149
 3529.00    0.46903   0.46457  251.189
 3530.00    0.49082   0.46739   -1.000
 3531.00    0.47284   0.46409  249.374
 3532.00    0.46897   0.46370  245.069
 3533.00    0.47055   0.46845  239.965
 3534.00    0.50124   0.47594   -1.000
 3535.00    0.51216   0.48252   -1.000
 3536.00    0.50876   0.48830   -1.000
 3537.00    0.49708   0.49542  232.546
 3538.00    0.52070   0.50144   -1.000
 3539.00    0.51607   0.50170   -1.000
 3540.00    0.51336   0.49633   -1.000
 3541.00    0.51640   0.49135   -1.000
 3542.00    0.51629   0.49362   -1.000
 3543.00    0.51261   0.50146  235.472
 3544.00    0.50199   0.50702  240.030
 3545.00    0.49293   0.50600   -1.000
 3546.00    0.47369   0.50037   -1.000
 3547.00    0.47618   0.49618   -1.000
 3548.00    0.49770   0.49553  243.958
 3549.00    0.49344   0.49529  247.819
 3550.00    0.48490   0.49101  255.592
 3551.00    0.47224   0.48067  262.234
 3552.00    0.46453   0.46724  262.234
 3553.00    0.44822   0.45733  262.234
 3554.00    0.45960   0.45567  257.906
 3555.00    0.46028   0.45955  259.460
 3556.00    0.45718   0.46290  262.234
 3557.00    0.45625   0.46333  262.234
 3558.00    0.45128   0.46305   -1.000
 3559.00    0.44491   0.46695   -1.000
 3560.00    0.43029   0.47528   -1.000
 3561.00    0.45968   0.48121   -1.000
 3562.00    0.46843   0.47556  146.361
 3563.00    0.47374   0.45379   30.017
 3564.00    0.43438   0.42375   31.080
 3565.00    0.42616   0.39939   30.725
 3566.00    0.38522   0.38919   30.688
 3567.00    0.38723   0.38603   31.700
 3568.00    0.40525   0.38080   32.097
 3569.00    0.39629   0.37367   31.022
 3570.00    0.38459   0.37135   33.099
 3571.00    0.38110   0.37918  262.234
 3572.00    0.37819   0.39391   -1.000
 3573.00    0.42849   0.40776   -1.000
 3574.00    0.45195   0.41752   -1.000
 3575.00    0.43220   0.42076   -1.000
 3576.00    0.42690   0.41545  147.811
 3577.00    0.42522   0.40099   31.160
 3578.00    0.41214   0.37963   33.574
 3579.00    0.39704   0.35667   35.217
 3580.00    0.36424   0.34022   35.418
 3581.00    0.35172   0.33401   35.651
 3582.00    0.34751   0.33556   36.596
 3583.00    0.33608   0.33747   37.728
 3584.00    0.34914   0.33563   37.943
 3585.00    0.34654   0.33220   35.982
 3586.00    0.34473   0.33393   34.084
 3587.00    0.35854   0.34592   32.250
 3588.00    0.38055   0.36813   33.333
 3589.00    0.38544   0.39659  262.234
 3590.00    0.39268   0.42272   -1.000
 3591.00    0.41540   0.43953   -1.000
 3592.00    0.45554   0.44644  258.100
 3593.00    0.48016   0.45217   -1.000
 3594.00    0.46869   0.46413  237.651
 3595.00    0.45463   0.48232   -1.000
 3596.00    0.48504   0.50042   -1.000
 3597.00    0.48836   0.51387   -1.000
 3598.00    0.50329   0.52352   -1.000
 3599.00    0.52441   0.52659  237.311
 3600.00    0.52625   0.51755  250.445
 3601.00    0.52931   0.49640   -1.000
 3602.00    0.51302   0.47046   -1.000
 3603.00    0.49115   0.44848   -1.000
 3604.00    0.45710   0.43555   -1.000
 3605.00    0.43998   0.42848   -1.000
 3606.00    0.46152   0.42072   -1.000
 3607.00    0.44362   0.40993   -1.000
 3608.00    0.41608   0.40171   -1.000
 3609.00    0.41810   0.40401   -1.000
 3610.00    0.42550   0.41802  260.139
 3611.00    0.45633   0.43749   -1.000
 3612.00    0.49548   0.45495   -1.000
 3613.00    0.48514   0.47008   -1.000
 3614.00    0.47843   0.48103  244.436
 3615.00    0.48798   0.48075  262.234
 3616.00    0.49047   0.46262   -1.000
 3617.00    0.46930   0.43246   33.628
 3618.00    0.44062   0.40868   -1.000
 3619.00    0.42504   0.40936   -1.000
 3620.00    0.43374   0.43229  236.932
 3621.00    0.45381   0.46464  231.753
 3622.00    0.47684   0.49318   -1.000
 3623.00    0.50729   0.51666  219.346
 3624.00    0.52470   0.54069   -1.000
 3625.00    0.55448   0.56668  208.965
 3626.00    0.56106   0.58601   -1.000
 3627.00    0.58331   0.58649  229.239
 3628.00    0.57626   0.56064   -1.000
 3629.00    0.56207   0.51454   -1.000
 3630.00    0.51995   0.46719   -1.000
 3631.00    0.47042   0.44000   -1.000
 3632.00    0.44034   0.43759  257.730
 3633.00    0.44907   0.45306  251.248
 3634.00    0.44900   0.47312   -1.000
 3635.00    0.47224   0.49132   -1.000
 3636.00    0.51635   0.50876  220.061
 3637.00    0.53627   0.52927  213.805
 3638.00    0.56281   0.55008  214.509
 3639.00    0.56193   0.56383  220.298
 3640.00    0.58702   0.56488   -1.000
 3641.00    0.58043   0.55240   -1.000
 3642.00    0.54461   0.53179   -1.000
 3643.00    0.50458   0.50955  250.739
 3644.00    0.48808   0.48862  254.687
 3645.00    0.48634   0.46944   -1.000
 3646.00    0.47434   0.45294   -1.000
 3647.00    0.45979   0.44369   -1.000
 3648.00    0.46844   0.44838   -1.000
 3649.00    0.46627   0.46793  228.037
 3650.00    0.49480   0.49841  219.129
 3651.00    0.52636   0.53092  214.178
 3652.00    0.54084   0.55766   -1.000
 3653.00    0.56519   0.57453  210.635
 3654.00    0.57128   0.58666   -1.000
 3655.00    0.57662   0.59900   -1.000
 3656.00    0.60000   0.61297   -1.000
 3657.00    0.61000   0.62561   -1.000
 3658.00    0.60702   0.63258   -1.000
 3659.00    0.62398   0.63271  205.777
 3660.00    0.62336   0.62555  208.205
 3661.00    0.60522   0.61287  211.484
 3662.00    0.58906   0.59925  212.345
 3663.00    0.58264   0.59044  210.143
 3664.00    0.58612   0.58743  211.054
 3665.00    0.58433   0.58674  215.248
 3666.00    0.58919   0.58246  218.077
 3667.00    0.58705   0.57248   -1.000
 3668.00    0.58720   0.56186   -1.000
 3669.00    0.57577   0.55956   -1.000
 3670.00    0.56339   0.56994  208.284
 3671.00    0.57335   0.58618  207.728
 3672.00    0.59478   0.59884  207.783
 3673.00    0.61276   0.60303  209.300
 3674.00    0.61190   0.59750  215.937
 3675.00    0.61563   0.58257   -1.000
 3676.00    0.59656   0.55965   -1.000
 3677.00    0.56998   0.53349   -1.000
 3678.00    0.54536   0.51200   -1.000
 3679.00    0.51758   0.50323   -1.000
 3680.00    0.52802   0.50950   -1.000
 3681.00    0.54242   0.52460   -1.000
 3682.00    0.54676   0.53768  225.558
 3683.00    0.55291   0.53961   -1.000
 3684.00    0.53049   0.52652  243.634
 3685.00    0.51506   0.50446  245.806
 3686.00    0.50939   0.48697   -1.000
 3687.00    0.50427   0.48848   -1.000
 3688.00    0.51349   0.51157  207.836
 3689.00    0.53636   0.54798  203.119
 3690.00    0.57889   0.58111  205.556
 3691.00    0.62280   0.59723   -1.000
 3692.00    0.61383   0.59350   -1.000
 3693.00    0.61172   0.58119   -1.000
 3694.00    0.60368   0.57264   -1.000
 3695.00    0.58363   0.57288  206.287
 3696.00    0.57839   0.58300  199.718
 3697.00    0.60522   0.60073  195.135
 3698.00    0.62411   0.62037  193.765
 3699.00    0.63253   0.63268  198.574
 3700.00    0.64894   0.63017   -1.000
 3701.00    0.64155   0.60703   -1.000
 3702.00    0.62781   0.56489   -1.000
 3703.00    0.58555   0.51421   -1.000
 3704.00    0.54212   0.47149   -1.000
 3705.00    0.50932   0.44669   -1.000
 3706.00    0.48015   0.44170   -1.000
 3707.00    0.49047   0.44913   -1.000
 3708.00    0.49292   0.46533   -1.000
 3709.00    0.51418   0.49053   -1.000
 3710.00    0.54706   0.52356   -1.000
 3711.00    0.59267   0.55944   -1.000
 3712.00    0.63607   0.59230   -1.000
 3713.00    0.64961   0.61389   -1.000
 3714.00    0.66132   0.61824   -1.000
 3715.00    0.65914   0.60431   -1.000
 3716.00    0.63189   0.57329   -1.000
 3717.00    0.60990   0.52715   -1.000
 3718.00    0.54925   0.47232   -1.000
 3719.00    0.48749   0.42083   36.554
 3720.00    0.42964   0.38863   -1.000
 3721.00    0.41561   0.38864   -1.000
 3722.00    0.43929   0.41797   -1.000
 3723.00    0.47061   0.46271  213.810
 3724.00    0.53016   0.50363   -1.000
 3725.00    0.56076   0.52539   -1.000
 3726.00    0.56836   0.52744   -1.000
 3727.00    0.53741   0.52333   -1.000
 3728.00    0.51678   0.52229  224.891
 3729.00    0.52932   0.51823   -1.000
 3730.00    0.55109   0.49960   -1.000
 3731.00    0.52984   0.46121   30.163
 3732.00    0.47457   0.41098   33.321
 3733.00    0.42955   0.36573   33.912
 3734.00    0.39572   0.33792   31.850
 3735.00    0.37641   0.33621   36.174
 3736.00    0.39470   0.36044   -1.000
 3737.00    0.43291   0.40389   -1.000
 3738.00    0.46440   0.45445  220.480
 3739.00    0.50418   0.49835  221.474
 3740.00    0.53256   0.52051   -1.000
 3741.00    0.54354   0.51631   -1.000
 3742.00    0.53220   0.49155   -1.000
 3743.00    0.51175   0.45952   -1.000
 3744.00    0.48555   0.43031   -1.000
 3745.00    0.45026   0.40795   30.305
 3746.00    0.42001   0.38812   31.929
 3747.00    0.40932   0.37037   39.851
 3748.00    0.39976   0.36183   -1.000
 3749.00    0.38595   0.37204   -1.000
 3750.00    0.41578   0.40519  224.221
 3751.00    0.47038   0.45368   -1.000
 3752.00    0.51446   0.50455  199.194
 3753.00    0.55826   0.54708  198.650
 3754.00    0.59985   0.56955   -1.000
 3755.00    0.60001   0.56249   -1.000
 3756.00    0.57344   0.53080   -1.000
 3757.00    0.54148   0.49277   -1.000
 3758.00    0.50689   0.46940   -1.000
 3759.00    0.48749   0.46830   -1.000
 3760.00    0.49511   0.47940   -1.000
 3761.00    0.51755   0.48960   -1.000
 3762.00    0.52909   0.49211   -1.000
 3763.00    0.52212   0.48980   -1.000
 3764.00    0.52518   0.48590   -1.000
 3765.00    0.53523   0.48122   -1.000
 3766.00    0.52804   0.47833   -1.000
 3767.00    0.52740   0.48027   -1.000
 3768.00    0.53217   0.48678   -1.000
 3769.00    0.56327   0.49706   -1.000
 3770.00    0.57867   0.51229   -1.000
 3771.00    0.58379   0.53243   -1.000
 3772.00    0.60928   0.55341   -1.000
 3773.00    0.63306   0.56958   -1.000
 3774.00    0.62980   0.57805   -1.000
 3775.00    0.62257   0.58287   -1.000
 3776.00    0.61374   0.58934   -1.000
 3777.00    0.62551   0.59990   -1.000
 3778.00    0.62246   0.61394  188.662
 3779.00    0.62515   0.62832  187.472
 3780.00    0.62258   0.63991  186.634
 3781.00    0.65050   0.64653  187.767
 3782.00    0.67723   0.64680   -1.000
 3783.00    0.67100   0.63728   -1.000
 3784.00    0.64708   0.61466   -1.000
 3785.00    0.61291   0.58159   -1.000
 3786.00    0.58238   0.54671   -1.000
 3787.00    0.53896   0.51970   -1.000
 3788.00    0.53887   0.50760   -1.000
 3789.00    0.54399   0.51035   -1.000
 3790.00    0.52712   0.51929  230.587
 3791.00    0.53257   0.52301  239.248
 3792.00    0.54261   0.51480   -1.000
 3793.00    0.52212   0.49583   -1.000
 3794.00    0.50284   0.47311   -1.000
 3795.00    0.49588   0.45015   -1.000
 3796.00    0.47914   0.42873   -1.000
 3797.00    0.45474   0.41411   -1.000
 3798.00    0.44708   0.41661   -1.000
 3799.00    0.46544   0.44250   -1.000
 3800.00    0.49746   0.48530  212.220
 3801.00    0.50950   0.52948   -1.000
 3802.00    0.54054   0.56358   -1.000
 3803.00    0.57739   0.58065  212.955
 3804.00    0.58384   0.58115  220.204
 3805.00    0.56948   0.57112  221.796
 3806.00    0.54522   0.56180   -1.000
 3807.00    0.53414   0.56244   -1.000
 3808.00    0.54801   0.57386   -1.000
 3809.00    0.56782   0.58596   -1.000
 3810.00    0.57449   0.58633  225.758
 3811.00    0.57061   0.56886  239.749
 3812.00    0.54534   0.53788  253.263
 3813.00    0.51147   0.50500  260.518
 3814.00    0.47741   0.48056  254.227
 3815.00    0.44798   0.47051   -1.000
 3816.00    0.45261   0.47011   -1.000
 3817.00    0.46702   0.46804  262.234
 3818.00    0.47683   0.45654   -1.000
 3819.00    0.44957   0.44101  262.234
 3820.00    0.42006   0.43306  262.234
 3821.00    0.42615   0.43555  262.234
 3822.00    0.43063   0.43915   91.111
 3823.00    0.42893   0.43187   31.088
 3824.00    0.41444   0.41549   31.498
 3825.00    0.39603   0.40109   31.145
 3826.00    0.38491   0.39527   30.634
 3827.00    0.38062   0.39814   30.367
 3828.00    0.38261   0.40436   31.029
 3829.00    0.39987   0.40701   32.749
 3830.00    0.40720   0.40088   34.979
 3831.00    0.39342   0.38570   35.532
 3832.00    0.37316   0.36658   34.590
 3833.00    0.35963   0.35157   33.352
 3834.00    0.36218   0.34608   33.023
 3835.00    0.37893   0.34919   33.784
 3836.00    0.37549   0.35596   34.209
 3837.00    0.37573   0.36233   33.184
 3838.00    0.37650   0.37015   41.817
 3839.00    0.37813   0.38494  262.234
 3840.00    0.38170   0.41047   -1.000
 3841.00    0.41543   0.44475   -1.000
 3842.00    0.45482   0.47982   -1.000
 3843.00    0.47229   0.50800   -1.000
 3844.00    0.48828   0.52474   -1.000
 3845.00    0.50182   0.53230   -1.000
 3846.00    0.49646   0.53367   -1.000
 3847.00    0.48283   0.52949   -1.000
 3848.00    0.47679   0.52111   -1.000
 3849.00    0.46777   0.51390   -1.000
 3850.00    0.47097   0.51380   -1.000
 3851.00    0.48451   0.52003   -1.000
 3852.00    0.48041   0.52443   -1.000
 3853.00    0.47169   0.52093   -1.000
 3854.00    0.47309   0.50942   -1.000
 3855.00    0.45250   0.49413   -1.000
 3856.00    0.44562   0.47773   29.780
 3857.00    0.45045   0.46161   30.936
 3858.00    0.44969   0.45074   40.546
 3859.00    0.43021   0.45278   -1.000
 3860.00    0.40886   0.47018   -1.000
 3861.00    0.42562   0.49686   -1.000
 3862.00    0.48187   0.51960   -1.000
 3863.00    0.51349   0.52986   -1.000
 3864.00    0.51662   0.52857  245.281
 3865.00    0.51561   0.52351  251.557
 3866.00    0.50795   0.51995  262.234
 3867.00    0.48689   0.51653   -1.000
 3868.00    0.47229   0.50924   82.260
 3869.00    0.46228   0.49653   39.998
 3870.00    0.44703   0.48327   -1.000
 3871.00    0.43754   0.47896   -1.000
 3872.00    0.43984   0.48874   -1.000
 3873.00    0.46298   0.50961   -1.000
 3874.00    0.51057   0.52923   -1.000
 3875.00    0.53620   0.53454  260.627
 3876.00    0.53022   0.52183   -1.000
 3877.00    0.50449   0.50285  262.234
 3878.00    0.47757   0.49063  262.234
 3879.00    0.48236   0.48821  262.234
 3880.00    0.48990   0.49202  262.234
 3881.00    0.48222   0.49775   -1.000
 3882.00    0.48602   0.50389   -1.000
 3883.00    0.50032   0.50586  243.253
 3884.00    0.51348   0.49478   -1.000
 3885.00    0.51199   0.46997   -1.000
 3886.00    0.48666   0.44389   -1.000
 3887.00    0.49200   0.43165   -1.000
 3888.00    0.51149   0.44309   -1.000
 3889.00    0.53541   0.47681   -1.000
 3890.00    0.58371   0.52221   -1.000
 3891.00    0.62629   0.56425   -1.000
 3892.00    0.62950   0.59058   -1.000
 3893.00    0.62528   0.59820   -1.000
 3894.00    0.61195   0.59660   -1.000
 3895.00    0.60725   0.59597  193.026
 3896.00    0.62214   0.59839   -1.000
 3897.00    0.63303   0.60045   -1.000
 3898.00    0.64218   0.59960   -1.000
 3899.00    0.63920   0.59888   -1.000
 3900.00    0.63472   0.60103   -1.000
 3901.00    0.64637   0.60215   -1.000
 3902.00    0.65627   0.59750   -1.000
 3903.00    0.63086   0.58780   -1.000
 3904.00    0.60740   0.57977   -1.000
 3905.00    0.59213   0.58233  196.298
 3906.00    0.60199   0.59931  185.768
 3907.00    0.64880   0.62757   -1.000
 3908.00    0.68717   0.65736   -1.000
 3909.00    0.71004   0.68023   -1.000
 3910.00    0.72477   0.69357   -1.000
 3911.00    0.73289   0.69979   -1.000
 3912.00    0.73741   0.70026   -1.000
 3913.00    0.71901   0.69525   -1.000
 3914.00    0.70309   0.68579   -1.000
 3915.00    0.70979   0.67359   -1.000
 3916.00    0.69412   0.65849   -1.000
 3917.00    0.67409   0.63894   -1.000
 3918.00    0.65696   0.61460   -1.000
 3919.00    0.64206   0.58947   -1.000
 3920.00    0.62150   0.57050   -1.000
 3921.00    0.59338   0.56236   -1.000
 3922.00    0.58808   0.56455   -1.000
 3923.00    0.59560   0.56884   -1.000
 3924.00    0.59154   0.56530   -1.000
 3925.00    0.58228   0.54809   -1.000
 3926.00    0.55964   0.51760   34.364
 3927.00    0.51403   0.47966   40.274
 3928.00    0.44817   0.43965   47.280
 3929.00    0.37292   0.40075   55.782
 3930.00    0.31662   0.36194   63.909
 3931.00    0.28749   0.32368   66.850
 3932.00    0.28312   0.29278   61.776
 3933.00    0.28297   0.27997   52.605
 3934.00    0.28393   0.29265   43.358
 3935.00    0.30688   0.32750   35.907
 3936.00    0.34906   0.37479   45.223
 3937.00    0.39255   0.42517   -1.000
 3938.00    0.43583   0.47164   -1.000
 3939.00    0.48775   0.50725   -1.000
 3940.00    0.53353   0.52930  251.024
 3941.00    0.55454   0.53831   -1.000
 3942.00    0.54190   0.54073  230.242
 3943.00    0.52012   0.54702   -1.000
 3944.00    0.54162   0.56398   -1.000
 3945.00    0.58826   0.58814  201.121
 3946.00    0.62883   0.61153   -1.000
 3947.00    0.64299   0.63003  190.492
 3948.00    0.65600   0.64548  186.695
 3949.00    0.68689   0.66009   -1.000
 3950.00    0.72794   0.67098   -1.000
 3951.00    0.74262   0.67620   -1.000
 3952.00    0.72557   0.68026   -1.000
 3953.00    0.72102   0.68468   -1.000
 3954.00    0.73956   0.68521   -1.000
 3955.00    0.74481   0.67905   -1.000
 3956.00    0.71883   0.66876   -1.000
 3957.00    0.68975   0.65808   -1.000
 3958.00    0.69516   0.64274   -1.000
 3959.00    0.69735   0.61326   -1.000
 3960.00    0.62973   0.57041   -1.000
 3961.00    0.54799   0.52640   74.367
 3962.00    0.49462   0.49014   32.452
 3963.00    0.45387   0.46135   38.711
 3964.00    0.41933   0.42929   47.684
 3965.00    0.37773   0.38640   56.481
 3966.00    0.32798   0.33693   58.666
 3967.00    0.29923   0.29388   51.958
 3968.00    0.28977   0.27321   42.720
 3969.00    0.29654   0.28234   35.341
 3970.00    0.33027   0.31828   45.620
 3971.00    0.38326   0.37110   -1.000
 3972.00    0.43702   0.43068  231.836
 3973.00    0.48963   0.48937  210.685
 3974.00    0.54441   0.54442  195.729
 3975.00    0.60313   0.59435  184.715
 3976.00    0.64993   0.63991  174.932
 3977.00    0.68972   0.68155  168.155
 3978.00    0.74278   0.71695   -1.000
 3979.00    0.78302   0.74175   -1.000
 3980.00    0.79605   0.75223   -1.000
 3981.00    0.79453   0.75239   -1.000
 3982.00    0.79354   0.75060   -1.000
 3983.00    0.80728   0.75488   -1.000
 3984.00    0.81128   0.76724   -1.000
 3985.00    0.81795   0.78464   -1.000
 3986.00    0.83543   0.80291   -1.000
 3987.00    0.85302   0.81753   -1.000
 3988.00    0.88257   0.82541   -1.000
 3989.00    0.88598   0.82877   -1.000
 3990.00    0.87078   0.83355   -1.000
 3991.00    0.87520   0.84220   -1.000
 3992.00    0.89768   0.85065   -1.000
 3993.00    0.90238   0.85170   -1.000
 3994.00    0.90766   0.84236   -1.000
 3995.00    0.89600   0.82763   -1.000
 3996.00    0.86211   0.81787   -1.000
 3997.00    0.84226   0.82231  148.701
 3998.00    0.85116   0.84110  144.701
 3999.00    0.89950   0.86658   -1.000
 4000.00    0.94863   0.88834   -1.000
 4001.00    0.95790   0.89846   -1.000
 4002.00    0.96483   0.89052   -1.000
 4003.00    0.96137   0.86413   -1.000
 4004.00    0.92522   0.83136   -1.000
 4005.00    0.87618   0.81335   -1.000
 4006.00    0.85855   0.82206   -1.000
 4007.00    0.87351   0.85114  142.835
 4008.00    0.91760   0.88277   -1.000
 4009.00    0.95266   0.90401   -1.000
 4010.00    0.96754   0.91539   -1.000
 4011.00    0.97906   0.92187   -1.000
 4012.00    0.99861   0.92737   -1.000
 4013.00    1.00000   0.93343   -1.000
 4014.00    1.01008   0.93859   -1.000
 4015.00    1.01447   0.94076   -1.000
 4016.00    1.00350   0.94147   -1.000
 4017.00    1.00202   0.94488   -1.000
 4018.00    1.01262   0.95171   -1.000
 4019.00    1.01526   0.95761   -1.000
 4020.00    1.01870   0.95761   -1.000
 4021.00    1.01343   0.95057   -1.000
 4022.00    1.00623   0.94030   -1.000
 4023.00    1.00950   0.93172   -1.000
 4024.00    0.99659   0.93029   -1.000
 4025.00    1.00644   0.93963   -1.000
 4026.00    1.04132   0.95535   -1.000
 4027.00    1.05905   0.96218   -1.000
 4028.00    1.04219   0.94429   -1.000
 4029.00    1.00188   0.90017   -1.000
 4030.00    0.93595   0.84654   -1.000
 4031.00    0.86851   0.80542   -1.000
 4032.00    0.83022   0.78872   -1.000
 4033.00    0.82634   0.80055   -1.000
 4034.00    0.85238   0.83835  134.954
 4035.00    0.91309   0.89254  131.929
 4036.00    0.98883   0.94648   -1.000
 4037.00    1.04398   0.98354   -1.000
 4038.00    1.07064   0.99491   -1.000
 4039.00    1.06285   0.98693   -1.000
 4040.00    1.04056   0.97043   -1.000
 4041.00    1.01919   0.94666   -1.000
 4042.00    1.00791   0.90557   -1.000
 4043.00    0.97475   0.84503   -1.000
 4044.00    0.88112   0.78525   -1.000
 4045.00    0.78322   0.75944   -1.000
 4046.00    0.78371   0.78561  139.383
 4047.00    0.85675   0.84743  136.446
 4048.00    0.94243   0.91232   -1.000
 4049.00    1.00601   0.95836   -1.000
 4050.00    1.04003   0.97806   -1.000
 4051.00    1.03264   0.97632   -1.000
 4052.00    1.00807   0.96102   -1.000
 4053.00    0.97675   0.94016   -1.000
 4054.00    0.94713   0.91936   -1.000
 4055.00    0.93276   0.90140   -1.000
 4056.00    0.91893   0.88874   -1.000
 4057.00    0.89985   0.88654  141.442
 4058.00    0.89889   0.89632  140.824
 4059.00    0.93826   0.90640   -1.000
 4060.00    0.96243   0.89811   -1.000
 4061.00    0.95757   0.86463   -1.000
 4062.00    0.90746   0.82187   -1.000
 4063.00    0.83811   0.79587   -1.000
 4064.00    0.82455   0.79781   -1.000
 4065.00    0.86532   0.82249   -1.000
 4066.00    0.91879   0.85609   -1.000
 4067.00    0.95008   0.88423   -1.000
 4068.00    0.97327   0.89646   -1.000
 4069.00    0.97414   0.88749   -1.000
 4070.00    0.94029   0.86433   -1.000
 4071.00    0.90665   0.84805   -1.000
 4072.00    0.90872   0.85275   -1.000
 4073.00    0.93529   0.86727   -1.000
 4074.00    0.94884   0.86890   -1.000
 4075.00    0.92971   0.84894   -1.000
 4076.00    0.88691   0.82582   -1.000
 4077.00    0.85923   0.82579   -1.000
 4078.00    0.87166   0.85759  139.061
 4079.00    0.91160   0.90833  137.712
 4080.00    0.97423   0.95280  141.195
 4081.00    1.01918   0.97317   -1.000
 4082.00    1.01356   0.96839   -1.000
 4083.00    0.99329   0.95458   -1.000
 4084.00    0.98012   0.95112   -1.000
 4085.00    0.99759   0.96743   -1.000
 4086.00    1.03439   0.99813   -1.000
 4087.00    1.07575   1.02834   -1.000
 4088.00    1.11050   1.04497   -1.000
 4089.00    1.11423   1.04293   -1.000
 4090.00    1.08276   1.02860   -1.000
 4091.00    1.05531   1.01176   -1.000
 4092.00    1.05227   0.99592   -1.000
 4093.00    1.04446   0.97608   -1.000
 4094.00    1.01900   0.94821   -1.000
 4095.00    0.97574   0.91531   -1.000
 4096.00    0.93344   0.88462   -1.000
 4097.00    0.90932   0.85785   -1.000
 4098.00    0.90009   0.82766   -1.000
 4099.00    0.87497   0.78988   -1.000
 4100.00    0.82530   0.75481   -1.000
 4101.00    0.78479   0.74191   -1.000
 4102.00    0.79056   0.76282   -1.000
 4103.00    0.83950   0.81106   -1.000
 4104.00    0.90354   0.86706   -1.000
 4105.00    0.94806   0.91378   -1.000
 4106.00    0.97595   0.94201   -1.000
 4107.00    0.97986   0.95173   -1.000
 4108.00    0.97435   0.94792   -1.000
 4109.00    0.96401   0.93907   -1.000
 4110.00    0.94699   0.93465  143.750
 4111.00    0.94594   0.94062  141.409
 4112.00    0.97272   0.95654  139.595
 4113.00    0.99756   0.97711  139.164
 4114.00    1.01066   0.99400  140.915
 4115.00    1.02376   0.99920   -1.000
 4116.00    1.03040   0.98968   -1.000
 4117.00    1.01735   0.97101   -1.000
 4118.00    0.99595   0.95379   -1.000
 4119.00    0.97949   0.94644   -1.000
 4120.00    0.97293   0.94941   -1.000
 4121.00    0.98132   0.95728   -1.000
 4122.00    0.98623   0.96656  141.487
 4123.00    1.00008   0.97667  142.131
 4124.00    1.02373   0.98524   -1.000
 4125.00    1.03229   0.98697   -1.000
 4126.00    1.01336   0.97928   -1.000
 4127.00    0.97750   0.96545  149.125
 4128.00    0.96012   0.94903  152.318
 4129.00    0.96184   0.92871   -1.000
 4130.00    0.95785   0.90333   -1.000
 4131.00    0.91778   0.87928   -1.000
 4132.00    0.87485   0.86975  151.131
 4133.00    0.88246   0.88464  144.691
 4134.00    0.91670   0.91940  141.131
 4135.00    0.95141   0.96013  138.930
 4136.00    0.98643   0.99447  137.508
 4137.00    1.01646   1.01642  138.543
 4138.00    1.03126   1.02412  143.494
 4139.00    1.03439   1.01388   -1.000
 4140.00    1.02116   0.98037   -1.000
 4141.00    0.98027   0.92855   -1.000
 4142.00    0.90022   0.87948  157.556
 4143.00    0.83113   0.85813   -1.000
 4144.00    0.83480   0.87245   -1.000
 4145.00    0.88312   0.90840   -1.000
 4146.00    0.93236   0.94115  150.123
 4147.00    0.96470   0.95501  153.285
 4148.00    0.96989   0.95280  153.716
 4149.00    0.95064   0.94503  152.644
 4150.00    0.93180   0.93880  152.855
 4151.00    0.93041   0.93413  154.856
 4152.00    0.92079   0.92860  154.349
 4153.00    0.90274   0.92243   -1.000
 4154.00    0.92330   0.91958  151.876
 4155.00    1.05924   0.92516   -1.000
 4156.00    1.11920   0.94125   -1.000
 4157.00    0.89281   0.96534   -1.000
 4158.00    0.77539   0.99212   -1.000
 4159.00    0.92954   1.01577   -1.000
 4160.00    1.01392   1.03370   -1.000
 4161.00    1.01618   1.04614   -1.000
 4162.00    1.03023   1.05149   -1.000
 4163.00    1.02980   1.04682  147.611
 4164.00    1.01144   1.03132   -1.000
 4165.00    0.98815   1.01031   -1.000
 4166.00    0.96077   0.99347   -1.000
 4167.00    0.94502   0.98733   -1.000
 4168.00    0.95668   0.98752   -1.000
 4169.00    0.97449   0.98216  163.094
 4170.00    0.97067   0.96189  168.489
 4171.00    0.93664   0.93147  165.536
 4172.00    0.88133   0.90702   -1.000
 4173.00    0.85807   0.90029   -1.000
 4174.00    0.87819   0.91013   -1.000
 4175.00    0.89807   0.92551   -1.000
 4176.00    0.91127   0.93854   -1.000
 4177.00    0.91317   0.94947   -1.000
 4178.00    0.91574   0.95944   -1.000
 4179.00    0.93196   0.96617   -1.000
 4180.00    0.93801   0.96870   -1.000
 4181.00    0.94103   0.97178   -1.000
 4182.00    0.94643   0.98220   -1.000
 4183.00    0.96650   0.99717   -1.000
 4184.00    0.99184   1.00425  152.929
 4185.00    0.99203   0.99600  154.449
 4186.00    0.96344   0.97902  151.879
 4187.00    0.94053   0.96892   -1.000
 4188.00    0.94772   0.97390   -1.000
 4189.00    0.96508   0.98875   -1.000
 4190.00    0.97947   1.00483   -1.000
 4191.00    0.98624   1.01776   -1.000
 4192.00    1.01341   1.02470  150.190
 4193.00    1.03972   1.01873   -1.000
 4194.00    1.01603   0.99445   -1.000
 4195.00    0.96107   0.95780  162.221
 4196.00    0.91248   0.92303  161.440
 4197.00    0.88484   0.89998  159.196
 4198.00    0.88147   0.89075  157.689
 4199.00    0.90365   0.89163  157.012
 4200.00    0.92224   0.89892   -1.000
 4201.00    0.92643   0.91193  153.425
 4202.00    0.92586   0.93359  151.385
 4203.00    0.94214   0.96484   -1.000
 4204.00    0.98762   1.00064  144.644
 4205.00    1.02515   1.03301  142.916
 4206.00    1.03771   1.05635   -1.000
 4207.00    1.04408   1.06806   -1.000
 4208.00    1.06499   1.06902  142.396
 4209.00    1.06305   1.06529  142.310
 4210.00    1.04245   1.06264   -1.000
 4211.00    1.03825   1.05894   -1.000
 4212.00    1.03769   1.04497  156.589
 4213.00    1.02232   1.01795  155.812
 4214.00    0.97551   0.99286   -1.000
 4215.00    0.93387   0.99183   -1.000
 4216.00    0.95288   1.02267   -1.000
 4217.00    1.03939   1.07132   -1.000
 4218.00    1.12732   1.11356  132.324
 4219.00    1.16331   1.13353   -1.000
 4220.00    1.17717   1.12478   -1.000
 4221.00    1.16743   1.08656   -1.000
 4222.00    1.11258   1.01974   -1.000
 4223.00    1.02856   0.93098   -1.000
 4224.00    0.92170   0.83903   -1.000
 4225.00    0.80307   0.77420   -1.000
 4226.00    0.72438   0.76356   -1.000
 4227.00    0.74485   0.81522   -1.000
 4228.00    0.85768   0.90590   -1.000
 4229.00    0.98272   0.99437  138.556
 4230.00    1.06155   1.04784  142.068
 4231.00    1.09523   1.06154   -1.000
 4232.00    1.09762   1.04774   -1.000
 4233.00    1.07009   1.02416   -1.000
 4234.00    1.04511   1.00507   -1.000
 4235.00    1.03121   0.99754   -1.000
 4236.00    1.00645   1.00235  145.470
 4237.00    1.00127   1.01831  143.036
 4238.00    1.02386   1.04223   -1.000
 4239.00    1.04806   1.07000   -1.000
 4240.00    1.07603   1.09896   -1.000
 4241.00    1.10738   1.12792   -1.000
 4242.00    1.12287   1.15561   -1.000
 4243.00    1.14232   1.17821   -1.000
 4244.00    1.17933   1.18578  144.683
 4245.00    1.19580   1.16869   -1.000
 4246.00    1.15427   1.12793   -1.000
 4247.00    1.09944   1.07659   -1.000
 4248.00    1.06091   1.03222   -1.000
 4249.00    1.02373   1.00793  145.259
 4250.00    0.99272   1.00457  143.812
 4251.00    0.99249   1.01173   -1.000
 4252.00    1.03489   1.01593  147.322
 4253.00    1.04791   1.01577   -1.000
 4254.00    1.01973   1.02290  139.825
 4255.00    1.02393   1.04408   -1.000
 4256.00    1.07395   1.06485  149.248
 4257.00    1.10783   1.06229   -1.000
 4258.00    1.07597   1.03468   -1.000
 4259.00    1.00630   1.00727  145.586
 4260.00    0.96382   1.01013   -1.000
 4261.00    0.98924   1.05295   -1.000
 4262.00    1.06853   1.11769   -1.000
 4263.00    1.16011   1.17542  132.545
 4264.00    1.20917   1.20618  136.004
 4265.00    1.21300   1.20693  140.388
 4266.00    1.19609   1.18158  145.272
 4267.00    1.15799   1.13420   -1.000
 4268.00    1.10704   1.07004   -1.000
 4269.00    1.04265   0.99846   -1.000
 4270.00    0.96208   0.93424   -1.000
 4271.00    0.88985   0.89404  162.799
 4272.00    0.85933   0.88600   -1.000
 4273.00    0.86389   0.90900   -1.000
 4274.00    0.88904   0.95614   -1.000
 4275.00    0.93591   1.01855   -1.000
 4276.00    1.01831   1.08195   -1.000
 4277.00    1.10420   1.12648   -1.000
 4278.00    1.14536   1.13891  148.522
 4279.00    1.13541   1.12672  147.391
 4280.00    1.10106   1.10973  145.662
 4281.00    1.08533   1.10206  146.147
 4282.00    1.08899   1.10173  149.478
 4283.00    1.09002   1.09969  153.613
 4284.00    1.07575   1.09107  156.525
 4285.00    1.05595   1.07554   -1.000
 4286.00    1.03941   1.05212  168.194
 4287.00    1.01118   1.01863  172.137
 4288.00    0.97443   0.98043  167.081
 4289.00    0.93182   0.95445   -1.000
 4290.00    0.91298   0.95715   -1.000
 4291.00    0.94663   0.98609   -1.000
 4292.00    1.00340   1.01995  152.889
 4293.00    1.04831   1.03843  155.997
 4294.00    1.05866   1.03675   -1.000
 4295.00    1.03092   1.01786  173.636
 4296.00    0.98899   0.98283  187.778
 4297.00    0.95304   0.93374   -1.000
 4298.00    0.89632   0.88144  192.515
 4299.00    0.81446   0.84272   -1.000
 4300.00    0.77390   0.82849   -1.000
 4301.00    0.79580   0.83445   -1.000
 4302.00    0.81945   0.84767   -1.000
 4303.00    0.83269   0.85613   -1.000
 4304.00    0.84873   0.85193  195.170
 4305.00    0.84025   0.83171  202.604
 4306.00    0.80323   0.80206  202.227
 4307.00    0.76087   0.78007   -1.000
 4308.00    0.73087   0.78246   -1.000
 4309.00    0.74394   0.81441   -1.000
 4310.00    0.80239   0.86852   -1.000
 4311.00    0.86833   0.93347   -1.000
 4312.00    0.93760   1.00352   -1.000
 4313.00    1.00599   1.08079   -1.000
 4314.00    1.07617   1.16602   -1.000
 4315.00    1.17615   1.25080   -1.000
 4316.00    1.28547   1.31778   -1.000
 4317.00    1.35205   1.35057  127.424
 4318.00    1.37151   1.34842  131.178
 4319.00    1.35057   1.32137   -1.000
 4320.00    1.30213   1.27637   -1.000
 4321.00    1.25311   1.21230   -1.000
 4322.00    1.19148   1.12977   -1.000
 4323.00    1.08499   1.04438   -1.000
 4324.00    0.96339   0.98881   -1.000
 4325.00    0.89927   0.99273   -1.000
 4326.00    0.92747   1.05871   -1.000
 4327.00    1.05519   1.15647   -1.000
 4328.00    1.19862   1.24296   -1.000
 4329.00    1.26522   1.29284   -1.000
 4330.00    1.27382   1.31325   -1.000
 4331.00    1.27894   1.32428   -1.000
 4332.00    1.29960   1.33640   -1.000
 4333.00    1.32368   1.34258  132.472
 4334.00    1.33975   1.32654  143.756
 4335.00    1.32691   1.27538   -1.000
 4336.00    1.25801   1.18987   -1.000
 4337.00    1.14243   1.08978   -1.000
 4338.00    1.03252   1.00805   -1.000
 4339.00    0.96735   0.97277  156.847
 4340.00    0.95962   0.99103   -1.000
 4341.00    1.00372   1.05031   -1.000
 4342.00    1.08888   1.12581   -1.000
 4343.00    1.17998   1.19405  131.981
 4344.00    1.23798   1.24561  130.293
 4345.00    1.27506   1.28471  128.465
 4346.00    1.29041   1.31654   -1.000
 4347.00    1.30061   1.33824   -1.000
 4348.00    1.32441   1.33687  141.412
 4349.00    1.33069   1.30180   -1.000
 4350.00    1.28620   1.24349   -1.000
 4351.00    1.18763   1.19304  137.251
 4352.00    1.11970   1.17883   -1.000
 4353.00    1.14601   1.20447   -1.000
 4354.00    1.19747   1.24931   -1.000
 4355.00    1.24341   1.28904   -1.000
 4356.00    1.28690   1.31058   -1.000
 4357.00    1.29976   1.31519  131.025
 4358.00    1.28491   1.31433   -1.000
 4359.00    1.26671   1.32200   -1.000
 4360.00    1.28350   1.34338   -1.000
 4361.00    1.33414   1.37207   -1.000
 4362.00    1.36518   1.39833   -1.000
 4363.00    1.38309   1.41557   -1.000
 4364.00    1.40240   1.41877  129.388
 4365.00    1.41076   1.40274  132.110
 4366.00    1.38287   1.37018  131.756
 4367.00    1.32590   1.33577  130.689
 4368.00    1.28878   1.31351   -1.000
 4369.00    1.27143   1.30340   -1.000
 4370.00    1.26751   1.29417   -1.000
 4371.00    1.28287   1.27419  140.547
 4372.00    1.28948   1.24090   -1.000
 4373.00    1.24537   1.20460   -1.000
 4374.00    1.17803   1.18465  132.144
 4375.00    1.16167   1.19586   -1.000
 4376.00    1.19753   1.23264   -1.000
 4377.00    1.26083   1.27007  129.723
 4378.00    1.31591   1.28104   -1.000
 4379.00    1.32393   1.25110   -1.000
 4380.00    1.27991   1.17972   -1.000
 4381.00    1.21229   1.08233   -1.000
 4382.00    1.09561   0.99219   -1.000
 4383.00    0.94992   0.94768  145.393
 4384.00    0.89157   0.96769   -1.000
 4385.00    0.97311   1.03613   -1.000
 4386.00    1.10958   1.11195  137.102
 4387.00    1.19448   1.16211   -1.000
 4388.00    1.21020   1.18318   -1.000
 4389.00    1.19332   1.19110  133.366
 4390.00    1.18367   1.20071  132.838
 4391.00    1.19947   1.21525  135.160
 4392.00    1.22571   1.23011  135.980
 4393.00    1.25283   1.24351  131.638
 4394.00    1.24965   1.26194  126.887
 4395.00    1.26419   1.29107   -1.000
 4396.00    1.32151   1.32207  130.542
 4397.00    1.37529   1.33606   -1.000
 4398.00    1.37821   1.32436   -1.000
 4399.00    1.32519   1.29690   -1.000
 4400.00    1.26591   1.26721  135.038
 4401.00    1.24898   1.23510  142.034
 4402.00    1.24641   1.19186   -1.000
 4403.00    1.18269   1.14031   -1.000
 4404.00    1.08527   1.10236   -1.000
 4405.00    1.05639   1.09903   -1.000
 4406.00    1.10764   1.13022   -1.000
 4407.00    1.15358   1.18189   -1.000
 4408.00    1.18989   1.24384   -1.000
 4409.00    1.25086   1.30971   -1.000
 4410.00    1.32701   1.36520   -1.000
 4411.00    1.38301   1.38794  129.107
 4412.00    1.40559   1.36687   -1.000
 4413.00    1.36866   1.31600   -1.000
 4414.00    1.27216   1.26698  132.431
 4415.00    1.20270   1.25095   -1.000
 4416.00    1.20857   1.27974   -1.000
 4417.00    1.26895   1.33696   -1.000
 4418.00    1.34210   1.39046   -1.000
 4419.00    1.39513   1.41470  127.414
 4420.00    1.39061   1.40506  127.695
 4421.00    1.33055   1.37627   -1.000
 4422.00    1.27742   1.35043   -1.000
 4423.00    1.26108   1.34064   -1.000
 4424.00    1.25741   1.34451   -1.000
 4425.00    1.26734   1.35295   -1.000
 4426.00    1.27996   1.36089   -1.000
 4427.00    1.27829   1.36681   -1.000
 4428.00    1.30106   1.36862   -1.000
 4429.00    1.32491   1.36562   -1.000
 4430.00    1.30811   1.36009   -1.000
 4431.00    1.30514   1.35146   -1.000
 4432.00    1.32102   1.33340  137.421
 4433.00    1.29623   1.30587  134.071
 4434.00    1.23425   1.28679   -1.000
 4435.00    1.21013   1.29999   -1.000
 4436.00    1.25206   1.34985   -1.000
 4437.00    1.32813   1.41175   -1.000
 4438.00    1.41820   1.45045   -1.000
 4439.00    1.45578   1.44725  131.958
 4440.00    1.42059   1.41071  134.085
 4441.00    1.36298   1.36968  130.683
 4442.00    1.30156   1.35463   -1.000
 4443.00    1.30339   1.37786   -1.000
 4444.00    1.36833   1.42572   -1.000
 4445.00    1.43041   1.47212   -1.000
 4446.00    1.47034   1.49996   -1.000
 4447.00    1.47658   1.50903   -1.000
 4448.00    1.47391   1.50757   -1.000
 4449.00    1.48500   1.49999  123.660
 4450.00    1.48187   1.48462  127.061
 4451.00    1.45177   1.45721  132.671
 4452.00    1.42224   1.41469  136.558
 4453.00    1.37568   1.36197  135.791
 4454.00    1.30998   1.31516  133.292
 4455.00    1.26178   1.28970   -1.000
 4456.00    1.26312   1.28535   -1.000
 4457.00    1.29280   1.28892  134.333
 4458.00    1.28964   1.28875  135.619
 4459.00    1.27290   1.28544  134.147
 4460.00    1.25935   1.28947   -1.000
 4461.00    1.24166   1.31048   -1.000
 4462.00    1.25916   1.34798   -1.000
 4463.00    1.32001   1.38964   -1.000
 4464.00    1.38362   1.42000   -1.000
 4465.00    1.40867   1.43172   -1.000
 4466.00    1.41952   1.42877  129.370
 4467.00    1.42486   1.42072  128.319
 4468.00    1.41622   1.41724  124.896
 4469.00    1.39233   1.42699   -1.000
 4470.00    1.39838   1.45430   -1.000
 4471.00    1.44070   1.49376   -1.000
 4472.00    1.50627   1.53350   -1.000
 4473.00    1.55082   1.56482  114.711
 4474.00    1.55096   1.58732   -1.000
 4475.00    1.57246   1.60450   -1.000
 4476.00    1.61403   1.61320  117.712
 4477.00    1.63770   1.60172   -1.000
 4478.00    1.61826   1.56258   -1.000
 4479.00    1.54561   1.50684   -1.000
 4480.00    1.45331   1.46262  122.741
 4481.00    1.39531   1.45595   -1.000
 4482.00    1.40681   1.49147   -1.000
 4483.00    1.47947   1.55025   -1.000
 4484.00    1.55605   1.60353   -1.000
 4485.00    1.61381   1.62808  120.082
 4486.00    1.63767   1.61509  123.470
 4487.00    1.60750   1.57476   -1.000
 4488.00    1.53237   1.53227  120.503
 4489.00    1.47468   1.51104   -1.000
 4490.00    1.45877   1.51478   -1.000
 4491.00    1.48974   1.52609   -1.000
 4492.00    1.51374   1.52380  125.059
 4493.00    1.48445   1.50443   -1.000
 4494.00    1.43200   1.48523   -1.000
 4495.00    1.40877   1.48676   -1.000
 4496.00    1.42043   1.51382   -1.000
 4497.00    1.46747   1.55238   -1.000
 4498.00    1.51131   1.58359   -1.000
 4499.00    1.53755   1.59964   -1.000
 4500.00    1.55787   1.60817   -1.000
 4501.00    1.56980   1.62331   -1.000
 4502.00    1.61065   1.65214   -1.000
 4503.00    1.67558   1.68841  110.936
 4504.00    1.72425   1.71680  112.408
 4505.00    1.74091   1.72558  112.763
 4506.00    1.71666   1.71712  112.149
 4507.00    1.68173   1.70455   -1.000
 4508.00    1.66493   1.69817   -1.000
 4509.00    1.67169   1.69719   -1.000
 4510.00    1.69163   1.69267  115.798
 4511.00    1.67771   1.67712  116.901
 4512.00    1.62445   1.65219   -1.000
 4513.00    1.58022   1.62729   -1.000
 4514.00    1.55312   1.61112   -1.000
 4515.00    1.55376   1.60524   -1.000
 4516.00    1.57612   1.60561   -1.000
 4517.00    1.57907   1.60985   -1.000
 4518.00    1.57129   1.62024   -1.000
 4519.00    1.59457   1.63723   -1.000
 4520.00    1.64607   1.65290  119.036
 4521.00    1.66408   1.65505  120.440
 4522.00    1.64002   1.63767  122.157
 4523.00    1.59994   1.60449  125.455
 4524.00    1.56035   1.56170  129.132
 4525.00    1.50655   1.51221  131.262
 4526.00    1.44145   1.46003  130.962
 4527.00    1.38881   1.41566   -1.000
 4528.00    1.36413   1.39170   -1.000
 4529.00    1.35750   1.39335   -1.000
 4530.00    1.37784   1.41363   -1.000
 4531.00    1.41119   1.43742   -1.000
 4532.00    1.45426   1.45154  132.148
 4533.00    1.45944   1.45484  126.009
 4534.00    1.41629   1.46063   -1.000
 4535.00    1.39232   1.48591   -1.000
 4536.00    1.46817   1.53396   -1.000
 4537.00    1.58808   1.58758  116.738
 4538.00    1.64391   1.62256  117.447
 4539.00    1.62095   1.62920  116.727
 4540.00    1.57232   1.61898   -1.000
 4541.00    1.55949   1.60999   -1.000
 4542.00    1.60317   1.60928   66.881
 4543.00    1.44626   1.61063   -1.000
 4544.00    0.59118   1.60629   -1.000
 4545.00    0.05857   1.59606   -1.000
 4546.00    0.14890   1.58439   -1.000
 4547.00    0.81132   1.57349   -1.000
 4548.00    0.64923   1.56439   -1.000
 4549.00    0.99612   1.56095   -1.000
 4550.00    1.46684   1.56551   -1.000
 4551.00    1.56303   1.57190  124.463
 4552.00    1.54402   1.57091   -1.000
 4553.00    1.52578   1.56352   -1.000
 4554.00    1.51961   1.56328   -1.000
 4555.00    1.53998   1.58403   -1.000
 4556.00    1.59716   1.62647   -1.000
 4557.00    1.66389   1.67665  112.163
 4558.00    1.69919   1.71696  112.165
 4559.00    1.73292   1.73844  114.107
 4560.00    1.73878   1.74123  116.962
 4561.00    1.71842   1.72779  119.210
 4562.00    1.68468   1.70087  118.740
 4563.00    1.64019   1.66842   -1.000
 4564.00    1.59885   1.64544   -1.000
 4565.00    1.58150   1.64561   -1.000
 4566.00    1.62188   1.66951   -1.000
 4567.00    1.68606   1.70174  114.544
 4568.00    1.71505   1.72137  117.567
 4569.00    1.71298   1.71792  117.717
 4570.00    1.67051   1.69899   -1.000
 4571.00    1.62053   1.68364   -1.000
 4572.00    1.62829   1.68679   -1.000
 4573.00    1.67455   1.70661   -1.000
 4574.00    1.70919   1.72776  113.345
 4575.00    1.72840   1.73620  114.968
 4576.00    1.73177   1.72747  118.072
 4577.00    1.68658   1.70298  120.824
 4578.00    1.63512   1.66710   -1.000
 4579.00    1.59625   1.62971   -1.000
 4580.00    1.54851   1.60437   -1.000
 4581.00    1.54968   1.59825   -1.000
 4582.00    1.58579   1.60580   -1.000
 4583.00    1.60746   1.61514  118.321
 4584.00    1.60405   1.62043  115.523
 4585.00    1.58535   1.62754   -1.000
 4586.00    1.60050   1.64611   -1.000
 4587.00    1.64483   1.67642   -1.000
 4588.00    1.69582   1.70628  115.474
 4589.00    1.73579   1.72069  117.542
 4590.00    1.72365   1.71328  118.126
 4591.00    1.66698   1.69006   -1.000
 4592.00    1.63263   1.66368   -1.000
 4593.00    1.62359   1.64405  115.943
 4594.00    1.60317   1.63412   -1.000
 4595.00    1.59434   1.63263   -1.000
 4596.00    1.59940   1.63754   -1.000
 4597.00    1.61200   1.64616   -1.000
 4598.00    1.64488   1.65446  117.713
 4599.00    1.66086   1.65896  116.823
 4600.00    1.63633   1.65957   -1.000
 4601.00    1.62665   1.65906   -1.000
 4602.00    1.63832   1.65961  115.261
 4603.00    1.65305   1.66185  114.244
 4604.00    1.65477   1.66812  112.199
 4605.00    1.64058   1.68418   -1.000
 4606.00    1.66247   1.71472   -1.000
 4607.00    1.73852   1.75638  108.366
 4608.00    1.80553   1.79610  109.656
 4609.00    1.83763   1.81830  110.960
 4610.00    1.82399   1.81683  111.794
 4611.00    1.78590   1.80006  111.524
 4612.00    1.75482   1.78320   -1.000
 4613.00    1.75448   1.77737   -1.000
 4614.00    1.75887   1.78413   -1.000
 4615.00    1.77177   1.79724   -1.000
 4616.00    1.78625   1.80902   -1.000
 4617.00    1.79517   1.81545  110.576
 4618.00    1.79689   1.81724  108.953
 4619.00    1.78684   1.81819   -1.000
 4620.00    1.81216   1.82156  108.761
 4621.00    1.82961   1.82626  108.993
 4622.00    1.82258   1.82788  109.822
 4623.00    1.81141   1.82391  110.268
 4624.00    1.81616   1.81599  110.270
 4625.00    1.79452   1.80754  110.812
 4626.00    1.76768   1.80155   -1.000
 4627.00    1.78232   1.79998  110.774
 4628.00    1.79476   1.80299  109.633
 4629.00    1.79897   1.80896  109.730
 4630.00    1.79055   1.81469   -1.000
 4631.00    1.79743   1.81502  112.457
 4632.00    1.79549   1.80567  112.637
 4633.00    1.76520   1.78838   -1.000
 4634.00    1.74514   1.76935   -1.000
 4635.00    1.74565   1.75166  115.419
 4636.00    1.72435   1.73324  115.375
 4637.00    1.69211   1.71346  113.779
 4638.00    1.66806   1.69764   -1.000
 4639.00    1.65130   1.69339   -1.000
 4640.00    1.66354   1.70310   -1.000
 4641.00    1.70761   1.71958  111.138
 4642.00    1.74827   1.72878  114.079
 4643.00    1.74659   1.71885  117.275
 4644.00    1.71350   1.68837  118.347
 4645.00    1.65684   1.64781  116.738
 4646.00    1.59158   1.61466   -1.000
 4647.00    1.55920   1.60543   -1.000
 4648.00    1.57465   1.62582   -1.000
 4649.00    1.64137   1.66687   -1.000
 4650.00    1.71586   1.71138  112.650
 4651.00    1.76101   1.74387  115.038
 4652.00    1.76818   1.75651  116.657
 4653.00    1.75185   1.75077  116.105
 4654.00    1.72247   1.73752  112.899
 4655.00    1.68683   1.73324   -1.000
 4656.00    1.67810   1.75089   -1.000
 4657.00    1.72440   1.79102   -1.000
 4658.00    1.80899   1.83970   -1.000
 4659.00    1.88049   1.87538  108.784
 4660.00    1.90351   1.88234  111.057
 4661.00    1.84651   1.85950  111.687
 4662.00    1.78333   1.81760   -1.000
 4663.00    1.75710   1.76819  117.497
 4664.00    1.71956   1.71608  122.483
 4665.00    1.67570   1.66212  123.572
 4666.00    1.59229   1.61336   -1.000
 4667.00    1.50264   1.58594   -1.000
 4668.00    1.49218   1.59413   -1.000
 4669.00    1.55888   1.63564   -1.000
 4670.00    1.66519   1.69043   -1.000
 4671.00    1.73255   1.73524  110.931
 4672.00    1.77062   1.75992  109.729
 4673.00    1.75523   1.77052  108.095
 4674.00    1.74892   1.77868   -1.000
 4675.00    1.76798   1.78800  110.277
 4676.00    1.80291   1.79169  112.530
 4677.00    1.81460   1.78133   -1.000
 4678.00    1.76873   1.75701  115.706
 4679.00    1.71937   1.72835  114.719
 4680.00    1.68358   1.70760   -1.000
 4681.00    1.66661   1.70298   -1.000
 4682.00    1.68313   1.71480   -1.000
 4683.00    1.74425   1.73529  110.498
 4684.00    1.77970   1.75326  111.021
 4685.00    1.77994   1.76134  111.148
 4686.00    1.76663   1.75985  111.149
 4687.00    1.76049   1.75411  111.812
 4688.00    1.74331   1.74923  112.158
 4689.00    1.73574   1.74670  111.091
 4690.00    1.74403   1.74604  109.473
 4691.00    1.74168   1.74843  107.161
 4692.00    1.74019   1.75682  105.606
 4693.00    1.76424   1.77192  105.812
 4694.00    1.80058   1.78911  108.451
 4695.00    1.83388   1.79920   -1.000
 4696.00    1.83423   1.79313   -1.000
 4697.00    1.78704   1.76901  112.857
 4698.00    1.73209   1.73528  113.374
 4699.00    1.69578   1.70437  115.214
 4700.00    1.67455   1.68351  116.076
 4701.00    1.67188   1.67331  114.320
 4702.00    1.66401   1.67349  112.517
 4703.00    1.65692   1.68385   -1.000
 4704.00    1.67620   1.69956   -1.000
 4705.00    1.71583   1.71046  117.090
 4706.00    1.71955   1.70996  116.750
 4707.00    1.68469   1.70267  113.740
 4708.00    1.67003   1.70065   -1.000
 4709.00    1.69352   1.71191  109.138
 4710.00    1.75051   1.73285  109.856
 4711.00    1.79011   1.75179   -1.000
 4712.00    1.77663   1.75971  112.163
 4713.00    1.75077   1.75899  110.262
 4714.00    1.73140   1.76225   -1.000
 4715.00    1.73261   1.78114   -1.000
 4716.00    1.79021   1.81584   -1.000
 4717.00    1.86610   1.85595  106.434
 4718.00    1.88665   1.89003  107.141
 4719.00    1.89883   1.91189  107.944
 4720.00    1.92055   1.92046  107.528
 4721.00    1.89573   1.91900  106.426
 4722.00    1.87887   1.91457   -1.000
 4723.00    1.85152   1.91169   -1.000
 4724.00    1.87680   1.90489   -1.000
 4725.00    1.90001   1.88203  115.365
 4726.00    1.85068   1.83768  115.383
 4727.00    1.76422   1.78188  114.282
 4728.00    1.69704   1.73556   -1.000
 4729.00    1.67364   1.71571   -1.000
 4730.00    1.68241   1.72455   -1.000
 4731.00    1.71792   1.75175   -1.000
 4732.00    1.74682   1.78276   -1.000
 4733.00    1.78070   1.80646   -1.000
 4734.00    1.81146   1.81895  110.947
 4735.00    1.83106   1.82384  109.725
 4736.00    1.82038   1.82839  109.539
 4737.00    1.82239   1.83789  110.110
 4738.00    1.83613   1.85170  110.333
 4739.00    1.86589   1.86387  109.590
 4740.00    1.85400   1.87028  108.425
 4741.00    1.83211   1.87337   -1.000
 4742.00    1.82946   1.87805   -1.000
 4743.00    1.85762   1.88627   -1.000
 4744.00    1.87200   1.89802   -1.000
 4745.00    1.87534   1.91333   -1.000
 4746.00    1.88991   1.93081   -1.000
 4747.00    1.89297   1.94703   -1.000
 4748.00    1.90543   1.95832   -1.000
 4749.00    1.92121   1.96277   -1.000
 4750.00    1.91353   1.95883   -1.000
 4751.00    1.88705   1.94509   -1.000
 4752.00    1.85933   1.92321   -1.000
 4753.00    1.82744   1.89941   -1.000
 4754.00    1.80877   1.88165   -1.000
 4755.00    1.80569   1.87506   -1.000
 4756.00    1.80793   1.87945   -1.000
 4757.00    1.80937   1.89089   -1.000
 4758.00    1.79987   1.90349   -1.000
 4759.00    1.81060   1.90952   -1.000
 4760.00    1.83898   1.90167   -1.000
 4761.00    1.82373   1.87768   -1.000
 4762.00    1.78182   1.84341   -1.000
 4763.00    1.74172   1.80910   -1.000
 4764.00    1.70260   1.78275   -1.000
 4765.00    1.68186   1.76878   -1.000
 4766.00    1.68491   1.77264   -1.000
 4767.00    1.73178   1.79876   -1.000
 4768.00    1.80137   1.84073   -1.000
 4769.00    1.86316   1.88065  111.788
 4770.00    1.86372   1.90335   -1.000
 4771.00    1.83708   1.90992   -1.000
 4772.00    1.82298   1.91549   -1.000
 4773.00    1.85731   1.93273   -1.000
 4774.00    1.92032   1.95984   -1.000
 4775.00    1.93738   1.98572   -1.000
 4776.00    1.91775   2.00171   -1.000
 4777.00    1.91745   2.00660   -1.000
 4778.00    1.92133   2.00185   -1.000
 4779.00    1.90650   1.98843   -1.000
 4780.00    1.87896   1.96800   -1.000
 4781.00    1.87571   1.94307   -1.000
 4782.00    1.86546   1.91721   -1.000
 4783.00    1.82295   1.89594   -1.000
 4784.00    1.82767   1.88394   -1.000
 4785.00    1.81378   1.88000   -1.000
 4786.00    1.80564   1.87935   -1.000
 4787.00    1.80783   1.87978   -1.000
 4788.00    1.80557   1.88250   -1.000
 4789.00    1.80564   1.89004   -1.000
 4790.00    1.81291   1.90648   -1.000
 4791.00    1.83548   1.93625   -1.000
 4792.00    1.87902   1.97919   -1.000
 4793.00    1.94290   2.02696   -1.000
 4794.00    1.97466   2.06563   -1.000
 4795.00    1.99722   2.08196   -1.000
 4796.00    1.99443   2.07086   -1.000
 4797.00    1.94408   2.03940   -1.000
 4798.00    1.88211   2.00409   -1.000
 4799.00    1.84280   1.98257   -1.000
 4800.00    1.84978   1.98486   -1.000
 4801.00    1.91133   2.00748   -1.000
 4802.00    1.97077   2.03415   -1.000
 4803.00    1.96989   2.04586   -1.000
 4804.00    1.94442   2.03444   -1.000
 4805.00    1.92657   2.00785   -1.000
 4806.00    1.90476   1.98112   -1.000
 4807.00    1.88555   1.96573   -1.000
 4808.00    1.88296   1.96557   -1.000
 4809.00    1.88124   1.97802   -1.000
 4810.00    1.89394   1.99569   -1.000
 4811.00    1.91967   2.01076   -1.000
 4812.00    1.93144   2.02026   -1.000
 4813.00    1.93984   2.02751   -1.000
 4814.00    1.95313   2.03752   -1.000
 4815.00    1.96365   2.05255   -1.000
 4816.00    1.98589   2.07162   -1.000
 4817.00    1.99522   2.09152   -1.000
 4818.00    2.00716   2.10739   -1.000
 4819.00    2.02528   2.11279   -1.000
 4820.00    2.01386   2.10150   -1.000
 4821.00    1.98010   2.07180   -1.000
 4822.00    1.93114   2.03080   -1.000
 4823.00    1.87916   1.99439   -1.000
 4824.00    1.85800   1.97888   -1.000
 4825.00    1.90166   1.98745   -1.000
 4826.00    1.96559   2.00600   -1.000
 4827.00    1.95467   2.01661   -1.000
 4828.00    1.92234   2.01361   -1.000
 4829.00    1.92036   2.00212   -1.000
 4830.00    1.91873   1.98798   -1.000
 4831.00    1.88910   1.97579   -1.000
 4832.00    1.86888   1.97220   -1.000
 4833.00    1.87462   1.98274   -1.000
 4834.00    1.93062   2.00409   -1.000
 4835.00    1.97465   2.02497   -1.000
 4836.00    1.96546   2.03429   -1.000
 4837.00    1.94894   2.02831   -1.000
 4838.00    1.91820   2.01035   -1.000
 4839.00    1.88408   1.98841   -1.000
 4840.00    1.86800   1.97152   -1.000
 4841.00    1.87638   1.96435   -1.000
 4842.00    1.87816   1.96701   -1.000
 4843.00    1.87915   1.97926   -1.000
 4844.00    1.91901   2.00052   -1.000
 4845.00    1.96257   2.02416   -1.000
 4846.00    1.97655   2.03797   -1.000
 4847.00    1.94473   2.03549   -1.000
 4848.00    1.92321   2.02402   -1.000
 4849.00    1.91166   2.01726   -1.000
 4850.00    1.93831   2.01982   -1.000
 4851.00    1.94169   2.02243   -1.000
 4852.00    1.92175   2.01144   -1.000
 4853.00    1.90960   1.98054   -1.000
 4854.00    1.87738   1.93697   -1.000
 4855.00    1.79947   1.89632   -1.000
 4856.00    1.77355   1.86775   -1.000
 4857.00    1.80381   1.83995   -1.000
 4858.00    1.78869   1.78843  150.136
 4859.00    1.69793   1.70332  142.186
 4860.00    1.54499   1.61004   -1.000
 4861.00    1.44343   1.55716   -1.000
 4862.00    1.47459   1.57442   -1.000
 4863.00    1.59517   1.65037   -1.000
 4864.00    1.70590   1.74619   -1.000
 4865.00    1.78254   1.82922   -1.000
 4866.00    1.82804   1.88642   -1.000
 4867.00    1.83082   1.91585   -1.000
 4868.00    1.83025   1.91673   -1.000
 4869.00    1.81851   1.88962   -1.000
 4870.00    1.74670   1.84403   -1.000
 4871.00    1.66552   1.80353   -1.000
 4872.00    1.66577   1.79484   -1.000
 4873.00    1.72927   1.82604   -1.000
 4874.00    1.77454   1.87876   -1.000
 4875.00    1.79782   1.92928   -1.000
 4876.00    1.82962   1.96896   -1.000
 4877.00    1.85481   2.00119   -1.000
 4878.00    1.87985   2.02877   -1.000
 4879.00    1.90667   2.04736   -1.000
 4880.00    1.90636   2.05036   -1.000
 4881.00    1.88123   2.03739   -1.000
 4882.00    1.85927   2.01643   -1.000
 4883.00    1.87947   1.99425   -1.000
 4884.00    1.86943   1.96948   -1.000
 4885.00    1.80826   1.94140   -1.000
 4886.00    1.78091   1.91664   -1.000
 4887.00    1.79505   1.89931   -1.000
 4888.00    1.79852   1.88290   -1.000
 4889.00    1.77768   1.86052   -1.000
 4890.00    1.72579   1.84140   -1.000
 4891.00    1.71711   1.85032   -1.000
 4892.00    1.80320   1.90663   -1.000
 4893.00    1.95093   2.00169   -1.000
 4894.00    2.05173   2.10311   -1.000
 4895.00    2.08056   2.17773   -1.000
 4896.00    2.10705   2.21311   -1.000
 4897.00    2.10648   2.21508   -1.000
 4898.00    2.09052   2.19563   -1.000
 4899.00    2.04661   2.16665   -1.000
 4900.00    1.99717   2.13823   -1.000
 4901.00    1.99621   2.11625   -1.000
 4902.00    1.97582   2.10254   -1.000
 4903.00    1.96355   2.10030   -1.000
 4904.00    1.99670   2.11376   -1.000
 4905.00    2.04541   2.13810   -1.000
 4906.00    2.07154   2.15457   -1.000
 4907.00    2.05506   2.14370   -1.000
 4908.00    2.00447   2.10500   -1.000
 4909.00    1.93739   2.05771   -1.000
 4910.00    1.89786   2.02627   -1.000
 4911.00    1.90614   2.02576   -1.000
 4912.00    1.96643   2.05403   -1.000
 4913.00    2.01143   2.09565   -1.000
 4914.00    2.06059   2.13060   -1.000
 4915.00    2.09240   2.14005   -1.000
 4916.00    2.05918   2.10730   -1.000
 4917.00    1.99889   2.02689   -1.000
 4918.00    1.85638   1.91696   -1.000
 4919.00    1.72708   1.81851   -1.000
 4920.00    1.66943   1.77102   -1.000
 4921.00    1.72456   1.78800   -1.000
 4922.00    1.82383   1.84830   -1.000
 4923.00    1.88889   1.91744   -1.000
 4924.00    1.91615   1.97602   -1.000
 4925.00    1.94620   2.02795   -1.000
 4926.00    1.98817   2.08277   -1.000
 4927.00    2.06195   2.13987   -1.000
 4928.00    2.12061   2.19033   -1.000
 4929.00    2.13977   2.22393   -1.000
 4930.00    2.13757   2.23158   -1.000
 4931.00    2.12659   2.20993   -1.000
 4932.00    2.09037   2.16724   -1.000
 4933.00    2.02340   2.12163   -1.000
 4934.00    1.98049   2.08858   -1.000
 4935.00    1.99535   2.06713   -1.000
 4936.00    2.00023   2.04172   -1.000
 4937.00    1.93239   2.00492   -1.000
 4938.00    1.85611   1.97371   -1.000
 4939.00    1.85065   1.97633   -1.000
 4940.00    1.96298   2.02297   -1.000
 4941.00    2.06806   2.09461   -1.000
 4942.00    2.11198   2.16157   -1.000
 4943.00    2.13187   2.20434   -1.000
 4944.00    2.15322   2.22223   -1.000
 4945.00    2.14772   2.22562   -1.000
 4946.00    2.13452   2.22773   -1.000
 4947.00    2.14630   2.23764   -1.000
 4948.00    2.16723   2.25509   -1.000
 4949.00    2.19224   2.27239   -1.000
 4950.00    2.20692   2.28193   -1.000
 4951.00    2.20328   2.28008   -1.000
 4952.00    2.18098   2.26416   -1.000
 4953.00    2.13923   2.22994   -1.000
 4954.00    2.09744   2.17079   -1.000
 4955.00    2.04440   2.08465   -1.000
 4956.00    1.94221   1.98880   -1.000
 4957.00    1.81322   1.92244   -1.000
 4958.00    1.80450   1.92279   -1.000
 4959.00    1.94642   1.98842   -1.000
 4960.00    2.07360   2.07774  107.512
 4961.00    2.12267   2.14588  108.774
 4962.00    2.12373   2.17197   -1.000
 4963.00    2.11665   2.16092   -1.000
 4964.00    2.06997   2.12679   -1.000
 4965.00    1.99877   2.08592   -1.000
 4966.00    1.95029   2.05444   -1.000
 4967.00    1.96910   2.04229   -1.000
 4968.00    1.98190   2.04983   -1.000
 4969.00    1.99489   2.07274   -1.000
 4970.00    2.01991   2.10579   -1.000
 4971.00    2.05568   2.14305   -1.000
 4972.00    2.08236   2.17718   -1.000
 4973.00    2.11881   2.20050   -1.000
 4974.00    2.14201   2.20809   -1.000
 4975.00    2.13043   2.19910   -1.000
 4976.00    2.09456   2.17519   -1.000
 4977.00    2.05069   2.14055   -1.000
 4978.00    2.01048   2.10055   -1.000
 4979.00    1.97252   2.05699   -1.000
 4980.00    1.94657   2.00650   -1.000
 4981.00    1.89322   1.94816   -1.000
 4982.00    1.80349   1.89362   -1.000
 4983.00    1.77669   1.86481   -1.000
 4984.00    1.82815   1.87795   -1.000
 4985.00    1.89379   1.92925   -1.000
 4986.00    1.95392   1.99877   -1.000
 4987.00    2.02565   2.06104   -1.000
 4988.00    2.07254   2.09831   -1.000
 4989.00    2.04795   2.10769   -1.000
 4990.00    2.02112   2.10239   -1.000
 4991.00    2.02981   2.09832   -1.000
 4992.00    2.06483   2.10189   -1.000
 4993.00    2.05046   2.11060   -1.000
 4994.00    2.02726   2.12033   -1.000
 4995.00    2.04267   2.12880   -1.000
 4996.00    2.06268   2.13073   -1.000
 4997.00    2.05228   2.11637   -1.000
 4998.00    2.01349   2.08128   -1.000
 4999.00    1.97146   2.03445   -1.000
 5000.00    1.94440   1.99220   -1.000
 5001.00    1.93917   1.96680   -1.000
 5002.00    1.93455   1.95511  118.844
 5003.00    1.92083   1.94378  119.545
 5004.00    1.90364   1.92343  116.648
 5005.00    1.87935   1.90071  113.080
 5006.00    1.85797   1.89542   -1.000
 5007.00    1.87877   1.92095   -1.000
 5008.00    1.94939   1.96743  116.700
 5009.00    2.01044   2.00535  121.092
 5010.00    2.00696   2.01014  123.938
 5011.00    1.95500   1.97812  123.364
 5012.00    1.86931   1.92662   -1.000
 5013.00    1.80024   1.88187   -1.000
 5014.00    1.77600   1.86299   -1.000
 5015.00    1.80658   1.87167   -1.000
 5016.00    1.87450   1.89426  116.280
 5017.00    1.90858   1.91736  115.326
 5018.00    1.90511   1.93649   -1.000
 5019.00    1.91903   1.95283   -1.000
 5020.00    1.95380   1.96551  115.430
 5021.00    1.93578   1.97356   -1.000
 5022.00    1.89488   1.98336   -1.000
 5023.00    1.93744   2.00272   -1.000
 5024.00    2.00430   2.02890   -1.000
 5025.00    2.01568   2.04927   -1.000
 5026.00    1.97978   2.05507   -1.000
 5027.00    1.94674   2.05316   -1.000
 5028.00    1.95507   2.06086   -1.000
 5029.00    2.01911   2.08876   -1.000
 5030.00    2.05819   2.13291   -1.000
 5031.00    2.09342   2.17881   -1.000
 5032.00    2.15023   2.20999   -1.000
 5033.00    2.18511   2.21290   -1.000
 5034.00    2.15847   2.18348  117.058
 5035.00    2.05530   2.13268   -1.000
 5036.00    1.97107   2.07877   -1.000
 5037.00    1.95395   2.03011   -1.000
 5038.00    1.94919   1.97917   -1.000
 5039.00    1.86254   1.92102   -1.000
 5040.00    1.74219   1.87233   -1.000
 5041.00    1.72157   1.86547   -1.000
 5042.00    1.82081   1.92019   -1.000
 5043.00    1.97001   2.02155   -1.000
 5044.00    2.11605   2.13017  106.652
 5045.00    1.23144   2.20592   -1.000
 5046.00    0.13739   2.22858   -1.000
 5047.00    0.03276   2.20025   -1.000
 5048.00    0.61346   2.14139   -1.000
 5049.00    1.64284   2.08157   -1.000
 5050.00    1.92903   2.04620   -1.000
 5051.00    1.96379   2.04504   -1.000
 5052.00    2.03462   2.07343   -1.000
 5053.00    2.08139   2.11968   -1.000
 5054.00    2.12698   2.16893   -1.000
 5055.00    2.14944   2.20906   -1.000
 5056.00    2.18318   2.23715   -1.000
 5057.00    2.18377   2.25827   -1.000
 5058.00    2.19567   2.27839   -1.000
 5059.00    2.21228   2.29927   -1.000
 5060.00    2.22170   2.31497   -1.000
 5061.00    2.25912   2.31378   -1.000
 5062.00    2.24790   2.28509   -1.000
 5063.00    2.16678   2.22945   -1.000
 5064.00    2.05170   2.16422   -1.000
 5065.00    1.98553   2.11315   -1.000
 5066.00    2.01175   2.09001   -1.000
 5067.00    2.04657   2.09130   -1.000
 5068.00    2.03149   2.10577   -1.000
 5069.00    2.06139   2.12315   -1.000
 5070.00    2.10201   2.13593   -1.000
 5071.00    2.10249   2.13950   -1.000
 5072.00    2.07292   2.13681   -1.000
 5073.00    2.07872   2.13622   -1.000
 5074.00    2.11408   2.14156   -1.000
 5075.00    2.11885   2.14596   -1.000
 5076.00    2.10155   2.13811   -1.000
 5077.00    2.09537   2.10917  122.420
 5078.00    2.05035   2.05925  119.676
 5079.00    1.93120   2.00364   -1.000
 5080.00    1.87789   1.96686   -1.000
 5081.00    1.92768   1.96451   -1.000
 5082.00    1.98068   1.99066  111.438
 5083.00    2.01147   2.03084  110.692
 5084.00    2.03353   2.07477   -1.000
 5085.00    2.07946   2.11718   -1.000
 5086.00    2.11694   2.15365   -1.000
 5087.00    2.11920   2.18131   -1.000
 5088.00    2.12743   2.20095   -1.000
 5089.00    2.13817   2.21739   -1.000
 5090.00    2.16680   2.23561   -1.000
 5091.00    2.19862   2.25790   -1.000
 5092.00    2.22389   2.27987   -1.000
 5093.00    2.25556   2.28970   -1.000
 5094.00    2.24272   2.27514   -1.000
 5095.00    2.18255   2.23293   -1.000
 5096.00    2.10818   2.17304   -1.000
 5097.00    2.04275   2.11326   -1.000
 5098.00    1.96398   2.07331   -1.000
 5099.00    1.95089   2.06714   -1.000
 5100.00    2.00801   2.09536   -1.000
 5101.00    2.08884   2.13938   -1.000
 5102.00    2.14427   2.17428   -1.000
 5103.00    2.10888   2.18443   -1.000
 5104.00    2.07246   2.17197   -1.000
 5105.00    2.08178   2.14705   -1.000
 5106.00    2.06736   2.11828   -1.000
 5107.00    2.00889   2.09225   -1.000
 5108.00    2.00176   2.07575   -1.000
 5109.00    2.00948   2.07523   -1.000
 5110.00    2.02414   2.09367   -1.000
 5111.00    2.09023   2.12695   -1.000
 5112.00    2.14256   2.16657  108.312
 5113.00    2.16547   2.20436   -1.000
 5114.00    2.19668   2.23812   -1.000
 5115.00    2.21874   2.26876   -1.000
 5116.00    2.23244   2.29455   -1.000
 5117.00    2.24570   2.31007   -1.000
 5118.00    2.26357   2.30893   -1.000
 5119.00    2.25927   2.28749   -1.000
 5120.00    2.19309   2.24706   -1.000
 5121.00    2.12671   2.19314   -1.000
 5122.00    2.07952   2.13473   -1.000
 5123.00    1.99469   2.08355   -1.000
 5124.00    1.96259   2.05078   -1.000
 5125.00    1.98306   2.04005   -1.000
 5126.00    1.99361   2.04475   -1.000
 5127.00    1.99688   2.05486   -1.000
 5128.00    2.00368   2.06697   -1.000
 5129.00    2.02544   2.08472   -1.000
 5130.00    2.05014   2.11119   -1.000
 5131.00    2.09085   2.14383   -1.000
 5132.00    2.14371   2.17571   -1.000
 5133.00    2.16866   2.20126   -1.000
 5134.00    2.17953   2.21679   -1.000
 5135.00    2.19205   2.21684  116.267
 5136.00    2.17841   2.19620  116.297
 5137.00    2.11435   2.15837   -1.000
 5138.00    2.04557   2.11991   -1.000
 5139.00    2.02413   2.09778   -1.000
 5140.00    2.05597   2.09292   -1.000
 5141.00    2.06960   2.09587   -1.000
 5142.00    2.03119   2.09939   -1.000
 5143.00    2.02233   2.10320   -1.000
 5144.00    2.06153   2.10655   -1.000
 5145.00    2.06203   2.10399   -1.000
 5146.00    2.02922   2.09467   -1.000
 5147.00    2.03301   2.08788   -1.000
 5148.00    2.05202   2.08927   -1.000
 5149.00    2.04548   2.09368   -1.000
 5150.00    2.04240   2.09198   -1.000
 5151.00    2.02781   2.08263   -1.000
 5152.00    1.99410   2.07481   -1.000
 5153.00    1.97630   2.08002   -1.000
 5154.00    2.01762   2.10529   -1.000
 5155.00    2.08973   2.15010   -1.000
 5156.00    2.15533   2.20452   -1.000
 5157.00    2.23190   2.25367  107.445
 5158.00    2.26131   2.28582  108.109
 5159.00    2.24826   2.29693   -1.000
 5160.00    2.27182   2.28700  111.242
 5161.00    2.24928   2.25569  115.894
 5162.00    2.18561   2.20140  125.916
 5163.00    2.12884   2.12159  139.033
 5164.00    2.04528   2.01417   -1.000
 5165.00    1.89443   1.88316  143.470
 5166.00    1.67448   1.75006   -1.000
 5167.00    1.50429   1.65359   -1.000
 5168.00    1.51024   1.62034   -1.000
 5169.00    1.63105   1.62967  152.546
 5170.00    1.69688   1.63618   -1.000
 5171.00    1.60243   1.61703  128.809
 5172.00    1.44679   1.60213   -1.000
 5173.00    1.47130   1.64224   -1.000
 5174.00    1.68706   1.74895   -1.000
 5175.00    1.92064   1.88716   -1.000
 5176.00    2.04401   2.00360   -1.000
 5177.00    2.09018   2.07130  119.365
 5178.00    2.11798   2.08786   -1.000
 5179.00    2.08162   2.05394   -1.000
 5180.00    1.99518   1.96809   -1.000
 5181.00    1.83492   1.84079  144.516
 5182.00    1.61377   1.70958   -1.000
 5183.00    1.43579   1.63547   -1.000
 5184.00    1.46470   1.65962   -1.000
 5185.00    1.70493   1.77582   -1.000
 5186.00    1.96519   1.92816   -1.000
 5187.00    2.11944   2.05768   -1.000
 5188.00    2.17198   2.13407   -1.000
 5189.00    2.19850   2.15496   -1.000
 5190.00    2.20789   2.13137   -1.000
 5191.00    2.10614   2.08367  118.217
 5192.00    1.98730   2.04095   -1.000
 5193.00    1.98571   2.02763   -1.000
 5194.00    2.04599   2.04732  112.414
 5195.00    2.08491   2.08634  110.601
 5196.00    2.14032   2.13506  109.810
 5197.00    2.19738   2.18702  109.823
 5198.00    2.24743   2.23398  110.853
 5199.00    2.27527   2.26598  112.975
 5200.00    2.29290   2.27410  115.672
 5201.00    2.26567   2.25326  119.376
 5202.00    2.21891   2.20226  122.786
 5203.00    2.17078   2.12611   -1.000
 5204.00    2.06933   2.03720   -1.000
 5205.00    1.96788   1.95634  124.282
 5206.00    1.91388   1.90191  122.125
 5207.00    1.90460   1.88286  117.929
 5208.00    1.88864   1.89995  113.143
 5209.00    1.91737   1.95294   -1.000
 5210.00    2.02883   2.03768  107.056
 5211.00    2.15827   2.13639  108.559
 5212.00    2.28165   2.21963   -1.000
 5213.00    2.34188   2.26499   -1.000
 5214.00    2.31561   2.26849   -1.000
 5215.00    2.26012   2.25114  108.556
 5216.00    2.21519   2.24290   -1.000
 5217.00    2.23555   2.26325   -1.000
 5218.00    2.32430   2.30795  106.044
 5219.00    2.39726   2.35600   -1.000
 5220.00    2.41288   2.38599   -1.000
 5221.00    2.40644   2.38352  115.947
 5222.00    2.37322   2.34295   -1.000
 5223.00    2.28806   2.26664  123.875
 5224.00    2.17360   2.16937  120.466
 5225.00    2.05580   2.07871   -1.000
 5226.00    1.98400   2.02929   -1.000
 5227.00    2.00126   2.04448   -1.000
 5228.00    2.12398   2.11713  107.933
 5229.00    2.27316   2.20803   -1.000
 5230.00    2.35136   2.27173   -1.000
 5231.00    2.35951   2.28602   -1.000
 5232.00    2.27288   2.26777  108.647
 5233.00    2.22382   2.25157   -1.000
 5234.00    2.24487   2.26561  105.187
 5235.00    2.28685   2.31313   -1.000
 5236.00    2.38180   2.37459  105.505
 5237.00    2.46332   2.42746   -1.000
 5238.00    2.46700   2.45746  104.670
 5239.00    2.45295   2.46581  104.841
 5240.00    2.45389   2.46271  104.604
 5241.00    2.45890   2.45860  104.680
 5242.00    2.47281   2.45835  107.059
 5243.00    2.47310   2.45846  110.408
 5244.00    2.46804   2.44801  112.671
 5245.00    2.45115   2.41704   -1.000
 5246.00    2.36530   2.36792  113.075
 5247.00    2.28710   2.31668   -1.000
 5248.00    2.26171   2.28037  112.957
 5249.00    2.26309   2.26463  111.376
 5250.00    2.26336   2.26594  110.430
 5251.00    2.27621   2.27886  110.425
 5252.00    2.30429   2.29737  109.366
 5253.00    2.32725   2.31540  106.648
 5254.00    2.31479   2.33593  103.968
 5255.00    2.32085   2.36931   -1.000
 5256.00    2.39486   2.41987  104.685
 5257.00    2.50001   2.47367  107.863
 5258.00    2.55423   2.50247   -1.000
 5259.00    2.52699   2.48659   -1.000
 5260.00    2.47691   2.42214   -1.000
 5261.00    2.37863   2.32111   -1.000
 5262.00    2.22743   2.20458  123.695
 5263.00    2.09160   2.09737  121.380
 5264.00    2.01503   2.01825  119.792
 5265.00    1.97890   1.97491  122.983
 5266.00    1.98572   1.95682   -1.000
 5267.00    2.05032   1.94372   -1.000
 5268.00    2.01977   1.92293   -1.000
 5269.00    1.88110   1.90871   -1.000
 5270.00    1.87876   1.93420   -1.000
 5271.00    2.05939   2.01150   -1.000
 5272.00    2.22853   2.11553   -1.000
 5273.00    2.30501   2.20378   -1.000
 5274.00    2.30495   2.26323   -1.000
 5275.00    2.30598   2.31486  103.295
 5276.00    2.36662   2.37422  104.318
 5277.00    2.46929   2.43587   -1.000
 5278.00    2.55296   2.47624   -1.000
 5279.00    2.54445   2.47615   -1.000
 5280.00    2.48731   2.43827   -1.000
 5281.00    2.43382   2.38384   -1.000
 5282.00    2.35281   2.34319  105.512
 5283.00    2.30169   2.34158   -1.000
 5284.00    2.27800   2.38834   -1.000
 5285.00    2.45781   2.46679  102.625
 5286.00    2.61464   2.54633   -1.000
 5287.00    2.63680   2.60031   -1.000
 5288.00    2.64148   2.62717  101.826
 5289.00    2.63885   2.63879  102.527
 5290.00    2.65760   2.64365  103.576
 5291.00    2.66855   2.64148  105.177
 5292.00    2.62702   2.62704  108.296
 5293.00    2.60890   2.59666  112.378
 5294.00    2.60591   2.54695   -1.000
 5295.00    2.52631   2.47613   -1.000
 5296.00    2.40328   2.39503  110.603
 5297.00    2.27605   2.33041   -1.000
 5298.00    2.24380   2.30629   -1.000
 5299.00    2.32366   2.32734  106.474
 5300.00    2.40783   2.37554   -1.000
 5301.00    2.45551   2.43243  102.030
 5302.00    2.50370   2.49326  102.050
 5303.00    2.58169   2.55658  103.111
 5304.00    2.67440   2.61342   -1.000
 5305.00    2.72430   2.65039   -1.000
 5306.00    2.69107   2.66333  101.880
 5307.00    2.66777   2.66532  101.370
 5308.00    2.69950   2.67018  101.589
 5309.00    2.74230   2.68064   -1.000
 5310.00    2.74382   2.68868   -1.000
 5311.00    2.72006   2.68523   -1.000
 5312.00    2.69599   2.67014  104.485
 5313.00    2.69350   2.64836   -1.000
 5314.00    2.67462   2.62458   -1.000
 5315.00    2.65853   2.60303   -1.000
 5316.00    2.62511   2.58740   -1.000
 5317.00    2.60360   2.58030  104.536
 5318.00    2.60554   2.58058  105.372
 5319.00    2.62407   2.58071   -1.000
 5320.00    2.64121   2.57225   -1.000
 5321.00    2.60502   2.54880   -1.000
 5322.00    2.56230   2.50730   -1.000
 5323.00    2.51935   2.44912   -1.000
 5324.00    2.46180   2.37736   -1.000
 5325.00    2.43614   2.29435   -1.000
 5326.00    2.39476   2.20620   -1.000
 5327.00    2.21998   2.13371   -1.000
 5328.00    2.07826   2.11394   -1.000
 5329.00    2.14527   2.16534  106.475
 5330.00    2.33163   2.27236   -1.000
 5331.00    2.49134   2.38798   -1.000
 5332.00    2.52843   2.47916   -1.000
 5333.00    2.56797   2.54202  104.833
 5334.00    2.64569   2.58585   -1.000
 5335.00    2.69728   2.61335   -1.000
 5336.00    2.68657   2.61622   -1.000
 5337.00    2.65150   2.58832   -1.000
 5338.00    2.61264   2.53518   -1.000
 5339.00    2.52713   2.47493   -1.000
 5340.00    2.44341   2.43408  105.187
 5341.00    2.43333   2.43151  105.421
 5342.00    2.50306   2.46391   -1.000
 5343.00    2.59677   2.50379   -1.000
 5344.00    2.63401   2.52762   -1.000
 5345.00    2.60255   2.52827   -1.000
 5346.00    2.56554   2.51361   -1.000
 5347.00    2.55541   2.49645   -1.000
 5348.00    2.53914   2.48917   -1.000
 5349.00    2.52771   2.50194  102.822
 5350.00    2.58184   2.53939   -1.000
 5351.00    2.65440   2.59363   -1.000
 5352.00    2.70959   2.65044   -1.000
 5353.00    2.75182   2.70039   -1.000
 5354.00    2.77418   2.74042   -1.000
 5355.00    2.81885   2.77155   -1.000
 5356.00    2.85439   2.79145   -1.000
 5357.00    2.84619   2.79702   -1.000
 5358.00    2.82156   2.78857   -1.000
 5359.00    2.79660   2.76737   -1.000
 5360.00    2.77929   2.73579   -1.000
 5361.00    2.72033   2.69852  106.279
 5362.00    2.68888   2.66142   -1.000
 5363.00    2.66130   2.62754   -1.000
 5364.00    2.65413   2.59823   -1.000
 5365.00    2.62372   2.57361   -1.000
 5366.00    2.61028   2.55015   -1.000
 5367.00    2.59722   2.51968   -1.000
 5368.00    2.54579   2.47222   -1.000
 5369.00    2.46751   2.41071   -1.000
 5370.00    2.36868   2.36112  103.848
 5371.00    2.33481   2.35524  101.806
 5372.00    2.44675   2.40773   -1.000
 5373.00    2.61182   2.49952   -1.000
 5374.00    2.73702   2.59085   -1.000
 5375.00    2.78226   2.65391   -1.000
 5376.00    2.77515   2.68314   -1.000
 5377.00    2.74362   2.69268   -1.000
 5378.00    2.73637   2.69454   -1.000
 5379.00    2.75287   2.69049   -1.000
 5380.00    2.74679   2.67751   -1.000
 5381.00    2.72207   2.65737   -1.000
 5382.00    2.71322   2.63980   -1.000
 5383.00    2.69737   2.63402   -1.000
 5384.00    2.69749   2.64198   -1.000
 5385.00    2.74550   2.65549   -1.000
 5386.00    2.76960   2.66135   -1.000
 5387.00    2.74232   2.64892   -1.000
 5388.00    2.68925   2.61747   -1.000
 5389.00    2.63081   2.57693   -1.000
 5390.00    2.58953   2.53933   -1.000
 5391.00    2.56617   2.51326   -1.000
 5392.00    2.55820   2.49780   -1.000
 5393.00    2.57146   2.48478   -1.000
 5394.00    2.56381   2.46462   -1.000
 5395.00    2.52230   2.43607   -1.000
 5396.00    2.45479   2.41062   -1.000
 5397.00    2.42187   2.40670  105.711
 5398.00    2.49783   2.43490   -1.000
 5399.00    2.57884   2.48397   -1.000
 5400.00    2.61411   2.52784   -1.000
 5401.00    2.62256   2.54183   -1.000
 5402.00    2.62434   2.51501   -1.000
 5403.00    2.54852   2.45244   -1.000
 5404.00    2.42682   2.37802   -1.000
 5405.00    2.35352   2.32390  110.823
 5406.00    2.35015   2.31367   -1.000
 5407.00    2.42450   2.34067   -1.000
 5408.00    2.48430   2.37848   -1.000
 5409.00    2.46493   2.41520   -1.000
 5410.00    2.48208   2.45454  104.485
 5411.00    2.54704   2.50643   -1.000
 5412.00    2.63991   2.56514   -1.000
 5413.00    2.71711   2.61420   -1.000
 5414.00    2.71184   2.65039   -1.000
 5415.00    2.70866   2.67869   -1.000
 5416.00    2.72465   2.70283  104.880
 5417.00    2.77936   2.71829   -1.000
 5418.00    2.79498   2.71724   -1.000
 5419.00    2.75851   2.70244   -1.000
 5420.00    2.71558   2.68322   -1.000
 5421.00    2.72079   2.66561   -1.000
 5422.00    2.74058   2.65247   -1.000
 5423.00    2.70355   2.64618   -1.000
 5424.00    2.65322   2.65169  104.963
 5425.00    2.68046   2.67003  108.173
 5426.00    2.75397   2.68290   -1.000
 5427.00    2.78043   2.66771   -1.000
 5428.00    2.68967   2.61964   -1.000
 5429.00    2.56781   2.55960  109.143
 5430.00    2.53397   2.51962  110.753
 5431.00    2.58122   2.50504   -1.000
 5432.00    2.61627   2.50001   -1.000
 5433.00    2.57907   2.49040   -1.000
 5434.00    2.53239   2.48304   -1.000
 5435.00    2.52682   2.50052  103.260
 5436.00    2.58651   2.55244   -1.000
 5437.00    2.67343   2.62965   -1.000
 5438.00    2.75847   2.71118   -1.000
 5439.00    2.83946   2.77739   -1.000
 5440.00    2.87122   2.81945   -1.000
 5441.00    2.88831   2.83455   -1.000
 5442.00    2.87251   2.82155   -1.000
 5443.00    2.84003   2.77552   -1.000
 5444.00    2.75001   2.69802   -1.000
 5445.00    2.61192   2.60767  107.602
 5446.00    2.48889   2.53710   -1.000
 5447.00    2.48340   2.51793   -1.000
 5448.00    2.57499   2.55100  104.817
 5449.00    2.69985   2.60961   -1.000
 5450.00    2.77172   2.65630   -1.000
 5451.00    2.78890   2.66609   -1.000
 5452.00    2.74883   2.63794   -1.000
 5453.00    2.68781   2.58395   -1.000
 5454.00    2.60061   2.52796   -1.000
 5455.00    2.52653   2.50037  104.661
 5456.00    2.56636   2.52114   -1.000
 5457.00    2.67623   2.58075   -1.000
 5458.00    2.77360   2.64620   -1.000
 5459.00    2.81502   2.67924   -1.000
 5460.00    2.78008   2.67200   -1.000
 5461.00    2.70615   2.64015   -1.000
 5462.00    2.63896   2.60944   -1.000
 5463.00    2.63345   2.59886   -1.000
 5464.00    2.69026   2.61224   -1.000
 5465.00    2.75790   2.64000   -1.000
 5466.00    2.76434   2.66725   -1.000
 5467.00    2.76901   2.68449   -1.000
 5468.00    2.78991   2.68807   -1.000
 5469.00    2.76315   2.67909   -1.000
 5470.00    2.71775   2.66195   -1.000
 5471.00    2.69709   2.64083   -1.000
 5472.00    2.68884   2.61592   -1.000
 5473.00    2.66831   2.58421   -1.000
 5474.00    2.64193   2.54376   -1.000
 5475.00    2.58958   2.50353   -1.000
 5476.00    2.51891   2.48208   -1.000
 5477.00    2.50811   2.49024  109.398
 5478.00    2.59263   2.52315   -1.000
 5479.00    2.67360   2.55486   -1.000
 5480.00    2.67442   2.56888   -1.000
 5481.00    2.61633   2.57458   -1.000
 5482.00    2.58115   2.59151  105.252
 5483.00    2.62278   2.62971  106.557
 5484.00    2.70578   2.67213   -1.000
 5485.00    2.77487   2.69508   -1.000
 5486.00    2.77280   2.69086   -1.000
 5487.00    2.71539   2.67078   -1.000
 5488.00    2.69732   2.65697   -1.000
 5489.00    2.71458   2.65934   -1.000
 5490.00    2.74222   2.67509   -1.000
 5491.00    2.77391   2.69067   -1.000
 5492.00    2.79019   2.69836   -1.000
 5493.00    2.77116   2.69822   -1.000
 5494.00    2.75643   2.69344   -1.000
 5495.00    2.76427   2.68767   -1.000
 5496.00    2.76078   2.68347   -1.000
 5497.00    2.74997   2.68355   -1.000
 5498.00    2.77475   2.68854   -1.000
 5499.00    2.80637   2.69082   -1.000
 5500.00    2.80925   2.68077   -1.000
 5501.00    2.75987   2.66021   -1.000
 5502.00    2.70995   2.63820   -1.000
 5503.00    2.69221   2.62298   -1.000
 5504.00    2.70649   2.61343   -1.000
 5505.00    2.67724   2.60527   -1.000
 5506.00    2.65407   2.60458   -1.000
 5507.00    2.67789   2.61754   -1.000
 5508.00    2.73132   2.63829   -1.000
 5509.00    2.75651   2.65040   -1.000
 5510.00    2.74732   2.63789   -1.000
 5511.00    2.70591   2.60520   -1.000
 5512.00    2.64322   2.57125   -1.000
 5513.00    2.61377   2.55412   -1.000
 5514.00    2.63814   2.56315   -1.000
 5515.00    2.68853   2.59474   -1.000
 5516.00    2.74653   2.64174   -1.000
 5517.00    2.79863   2.69436   -1.000
 5518.00    2.84452   2.74266   -1.000
 5519.00    2.88404   2.77731   -1.000
 5520.00    2.88985   2.79470   -1.000
 5521.00    2.87931   2.79801   -1.000
 5522.00    2.88310   2.79427   -1.000
 5523.00    2.88569   2.78286   -1.000
 5524.00    2.86768   2.75794   -1.000
 5525.00    2.82681   2.71515   -1.000
 5526.00    2.76062   2.66052   -1.000
 5527.00    2.67500   2.61500   -1.000
 5528.00    2.61667   2.59864  106.028
 5529.00    2.64518   2.62115  106.596
 5530.00    2.74274   2.66580   -1.000
 5531.00    2.80454   2.70715   -1.000
 5532.00    2.81821   2.72805   -1.000
 5533.00    2.80725   2.72921   -1.000
 5534.00    2.79750   2.72252   -1.000
 5535.00    2.78511   2.71813   -1.000
 5536.00    2.78468   2.72220   -1.000
 5537.00    2.80876   2.73632   -1.000
 5538.00    2.83792   2.75853   -1.000
 5539.00    2.87474   2.78280   -1.000
 5540.00    2.92115   2.80176   -1.000
 5541.00    2.95342   2.80799   -1.000
 5542.00    2.91785   2.80109   -1.000
 5543.00    2.84578   2.78778   -1.000
 5544.00    2.83489   2.77867   -1.000
 5545.00    2.86446   2.78009   -1.000
 5546.00    2.87552   2.79388   -1.000
 5547.00    2.89461   2.81747   -1.000
 5548.00    2.93849   2.84507   -1.000
 5549.00    2.97297   2.86702   -1.000
 5550.00    2.98957   2.87486   -1.000
 5551.00    2.99874   2.86637   -1.000
 5552.00    2.97361   2.84624   -1.000
 5553.00    2.92942   2.82311   -1.000
 5554.00    2.89808   2.80587   -1.000
 5555.00    2.90806   2.79822   -1.000
 5556.00    2.92863   2.79768   -1.000
 5557.00    2.93124   2.79970   -1.000
 5558.00    2.93768   2.80017   -1.000
 5559.00    2.93847   2.79734   -1.000
 5560.00    2.92532   2.78907   -1.000
 5561.00    2.90599   2.77486   -1.000
 5562.00    2.87837   2.75776   -1.000
 5563.00    2.84548   2.74292   -1.000
 5564.00    2.82795   2.73124   -1.000
 5565.00    2.82671   2.72143   -1.000
 5566.00    2.81912   2.71243   -1.000
 5567.00    2.81277   2.70651   -1.000
 5568.00    2.82169   2.70608   -1.000
 5569.00    2.84813   2.71004   -1.000
 5570.00    2.91538   2.71503   -1.000
 5571.00    3.09198   2.71802   -1.000
 5572.00    3.33602   2.72014   -1.000
 5573.00    3.52866   2.72728   -1.000
 5574.00    3.48767   2.74269   -1.000
 5575.00    3.25173   2.76496   -1.000
 5576.00    3.16828   2.78613   -1.000
 5577.00    3.06391   2.80201   -1.000
 5578.00    2.97549   2.81444   -1.000
 5579.00    2.95337   2.82268   -1.000
 5580.00    2.95232   2.82290   -1.000
 5581.00    2.94898   2.81445   -1.000
 5582.00    2.92617   2.79626   -1.000
 5583.00    2.90057   2.76591   -1.000
 5584.00    2.88069   2.71996   -1.000
 5585.00    2.81570   2.65707   -1.000
 5586.00    2.71305   2.58985   -1.000
 5587.00    2.63232   2.53880   -1.000
 5588.00    2.60940   2.52017   -1.000
 5589.00    2.64276   2.53699   -1.000
 5590.00    2.70454   2.57386   -1.000
 5591.00    2.74944   2.61553   -1.000
 5592.00    2.75459   2.65032   -1.000
 5593.00    2.75457   2.68056   -1.000
 5594.00    2.78733   2.71017   -1.000
 5595.00    2.84074   2.73651   -1.000
 5596.00    2.88059   2.74894   -1.000
 5597.00    2.86937   2.73669   -1.000
 5598.00    2.80833   2.70332   -1.000
 5599.00    2.76127   2.66269   -1.000
 5600.00    2.73685   2.63137   -1.000
 5601.00    2.70784   2.62167   -1.000
 5602.00    2.69556   2.64113   -1.000
 5603.00    2.75018   2.69029   -1.000
 5604.00    2.86006   2.75940   -1.000
 5605.00    2.95155   2.82824   -1.000
 5606.00    3.00238   2.87925   -1.000
 5607.00    3.02623   2.90785   -1.000
 5608.00    3.03085   2.91934   -1.000
 5609.00    3.03605   2.92354   -1.000
 5610.00    3.05604   2.92330   -1.000
 5611.00    3.06586   2.91185   -1.000
 5612.00    3.04085   2.87526   -1.000
 5613.00    2.97164   2.80926   -1.000
 5614.00    2.84772   2.73011   -1.000
 5615.00    2.74451   2.66825   -1.000
 5616.00    2.74417   2.65035   -1.000
 5617.00    2.81332   2.67195   -1.000
 5618.00    2.85570   2.71386   -1.000
 5619.00    2.88285   2.75125   -1.000
 5620.00    2.89664   2.77542   -1.000
 5621.00    2.91853   2.78209   -1.000
 5622.00    2.91089   2.76749   -1.000
 5623.00    2.85813   2.73504   -1.000
 5624.00    2.78060   2.70554   -1.000
 5625.00    2.75507   2.69793   -1.000
 5626.00    2.81007   2.72204   -1.000
 5627.00    2.88382   2.76685   -1.000
 5628.00    2.95012   2.81469   -1.000
 5629.00    2.99107   2.85387   -1.000
 5630.00    3.01892   2.87768   -1.000
 5631.00    3.04208   2.88386   -1.000
 5632.00    3.04435   2.87475   -1.000
 5633.00    3.00095   2.85430   -1.000
 5634.00    2.95347   2.82779   -1.000
 5635.00    2.93922   2.80084   -1.000
 5636.00    2.90680   2.77965   -1.000
 5637.00    2.88058   2.76766   -1.000
 5638.00    2.87360   2.76363   -1.000
 5639.00    2.87706   2.76187   -1.000
 5640.00    2.87200   2.75856   -1.000
 5641.00    2.86477   2.75566   -1.000
 5642.00    2.86941   2.75801   -1.000
 5643.00    2.88834   2.76955   -1.000
 5644.00    2.91184   2.78623   -1.000
 5645.00    2.93796   2.80241   -1.000
 5646.00    2.94690   2.81424   -1.000
 5647.00    2.95217   2.82011   -1.000
 5648.00    2.94888   2.82210   -1.000
 5649.00    2.93438   2.82553   -1.000
 5650.00    2.93966   2.83387   -1.000
 5651.00    2.97844   2.84397   -1.000
 5652.00    3.01417   2.84833   -1.000
 5653.00    2.99763   2.83972   -1.000
 5654.00    2.94883   2.81776   -1.000
 5655.00    2.91635   2.78613   -1.000
 5656.00    2.88544   2.74636   -1.000
 5657.00    2.81025   2.70490   -1.000
 5658.00    2.74260   2.67545   -1.000
 5659.00    2.75481   2.66848   -1.000
 5660.00    2.81203   2.68441   -1.000
 5661.00    2.84202   2.71113   -1.000
 5662.00    2.85196   2.73812   -1.000
 5663.00    2.88666   2.76687   -1.000
 5664.00    2.94115   2.79546   -1.000
 5665.00    2.95359   2.81428   -1.000
 5666.00    2.93815   2.81943   -1.000
 5667.00    2.92174   2.81476   -1.000
 5668.00    2.90147   2.81109   -1.000
 5669.00    2.90858   2.81777   -1.000
 5670.00    2.94580   2.83669   -1.000
 5671.00    2.98281   2.86537   -1.000
 5672.00    3.03519   2.89707   -1.000
 5673.00    3.07239   2.92373   -1.000
 5674.00    3.08114   2.93923   -1.000
 5675.00    3.08632   2.94563   -1.000
 5676.00    3.08961   2.94528   -1.000
 5677.00    3.10054   2.93982   -1.000
 5678.00    3.10218   2.92690   -1.000
 5679.00    3.05794   2.90504   -1.000
 5680.00    3.01488   2.87693   -1.000
 5681.00    2.99049   2.84826   -1.000
 5682.00    2.95521   2.82641   -1.000
 5683.00    2.93175   2.81601   -1.000
 5684.00    2.96067   2.81596   -1.000
 5685.00    2.97722   2.81705   -1.000
 5686.00    2.93382   2.81371   -1.000
 5687.00    2.88356   2.81203   -1.000
 5688.00    2.88590   2.82122   -1.000
 5689.00    2.93886   2.84591   -1.000
 5690.00    3.00793   2.88097   -1.000
 5691.00    3.06529   2.91507   -1.000
 5692.00    3.08928   2.93923   -1.000
 5693.00    3.08549   2.94939   -1.000
 5694.00    3.07534   2.94698   -1.000
 5695.00    3.05997   2.93499   -1.000
 5696.00    3.02965   2.91539   -1.000
 5697.00    3.00365   2.88889   -1.000
 5698.00    2.97076   2.85792   -1.000
 5699.00    2.91287   2.82768   -1.000
 5700.00    2.86867   2.80462   -1.000
 5701.00    2.84500   2.79429   -1.000
 5702.00    2.84036   2.79683   -1.000
 5703.00    2.88912   2.80620   -1.000
 5704.00    2.94053   2.80691   -1.000
 5705.00    2.92573   2.78998   -1.000
 5706.00    2.86584   2.75704   -1.000
 5707.00    2.79838   2.71851   -1.000
 5708.00    2.74662   2.68872   -1.000
 5709.00    2.73759   2.67590   -1.000
 5710.00    2.75758   2.68493   -1.000
 5711.00    2.79094   2.71701   -1.000
 5712.00    2.85886   2.76632   -1.000
 5713.00    2.94803   2.82223   -1.000
 5714.00    3.00967   2.87358   -1.000
 5715.00    3.02588   2.91186   -1.000
 5716.00    3.05383   2.93899   -1.000
 5717.00    3.08816   2.95900   -1.000
 5718.00    3.11241   2.97714   -1.000
 5719.00    3.13890   2.99678   -1.000
 5720.00    3.14506   3.01826   -1.000
 5721.00    3.15746   3.03787   -1.000
 5722.00    3.18419   3.05062   -1.000
 5723.00    3.19842   3.05082   -1.000
 5724.00    3.18989   3.03672   -1.000
 5725.00    3.15356   3.01203   -1.000
 5726.00    3.10454   2.98780   -1.000
 5727.00    3.07503   2.97420   -1.000
 5728.00    3.08792   2.97265   -1.000
 5729.00    3.11759   2.97647   -1.000
 5730.00    3.11849   2.97772   -1.000
 5731.00    3.09835   2.98014   -1.000
 5732.00    3.10164   2.99032   -1.000
 5733.00    3.13349   3.00846   -1.000
 5734.00    3.16333   3.02665   -1.000
 5735.00    3.17532   3.03384   -1.000
 5736.00    3.15626   3.03070   -1.000
 5737.00    3.12543   3.02355   -1.000
 5738.00    3.10354   3.01796   -1.000
 5739.00    3.09557   3.01607   -1.000
 5740.00    3.09791   3.01470   -1.000
 5741.00    3.09768   3.01492   -1.000
 5742.00    3.09855   3.01941   -1.000
 5743.00    3.10057   3.02953   -1.000
 5744.00    3.13241   3.04171   -1.000
 5745.00    3.16970   3.04604   -1.000
 5746.00    3.16196   3.03920   -1.000
 5747.00    3.12654   3.02671   -1.000
 5748.00    3.10801   3.01767   -1.000
 5749.00    3.14154   3.01517   -1.000
 5750.00    3.17474   3.00706   -1.000
 5751.00    3.13380   2.98584   -1.000
 5752.00    3.06006   2.95634   -1.000
 5753.00    3.00478   2.93760   -1.000
 5754.00    2.99620   2.94789   -1.000
 5755.00    3.06490   2.98302   -1.000
 5756.00    3.16081   3.02611   -1.000
 5757.00    3.20271   3.05099   -1.000
 5758.00    3.18845   3.04668   -1.000
 5759.00    3.15205   3.01532   -1.000
 5760.00    3.08901   2.97335   -1.000
 5761.00    3.02638   2.94186   -1.000
 5762.00    3.00385   2.93896   -1.000
 5763.00    3.04275   2.96791   -1.000
 5764.00    3.12306   3.01636   -1.000
 5765.00    3.19776   3.06473   -1.000
 5766.00    3.21402   3.09641   -1.000
 5767.00    3.19776   3.11018   -1.000
 5768.00    3.18970   3.10930   -1.000
 5769.00    3.17621   3.09991   -1.000
 5770.00    3.16140   3.08592   -1.000
 5771.00    3.12467   3.07084   -1.000
 5772.00    3.07809   3.05698  104.807
 5773.00    3.03734   3.04714  104.463
 5774.00    2.98820   3.04411   -1.000
 5775.00    2.91598   3.04588   -1.000
 5776.00    2.86975   3.04580   -1.000
 5777.00    2.89887   3.03254   -1.000
 5778.00    2.95950   2.99724   -1.000
 5779.00    2.97049   2.94309   -1.000
 5780.00    2.94270   2.88197   -1.000
 5781.00    2.90400   2.83255   -1.000
 5782.00    2.88061   2.80348   -1.000
 5783.00    2.87398   2.79652   -1.000
 5784.00    2.86659   2.80709   -1.000
 5785.00    2.88504   2.83326   -1.000
 5786.00    2.95221   2.87357   -1.000
 5787.00    3.04558   2.91915   -1.000
 5788.00    3.11863   2.95623   -1.000
 5789.00    3.13408   2.97950   -1.000
 5790.00    3.09487   2.99262   -1.000
 5791.00    3.05583   3.00825   -1.000
 5792.00    3.06828   3.03308   -1.000
 5793.00    3.10911   3.06382   -1.000
 5794.00    3.16735   3.08755   -1.000
 5795.00    3.22250   3.09409   -1.000
 5796.00    3.21081   3.08751   -1.000
 5797.00    3.17123   3.08124   -1.000
 5798.00    3.17186   3.09170   -1.000
 5799.00    3.22830   3.11898   -1.000
 5800.00    3.30206   3.15044   -1.000
 5801.00    3.32612   3.16750   -1.000
 5802.00    3.29634   3.16111   -1.000
 5803.00    3.24288   3.13794   -1.000
 5804.00    3.18415   3.11089   -1.000
 5805.00    3.14979   3.09413   -1.000
 5806.00    3.15046   3.09140   -1.000
 5807.00    3.16831   3.10008   -1.000
 5808.00    3.19540   3.11378   -1.000
 5809.00    3.23241   3.12731   -1.000
 5810.00    3.26824   3.13622   -1.000
 5811.00    3.29000   3.13687   -1.000
 5812.00    3.29190   3.12612   -1.000
 5813.00    3.24926   3.10576   -1.000
 5814.00    3.19838   3.08207   -1.000
 5815.00    3.18058   3.06784   -1.000
 5816.00    3.18295   3.07212   -1.000
 5817.00    3.21876   3.09716   -1.000
 5818.00    3.27259   3.13041   -1.000
 5819.00    3.30762   3.15811   -1.000
 5820.00    3.32915   3.17070   -1.000
 5821.00    3.32586   3.17027   -1.000
 5822.00    3.30713   3.16511   -1.000
 5823.00    3.31536   3.16171   -1.000
 5824.00    3.32557   3.16393   -1.000
 5825.00    3.31465   3.16939   -1.000
 5826.00    3.30700   3.17640   -1.000
 5827.00    3.31154   3.18338   -1.000
 5828.00    3.32736   3.18938   -1.000
 5829.00    3.33570   3.19337   -1.000
 5830.00    3.33145   3.19294   -1.000
 5831.00    3.32681   3.18692   -1.000
 5832.00    3.31258   3.17635   -1.000
 5833.00    3.28702   3.16381   -1.000
 5834.00    3.27245   3.15391   -1.000
 5835.00    3.27630   3.14852   -1.000
 5836.00    3.28461   3.14841   -1.000
 5837.00    3.28258   3.15268   -1.000
 5838.00    3.26240   3.16186   -1.000
 5839.00    3.25708   3.17721   -1.000
 5840.00    3.28255   3.19530   -1.000
 5841.00    3.31973   3.20932   -1.000
 5842.00    3.34236   3.21252   -1.000
 5843.00    3.34450   3.20192   -1.000
 5844.00    3.33049   3.18023   -1.000
 5845.00    3.30074   3.15353   -1.000
 5846.00    3.25726   3.12886   -1.000
 5847.00    3.22988   3.11146   -1.000
 5848.00    3.23808   3.10124   -1.000
 5849.00    3.26402   3.09272   -1.000
 5850.00    3.26697   3.07962   -1.000
 5851.00    3.22632   3.05968   -1.000
 5852.00    3.17298   3.03751   -1.000
 5853.00    3.13894   3.01740   -1.000
 5854.00    3.13943   2.99764   -1.000
 5855.00    3.14035   2.97446   -1.000
 5856.00    3.10744   2.94892   -1.000
 5857.00    3.06992   2.93264   -1.000
 5858.00    3.07259   2.93823   -1.000
 5859.00    3.13011   2.96411   -1.000
 5860.00    3.18682   2.99957   -1.000
 5861.00    3.19505   3.02731   -1.000
 5862.00    3.19177   3.04312   -1.000
 5863.00    3.18915   3.04771   -1.000
 5864.00    3.17824   3.04564   -1.000
 5865.00    3.16869   3.04150   -1.000
 5866.00    3.16842   3.04206   -1.000
 5867.00    3.18924   3.05270   -1.000
 5868.00    3.23014   3.07461   -1.000
 5869.00    3.26921   3.09841   -1.000
 5870.00    3.28373   3.11466   -1.000
 5871.00    3.29297   3.12007   -1.000
 5872.00    3.29473   3.11742   -1.000
 5873.00    3.29247   3.11247   -1.000
 5874.00    3.29892   3.10633   -1.000
 5875.00    3.28261   3.09648   -1.000
 5876.00    3.25221   3.07951   -1.000
 5877.00    3.21812   3.05550   -1.000
 5878.00    3.17772   3.03046   -1.000
 5879.00    3.14339   3.01038   -1.000
 5880.00    3.10606   3.00018   -1.000
 5881.00    3.05932   2.99678   -1.000
 5882.00    2.94547   2.99455   -1.000
 5883.00    2.72192   2.98522   -1.000
 5884.00    2.45131   2.95889   -1.000
 5885.00    2.22651   2.90092   -1.000
 5886.00    2.13535   2.79309   -1.000
 5887.00    2.16458   2.63069   -1.000
 5888.00    2.13276   2.44784   -1.000
 5889.00    1.98459   2.29753   -1.000
 5890.00    1.86449   2.23761   -1.000
 5891.00    1.86016   2.26253   -1.000
 5892.00    1.97967   2.33093   -1.000
 5893.00    2.18112   2.37808   -1.000
 5894.00    2.32633   2.38614   -1.000
 5895.00    2.35989   2.38852   -1.000
 5896.00    2.41830   2.42441  109.605
 5897.00    2.59376   2.51831   -1.000
 5898.00    2.81939   2.64251   -1.000
 5899.00    2.98380   2.76536   -1.000
 5900.00    3.08260   2.86257   -1.000
 5901.00    3.14376   2.92994   -1.000
 5902.00    3.16433   2.97026   -1.000
 5903.00    3.15842   2.99162   -1.000
 5904.00    3.15180   3.00144   -1.000
 5905.00    3.14485   3.00795   -1.000
 5906.00    3.15356   3.01652   -1.000
 5907.00    3.17830   3.02933   -1.000
 5908.00    3.19402   3.04409   -1.000
 5909.00    3.20671   3.05552   -1.000
 5910.00    3.22242   3.05844   -1.000
 5911.00    3.22582   3.04789   -1.000
 5912.00    3.19338   3.02323   -1.000
 5913.00    3.14002   2.99229   -1.000
 5914.00    3.10970   2.96794   -1.000
 5915.00    3.09988   2.96078   -1.000
 5916.00    3.10948   2.97430   -1.000
 5917.00    3.15256   2.99923   -1.000
 5918.00    3.20502   3.02671   -1.000
 5919.00    3.23028   3.04620   -1.000
 5920.00    3.21819   3.05588   -1.000
 5921.00    3.19506   3.05819   -1.000
 5922.00    3.18408   3.06050   -1.000
 5923.00    3.20019   3.06738   -1.000
 5924.00    3.24121   3.07837   -1.000
 5925.00    3.27176   3.08693   -1.000
 5926.00    3.26861   3.08516   -1.000
 5927.00    3.24656   3.07292   -1.000
 5928.00    3.20333   3.05510   -1.000
 5929.00    3.16660   3.04424   -1.000
 5930.00    3.18173   3.04403   -1.000
 5931.00    3.22583   3.05209   -1.000
 5932.00    3.24796   3.05895   -1.000
 5933.00    3.23922   3.06017   -1.000
 5934.00    3.20218   3.06200   -1.000
 5935.00    3.18755   3.06983   -1.000
 5936.00    3.21230   3.08460   -1.000
 5937.00    3.24379   3.09792   -1.000
 5938.00    3.27500   3.10016   -1.000
 5939.00    3.26758   3.09058   -1.000
 5940.00    3.23079   3.07405   -1.000
 5941.00    3.20531   3.06229   -1.000
 5942.00    3.19571   3.06250   -1.000
 5943.00    3.22160   3.07568   -1.000
 5944.00    3.27165   3.09214   -1.000
 5945.00    3.28661   3.10135   -1.000
 5946.00    3.27385   3.09763   -1.000
 5947.00    3.25215   3.08421   -1.000
 5948.00    3.22859   3.07112   -1.000
 5949.00    3.21344   3.06339   -1.000
 5950.00    3.21232   3.06229   -1.000
 5951.00    3.21656   3.06123   -1.000
 5952.00    3.20573   3.05940   -1.000
 5953.00    3.18198   3.05792   -1.000
 5954.00    3.17917   3.05681   -1.000
 5955.00    3.20895   3.05557   -1.000
 5956.00    3.21930   3.05507   -1.000
 5957.00    3.20050   3.06092   -1.000
 5958.00    3.21741   3.07854   -1.000
 5959.00    3.26056   3.10524   -1.000
 5960.00    3.28984   3.13218   -1.000
 5961.00    3.31455   3.15077   -1.000
 5962.00    3.32368   3.15585   -1.000
 5963.00    3.31658   3.15018   -1.000
 5964.00    3.28175   3.13991   -1.000
 5965.00    3.24325   3.13434   -1.000
 5966.00    3.25587   3.13776   -1.000
 5967.00    3.30348   3.15091   -1.000
 5968.00    3.33205   3.16808   -1.000
 5969.00    3.33644   3.18405   -1.000
 5970.00    3.34053   3.19457   -1.000
 5971.00    3.34279   3.19697   -1.000
 5972.00    3.33688   3.18882   -1.000
 5973.00    3.32335   3.16958   -1.000
 5974.00    3.29284   3.14135   -1.000
 5975.00    3.24714   3.11182   -1.000
 5976.00    3.21632   3.08917   -1.000
 5977.00    3.21004   3.08262   -1.000
 5978.00    3.22572   3.09014   -1.000
 5979.00    3.25998   3.10533   -1.000
 5980.00    3.27943   3.11297   -1.000
 5981.00    3.28339   3.10543   -1.000
 5982.00    3.27111   3.08285   -1.000
 5983.00    3.20703   3.05940   -1.000
 5984.00    3.15063   3.05020   -1.000
 5985.00    3.15892   3.06012   -1.000
 5986.00    3.20278   3.08488   -1.000
 5987.00    3.25089   3.11156   -1.000
 5988.00    3.28239   3.13364   -1.000
 5989.00    3.30383   3.14902   -1.000
 5990.00    3.30702   3.16094   -1.000
 5991.00    3.28442   3.17391   -1.000
 5992.00    3.28769   3.18894   -1.000
 5993.00    3.32830   3.20098   -1.000
 5994.00    3.34565   3.20096   -1.000
 5995.00    3.32233   3.18658   -1.000
 5996.00    3.28235   3.16252   -1.000
 5997.00    3.23875   3.14270   -1.000
 5998.00    3.22607   3.13332   -1.000
 5999.00    3.24029   3.13507   -1.000
 6000.00    3.27497   3.13986   -1.000
 6001.00    3.28440   3.14136   -1.000
 6002.00    3.24579   3.13979   -1.000
 6003.00    3.20889   3.13482   -1.000
 6004.00    3.19652   3.12547   -1.000
 6005.00    3.18413   3.10972   -1.000
 6006.00    3.15288   3.09001   -1.000
 6007.00    3.12987   3.07920   -1.000
 6008.00    3.14561   3.08507   -1.000
 6009.00    3.20775   3.10341   -1.000
 6010.00    3.27221   3.12157   -1.000
 6011.00    3.29529   3.12578   -1.000
 6012.00    3.27376   3.11946   -1.000
 6013.00    3.24447   3.11029   -1.000
 6014.00    3.23491   3.10494   -1.000
 6015.00    3.23418   3.10346   -1.000
 6016.00    3.22850   3.10223   -1.000
 6017.00    3.21340   3.09894   -1.000
 6018.00    3.20462   3.09348   -1.000
 6019.00    3.20110   3.08802   -1.000
 6020.00    3.19328   3.08586   -1.000
 6021.00    3.19939   3.09305   -1.000
 6022.00    3.22556   3.10899   -1.000
 6023.00    3.24339   3.13170   -1.000
 6024.00    3.26434   3.15674   -1.000
 6025.00    3.30330   3.18109   -1.000
 6026.00    3.34556   3.20385   -1.000
 6027.00    3.36848   3.22478   -1.000
 6028.00    3.37810   3.24330   -1.000
 6029.00    3.38290   3.25919   -1.000
 6030.00    3.37322   3.27259   -1.000
 6031.00    3.36751   3.28614   -1.000
 6032.00    3.36969   3.30241   -1.000
 6033.00    3.36848   3.31986   -1.000
 6034.00    3.37548   3.33371   -1.000
 6035.00    3.39001   3.33878   -1.000
 6036.00    3.40119   3.33191   -1.000
 6037.00    3.39948   3.31755   -1.000
 6038.00    3.38413   3.30047   -1.000
 6039.00    3.36752   3.28838   -1.000
 6040.00    3.35289   3.28466   -1.000
 6041.00    3.34541   3.29074   -1.000
 6042.00    3.36379   3.30460   -1.000
 6043.00    3.38560   3.32030   -1.000
 6044.00    3.40845   3.33574   -1.000
 6045.00    3.43591   3.34595   -1.000
 6046.00    3.43904   3.35305   -1.000
 6047.00    3.42982   3.35611   -1.000
 6048.00    3.43729   3.35692   -1.000
 6049.00    3.45557   3.35404   -1.000
 6050.00    3.46240   3.34567   -1.000
 6051.00    3.45446   3.33023   -1.000
 6052.00    3.42907   3.30835   -1.000
 6053.00    3.39628   3.28411   -1.000
 6054.00    3.37551   3.26251   -1.000
 6055.00    3.36185   3.24976   -1.000
 6056.00    3.35115   3.24799   -1.000
 6057.00    3.34982   3.25747   -1.000
 6058.00    3.38080   3.27118   -1.000
 6059.00    3.40900   3.28071   -1.000
 6060.00    3.41517   3.27862   -1.000
 6061.00    3.44493   3.26197   -1.000
 6062.00    3.14206   3.23623   -1.000
 6063.00    2.19191   3.21150   -1.000
 6064.00    1.70098   3.20221   -1.000
 6065.00    2.48510   3.21561   -1.000
 6066.00    3.16283   3.25055   -1.000
 6067.00    3.29908   3.29387  102.113
 6068.00    2.88385   3.33346   -1.000
 6069.00    1.71677   3.36124   -1.000
 6070.00    2.34420   3.37815   -1.000
 6071.00    3.38171   3.38621  105.098
 6072.00    3.50786   3.38676   -1.000
 6073.00    3.50038   3.37967   -1.000
 6074.00    3.49140   3.36419   -1.000
 6075.00    3.46624   3.34126   -1.000
 6076.00    3.43556   3.31264   -1.000
 6077.00    3.40194   3.28408   -1.000
 6078.00    3.36646   3.25874   -1.000
 6079.00    3.33935   3.23989   -1.000
 6080.00    3.33857   3.22635   -1.000
 6081.00    3.33610   3.21893   -1.000
 6082.00    3.31368   3.21742   -1.000
 6083.00    3.31888   3.22248   -1.000
 6084.00    3.33095   3.23225   -1.000
 6085.00    3.33489   3.24291   -1.000
 6086.00    3.32800   3.25072   -1.000
 6087.00    3.33303   3.25104   -1.000
 6088.00    3.33666   3.24234   -1.000
 6089.00    3.31065   3.22933   -1.000
 6090.00    3.28896   3.21910   -1.000
 6091.00    3.27715   3.22016   -1.000
 6092.00    3.28671   3.23332   -1.000
 6093.00    3.32949   3.25474   -1.000
 6094.00    3.36920   3.27670   -1.000
 6095.00    3.39652   3.29392   -1.000
 6096.00    3.40458   3.30455   -1.000
 6097.00    3.40418   3.30690   -1.000
 6098.00    3.40011   3.29643   -1.000
 6099.00    3.38358   3.26799   -1.000
 6100.00    3.34543   3.22111   -1.000
 6101.00    3.27363   3.17487   -1.000
 6102.00    3.19356   3.14707   -1.000
 6103.00    3.17281   3.15481  107.737
 6104.00    3.23501   3.18863   -1.000
 6105.00    3.31500   3.23257   -1.000
 6106.00    3.36035   3.26988   -1.000
 6107.00    3.36443   3.29605   -1.000
 6108.00    3.35822   3.31209   -1.000
 6109.00    3.36359   3.32125   -1.000
 6110.00    3.37056   3.32718   -1.000
 6111.00    3.35614   3.33351   -1.000
 6112.00    3.37921   3.34242   -1.000
 6113.00    3.43327   3.34947   -1.000
 6114.00    3.44062   3.35056   -1.000
 6115.00    3.40774   3.34246   -1.000
 6116.00    3.38183   3.32533   -1.000
 6117.00    3.38206   3.29821   -1.000
 6118.00    3.36052   3.25939   -1.000
 6119.00    3.30135   3.21155   -1.000
 6120.00    3.24212   3.16736   -1.000
 6121.00    3.19724   3.14327   -1.000
 6122.00    3.19431   3.14998   -1.000
 6123.00    3.24783   3.17968   -1.000
 6124.00    3.31234   3.21669   -1.000
 6125.00    3.34006   3.24298   -1.000
 6126.00    3.33383   3.25760   -1.000
 6127.00    3.31756   3.26888   -1.000
 6128.00    3.31831   3.28551   -1.000
 6129.00    3.34840   3.30979   -1.000
 6130.00    3.39513   3.33167   -1.000
 6131.00    3.42240   3.33702   -1.000
 6132.00    3.40866   3.31113   -1.000
 6133.00    3.35322   3.25194   -1.000
 6134.00    3.26763   3.16989   -1.000
 6135.00    3.16716   3.09606   -1.000
 6136.00    3.06265   3.05714  110.326
 6137.00    3.03786   3.07057   -1.000
 6138.00    3.13176   3.12048  110.438
 6139.00    3.26648   3.18126   -1.000
 6140.00    3.33820   3.23198   -1.000
 6141.00    3.33091   3.26869   -1.000
 6142.00    3.33144   3.29950   -1.000
 6143.00    3.36302   3.32577   -1.000
 6144.00    3.39508   3.34272   -1.000
 6145.00    3.40426   3.34451   -1.000
 6146.00    3.38185   3.33033   -1.000
 6147.00    3.34083   3.30718   -1.000
 6148.00    3.30348   3.28348  109.522
 6149.00    3.26903   3.26888  109.206
 6150.00    3.26237   3.26453  109.880
 6151.00    3.28806   3.26716   -1.000
 6152.00    3.33175   3.26756   -1.000
 6153.00    3.31782   3.26093   -1.000
 6154.00    3.27238   3.24752   -1.000
 6155.00    3.23894   3.22922  114.050
 6156.00    3.22312   3.20507   -1.000
 6157.00    3.21076   3.16558   -1.000
 6158.00    3.18213   3.10359   -1.000
 6159.00    3.11282   3.02071   -1.000
 6160.00    3.00130   2.93493   -1.000
 6161.00    2.86547   2.87433  116.045
 6162.00    2.80213   2.85784   -1.000
 6163.00    2.84474   2.88868   -1.000
 6164.00    2.95167   2.94234  116.647
 6165.00    3.02835   2.99440   -1.000
 6166.00    3.05076   3.02144   -1.000
 6167.00    3.04193   3.02462  115.579
 6168.00    3.01465   3.01555  113.766
 6169.00    2.98930   3.01638  113.480
 6170.00    2.99201   3.03679   -1.000
 6171.00    3.03853   3.07292   -1.000
 6172.00    3.11221   3.11097  113.192
 6173.00    3.14712   3.13882  112.912
 6174.00    3.14466   3.15597  112.409
 6175.00    3.15428   3.16664  111.956
 6176.00    3.15624   3.17678  111.594
 6177.00    3.17678   3.18949  111.113
 6178.00    3.20572   3.20485  110.769
 6179.00    3.22298   3.22107  110.881
 6180.00    3.24121   3.23527  111.251
 6181.00    3.24241   3.24441  112.027
 6182.00    3.24361   3.24462  113.199
 6183.00    3.24368   3.23217  114.397
 6184.00    3.23432   3.20859   -1.000
 6185.00    3.21135   3.17685   -1.000
 6186.00    3.16285   3.14208   -1.000
 6187.00    3.11485   3.10658  118.726
 6188.00    3.07219   3.07243  117.844
 6189.00    3.04431   3.04408  115.200
 6190.00    3.01184   3.03035  113.048
 6191.00    2.99530   3.04021   -1.000
 6192.00    3.03364   3.07505   -1.000
 6193.00    3.11399   3.12233  112.426
 6194.00    3.18377   3.16682  113.641
 6195.00    3.21577   3.19361   -1.000
 6196.00    3.20492   3.20049  114.782
 6197.00    3.15372   3.19107   -1.000
 6198.00    3.07736   3.17930   -1.000
 6199.00    3.02875   3.17623   -1.000
 6200.00    3.04614   3.18963   -1.000
 6201.00    3.11649   3.21455   -1.000
 6202.00    3.20344   3.24138   -1.000
 6203.00    3.26134   3.26356  111.980
 6204.00    3.27566   3.27800  112.080
 6205.00    3.27760   3.28654  112.448
 6206.00    3.28566   3.28924  113.390
 6207.00    3.28740   3.28495  114.325
 6208.00    3.27419   3.27136  115.391
 6209.00    3.24720   3.24594  117.032
 6210.00    3.21629   3.20791  118.365
 6211.00    3.18104   3.15974   -1.000
 6212.00    3.11906   3.10801  117.640
 6213.00    3.06216   3.06425  116.809
 6214.00    3.03308   3.03762  117.440
 6215.00    3.02082   3.03074  117.326
 6216.00    3.02984   3.03628  116.491
 6217.00    3.06888   3.04354   -1.000
 6218.00    3.08993   3.04823   -1.000
 6219.00    3.07014   3.05120  122.851
 6220.00    3.06593   3.05879  116.980
 6221.00    3.08614   3.07164  115.629
 6222.00    3.11135   3.08693   -1.000
 6223.00    3.13088   3.10053   -1.000
 6224.00    3.14004   3.10939   -1.000
 6225.00    3.14801   3.11014   -1.000
 6226.00    3.15279   3.09810   -1.000
 6227.00    3.15053   3.06971   -1.000
 6228.00    3.11174   3.02973   -1.000
 6229.00    3.03745   2.99141   -1.000
 6230.00    2.96444   2.97281  115.440
 6231.00    2.93610   2.98561   -1.000
 6232.00    2.98673   3.02716   -1.000
 6233.00    3.07572   3.08170  116.322
 6234.00    3.17056   3.12773   -1.000
 6235.00    3.22837   3.15091   -1.000
 6236.00    3.21324   3.14587   -1.000
 6237.00    3.16892   3.12145   -1.000
 6238.00    3.11777   3.08838   -1.000
 6239.00    3.06426   3.05742  120.966
 6240.00    3.02692   3.03219  121.055
 6241.00    3.01039   3.01343  120.392
 6242.00    2.99884   3.00145  119.263
 6243.00    2.99852   2.99880  117.795
 6244.00    3.00710   3.00981  116.505
 6245.00    3.04395   3.03515  116.179
 6246.00    3.09026   3.06992  117.055
 6247.00    3.13413   3.10341   -1.000
 6248.00    3.15673   3.12358   -1.000
 6249.00    3.14747   3.12095   -1.000
 6250.00    3.12898   3.09735   -1.000
 6251.00    3.09068   3.06161   -1.000
 6252.00    3.03142   3.02582  122.930
 6253.00    2.97765   2.99754  124.070
 6254.00    2.94644   2.97637   -1.000
 6255.00    2.94099   2.96013  122.191
 6256.00    2.92338   2.95090  120.321
 6257.00    2.90370   2.95523   -1.000
 6258.00    2.91884   2.98058   -1.000
 6259.00    2.96534   3.02419   -1.000
 6260.00    3.03527   3.07751   -1.000
 6261.00    3.11495   3.12574  117.555
 6262.00    3.15043   3.15978  117.268
 6263.00    3.15245   3.17595  116.439
 6264.00    3.12966   3.17993   -1.000
 6265.00    3.10800   3.17930   -1.000
 6266.00    3.11377   3.17933   -1.000
 6267.00    3.12434   3.18148   -1.000
 6268.00    3.14260   3.18419   -1.000
 6269.00    3.14217   3.18885   -1.000
 6270.00    3.12414   3.19590   -1.000
 6271.00    3.10365   3.20271   -1.000
 6272.00    3.05149   3.20404   -1.000
 6273.00    2.99553   3.19550   -1.000
 6274.00    2.96506   3.17678   -1.000
 6275.00    2.93636   3.15068   -1.000
 6276.00    2.90983   3.12279   -1.000
 6277.00    2.87112   3.09710   -1.000
 6278.00    2.82106   3.07901   -1.000
 6279.00    2.76249   3.07293   -1.000
 6280.00    2.75246   3.08304   -1.000
 6281.00    2.82012   3.10882   -1.000
 6282.00    2.93238   3.14582   -1.000
 6283.00    3.02367   3.18513   -1.000
 6284.00    3.07993   3.22131   -1.000
 6285.00    3.14032   3.25083   -1.000
 6286.00    3.18843   3.27270   -1.000
 6287.00    3.22249   3.28428   -1.000
 6288.00    3.26585   3.28288  118.222
 6289.00    3.27729   3.26873  118.352
 6290.00    3.25061   3.24767  118.548
 6291.00    3.21543   3.22619  119.346
 6292.00    3.19942   3.20914  120.177
 6293.00    3.21205   3.19377   -1.000
 6294.00    3.22224   3.17719   -1.000
 6295.00    3.18410   3.15853   -1.000
 6296.00    3.15512   3.14167  119.335
 6297.00    3.14391   3.13134  120.079
 6298.00    3.13877   3.12727  121.432
 6299.00    3.13702   3.12560  120.840
 6300.00    3.12871   3.12524  119.019
 6301.00    3.09689   3.12859   -1.000
 6302.00    3.08109   3.14186   -1.000
 6303.00    3.09568   3.16518   -1.000
 6304.00    3.13647   3.19660   -1.000
 6305.00    3.18178   3.23049   -1.000
 6306.00    3.21238   3.26162   -1.000
 6307.00    3.27282   3.28319  116.697
 6308.00    3.30641   3.29116   -1.000
 6309.00    3.29393   3.28437  117.338
 6310.00    3.26379   3.26793  118.252
 6311.00    3.21527   3.24734  118.815
 6312.00    3.20264   3.22532  118.801
 6313.00    3.18621   3.20316  118.683
 6314.00    3.15534   3.18040  118.803
 6315.00    3.13256   3.15979  118.474
 6316.00    3.15165   3.14606  117.188
 6317.00    3.14224   3.14461  115.974
 6318.00    3.14789   3.15781  115.423
 6319.00    3.18700   3.18522  115.041
 6320.00    3.23704   3.21998  114.455
 6321.00    3.26247   3.25422  114.047
 6322.00    3.28723   3.28480  113.943
 6323.00    3.29954   3.30983  113.457
 6324.00    3.31818   3.32874  113.443
 6325.00    3.34762   3.34120  113.544
 6326.00    3.36337   3.34814  113.621
 6327.00    3.35208   3.35231  113.286
 6328.00    3.33927   3.35542  113.052
 6329.00    3.35140   3.35882  113.286
 6330.00    3.36508   3.36071  113.584
 6331.00    3.36056   3.35725  115.862
 6332.00    3.22984   3.34257   -1.000
 6333.00    3.25126   3.31419   -1.000
 6334.00    3.29825   3.28075   -1.000
 6335.00    3.26057   3.25458  113.315
 6336.00    3.23386   3.24804  112.651
 6337.00    3.28562   3.26162   -1.000
 6338.00    3.33354   3.28627   -1.000
 6339.00    3.35364   3.30881   -1.000
 6340.00    3.35653   3.31966   -1.000
 6341.00    3.35892   3.31547   -1.000
 6342.00    3.32922   3.30328   -1.000
 6343.00    3.31279   3.29528  111.697
 6344.00    3.31251   3.30018  111.213
 6345.00    3.33080   3.32093  111.177
 6346.00    3.35451   3.35007  110.981
 6347.00    3.39263   3.37969  111.025
 6348.00    3.42803   3.40286   -1.000
 6349.00    3.44591   3.41570   -1.000
 6350.00    3.44583   3.41623   -1.000
 6351.00    3.44067   3.40409   -1.000
 6352.00    3.42255   3.38160   -1.000
 6353.00    3.38862   3.35344   -1.000
 6354.00    3.34811   3.32403   -1.000
 6355.00    3.31041   3.29552  116.463
 6356.00    3.29728   3.26615   -1.000
 6357.00    3.27259   3.23430   -1.000
 6358.00    3.24110   3.20227   -1.000
 6359.00    3.21006   3.17521   -1.000
 6360.00    3.19912   3.15902   -1.000
 6361.00    3.20301   3.15725   -1.000
 6362.00    3.21037   3.17207   -1.000
 6363.00    3.24007   3.20226   -1.000
 6364.00    3.27241   3.24353   -1.000
 6365.00    3.32275   3.28890   -1.000
 6366.00    3.36433   3.33179   -1.000
 6367.00    3.40012   3.36728   -1.000
 6368.00    3.44587   3.39390   -1.000
 6369.00    3.45504   3.41286   -1.000
 6370.00    3.44054   3.42874  110.937
 6371.00    3.45374   3.44321  111.150
 6372.00    3.47566   3.45582   -1.000
 6373.00    3.47383   3.46359  112.092
 6374.00    3.45927   3.46410  112.835
 6375.00    3.45943   3.45737  113.317
 6376.00    3.47414   3.44466   -1.000
 6377.00    3.46698   3.42851   -1.000
 6378.00    3.42690   3.41364  113.639
 6379.00    3.41367   3.40482  113.367
 6380.00    3.41335   3.40332  113.777
 6381.00    3.40796   3.40786  114.090
 6382.00    3.40958   3.41533  114.037
 6383.00    3.40676   3.42402  114.318
 6384.00    3.41076   3.43325  114.691
 6385.00    3.42066   3.44295  115.564
 6386.00    3.43308   3.45168  116.488
 6387.00    3.44374   3.45577  117.765
 6388.00    3.43648   3.45112  119.515
 6389.00    3.41615   3.43462  120.651
 6390.00    3.38490   3.40662  120.456
 6391.00    3.33869   3.37382  118.823
 6392.00    3.28222   3.35022   -1.000
 6393.00    3.21192   3.34566   -1.000
 6394.00    3.19865   3.36154   -1.000
 6395.00    3.25679   3.38283   -1.000
 6396.00    3.29714   3.39220   -1.000
 6397.00    3.28799   3.38180   -1.000
 6398.00    3.24039   3.36072   -1.000
 6399.00    3.18059   3.34888   -1.000
 6400.00    3.15594   3.35988   -1.000
 6401.00    3.18550   3.39458   -1.000
 6402.00    3.23516   3.43459   -1.000
 6403.00    3.25992   3.46198   -1.000
 6404.00    3.25814   3.46769   -1.000
 6405.00    3.23194   3.45495   -1.000
 6406.00    3.17973   3.43442   -1.000
 6407.00    3.11240   3.41676   -1.000
 6408.00    3.07219   3.40643   -1.000
 6409.00    3.06723   3.40096   -1.000
 6410.00    3.05708   3.39764   -1.000
 6411.00    3.01799   3.39643   -1.000
 6412.00    3.00487   3.40053   -1.000
 6413.00    3.02189   3.41151   -1.000
 6414.00    3.00725   3.42419   -1.000
 6415.00    2.99603   3.43203   -1.000
 6416.00    3.00008   3.42855   -1.000
 6417.00    2.97088   3.41213   -1.000
 6418.00    2.93080   3.38910   -1.000
 6419.00    2.87597   3.37209   -1.000
 6420.00    2.80364   3.37221   -1.000
 6421.00    2.78819   3.39303   -1.000
 6422.00    2.82078   3.42815   -1.000
 6423.00    2.84828   3.46455   -1.000
 6424.00    2.84363   3.49316   -1.000
 6425.00    2.82358   3.50797   -1.000
 6426.00    2.79627   3.50582   -1.000
 6427.00    0.55594   3.48633   -1.000
 6428.00    0.00000   3.45394   -2.000
