###################################################################
## OUTPUT of StarlightChains_v04.for    [Cid@UFSC - 01/Apr/2007] ##
###################################################################

## Some input info
NGC6544_a_1.cxt                          [arq_obs]
Base.BC03.S                              [arq_base]
NGC6544_a_1.msk                          [arq_masks]
StCv04.C11.config                        [arq_config]
  150                                    [N_base]
    0                                    [N_YAV_components = # of components with extra extinction!]
    0                                    [i_FitPowerLaw (1/0 = Yes/No)]
-9.99                                    [alpha_PowerLaw]
CCM                                      [red_law_option]
 1.458241                                [q_norm = A(l_norm)/A(V)]

## (Re)Sampling Parameters
 3359.00                                 [l_ini (A)]
 6428.00                                 [l_fin (A)]
    1.00                                 [dl    (A)]     (OBS: dl_cushion =    50.00 A)

## Normalization info
 4020.00                                 [l_norm (A) - for base]
 4010.00                                 [llow_norm (A) - window for f_obs]
 4060.00                                 [lupp_norm (A) - window for f_obs]
2.994762E-15                             [fobs_norm (in input units)]

## S/N
 4730.00                                 [llow_SN (A) - window for S/N]
 4780.00                                 [lupp_SN (A) - window for S/N]
  55.157                                 [S/N in S/N window]
  29.824                                 [S/N in norm. window]
 209.596                                 [S/N_err in S/N window]
 113.332                                 [S/N_err in norm. window]
  1.0000                                 [fscale_chi2]

## etc...
  2147483600                             [idum_orig]
  3067                                   [NOl_eff]
  1258                                   [Nl_eff]
  1809    NSIGMA                         [Ntot_cliped & clip_method]
  2756320                                [Nglobal_steps]
   7                                     [N_chains]
  43                                     [NEX0s_base = N_base in EX0s-fits]
 0   0   1       75   2.0   2.769E+02    [Clip-Bug, RC-Crash & Burn-In warning-flags, n_censored_weights, wei_nsig_threshold & wei_limit]
   127    127.213    127.193      0.020  [idt_all, wdt_TotTime, wdt_UsrTime & wdt_SysTime (sec)]

## Synthesis Results - Best model ##

 3.14809E+00                             [chi2/Nl_eff]
     2.47693                             [adev (%)]

    97.43520                             [sum-of-x (%)]
 1.98156E-13                             [Flux_tot (units of input spectrum!)]
 7.12681E-09                             [Mini_tot (???)]
 3.51859E-09                             [Mcor_tot (???)]

 -19.86                                  [v0_min  (km/s)]
  33.86                                  [vd_min  (km/s)]
 3.1406                                  [AV_min  (mag)]
 0.0000                                  [YAV_min (mag)]

# j     x_j(%)      Mini_j(%)     Mcor_j(%)     age_j(yr)     Z_j      (L/M)_j    YAV?  Mstars   component_j        a/Fe...       SSP_chi2r SSP_adev(%)   SSP_AV   SSP_x(%)
  1      0.1307     4.5699E-04    9.2561E-04    1.000000E+06  0.00010  8.160E-03    0   1.0000   age020_m22            0.0000     2.7780E+03    40.8943   4.0000   110.0623
  2      0.3389     2.0320E-04    4.1157E-04    3.160000E+06  0.00010  4.759E-02    0   1.0000   age045_m22            0.0000     8.4961E+01     7.0816   4.0000   102.0620
  3      5.6911     8.4058E-03    1.6314E-02    5.010000E+06  0.00010  1.932E-02    0   0.9582   age055_m22            0.0000     1.1078E+02     8.8804   4.0000    97.2870
  4      3.0175     8.6341E-03    1.6259E-02    6.610000E+06  0.00010  9.973E-03    0   0.9297   age061_m22            0.0000     2.7903E+03    40.4002   4.0000   112.9606
  5      4.1648     1.5455E-02    2.8267E-02    8.710000E+06  0.00010  7.690E-03    0   0.9030   age067_m22            0.0000     2.7458E+03    40.1520   4.0000   113.4017
  6      3.1127     1.3933E-02    2.5122E-02    1.000000E+07  0.00010  6.375E-03    0   0.8902   age070_m22            0.0000     2.7509E+03    40.1958   4.0000   113.5834
  7      1.5339     8.9809E-03    1.5624E-02    1.445000E+07  0.00010  4.874E-03    0   0.8589   age078_m22            0.0000     2.2422E+03    36.9423   4.0000   115.9570
  8      0.4964     3.4524E-03    5.7158E-03    2.512000E+07  0.00010  4.103E-03    0   0.8174   age090_m22            0.0000     1.3708E+03    29.3936   4.0000   119.2423
  9      1.3755     1.0742E-02    1.7037E-02    4.000000E+07  0.00010  3.654E-03    0   0.7830   age104_m22            0.0000     9.6561E+02    23.5415   4.0000   120.0223
 10      0.9538     8.7999E-03    1.3541E-02    5.500000E+07  0.00010  3.093E-03    0   0.7597   age110_m22            0.0000     8.5608E+02    21.6100   4.0000   119.7892
 11      0.0000     0.0000E+00    0.0000E+00    1.015200E+08  0.00010  2.431E-03    0   0.7138   age116_m22            0.0000     5.6092E+02    18.1587   4.0000   116.5834
 12      0.0000     0.0000E+00    0.0000E+00    1.609000E+08  0.00010  1.319E-03    0   0.6775   age120_m22            0.0000     2.8283E+02    13.2873   4.0000   108.9305
 13      0.0000     0.0000E+00    0.0000E+00    2.861200E+08  0.00010  1.075E-03    0   0.6412   age125_m22            0.0000     5.3349E+02    18.0510   4.0000   112.5257
 14      0.0000     0.0000E+00    0.0000E+00    5.088000E+08  0.00010  7.183E-04    0   0.6083   age130_m22            0.0000     5.4306E+02    17.0439   4.0000   108.5340
 15      0.0000     0.0000E+00    0.0000E+00    9.047900E+08  0.00010  4.524E-04    0   0.5785   age135_m22            0.0000     5.3837E+02    15.7960   3.9667   105.7105
 16      0.0000     0.0000E+00    0.0000E+00    1.278050E+09  0.00010  3.018E-04    0   0.5588   age138_m22            0.0000     3.5276E+02    13.3315   3.4176   105.2029
 17      0.0000     0.0000E+00    0.0000E+00    1.434000E+09  0.00010  2.691E-04    0   0.5532   age139_m22            0.0000     3.1866E+02    12.8613   3.2536   104.9743
 18      0.0000     0.0000E+00    0.0000E+00    2.500000E+09  0.00010  1.582E-04    0   0.5296   age150_m22            0.0000     2.8777E+02    12.1505   3.1420   106.0527
 19      0.0026     7.4121E-04    7.6717E-04    4.250000E+09  0.00010  1.007E-04    0   0.5110   age158_m22            0.0000     2.1212E+02    10.8957   2.9622   105.4191
 20      0.0000     0.0000E+00    0.0000E+00    6.250000E+09  0.00010  6.869E-05    0   0.4985   age166_m22            0.0000     1.4655E+02     9.6029   2.8713   103.8017
 21      0.0642     3.1183E-02    3.1144E-02    7.500000E+09  0.00010  5.873E-05    0   0.4931   age171_m22            0.0000     1.3390E+02     9.2079   2.8566   103.4837
 22      0.0000     0.0000E+00    0.0000E+00    1.000000E+10  0.00010  4.481E-05    0   0.4854   age181_m22            0.0000     1.3303E+02     9.2291   2.8174   103.0957
 23      0.0003     2.8349E-04    2.7510E-04    1.300000E+10  0.00010  3.489E-05    0   0.4791   age193_m22            0.0000     1.2954E+02     9.2123   2.7575   102.5786
 24      4.0776     3.8339E+00    3.7011E+00    1.500000E+10  0.00010  3.035E-05    0   0.4766   age201_m22            0.0000     1.2612E+02     9.1422   2.7169   102.4510
 25     11.2034     1.2737E+01    1.2216E+01    1.800000E+10  0.00010  2.510E-05    0   0.4735   age213_m22            0.0000     1.1701E+02     8.9408   2.6438   102.0036
 26      0.6869     2.3175E-03    4.6941E-03    1.000000E+06  0.00040  8.458E-03    0   1.0000   age020_m32            0.0000     2.8335E+03    41.0744   4.0000   110.7852
 27      0.4409     3.1670E-04    6.4148E-04    3.160000E+06  0.00040  3.973E-02    0   1.0000   age045_m32            0.0000     1.1892E+03    27.5547   4.0000   118.3028
 28      2.5934     3.8246E-03    7.3842E-03    5.010000E+06  0.00040  1.935E-02    0   0.9532   age055_m32            0.0000     1.7162E+03    32.6196   4.0000   114.5005
 29      4.1226     9.7710E-03    1.8293E-02    6.610000E+06  0.00040  1.204E-02    0   0.9243   age061_m32            0.0000     2.3981E+03    37.9530   4.0000   114.6154
 30      2.0218     6.1163E-03    1.1151E-02    8.710000E+06  0.00040  9.433E-03    0   0.9001   age067_m32            0.0000     2.3012E+03    37.3255   4.0000   115.4492
 31      2.5621     9.0788E-03    1.6324E-02    1.000000E+07  0.00040  8.053E-03    0   0.8877   age070_m32            0.0000     2.2094E+03    36.6844   4.0000   115.7438
 32      0.4470     1.8154E-03    3.1542E-03    1.445000E+07  0.00040  7.027E-03    0   0.8578   age078_m32            0.0000     1.1605E+03    27.2400   4.0000   116.4914
 33      0.0000     0.0000E+00    0.0000E+00    2.512000E+07  0.00040  4.707E-03    0   0.8166   age090_m32            0.0000     7.3432E+02    21.4923   4.0000   116.2469
 34      0.6354     4.8817E-03    7.7392E-03    4.000000E+07  0.00040  3.714E-03    0   0.7827   age104_m32            0.0000     5.4908E+02    17.5635   4.0000   115.9210
 35      0.0000     0.0000E+00    0.0000E+00    5.500000E+07  0.00040  2.982E-03    0   0.7593   age110_m32            0.0000     5.1961E+02    17.0669   4.0000   115.7701
 36      0.0000     0.0000E+00    0.0000E+00    1.015200E+08  0.00040  2.188E-03    0   0.7143   age116_m32            0.0000     4.6169E+02    17.0919   4.0000   114.0059
 37      0.0000     0.0000E+00    0.0000E+00    1.609000E+08  0.00040  1.690E-03    0   0.6856   age120_m32            0.0000     4.6005E+02    16.5826   4.0000   111.8265
 38      0.0000     0.0000E+00    0.0000E+00    2.861200E+08  0.00040  1.152E-03    0   0.6509   age125_m32            0.0000     4.8484E+02    16.0031   4.0000   107.8504
 39      0.0000     0.0000E+00    0.0000E+00    5.088000E+08  0.00040  7.331E-04    0   0.6182   age130_m32            0.0000     5.1048E+02    15.3970   3.9799   104.9283
 40      0.0000     0.0000E+00    0.0000E+00    9.047900E+08  0.00040  3.960E-04    0   0.5890   age135_m32            0.0000     3.6587E+02    13.9496   3.4870   104.6855
 41      0.0000     0.0000E+00    0.0000E+00    1.278050E+09  0.00040  2.854E-04    0   0.5687   age138_m32            0.0000     3.1539E+02    12.7578   3.2089   106.7941
 42      0.0000     0.0000E+00    0.0000E+00    1.434000E+09  0.00040  2.531E-04    0   0.5632   age139_m32            0.0000     3.1000E+02    12.6136   3.1504   106.7342
 43      0.1925     3.6909E-02    4.0265E-02    2.500000E+09  0.00040  1.488E-04    0   0.5386   age150_m32            0.0000     2.5887E+02    11.9348   2.8699   105.5984
 44      0.0000     0.0000E+00    0.0000E+00    4.250000E+09  0.00040  9.082E-05    0   0.5199   age158_m32            0.0000     1.5661E+02    10.0518   2.7302   103.8454
 45     11.4202     5.1224E+00    5.2665E+00    6.250000E+09  0.00040  6.362E-05    0   0.5076   age166_m32            0.0000     8.9243E+01     8.2659   2.6548   101.8646
 46      8.1282     4.3855E+00    4.4653E+00    7.500000E+09  0.00040  5.289E-05    0   0.5027   age171_m32            0.0000     8.2161E+01     8.1510   2.6077   100.8195
 47      2.4039     1.7270E+00    1.7308E+00    1.000000E+10  0.00040  3.972E-05    0   0.4948   age181_m32            0.0000     8.2429E+01     8.2970   2.5374    99.5206
 48      0.4410     3.8330E-01    3.7809E-01    1.300000E+10  0.00040  3.283E-05    0   0.4870   age193_m32            0.0000     1.1104E+02     9.1201   2.5173   101.4773
 49      1.9747     1.9266E+00    1.8941E+00    1.500000E+10  0.00040  2.925E-05    0   0.4854   age201_m32            0.0000     1.3121E+02     9.6048   2.5136   102.5967
 50      4.1963     4.8500E+00    4.7340E+00    1.800000E+10  0.00040  2.469E-05    0   0.4819   age213_m32            0.0000     1.4084E+02     9.8366   2.4789   102.9128
 51      0.0000     0.0000E+00    0.0000E+00    1.000000E+06  0.00400  1.114E-02    0   1.0000   age020_m42            0.0000     2.6394E+03    39.9126   4.0000   111.0634
 52      0.1815     1.2718E-04    2.5757E-04    3.160000E+06  0.00400  4.073E-02    0   0.9999   age045_m42            0.0000     7.2190E+02    21.4494   4.0000   116.6340
 53      0.0001     7.5515E-08    1.4512E-07    5.010000E+06  0.00400  2.534E-02    0   0.9488   age055_m42            0.0000     1.3715E+03    29.7905   4.0000   115.7331
 54      0.0000     0.0000E+00    0.0000E+00    6.610000E+06  0.00400  2.583E-02    0   0.9220   age061_m42            0.0000     5.4167E+02    18.1797   4.0000   114.4790
 55      0.0000     0.0000E+00    0.0000E+00    8.710000E+06  0.00400  1.706E-02    0   0.8983   age067_m42            0.0000     3.5465E+02    15.2396   4.0000   110.3301
 56      0.0000     0.0000E+00    0.0000E+00    1.000000E+07  0.00400  1.271E-02    0   0.8862   age070_m42            0.0000     3.4912E+02    15.2291   4.0000   109.1421
 57      0.0000     0.0000E+00    0.0000E+00    1.445000E+07  0.00400  7.666E-03    0   0.8571   age078_m42            0.0000     8.0514E+02    23.1618   4.0000   112.0659
 58      0.0000     0.0000E+00    0.0000E+00    2.512000E+07  0.00400  5.070E-03    0   0.8174   age090_m42            0.0000     2.3419E+02    12.5504   4.0000   108.3743
 59      0.0000     0.0000E+00    0.0000E+00    4.000000E+07  0.00400  3.505E-03    0   0.7851   age104_m42            0.0000     8.0205E+01     7.5329   4.0000   104.4478
 60      0.0003     3.0259E-06    4.6758E-06    5.500000E+07  0.00400  3.059E-03    0   0.7629   age110_m42            0.0000     2.1083E+02    11.8362   4.0000   108.8024
 61      0.0000     0.0000E+00    0.0000E+00    1.015200E+08  0.00400  2.268E-03    0   0.7207   age116_m42            0.0000     3.9552E+02    15.4472   4.0000   110.6492
 62      0.0000     0.0000E+00    0.0000E+00    1.609000E+08  0.00400  1.720E-03    0   0.6930   age120_m42            0.0000     3.9665E+02    14.6973   4.0000   108.6356
 63      0.0000     0.0000E+00    0.0000E+00    2.861200E+08  0.00400  1.079E-03    0   0.6613   age125_m42            0.0000     3.9646E+02    13.9330   3.7789   105.7008
 64      0.0000     0.0000E+00    0.0000E+00    5.088000E+08  0.00400  6.261E-04    0   0.6313   age130_m42            0.0000     4.3667E+02    14.4179   3.5994   108.1871
 65      0.0000     0.0000E+00    0.0000E+00    9.047900E+08  0.00400  3.535E-04    0   0.6024   age135_m42            0.0000     3.2896E+02    13.2169   3.1763   109.3375
 66      0.0050     5.3829E-04    6.3640E-04    1.278050E+09  0.00400  2.677E-04    0   0.5837   age138_m42            0.0000     2.5501E+02    13.0690   2.4332   107.7717
 67      0.0000     0.0000E+00    0.0000E+00    1.434000E+09  0.00400  1.910E-04    0   0.5716   age139_m42            0.0000     2.6344E+02    12.9739   2.6119   108.4937
 68      0.0000     0.0000E+00    0.0000E+00    2.500000E+09  0.00400  9.818E-05    0   0.5463   age150_m42            0.0000     1.9676E+02    12.3229   2.2793   105.2310
 69      0.0000     0.0000E+00    0.0000E+00    4.250000E+09  0.00400  5.491E-05    0   0.5269   age158_m42            0.0000     1.7776E+02    11.8182   2.1322   103.0553
 70      0.0000     0.0000E+00    0.0000E+00    6.250000E+09  0.00400  3.857E-05    0   0.5151   age166_m42            0.0000     1.9792E+02    12.2539   1.9911   101.8540
 71      0.0000     0.0000E+00    0.0000E+00    7.500000E+09  0.00400  3.243E-05    0   0.5110   age171_m42            0.0000     2.1709E+02    12.6321   1.9070   101.2633
 72      0.0000     0.0000E+00    0.0000E+00    1.000000E+10  0.00400  2.424E-05    0   0.5028   age181_m42            0.0000     2.4368E+02    13.1125   1.8197   100.6071
 73      0.0000     0.0000E+00    0.0000E+00    1.300000E+10  0.00400  1.883E-05    0   0.4927   age193_m42            0.0000     2.6341E+02    13.3737   1.7773   100.2562
 74      0.0000     0.0000E+00    0.0000E+00    1.500000E+10  0.00400  1.685E-05    0   0.4919   age201_m42            0.0000     2.5643E+02    13.2252   1.7827   100.2953
 75      0.0000     0.0000E+00    0.0000E+00    1.800000E+10  0.00400  1.452E-05    0   0.4874   age213_m42            0.0000     2.4437E+02    12.9526   1.8005   100.5919
 76      0.0000     0.0000E+00    0.0000E+00    1.000000E+06  0.00800  1.286E-02    0   1.0000   age020_m52            0.0000     2.5526E+03    39.3139   4.0000   112.8745
 77      0.0000     0.0000E+00    0.0000E+00    3.160000E+06  0.00800  3.147E-02    0   0.9966   age045_m52            0.0000     2.3847E+03    38.0787   4.0000   114.3077
 78      0.0000     0.0000E+00    0.0000E+00    5.010000E+06  0.00800  2.664E-02    0   0.9443   age055_m52            0.0000     1.6151E+03    32.1809   4.0000   115.9048
 79      0.0000     0.0000E+00    0.0000E+00    6.610000E+06  0.00800  2.151E-02    0   0.9177   age061_m52            0.0000     5.8829E+01     7.1045   4.0000   102.8744
 80      0.0000     0.0000E+00    0.0000E+00    8.710000E+06  0.00800  1.628E-02    0   0.8948   age067_m52            0.0000     3.1522E+02    14.6043   4.0000   110.3057
 81      0.0000     0.0000E+00    0.0000E+00    1.000000E+07  0.00800  1.215E-02    0   0.8827   age070_m52            0.0000     6.9663E+02    21.4117   4.0000   114.0114
 82      0.0000     0.0000E+00    0.0000E+00    1.445000E+07  0.00800  8.739E-03    0   0.8552   age078_m52            0.0000     7.5768E+02    22.0352   4.0000   115.7920
 83      0.0000     0.0000E+00    0.0000E+00    2.512000E+07  0.00800  5.676E-03    0   0.8162   age090_m52            0.0000     3.8786E+02    14.6666   4.0000   113.6385
 84      0.0000     0.0000E+00    0.0000E+00    4.000000E+07  0.00800  3.939E-03    0   0.7841   age104_m52            0.0000     3.0875E+02    13.4956   4.0000   112.3298
 85      0.0000     0.0000E+00    0.0000E+00    5.500000E+07  0.00800  3.155E-03    0   0.7627   age110_m52            0.0000     3.3752E+02    14.3982   4.0000   113.0271
 86      0.0001     1.1858E-06    1.7355E-06    1.015200E+08  0.00800  2.206E-03    0   0.7226   age116_m52            0.0000     3.5383E+02    14.8680   4.0000   112.3421
 87      0.0000     0.0000E+00    0.0000E+00    1.609000E+08  0.00800  1.596E-03    0   0.6963   age120_m52            0.0000     3.4602E+02    13.7733   4.0000   108.6916
 88      0.0000     0.0000E+00    0.0000E+00    2.861200E+08  0.00800  1.002E-03    0   0.6665   age125_m52            0.0000     4.6018E+02    14.9319   3.8397   107.3795
 89      0.0000     0.0000E+00    0.0000E+00    5.088000E+08  0.00800  5.759E-04    0   0.6377   age130_m52            0.0000     5.0319E+02    15.8327   3.4952   110.9011
 90      0.0000     0.0000E+00    0.0000E+00    9.047900E+08  0.00800  2.972E-04    0   0.6086   age135_m52            0.0000     3.9975E+02    15.3616   2.9092   110.6538
 91      0.0000     0.0000E+00    0.0000E+00    1.278050E+09  0.00800  2.242E-04    0   0.5907   age138_m52            0.0000     2.9599E+02    14.1125   2.2505   110.6444
 92      0.0000     0.0000E+00    0.0000E+00    1.434000E+09  0.00800  1.645E-04    0   0.5787   age139_m52            0.0000     2.6243E+02    13.4803   2.3917   110.4207
 93      0.0000     0.0000E+00    0.0000E+00    2.500000E+09  0.00800  7.723E-05    0   0.5519   age150_m52            0.0000     2.4101E+02    13.3233   2.0038   107.7691
 94      0.0000     0.0000E+00    0.0000E+00    4.250000E+09  0.00800  4.151E-05    0   0.5320   age158_m52            0.0000     2.3543E+02    13.2210   1.9194   105.5325
 95      0.0000     0.0000E+00    0.0000E+00    6.250000E+09  0.00800  3.010E-05    0   0.5197   age166_m52            0.0000     2.7664E+02    13.9374   1.7088   104.2036
 96      0.0000     0.0000E+00    0.0000E+00    7.500000E+09  0.00800  2.467E-05    0   0.5139   age171_m52            0.0000     2.9111E+02    14.1814   1.6653   103.7556
 97      0.0000     0.0000E+00    0.0000E+00    1.000000E+10  0.00800  1.862E-05    0   0.5054   age181_m52            0.0000     3.4051E+02    14.9802   1.5284   103.2587
 98      0.0000     0.0000E+00    0.0000E+00    1.300000E+10  0.00800  1.433E-05    0   0.4988   age193_m52            0.0000     3.9316E+02    15.6417   1.4279   103.8284
 99      0.0000     0.0000E+00    0.0000E+00    1.500000E+10  0.00800  1.244E-05    0   0.4936   age201_m52            0.0000     4.1555E+02    15.8781   1.3982   104.2512
100      0.0000     0.0000E+00    0.0000E+00    1.800000E+10  0.00800  1.070E-05    0   0.4888   age213_m52            0.0000     4.3340E+02    16.1054   1.3629   104.0471
101      0.0000     0.0000E+00    0.0000E+00    1.000000E+06  0.02000  1.989E-02    0   1.0000   age020_m62            0.0000     2.5740E+03    39.3018   4.0000   111.8469
102      0.0000     0.0000E+00    0.0000E+00    3.160000E+06  0.02000  3.772E-02    0   0.9858   age045_m62            0.0000     2.2540E+03    37.1734   4.0000   113.8492
103      0.0000     0.0000E+00    0.0000E+00    5.010000E+06  0.02000  3.227E-02    0   0.9342   age055_m62            0.0000     1.1241E+03    27.0329   4.0000   117.2238
104      0.0013     1.5337E-06    2.8238E-06    6.610000E+06  0.02000  2.387E-02    0   0.9090   age061_m62            0.0000     8.0550E+02    22.9545   4.0000   113.9355
105      7.1525     1.8521E-02    3.3242E-02    8.710000E+06  0.02000  1.102E-02    0   0.8861   age067_m62            0.0000     4.9773E+02    16.4507   4.0000   105.4243
106      1.3094     3.6957E-03    6.5507E-03    1.000000E+07  0.02000  1.011E-02    0   0.8751   age070_m62            0.0000     4.3250E+02    16.2886   4.0000   107.4293
107      0.0020     7.7917E-06    1.3370E-05    1.445000E+07  0.02000  7.331E-03    0   0.8472   age078_m62            0.0000     3.8999E+02    16.2686   4.0000   108.4275
108      0.0000     0.0000E+00    0.0000E+00    2.512000E+07  0.02000  4.206E-03    0   0.8099   age090_m62            0.0000     3.0722E+02    14.6403   4.0000   106.4215
109      0.0000     0.0000E+00    0.0000E+00    4.000000E+07  0.02000  3.373E-03    0   0.7799   age104_m62            0.0000     2.1406E+02    11.2971   4.0000   110.1457
110      0.0000     0.0000E+00    0.0000E+00    5.500000E+07  0.02000  2.747E-03    0   0.7595   age110_m62            0.0000     2.6086E+02    12.5727   4.0000   111.5627
111      0.0000     0.0000E+00    0.0000E+00    1.015200E+08  0.02000  1.878E-03    0   0.7221   age116_m62            0.0000     3.6460E+02    14.8081   4.0000   112.4581
112      0.0000     0.0000E+00    0.0000E+00    1.609000E+08  0.02000  1.378E-03    0   0.6978   age120_m62            0.0000     4.2441E+02    15.1168   4.0000   110.8815
113      0.0000     0.0000E+00    0.0000E+00    2.861200E+08  0.02000  8.869E-04    0   0.6700   age125_m62            0.0000     5.5536E+02    15.5593   3.8292   109.6307
114      0.0000     0.0000E+00    0.0000E+00    5.088000E+08  0.02000  4.834E-04    0   0.6430   age130_m62            0.0000     5.3842E+02    16.3049   3.3673   112.0757
115      0.0000     0.0000E+00    0.0000E+00    9.047900E+08  0.02000  2.312E-04    0   0.6152   age135_m62            0.0000     3.7062E+02    14.8427   2.7146   112.8589
116      0.0000     0.0000E+00    0.0000E+00    1.278050E+09  0.02000  1.387E-04    0   0.5927   age138_m62            0.0000     2.6443E+02    13.5925   2.2674   110.1272
117      0.0000     0.0000E+00    0.0000E+00    1.434000E+09  0.02000  1.168E-04    0   0.5865   age139_m62            0.0000     2.4967E+02    13.4330   2.2263   108.8711
118      0.0000     0.0000E+00    0.0000E+00    2.500000E+09  0.02000  5.505E-05    0   0.5610   age150_m62            0.0000     2.7332E+02    14.0458   1.8124   106.6223
119      0.0000     0.0000E+00    0.0000E+00    4.250000E+09  0.02000  3.070E-05    0   0.5407   age158_m62            0.0000     3.7965E+02    15.7521   1.5013   106.3352
120      0.0000     0.0000E+00    0.0000E+00    6.250000E+09  0.02000  2.104E-05    0   0.5277   age166_m62            0.0000     4.4530E+02    16.5626   1.3621   106.6604
121      0.0000     0.0000E+00    0.0000E+00    7.500000E+09  0.02000  1.770E-05    0   0.5223   age171_m62            0.0000     4.8145E+02    17.0519   1.2706   106.9452
122      0.0000     0.0000E+00    0.0000E+00    1.000000E+10  0.02000  1.297E-05    0   0.5121   age181_m62            0.0000     5.6048E+02    18.0128   1.1080   107.1849
123      0.0000     0.0000E+00    0.0000E+00    1.300000E+10  0.02000  9.691E-06    0   0.5047   age193_m62            0.0000     6.1647E+02    18.6221   1.0245   107.2987
124      0.0000     0.0000E+00    0.0000E+00    1.500000E+10  0.02000  8.360E-06    0   0.4999   age201_m62            0.0000     6.6464E+02    19.1897   0.9519   107.3700
125      0.0000     0.0000E+00    0.0000E+00    1.800000E+10  0.02000  6.911E-06    0   0.4946   age213_m62            0.0000     7.2541E+02    19.9077   0.8765   107.3978
126      0.0000     0.0000E+00    0.0000E+00    1.000000E+06  0.05000  2.651E-02    0   0.9998   age020_m72            0.0000     2.5453E+03    39.2337   4.0000   113.0324
127      0.0000     0.0000E+00    0.0000E+00    3.160000E+06  0.05000  4.817E-02    0   0.9577   age045_m72            0.0000     1.8465E+03    34.2753   4.0000   116.6955
128      0.0000     0.0000E+00    0.0000E+00    5.010000E+06  0.05000  3.101E-02    0   0.9147   age055_m72            0.0000     1.1684E+03    27.7570   4.0000   116.1478
129      0.0467     9.0615E-05    1.6293E-04    6.610000E+06  0.05000  1.472E-02    0   0.8877   age061_m72            0.0000     6.2329E+02    19.8871   4.0000   108.9529
130      0.0000     0.0000E+00    0.0000E+00    8.710000E+06  0.05000  1.050E-02    0   0.8638   age067_m72            0.0000     1.1475E+03    27.2246   4.0000   114.2347
131      0.0000     0.0000E+00    0.0000E+00    1.000000E+07  0.05000  8.954E-03    0   0.8524   age070_m72            0.0000     1.5730E+03    31.8308   4.0000   117.0249
132      0.0000     0.0000E+00    0.0000E+00    1.445000E+07  0.05000  6.392E-03    0   0.8262   age078_m72            0.0000     1.4459E+03    30.6602   4.0000   117.5976
133      0.0000     0.0000E+00    0.0000E+00    2.512000E+07  0.05000  4.207E-03    0   0.7902   age090_m72            0.0000     8.1254E+02    23.2232   4.0000   117.4367
134      0.0000     0.0000E+00    0.0000E+00    4.000000E+07  0.05000  3.198E-03    0   0.7618   age104_m72            0.0000     4.4108E+02    16.4373   4.0000   116.1168
135      0.0000     0.0000E+00    0.0000E+00    5.500000E+07  0.05000  2.593E-03    0   0.7432   age110_m72            0.0000     4.4685E+02    16.6576   4.0000   116.1186
136      0.0000     0.0000E+00    0.0000E+00    1.015200E+08  0.05000  1.716E-03    0   0.7092   age116_m72            0.0000     4.3896E+02    16.3439   4.0000   114.1316
137      0.0000     0.0000E+00    0.0000E+00    1.609000E+08  0.05000  1.218E-03    0   0.6876   age120_m72            0.0000     4.6647E+02    15.5261   4.0000   110.2751
138      0.0000     0.0000E+00    0.0000E+00    2.861200E+08  0.05000  7.047E-04    0   0.6618   age125_m72            0.0000     5.5221E+02    15.8749   3.6113   109.9077
139      0.0000     0.0000E+00    0.0000E+00    5.088000E+08  0.05000  3.590E-04    0   0.6356   age130_m72            0.0000     5.0299E+02    16.1493   3.0088   112.8175
140      0.0000     0.0000E+00    0.0000E+00    9.047900E+08  0.05000  1.484E-04    0   0.6088   age135_m72            0.0000     3.3043E+02    15.1450   2.1701   108.7946
141      0.0000     0.0000E+00    0.0000E+00    1.278050E+09  0.05000  9.435E-05    0   0.5924   age138_m72            0.0000     3.5829E+02    15.9126   1.7138   106.7017
142      0.0000     0.0000E+00    0.0000E+00    1.434000E+09  0.05000  7.827E-05    0   0.5847   age139_m72            0.0000     3.4445E+02    15.6498   1.7142   106.4459
143      0.0000     0.0000E+00    0.0000E+00    2.500000E+09  0.05000  3.759E-05    0   0.5583   age150_m72            0.0000     4.2511E+02    16.4946   1.3615   106.1016
144      0.0000     0.0000E+00    0.0000E+00    4.250000E+09  0.05000  1.842E-05    0   0.5374   age158_m72            0.0000     5.3287E+02    17.5909   1.0245   105.4569
145      0.0000     0.0000E+00    0.0000E+00    6.250000E+09  0.05000  1.207E-05    0   0.5242   age166_m72            0.0000     6.5182E+02    19.0346   0.7746   104.8416
146      0.0000     0.0000E+00    0.0000E+00    7.500000E+09  0.05000  9.993E-06    0   0.5183   age171_m72            0.0000     6.6908E+02    19.2361   0.7294   104.7156
147      0.0000     0.0000E+00    0.0000E+00    1.000000E+10  0.05000  7.291E-06    0   0.5081   age181_m72            0.0000     7.5850E+02    20.3326   0.6066   104.2044
148      3.6625     1.9660E+01    1.9982E+01    1.300000E+10  0.05000  5.316E-06    0   0.5018   age193_m72            0.0000     8.9319E+02    21.9095   0.4169   103.6291
149      4.3041     2.7312E+01    2.7505E+01    1.500000E+10  0.05000  4.497E-06    0   0.4972   age201_m72            0.0000     9.6165E+02    22.6770   0.3452   103.5759
150      2.3391     1.7852E+01    1.7805E+01    1.800000E+10  0.05000  3.739E-06    0   0.4924   age213_m72            0.0000     1.0474E+03    23.6684   0.2365   103.4735


## Synthesis Results - Average & Chains ##

# j      x_j: min, <> & last-chain-values for 1 ...  7 chains
  1      0.1307      0.7189      0.8007      0.6306      0.7929      0.7073      0.5687      0.7595      0.7403
  2      0.3389      0.1620      0.3356      0.3768      0.0616      0.0000      0.0914      0.3796      0.1548
  3      5.6911      5.9280      5.6991      5.9814      5.8691      5.8215      6.0176      5.8365      6.3984
  4      3.0175      3.0310      3.0937      3.0704      3.0148      2.9798      2.9285      3.0936      3.1652
  5      4.1648      3.7865      3.7741      3.8937      3.6411      3.8828      4.0112      3.8740      3.7513
  6      3.1127      2.5771      2.6755      2.5405      2.6487      2.3599      2.7634      2.7953      2.6596
  7      1.5339      1.5766      1.5550      1.5515      1.5769      1.6230      1.6040      1.5835      1.4622
  8      0.4964      0.2419      0.3341      0.3058      0.3250      0.1681      0.0310      0.0943      0.2854
  9      1.3755      0.3454      0.5738      0.2394      0.6174      0.2659      0.4275      0.5418      0.5000
 10      0.9538      0.1397      0.4473      0.2376      0.3928      0.2817      0.1912      0.0000      0.2530
 11      0.0000      0.1152      0.1797      0.1205      0.2945      0.0000      0.0407      0.0116      0.1270
 12      0.0000      0.0316      0.0000      0.0792      0.0188      0.0094      0.0000      0.0000      0.0417
 13      0.0000      0.0169      0.0157      0.0000      0.0000      0.0000      0.0000      0.0000      0.0000
 14      0.0000      0.0137      0.0000      0.0000      0.0000      0.0000      0.0000      0.0981      0.0000
 15      0.0000      0.0091      0.0000      0.0000      0.0000      0.0000      0.0223      0.0000      0.0393
 16      0.0000      0.0187      0.0000      0.0000      0.0387      0.0009      0.0000      0.0000      0.0000
 17      0.0000      0.0222      0.0000      0.0000      0.0000      0.0694      0.0000      0.0096      0.0000
 18      0.0000      0.0498      0.0000      0.0000      0.0000      0.0000      0.0000      0.1990      0.0960
 19      0.0026      0.1067      0.0000      0.0174      0.0000      0.1069      0.3138      0.1384      0.1489
 20      0.0000      0.1255      0.0579      0.0737      0.4326      0.1820      0.0000      0.3469      0.0000
 21      0.0642      1.5996      1.6184      1.4825      1.1592      1.5407      1.3486      1.9563      1.6784
 22      0.0000      0.6469      0.3554      0.4655      0.3664      1.3568      0.8774      0.5480      0.1184
 23      0.0003      0.6898      0.2703      0.8071      0.2876      0.7858      0.6438      0.4028      0.9749
 24      4.0776      5.0862      5.1021      5.1478      5.3367      5.2136      5.2826      4.8570      5.1698
 25     11.2034     11.3839     11.1606     11.2366     11.5344     11.4827     11.3325     11.9025     11.4080
 26      0.6869      1.0282      1.0492      0.9486      1.0473      1.0373      0.9326      0.9692      1.0681
 27      0.4409      0.4684      0.4817      0.4910      0.5290      0.5514      0.6011      0.6336      0.7396
 28      2.5934      2.1651      2.1311      2.2583      2.1998      2.2285      2.1645      2.1861      2.2662
 29      4.1226      3.9791      4.0077      3.8314      3.9476      4.0200      3.9682      4.1067      3.9672
 30      2.0218      2.1569      2.1243      2.0631      2.1343      2.1072      2.1001      2.1280      2.2916
 31      2.5621      2.3984      2.4172      2.2897      2.3831      2.3596      2.4352      2.3712      2.2511
 32      0.4470      0.4581      0.4339      0.2446      0.5787      0.5293      0.4576      0.4670      0.3594
 33      0.0000      0.0997      0.0313      0.0222      0.1962      0.1786      0.3093      0.1364      0.0000
 34      0.6354      0.1738      0.3044      0.0000      0.0000      0.0482      0.2009      0.0129      0.2128
 35      0.0000      0.0959      0.0000      0.1339      0.1066      0.0581      0.0000      0.1832      0.1366
 36      0.0000      0.0491      0.0000      0.0000      0.0000      0.2401      0.0000      0.1787      0.0000
 37      0.0000      0.0446      0.0201      0.0062      0.0000      0.0905      0.0719      0.0162      0.0000
 38      0.0000      0.0195      0.0000      0.2007      0.0000      0.0000      0.0000      0.0436      0.0000
 39      0.0000      0.0099      0.0000      0.0000      0.0000      0.0000      0.0000      0.0000      0.0000
 40      0.0000      0.0110      0.0000      0.0000      0.0000      0.0000      0.0000      0.0000      0.0000
 41      0.0000      0.0433      0.0295      0.0000      0.0428      0.0000      0.0000      0.0532      0.0000
 42      0.0000      0.0542      0.0348      0.0000      0.0133      0.0572      0.0000      0.0418      0.0000
 43      0.1925      0.1302      0.0000      0.0066      0.4609      0.0137      0.0549      0.0660      0.2020
 44      0.0000      0.2427      0.0482      0.9803      0.1650      0.5402      0.0000      0.0000      0.0000
 45     11.4202      9.5617      9.2637     10.7065     10.1301      9.8737      9.4336      9.4160      9.3813
 46      8.1282      7.5707      8.3214      7.4379      6.5203      7.2932      8.3598      7.6640      7.7058
 47      2.4039      3.6973      4.3348      3.5383      3.6112      3.7191      3.6991      3.6682      3.1519
 48      0.4410      0.5609      0.4306      0.7172      0.8498      0.2050      0.4436      0.5890      0.6172
 49      1.9747      0.6245      0.7640      0.6829      1.0167      0.8470      0.6117      0.7977      0.7855
 50      4.1963      1.9883      2.1395      1.3108      2.4403      1.5496      1.8383      1.9453      1.9273
 51      0.0000      0.0358      0.0000      0.0000      0.0000      0.0468      0.0000      0.2456      0.0000
 52      0.1815      0.0857      0.0083      0.0000      0.1010      0.0000      0.1879      0.0636      0.1626
 53      0.0001      0.0481      0.0000      0.0087      0.0000      0.0000      0.0000      0.0000      0.1500
 54      0.0000      0.0819      0.3579      0.0000      0.1839      0.1942      0.2412      0.0807      0.1273
 55      0.0000      0.1946      0.1533      0.0211      0.2394      0.2427      0.3664      0.1209      0.0000
 56      0.0000      0.1861      0.2870      0.1616      0.0000      0.1146      0.4833      0.1576      0.1083
 57      0.0000      0.0381      0.0000      0.0610      0.0000      0.0190      0.0000      0.0311      0.0000
 58      0.0000      0.0650      0.0693      0.0000      0.1815      0.1295      0.0269      0.0254      0.0000
 59      0.0000      0.0296      0.0218      0.0921      0.0000      0.0000      0.0000      0.0031      0.0647
 60      0.0003      0.0290      0.2112      0.0000      0.0000      0.0000      0.1477      0.2257      0.1468
 61      0.0000      0.0243      0.0922      0.0000      0.0000      0.0770      0.0000      0.0000      0.0927
 62      0.0000      0.0202      0.0712      0.0000      0.0016      0.0000      0.1346      0.0000      0.1009
 63      0.0000      0.0115      0.0000      0.0000      0.0000      0.0000      0.0000      0.0000      0.0000
 64      0.0000      0.0182      0.1384      0.0000      0.0000      0.0000      0.0288      0.0020      0.0761
 65      0.0000      0.0428      0.1123      0.0000      0.0179      0.0583      0.0818      0.0000      0.0000
 66      0.0050      0.0308      0.0428      0.0000      0.0501      0.0000      0.0000      0.0222      0.4640
 67      0.0000      0.0182      0.0000      0.0168      0.0000      0.0000      0.0000      0.0000      0.0067
 68      0.0000      0.0130      0.0000      0.0000      0.0000      0.0000      0.0627      0.0000      0.0000
 69      0.0000      0.0169      0.0000      0.0311      0.0000      0.0000      0.0000      0.0000      0.0000
 70      0.0000      0.0147      0.0000      0.0000      0.0062      0.0000      0.0000      0.0000      0.0012
 71      0.0000      0.0172      0.0719      0.0000      0.0000      0.0000      0.0000      0.0000      0.0000
 72      0.0000      0.0144      0.0000      0.0000      0.0000      0.0000      0.0000      0.0000      0.0000
 73      0.0000      0.0092      0.0000      0.0000      0.0000      0.0000      0.0000      0.0000      0.0000
 74      0.0000      0.0113      0.0038      0.0000      0.0029      0.0000      0.0000      0.0000      0.0199
 75      0.0000      0.0211      0.0000      0.0000      0.0000      0.0000      0.0000      0.0000      0.0000
 76      0.0000      0.0510      0.1193      0.0867      0.1284      0.0000      0.0000      0.0000      0.0588
 77      0.0000      0.1192      0.0000      0.3314      0.1312      0.1584      0.0000      0.0942      0.1208
 78      0.0000      0.0378      0.0000      0.0435      0.0000      0.0278      0.0307      0.0000      0.0516
 79      0.0000      0.0378      0.0000      0.0315      0.0000      0.0256      0.0000      0.0111      0.0000
 80      0.0000      0.0556      0.0000      0.0162      0.0000      0.3358      0.2457      0.0000      0.0044
 81      0.0000      0.0382      0.0000      0.0223      0.0243      0.0000      0.0000      0.0000      0.0718
 82      0.0000      0.0675      0.0492      0.0000      0.0625      0.0000      0.0000      0.1167      0.0000
 83      0.0000      0.0802      0.0391      0.2651      0.0000      0.3513      0.0000      0.0000      0.0704
 84      0.0000      0.0516      0.0000      0.1635      0.0495      0.0301      0.1031      0.0000      0.0000
 85      0.0000      0.0298      0.0000      0.1174      0.0342      0.0000      0.0000      0.0000      0.0000
 86      0.0001      0.0432      0.0000      0.0000      0.0000      0.0000      0.0000      0.1476      0.1852
 87      0.0000      0.0168      0.0000      0.0000      0.0000      0.0000      0.0000      0.0882      0.0000
 88      0.0000      0.0088      0.0000      0.0000      0.0000      0.0000      0.0000      0.0000      0.0000
 89      0.0000      0.0091      0.0000      0.0000      0.0000      0.0000      0.0000      0.0000      0.0000
 90      0.0000      0.0061      0.0000      0.0000      0.0000      0.0000      0.0000      0.0000      0.0000
 91      0.0000      0.0095      0.0000      0.0000      0.0000      0.0000      0.0000      0.0434      0.0300
 92      0.0000      0.0095      0.0000      0.0000      0.0000      0.0000      0.0000      0.0000      0.0000
 93      0.0000      0.0071      0.0000      0.0000      0.0000      0.0000      0.0000      0.0000      0.0000
 94      0.0000      0.0114      0.0000      0.0000      0.0000      0.0000      0.0000      0.0000      0.0141
 95      0.0000      0.0056      0.0424      0.0000      0.0123      0.0000      0.0000      0.0000      0.0000
 96      0.0000      0.0118      0.0000      0.0281      0.0000      0.0000      0.0000      0.0000      0.0000
 97      0.0000      0.0051      0.0000      0.0000      0.0000      0.0000      0.0316      0.0000      0.0000
 98      0.0000      0.0095      0.0000      0.0000      0.0000      0.0000      0.0104      0.0000      0.0823
 99      0.0000      0.0047      0.0000      0.0000      0.0000      0.0000      0.0000      0.0000      0.0000
100      0.0000      0.0053      0.0000      0.0000      0.0000      0.0000      0.0000      0.0000      0.0000
101      0.0000      0.0514      0.0000      0.0908      0.2810      0.0000      0.0000      0.0333      0.0000
102      0.0000      0.1525      0.1961      0.1696      0.1614      0.5805      0.2115      0.0000      0.0000
103      0.0000      0.0478      0.0000      0.0000      0.0351      0.0196      0.0000      0.0000      0.1233
104      0.0013      0.2440      0.2051      0.2216      0.1095      0.0000      0.1343      0.0000      0.2369
105      7.1525      4.3629      4.3474      4.9841      4.4260      4.3781      4.1011      4.5528      4.2945
106      1.3094      0.8819      0.9290      0.6532      0.8779      0.7711      1.2919      1.0926      1.1985
107      0.0020      0.0893      0.0180      0.0028      0.0000      0.0684      0.0000      0.1816      0.2933
108      0.0000      0.0406      0.0000      0.0000      0.1381      0.0104      0.0213      0.0000      0.0000
109      0.0000      0.0529      0.1100      0.2700      0.0000      0.0111      0.0000      0.0000      0.0000
110      0.0000      0.0333      0.0000      0.0000      0.0000      0.0385      0.0000      0.0000      0.0000
111      0.0000      0.0156      0.0000      0.0000      0.0000      0.0000      0.0000      0.0089      0.0000
112      0.0000      0.0140      0.0000      0.0000      0.0000      0.0000      0.0000      0.0000      0.0000
113      0.0000      0.0113      0.0000      0.0286      0.0000      0.0000      0.0000      0.0000      0.0000
114      0.0000      0.0100      0.0000      0.0000      0.0000      0.0000      0.0000      0.0000      0.0000
115      0.0000      0.0077      0.0000      0.0000      0.0000      0.0000      0.0000      0.0000      0.0000
116      0.0000      0.0073      0.0000      0.0000      0.0000      0.0000      0.0000      0.0000      0.0027
117      0.0000      0.0050      0.0000      0.0000      0.0000      0.0000      0.0000      0.0000      0.0000
118      0.0000      0.0065      0.0000      0.0000      0.0091      0.0000      0.0000      0.0010      0.0000
119      0.0000      0.0051      0.0000      0.0000      0.0000      0.0000      0.0000      0.0000      0.0000
120      0.0000      0.0021      0.0000      0.0000      0.0000      0.0000      0.0000      0.0000      0.0000
121      0.0000      0.0046      0.0035      0.0000      0.0000      0.0000      0.0000      0.0000      0.0000
122      0.0000      0.0032      0.0000      0.0000      0.0000      0.0000      0.0000      0.0000      0.0000
123      0.0000      0.0041      0.0194      0.0000      0.0000      0.0000      0.0000      0.0000      0.0000
124      0.0000      0.0035      0.0000      0.0000      0.0000      0.0000      0.0055      0.0000      0.0000
125      0.0000      0.0040      0.0000      0.0353      0.0000      0.0000      0.0000      0.0000      0.0013
126      0.0000      0.0553      0.0023      0.0000      0.0185      0.1417      0.0113      0.0000      0.0000
127      0.0000      0.0320      0.0000      0.0000      0.0000      0.1493      0.0053      0.0000      0.0000
128      0.0000      0.0363      0.0000      0.2402      0.0000      0.0116      0.0384      0.0000      0.0000
129      0.0467      2.5507      2.6374      2.5105      2.4366      2.5210      2.3115      2.5235      2.4263
130      0.0000      0.0788      0.0000      0.0000      0.0168      0.0000      0.3441      0.0000      0.0000
131      0.0000      0.0436      0.0068      0.0000      0.0000      0.0422      0.0000      0.0000      0.0000
132      0.0000      0.0281      0.0000      0.0000      0.2038      0.0000      0.0000      0.0000      0.0000
133      0.0000      0.0143      0.1723      0.0000      0.0000      0.0000      0.0000      0.0000      0.0000
134      0.0000      0.0364      0.0000      0.0000      0.1975      0.0000      0.0000      0.0000      0.0000
135      0.0000      0.0293      0.0000      0.1695      0.0000      0.0000      0.0216      0.0000      0.0000
136      0.0000      0.0236      0.0021      0.0000      0.0168      0.0000      0.0000      0.0073      0.0000
137      0.0000      0.0199      0.0053      0.0692      0.0000      0.0000      0.0000      0.0000      0.0785
138      0.0000      0.0071      0.0000      0.0000      0.0000      0.0000      0.0518      0.0000      0.0000
139      0.0000      0.0097      0.0000      0.0000      0.0386      0.0000      0.0000      0.0047      0.0000
140      0.0000      0.0044      0.0000      0.0000      0.0000      0.0000      0.0000      0.0000      0.0000
141      0.0000      0.0030      0.0000      0.0000      0.0018      0.0000      0.0000      0.0000      0.0000
142      0.0000      0.0027      0.0000      0.0000      0.0000      0.0148      0.0000      0.0000      0.0000
143      0.0000      0.0042      0.0000      0.0000      0.0000      0.0000      0.0000      0.0000      0.0020
144      0.0000      0.0042      0.0000      0.0003      0.0000      0.0000      0.0000      0.0000      0.0000
145      0.0000      0.0125      0.0000      0.0000      0.0000      0.0000      0.0000      0.0000      0.0000
146      0.0000      0.0040      0.0000      0.0000      0.0000      0.0000      0.0068      0.0000      0.0000
147      0.0000      0.0066      0.0702      0.0000      0.0000      0.0000      0.0000      0.0000      0.0000
148      3.6625      3.7921      3.7152      3.7965      3.7725      3.6865      3.7173      3.8925      3.6399
149      4.3041      4.3284      4.2956      4.2330      4.3402      4.3456      4.4338      4.2136      4.3051
150      2.3391      2.5032      2.4740      2.4548      2.4524      2.5364      2.4340      2.4293      2.4926

# j      m_j: min, <> & last-chain-values for 1 ...  7 chains
  1  9.2561E-04  5.0139E-03  5.6253E-03  4.4604E-03  5.5412E-03  4.9518E-03  3.9829E-03  5.3364E-03  5.2406E-03
  2  4.1157E-04  1.9378E-04  4.0422E-04  4.5701E-04  7.3826E-05  0.0000E+00  1.0981E-04  4.5728E-04  1.8785E-04
  3  1.6314E-02  1.6733E-02  1.6203E-02  1.7121E-02  1.6599E-02  1.6493E-02  1.7057E-02  1.6597E-02  1.8332E-02
  4  1.6259E-02  1.6081E-02  1.6532E-02  1.6520E-02  1.6027E-02  1.5868E-02  1.5602E-02  1.6534E-02  1.7045E-02
  5  2.8267E-02  2.5305E-02  2.5405E-02  2.6388E-02  2.4382E-02  2.6045E-02  2.6920E-02  2.6081E-02  2.5446E-02
  6  2.5122E-02  2.0481E-02  2.1417E-02  2.0475E-02  2.1091E-02  1.8825E-02  2.2054E-02  2.2379E-02  2.1454E-02
  7  1.5624E-02  1.5812E-02  1.5709E-02  1.5780E-02  1.5847E-02  1.6338E-02  1.6154E-02  1.5999E-02  1.4885E-02
  8  5.7158E-03  2.7423E-03  3.8158E-03  3.5158E-03  3.6924E-03  1.9131E-03  3.5283E-04  1.0771E-03  3.2850E-03
  9  1.7037E-02  4.2126E-03  7.0479E-03  2.9608E-03  7.5443E-03  3.2550E-03  5.2356E-03  6.6570E-03  6.1895E-03
 10  1.3541E-02  1.9525E-03  6.2977E-03  3.3679E-03  5.5025E-03  3.9521E-03  2.6845E-03  0.0000E+00  3.5902E-03
 11  0.0000E+00  1.9258E-03  3.0255E-03  2.0429E-03  4.9317E-03  0.0000E+00  6.8337E-04  1.9610E-04  2.1548E-03
 12  0.0000E+00  9.2390E-04  0.0000E+00  2.3479E-03  5.4974E-04  2.7689E-04  0.0000E+00  0.0000E+00  1.2365E-03
 13  0.0000E+00  5.7476E-04  5.3513E-04  0.0000E+00  0.0000E+00  0.0000E+00  0.0000E+00  0.0000E+00  0.0000E+00
 14  0.0000E+00  6.5979E-04  0.0000E+00  0.0000E+00  0.0000E+00  0.0000E+00  0.0000E+00  4.7652E-03  0.0000E+00
 15  0.0000E+00  6.6037E-04  0.0000E+00  0.0000E+00  0.0000E+00  0.0000E+00  1.6274E-03  0.0000E+00  2.9002E-03
 16  0.0000E+00  1.9730E-03  0.0000E+00  0.0000E+00  4.0857E-03  9.9429E-05  0.0000E+00  0.0000E+00  0.0000E+00
 17  0.0000E+00  2.6015E-03  0.0000E+00  0.0000E+00  0.0000E+00  8.1457E-03  0.0000E+00  1.1272E-03  0.0000E+00
 18  0.0000E+00  9.4861E-03  0.0000E+00  0.0000E+00  0.0000E+00  0.0000E+00  0.0000E+00  3.8196E-02  1.8564E-02
 19  7.6717E-04  3.0827E-02  0.0000E+00  5.1097E-03  0.0000E+00  3.0986E-02  9.1003E-02  4.0272E-02  4.3635E-02
 20  0.0000E+00  5.1842E-02  2.4080E-02  3.0869E-02  1.7903E-01  7.5434E-02  0.0000E+00  1.4435E-01  0.0000E+00
 21  3.1144E-02  7.6433E-01  7.7893E-01  7.1840E-01  5.5502E-01  7.3893E-01  6.4712E-01  9.4171E-01  8.1404E-01
 22  0.0000E+00  3.9882E-01  2.2070E-01  2.9104E-01  2.2631E-01  8.3961E-01  5.4321E-01  3.4032E-01  7.4068E-02
 23  2.7510E-04  5.3906E-01  2.1278E-01  6.3963E-01  2.2519E-01  6.1642E-01  5.0529E-01  3.1712E-01  7.7333E-01
 24  3.7011E+00  4.5456E+00  4.5929E+00  4.6656E+00  4.7790E+00  4.6769E+00  4.7411E+00  4.3729E+00  4.6897E+00
 25  1.2216E+01  1.2222E+01  1.2069E+01  1.2234E+01  1.2408E+01  1.2374E+01  1.2218E+01  1.2874E+01  1.2432E+01
 26  4.6941E-03  6.9187E-03  7.1113E-03  6.4733E-03  7.0613E-03  7.0059E-03  6.3021E-03  6.5702E-03  7.2950E-03
 27  6.4148E-04  6.7102E-04  6.9510E-04  7.1324E-04  7.5935E-04  7.9278E-04  8.6472E-04  9.1433E-04  1.0753E-03
 28  7.3842E-03  6.0700E-03  6.0180E-03  6.4207E-03  6.1795E-03  6.2711E-03  6.0939E-03  6.1744E-03  6.4489E-03
 29  1.8293E-02  1.7385E-02  1.7637E-02  1.6976E-02  1.7282E-02  1.7629E-02  1.7411E-02  1.8076E-02  1.7593E-02
 30  1.1151E-02  1.1713E-02  1.1620E-02  1.1362E-02  1.1614E-02  1.1486E-02  1.1453E-02  1.1642E-02  1.2631E-02
 31  1.6324E-02  1.5046E-02  1.5274E-02  1.4567E-02  1.4980E-02  1.4859E-02  1.5342E-02  1.4986E-02  1.4334E-02
 32  3.1542E-03  3.1824E-03  3.0365E-03  1.7234E-03  4.0287E-03  3.6906E-03  3.1925E-03  3.2686E-03  2.5346E-03
 33  0.0000E+00  9.8391E-04  3.1112E-04  2.2230E-04  1.9409E-03  1.7695E-03  3.0669E-03  1.3569E-03  0.0000E+00
 34  7.7392E-03  2.0843E-03  3.6768E-03  0.0000E+00  0.0000E+00  5.8012E-04  2.4196E-03  1.5588E-04  2.5903E-03
 35  0.0000E+00  1.3897E-03  0.0000E+00  1.9679E-03  1.5477E-03  8.4490E-04  0.0000E+00  2.6750E-03  2.0095E-03
 36  0.0000E+00  9.1138E-04  0.0000E+00  0.0000E+00  0.0000E+00  4.4776E-03  0.0000E+00  3.3439E-03  0.0000E+00
 37  0.0000E+00  1.0293E-03  4.6827E-04  1.4571E-04  0.0000E+00  2.0971E-03  1.6679E-03  3.7718E-04  0.0000E+00
 38  0.0000E+00  6.2725E-04  0.0000E+00  6.5434E-03  0.0000E+00  0.0000E+00  0.0000E+00  1.4140E-03  0.0000E+00
 39  0.0000E+00  4.7748E-04  0.0000E+00  0.0000E+00  0.0000E+00  0.0000E+00  0.0000E+00  0.0000E+00  0.0000E+00
 40  0.0000E+00  9.3184E-04  0.0000E+00  0.0000E+00  0.0000E+00  0.0000E+00  0.0000E+00  0.0000E+00  0.0000E+00
 41  0.0000E+00  4.9077E-03  3.3673E-03  0.0000E+00  4.8579E-03  0.0000E+00  0.0000E+00  6.0732E-03  0.0000E+00
 42  0.0000E+00  6.8624E-03  4.4365E-03  0.0000E+00  1.6915E-03  7.2718E-03  0.0000E+00  5.3320E-03  0.0000E+00
 43  4.0265E-02  2.6831E-02  0.0000E+00  1.3786E-03  9.5145E-02  2.8248E-03  1.1351E-02  1.3688E-02  4.2238E-02
 44  0.0000E+00  7.9070E-02  1.5812E-02  3.2388E-01  5.3850E-02  1.7664E-01  0.0000E+00  0.0000E+00  0.0000E+00
 45  5.2665E+00  4.3418E+00  4.2370E+00  4.9302E+00  4.6091E+00  4.5002E+00  4.3017E+00  4.3073E+00  4.3239E+00
 46  4.4653E+00  4.0952E+00  4.5340E+00  4.0802E+00  3.5340E+00  3.9598E+00  4.5411E+00  4.1764E+00  4.2309E+00
 47  1.7308E+00  2.6213E+00  3.0955E+00  2.5439E+00  2.5654E+00  2.6465E+00  2.6336E+00  2.6199E+00  2.2682E+00
 48  3.7809E-01  4.7357E-01  3.6615E-01  6.1406E-01  7.1883E-01  1.7369E-01  3.7612E-01  5.0096E-01  5.2893E-01
 49  1.8941E+00  5.8978E-01  7.2683E-01  6.5404E-01  9.6216E-01  8.0298E-01  5.8014E-01  7.5897E-01  7.5301E-01
 50  4.7340E+00  2.2087E+00  2.3939E+00  1.4766E+00  2.7161E+00  1.7277E+00  2.0506E+00  2.1768E+00  2.1730E+00
 51  0.0000E+00  1.8313E-04  0.0000E+00  0.0000E+00  0.0000E+00  2.4016E-04  0.0000E+00  1.2642E-03  0.0000E+00
 52  2.5757E-04  1.1970E-04  1.1687E-05  0.0000E+00  1.4141E-04  0.0000E+00  2.6369E-04  8.9541E-05  2.3063E-04
 53  1.4512E-07  1.0250E-04  0.0000E+00  1.8707E-05  0.0000E+00  0.0000E+00  0.0000E+00  0.0000E+00  3.2442E-04
 54  0.0000E+00  1.6632E-04  7.3236E-04  0.0000E+00  3.7433E-04  3.9604E-04  4.9212E-04  1.6511E-04  2.6241E-04
 55  0.0000E+00  5.8323E-04  4.6273E-04  6.4022E-05  7.1882E-04  7.3014E-04  1.1027E-03  3.6508E-04  0.0000E+00
 56  0.0000E+00  7.3842E-04  1.1473E-03  6.5046E-04  0.0000E+00  4.5638E-04  1.9260E-03  6.3006E-04  4.3626E-04
 57  0.0000E+00  2.4256E-04  0.0000E+00  3.9340E-04  0.0000E+00  1.2105E-04  0.0000E+00  1.9905E-04  0.0000E+00
 58  0.0000E+00  5.9654E-04  6.4006E-04  0.0000E+00  1.6685E-03  1.1925E-03  2.4757E-04  2.3512E-04  0.0000E+00
 59  0.0000E+00  3.7766E-04  2.7966E-04  1.1912E-03  0.0000E+00  0.0000E+00  0.0000E+00  4.0155E-05  8.3663E-04
 60  4.6758E-06  4.1228E-04  3.0194E-03  0.0000E+00  0.0000E+00  0.0000E+00  2.1055E-03  3.2278E-03  2.1150E-03
 61  0.0000E+00  4.3881E-04  1.6803E-03  0.0000E+00  0.0000E+00  1.3986E-03  0.0000E+00  0.0000E+00  1.7018E-03
 62  0.0000E+00  4.6263E-04  1.6446E-03  0.0000E+00  3.7501E-05  0.0000E+00  3.0987E-03  0.0000E+00  2.3475E-03
 63  0.0000E+00  4.0254E-04  0.0000E+00  0.0000E+00  0.0000E+00  0.0000E+00  0.0000E+00  0.0000E+00  0.0000E+00
 64  0.0000E+00  1.0428E-03  7.9970E-03  0.0000E+00  0.0000E+00  0.0000E+00  1.6614E-03  1.1801E-04  4.4303E-03
 65  0.0000E+00  4.1534E-03  1.0972E-02  0.0000E+00  1.7434E-03  5.6785E-03  7.9684E-03  0.0000E+00  0.0000E+00
 66  6.3640E-04  3.8240E-03  5.3477E-03  0.0000E+00  6.2317E-03  0.0000E+00  0.0000E+00  2.7783E-03  5.8438E-02
 67  0.0000E+00  3.1038E-03  0.0000E+00  2.9024E-03  0.0000E+00  0.0000E+00  0.0000E+00  0.0000E+00  1.1520E-03
 68  0.0000E+00  4.1274E-03  0.0000E+00  0.0000E+00  0.0000E+00  0.0000E+00  1.9926E-02  0.0000E+00  0.0000E+00
 69  0.0000E+00  9.2153E-03  0.0000E+00  1.7237E-02  0.0000E+00  0.0000E+00  0.0000E+00  0.0000E+00  0.0000E+00
 70  0.0000E+00  1.1204E-02  0.0000E+00  0.0000E+00  4.7420E-03  0.0000E+00  0.0000E+00  0.0000E+00  9.5356E-04
 71  0.0000E+00  1.5404E-02  6.4983E-02  0.0000E+00  0.0000E+00  0.0000E+00  0.0000E+00  0.0000E+00  0.0000E+00
 72  0.0000E+00  1.6977E-02  0.0000E+00  0.0000E+00  0.0000E+00  0.0000E+00  0.0000E+00  0.0000E+00  0.0000E+00
 73  0.0000E+00  1.3667E-02  0.0000E+00  0.0000E+00  0.0000E+00  0.0000E+00  0.0000E+00  0.0000E+00  0.0000E+00
 74  0.0000E+00  1.8784E-02  6.2897E-03  0.0000E+00  4.7900E-03  0.0000E+00  0.0000E+00  0.0000E+00  3.3565E-02
 75  0.0000E+00  4.0247E-02  0.0000E+00  0.0000E+00  0.0000E+00  0.0000E+00  0.0000E+00  0.0000E+00  0.0000E+00
 76  0.0000E+00  2.2551E-04  5.3184E-04  3.8904E-04  5.6918E-04  0.0000E+00  0.0000E+00  0.0000E+00  2.6393E-04
 77  0.0000E+00  2.1481E-04  0.0000E+00  6.0563E-04  2.3688E-04  2.8648E-04  0.0000E+00  1.7101E-04  2.2100E-04
 78  0.0000E+00  7.6330E-05  0.0000E+00  8.9059E-05  0.0000E+00  5.6338E-05  6.2169E-05  0.0000E+00  1.0560E-04
 79  0.0000E+00  9.1688E-05  0.0000E+00  7.7478E-05  0.0000E+00  6.2490E-05  0.0000E+00  2.7217E-05  0.0000E+00
 80  0.0000E+00  1.7393E-04  0.0000E+00  5.1257E-05  0.0000E+00  1.0544E-03  7.7195E-04  0.0000E+00  1.4006E-05
 81  0.0000E+00  1.5797E-04  0.0000E+00  9.3344E-05  1.0070E-04  0.0000E+00  0.0000E+00  0.0000E+00  3.0129E-04
 82  0.0000E+00  3.7598E-04  2.7626E-04  0.0000E+00  3.4885E-04  0.0000E+00  0.0000E+00  6.5499E-04  0.0000E+00
 83  0.0000E+00  6.5664E-04  3.2191E-04  2.1999E-03  0.0000E+00  2.8858E-03  0.0000E+00  0.0000E+00  5.8485E-04
 84  0.0000E+00  5.8498E-04  0.0000E+00  1.8787E-03  5.6205E-04  3.4200E-04  1.1725E-03  0.0000E+00  0.0000E+00
 85  0.0000E+00  4.0952E-04  0.0000E+00  1.6383E-03  4.7131E-04  0.0000E+00  0.0000E+00  0.0000E+00  0.0000E+00
 86  1.7355E-06  8.0545E-04  0.0000E+00  0.0000E+00  0.0000E+00  0.0000E+00  0.0000E+00  2.7724E-03  3.5035E-03
 87  0.0000E+00  4.1621E-04  0.0000E+00  0.0000E+00  0.0000E+00  0.0000E+00  0.0000E+00  2.2058E-03  0.0000E+00
 88  0.0000E+00  3.3128E-04  0.0000E+00  0.0000E+00  0.0000E+00  0.0000E+00  0.0000E+00  0.0000E+00  0.0000E+00
 89  0.0000E+00  5.7490E-04  0.0000E+00  0.0000E+00  0.0000E+00  0.0000E+00  0.0000E+00  0.0000E+00  0.0000E+00
 90  0.0000E+00  7.1626E-04  0.0000E+00  0.0000E+00  0.0000E+00  0.0000E+00  0.0000E+00  0.0000E+00  0.0000E+00
 91  0.0000E+00  1.4294E-03  0.0000E+00  0.0000E+00  0.0000E+00  0.0000E+00  0.0000E+00  6.5617E-03  4.5609E-03
 92  0.0000E+00  1.9107E-03  0.0000E+00  0.0000E+00  0.0000E+00  0.0000E+00  0.0000E+00  0.0000E+00  0.0000E+00
 93  0.0000E+00  2.8980E-03  0.0000E+00  0.0000E+00  0.0000E+00  0.0000E+00  0.0000E+00  0.0000E+00  0.0000E+00
 94  0.0000E+00  8.3456E-03  0.0000E+00  0.0000E+00  0.0000E+00  0.0000E+00  0.0000E+00  0.0000E+00  1.0406E-02
 95  0.0000E+00  5.5489E-03  4.1976E-02  0.0000E+00  1.2075E-02  0.0000E+00  0.0000E+00  0.0000E+00  0.0000E+00
 96  0.0000E+00  1.4005E-02  0.0000E+00  3.3726E-02  0.0000E+00  0.0000E+00  0.0000E+00  0.0000E+00  0.0000E+00
 97  0.0000E+00  7.8087E-03  0.0000E+00  0.0000E+00  0.0000E+00  0.0000E+00  4.8975E-02  0.0000E+00  0.0000E+00
 98  0.0000E+00  1.8883E-02  0.0000E+00  0.0000E+00  0.0000E+00  0.0000E+00  2.0602E-02  0.0000E+00  1.6558E-01
 99  0.0000E+00  1.0544E-02  0.0000E+00  0.0000E+00  0.0000E+00  0.0000E+00  0.0000E+00  0.0000E+00  0.0000E+00
100  0.0000E+00  1.3836E-02  0.0000E+00  0.0000E+00  0.0000E+00  0.0000E+00  0.0000E+00  0.0000E+00  0.0000E+00
101  0.0000E+00  1.4710E-04  0.0000E+00  2.6352E-04  8.0571E-04  0.0000E+00  0.0000E+00  9.5947E-05  0.0000E+00
102  0.0000E+00  2.2688E-04  2.9379E-04  2.5588E-04  2.4051E-04  8.6660E-04  3.1596E-04  0.0000E+00  0.0000E+00
103  0.0000E+00  7.8783E-05  0.0000E+00  0.0000E+00  5.7972E-05  3.2420E-05  0.0000E+00  0.0000E+00  2.0615E-04
104  2.8238E-06  5.2872E-04  4.4780E-04  4.8702E-04  2.3774E-04  0.0000E+00  2.9223E-04  0.0000E+00  5.2114E-04
105  3.3242E-02  1.9966E-02  2.0039E-02  2.3130E-02  2.0295E-02  2.0110E-02  1.8847E-02  2.0989E-02  1.9948E-02
106  6.5507E-03  4.3444E-03  4.6098E-03  3.2630E-03  4.3332E-03  3.8127E-03  6.3911E-03  5.4225E-03  5.9929E-03
107  1.3370E-05  5.8755E-04  1.1946E-04  1.8396E-05  0.0000E+00  4.5147E-04  0.0000E+00  1.2031E-03  1.9580E-03
108  0.0000E+00  4.4495E-04  0.0000E+00  0.0000E+00  1.5166E-03  1.1482E-04  2.3484E-04  0.0000E+00  0.0000E+00
109  0.0000E+00  6.9590E-04  1.4575E-03  3.6031E-03  0.0000E+00  1.4654E-04  0.0000E+00  0.0000E+00  0.0000E+00
110  0.0000E+00  5.2424E-04  0.0000E+00  0.0000E+00  0.0000E+00  6.0740E-04  0.0000E+00  0.0000E+00  0.0000E+00
111  0.0000E+00  3.4162E-04  0.0000E+00  0.0000E+00  0.0000E+00  0.0000E+00  0.0000E+00  1.9689E-04  0.0000E+00
112  0.0000E+00  4.0291E-04  0.0000E+00  0.0000E+00  0.0000E+00  0.0000E+00  0.0000E+00  0.0000E+00  0.0000E+00
113  0.0000E+00  4.8724E-04  0.0000E+00  1.2480E-03  0.0000E+00  0.0000E+00  0.0000E+00  0.0000E+00  0.0000E+00
114  0.0000E+00  7.5543E-04  0.0000E+00  0.0000E+00  0.0000E+00  0.0000E+00  0.0000E+00  0.0000E+00  0.0000E+00
115  0.0000E+00  1.1679E-03  0.0000E+00  0.0000E+00  0.0000E+00  0.0000E+00  0.0000E+00  0.0000E+00  0.0000E+00
116  0.0000E+00  1.7651E-03  0.0000E+00  0.0000E+00  0.0000E+00  0.0000E+00  0.0000E+00  0.0000E+00  6.5510E-04
117  0.0000E+00  1.4186E-03  0.0000E+00  0.0000E+00  0.0000E+00  0.0000E+00  0.0000E+00  0.0000E+00  0.0000E+00
118  0.0000E+00  3.7974E-03  0.0000E+00  0.0000E+00  5.2968E-03  0.0000E+00  0.0000E+00  5.6834E-04  0.0000E+00
119  0.0000E+00  5.0730E-03  0.0000E+00  0.0000E+00  0.0000E+00  0.0000E+00  0.0000E+00  0.0000E+00  0.0000E+00
120  0.0000E+00  2.9541E-03  0.0000E+00  0.0000E+00  0.0000E+00  0.0000E+00  0.0000E+00  0.0000E+00  0.0000E+00
121  0.0000E+00  7.6741E-03  6.0040E-03  0.0000E+00  0.0000E+00  0.0000E+00  0.0000E+00  0.0000E+00  0.0000E+00
122  0.0000E+00  7.1703E-03  0.0000E+00  0.0000E+00  0.0000E+00  0.0000E+00  0.0000E+00  0.0000E+00  0.0000E+00
123  0.0000E+00  1.2123E-02  5.7838E-02  0.0000E+00  0.0000E+00  0.0000E+00  0.0000E+00  0.0000E+00  0.0000E+00
124  0.0000E+00  1.1793E-02  0.0000E+00  0.0000E+00  0.0000E+00  0.0000E+00  1.8758E-02  0.0000E+00  0.0000E+00
125  0.0000E+00  1.6246E-02  0.0000E+00  1.4575E-01  0.0000E+00  0.0000E+00  0.0000E+00  0.0000E+00  5.3752E-03
126  0.0000E+00  1.1874E-04  4.9058E-06  0.0000E+00  3.9691E-05  3.0523E-04  2.4451E-05  0.0000E+00  0.0000E+00
127  0.0000E+00  3.6254E-05  0.0000E+00  0.0000E+00  0.0000E+00  1.6957E-04  6.0769E-06  0.0000E+00  0.0000E+00
128  0.0000E+00  6.0941E-05  0.0000E+00  4.0892E-04  0.0000E+00  1.9493E-05  6.4689E-05  0.0000E+00  0.0000E+00
129  1.6293E-04  8.7542E-03  9.1176E-03  8.7379E-03  8.3793E-03  8.6848E-03  7.9668E-03  8.7253E-03  8.4526E-03
130  0.0000E+00  3.6879E-04  0.0000E+00  0.0000E+00  7.8806E-05  0.0000E+00  1.6176E-03  0.0000E+00  0.0000E+00
131  0.0000E+00  2.3609E-04  3.7381E-05  0.0000E+00  0.0000E+00  2.2929E-04  0.0000E+00  0.0000E+00  0.0000E+00
132  0.0000E+00  2.0652E-04  0.0000E+00  0.0000E+00  1.5019E-03  0.0000E+00  0.0000E+00  0.0000E+00  0.0000E+00
133  0.0000E+00  1.5250E-04  1.8557E-03  0.0000E+00  0.0000E+00  0.0000E+00  0.0000E+00  0.0000E+00  0.0000E+00
134  0.0000E+00  4.9320E-04  0.0000E+00  0.0000E+00  2.6833E-03  0.0000E+00  0.0000E+00  0.0000E+00  0.0000E+00
135  0.0000E+00  4.7855E-04  0.0000E+00  2.8041E-03  0.0000E+00  0.0000E+00  3.5361E-04  0.0000E+00  0.0000E+00
136  0.0000E+00  5.5562E-04  4.9210E-05  0.0000E+00  3.9618E-04  0.0000E+00  0.0000E+00  1.7215E-04  0.0000E+00
137  0.0000E+00  6.3864E-04  1.7118E-04  2.2542E-03  0.0000E+00  0.0000E+00  0.0000E+00  0.0000E+00  2.5614E-03
138  0.0000E+00  3.7887E-04  0.0000E+00  0.0000E+00  0.0000E+00  0.0000E+00  2.7790E-03  0.0000E+00  0.0000E+00
139  0.0000E+00  9.8008E-04  0.0000E+00  0.0000E+00  3.9001E-03  0.0000E+00  0.0000E+00  4.8053E-04  0.0000E+00
140  0.0000E+00  1.0159E-03  0.0000E+00  0.0000E+00  0.0000E+00  0.0000E+00  0.0000E+00  0.0000E+00  0.0000E+00
141  0.0000E+00  1.0814E-03  0.0000E+00  0.0000E+00  6.3935E-04  0.0000E+00  0.0000E+00  0.0000E+00  0.0000E+00
142  0.0000E+00  1.1622E-03  0.0000E+00  0.0000E+00  0.0000E+00  6.3158E-03  0.0000E+00  0.0000E+00  0.0000E+00
143  0.0000E+00  3.5791E-03  0.0000E+00  0.0000E+00  0.0000E+00  0.0000E+00  0.0000E+00  0.0000E+00  1.7409E-03
144  0.0000E+00  6.9230E-03  0.0000E+00  4.2751E-04  0.0000E+00  0.0000E+00  0.0000E+00  0.0000E+00  0.0000E+00
145  0.0000E+00  3.1012E-02  0.0000E+00  0.0000E+00  0.0000E+00  0.0000E+00  0.0000E+00  0.0000E+00  0.0000E+00
146  0.0000E+00  1.1931E-02  0.0000E+00  0.0000E+00  0.0000E+00  0.0000E+00  2.0024E-02  0.0000E+00  0.0000E+00
147  0.0000E+00  2.5982E-02  2.8062E-01  0.0000E+00  0.0000E+00  0.0000E+00  0.0000E+00  0.0000E+00  0.0000E+00
148  1.9982E+01  2.0372E+01  2.0104E+01  2.0683E+01  2.0307E+01  1.9879E+01  2.0055E+01  2.1066E+01  1.9848E+01
149  2.7505E+01  2.7236E+01  2.7225E+01  2.7011E+01  2.7365E+01  2.7446E+01  2.8017E+01  2.6710E+01  2.7496E+01
150  1.7805E+01  1.8761E+01  1.8677E+01  1.8658E+01  1.8418E+01  1.9081E+01  1.8320E+01  1.8343E+01  1.8963E+01

# AV, chi2 & Mass for <> & i_chain = 1 ...  7 solutions
AV       3.1406      3.1201      3.1281      3.1250      3.1302      3.1271      3.1255      3.1285      3.1392
chi2 3.1481E+00  3.2670E+00  3.2388E+00  3.2529E+00  3.2357E+00  3.2471E+00  3.2434E+00  3.2396E+00  3.2277E+00
Mass 3.5186E-09  3.4764E-09  3.4885E-09  3.4504E-09  3.5166E-09  3.4958E-09  3.4868E-09  3.4899E-09  3.5136E-09
 -19.86                                  [v0_min (km/s) before EX0s...]
  33.86                                  [vd_min (km/s) before EX0s...]


## Synthetic spectrum (Best Model) ##l_obs f_obs f_syn wei
 3070    [Nl_obs]
 3359.00    0.00000   0.49957   -2.000
 3360.00    0.00000   0.49543   -2.000
 3361.00    0.24325   0.50164   -1.000
 3362.00    0.28337   0.51359   -1.000
 3363.00    0.33291   0.52595   -1.000
 3364.00    0.32776   0.53122   -1.000
 3365.00    0.33336   0.52586   -1.000
 3366.00    0.32183   0.51901   -1.000
 3367.00    0.31068   0.51421   -1.000
 3368.00    0.32576   0.51085   -1.000
 3369.00    0.32536   0.50865   -1.000
 3370.00    0.32581   0.50301   -1.000
 3371.00    0.32303   0.49669   -1.000
 3372.00    0.34788   0.49643   -1.000
 3373.00    0.33411   0.50536   -1.000
 3374.00    0.36330   0.51955   -1.000
 3375.00    0.31767   0.53387   -1.000
 3376.00    0.33895   0.53750   -1.000
 3377.00    0.34968   0.53138   -1.000
 3378.00    0.35972   0.52458   -1.000
 3379.00    0.36946   0.52295   -1.000
 3380.00    0.36668   0.52893   -1.000
 3381.00    0.40248   0.53598   -1.000
 3382.00    0.39185   0.54077   -1.000
 3383.00    0.36995   0.54255   -1.000
 3384.00    0.39787   0.54434   -1.000
 3385.00    0.39031   0.54767   -1.000
 3386.00    0.40536   0.54597   -1.000
 3387.00    0.38655   0.54070   -1.000
 3388.00    0.39824   0.53750   -1.000
 3389.00    0.42781   0.54028   -1.000
 3390.00    0.39805   0.54629   -1.000
 3391.00    0.43080   0.55016   -1.000
 3392.00    0.40479   0.54879   -1.000
 3393.00    0.39245   0.54856   -1.000
 3394.00    0.37453   0.55411   -1.000
 3395.00    0.42142   0.55981   -1.000
 3396.00    0.43236   0.56348   -1.000
 3397.00    0.46356   0.56424   -1.000
 3398.00    0.41081   0.56352   -1.000
 3399.00    0.45365   0.55921   -1.000
 3400.00    0.47905   0.55570   31.764
 3401.00    0.48588   0.55167   31.320
 3402.00    0.47905   0.54244   31.582
 3403.00    0.40813   0.53694   -1.000
 3404.00    0.42170   0.53548   -1.000
 3405.00    0.45127   0.53790   33.894
 3406.00    0.46482   0.53846   34.513
 3407.00    0.47833   0.53787   35.077
 3408.00    0.44572   0.53748   -1.000
 3409.00    0.42512   0.54070   -1.000
 3410.00    0.46534   0.54400   36.013
 3411.00    0.48753   0.53965   35.802
 3412.00    0.49513   0.53548   34.740
 3413.00    0.48484   0.53285   34.443
 3414.00    0.47284   0.53637   35.882
 3415.00    0.52313   0.54555   36.574
 3416.00    0.50247   0.55425   36.516
 3417.00    0.46038   0.56084   -1.000
 3418.00    0.49440   0.56604   34.120
 3419.00    0.51948   0.57037   32.510
 3420.00    0.53927   0.57287   30.870
 3421.00    0.47817   0.57071   30.691
 3422.00    0.53280   0.56217   30.482
 3423.00    0.55229   0.55449   30.655
 3424.00    0.51200   0.55271   31.530
 3425.00    0.53004   0.55573   32.253
 3426.00    0.53061   0.56102   31.391
 3427.00    0.51371   0.56824   30.559
 3428.00    0.51502   0.57759   30.369
 3429.00    0.50093   0.58373   -1.000
 3430.00    0.53677   0.58222   -1.000
 3431.00    0.54102   0.57372   -1.000
 3432.00    0.53959   0.56520   -1.000
 3433.00    0.52113   0.56427   -1.000
 3434.00    0.52874   0.57166   32.225
 3435.00    0.55513   0.57943   30.287
 3436.00    0.55087   0.57925   -1.000
 3437.00    0.52171   0.57209   -1.000
 3438.00    0.50021   0.56292   32.036
 3439.00    0.51449   0.55228   31.611
 3440.00    0.52773   0.54122   33.495
 3441.00    0.51278   0.53374   36.134
 3442.00    0.49580   0.53287   37.666
 3443.00    0.52292   0.53804   37.802
 3444.00    0.51683   0.54366   37.651
 3445.00    0.51957   0.54823   36.220
 3446.00    0.55963   0.55672   34.262
 3447.00    0.53323   0.56737   32.366
 3448.00    0.55671   0.57812   31.207
 3449.00    0.56253   0.58115   -1.000
 3450.00    0.53904   0.56956   -1.000
 3451.00    0.51217   0.55553   -1.000
 3452.00    0.52974   0.54771   -1.000
 3453.00    0.56650   0.54840   -1.000
 3454.00    0.60224   0.55396   -1.000
 3455.00    0.55638   0.55873  276.924
 3456.00    0.53271   0.55979   -1.000
 3457.00    0.57995   0.55720   -1.000
 3458.00    0.57547   0.55235   -1.000
 3459.00    0.58892   0.54730   -1.000
 3460.00    0.53677   0.54224   32.330
 3461.00    0.53071   0.54261   30.744
 3462.00    0.56715   0.55156   30.575
 3463.00    0.56562   0.56060  184.602
 3464.00    0.55837   0.55991  276.924
 3465.00    0.56888   0.55849   -1.000
 3466.00    0.60248   0.56146   -1.000
 3467.00    0.60875   0.56760   -1.000
 3468.00    0.62595   0.57435   -1.000
 3469.00    0.59608   0.57975   -1.000
 3470.00    0.56346   0.58089   -1.000
 3471.00    0.60074   0.57547   -1.000
 3472.00    0.55558   0.56907   -1.000
 3473.00    0.57575   0.56045   -1.000
 3474.00    0.58123   0.55238   -1.000
 3475.00    0.55187   0.54785  276.924
 3476.00    0.53709   0.54779   32.757
 3477.00    0.55021   0.55084   31.686
 3478.00    0.55346   0.55399   31.107
 3479.00    0.55561   0.55858  178.364
 3480.00    0.55724   0.56590  269.985
 3481.00    0.58101   0.56875  260.902
 3482.00    0.58028   0.56456   -1.000
 3483.00    0.57937   0.56010   -1.000
 3484.00    0.60730   0.56234   -1.000
 3485.00    0.61988   0.57190   -1.000
 3486.00    0.59936   0.58028   -1.000
 3487.00    0.55967   0.58376   -1.000
 3488.00    0.60226   0.58221   -1.000
 3489.00    0.59251   0.57439   -1.000
 3490.00    0.58201   0.56767   -1.000
 3491.00    0.56629   0.57012  276.924
 3492.00    0.59475   0.57795   -1.000
 3493.00    0.62876   0.58095   -1.000
 3494.00    0.59657   0.57869   -1.000
 3495.00    0.56158   0.57288  276.924
 3496.00    0.60552   0.56877   -1.000
 3497.00    0.61939   0.57133   -1.000
 3498.00    0.57919   0.57539  276.924
 3499.00    0.57564   0.57687  275.906
 3500.00    0.58940   0.57273   -1.000
 3501.00    0.57917   0.57060  243.567
 3502.00    0.61020   0.57556   -1.000
 3503.00    0.63505   0.57930   -1.000
 3504.00    0.59265   0.57652   -1.000
 3505.00    0.57790   0.56927  241.404
 3506.00    0.61093   0.56437   -1.000
 3507.00    0.59168   0.56359   -1.000
 3508.00    0.59182   0.56499   -1.000
 3509.00    0.59202   0.56683   -1.000
 3510.00    0.59521   0.56719   -1.000
 3511.00    0.60296   0.56497   -1.000
 3512.00    0.60079   0.55952   -1.000
 3513.00    0.59555   0.55492   -1.000
 3514.00    0.60934   0.55755   -1.000
 3515.00    0.60520   0.56738   -1.000
 3516.00    0.60027   0.58113   -1.000
 3517.00    0.62708   0.58953   -1.000
 3518.00    0.60203   0.58972   -1.000
 3519.00    0.59628   0.58235   -1.000
 3520.00    0.60235   0.57395   -1.000
 3521.00    0.58168   0.56702   -1.000
 3522.00    0.59532   0.56191   -1.000
 3523.00    0.57350   0.55798   -1.000
 3524.00    0.56772   0.55366   -1.000
 3525.00    0.56381   0.55083   32.956
 3526.00    0.56701   0.55555   31.347
 3527.00    0.59698   0.56441   31.246
 3528.00    0.57707   0.57541  167.365
 3529.00    0.59330   0.58483  272.283
 3530.00    0.61184   0.59075   -1.000
 3531.00    0.61558   0.59366   -1.000
 3532.00    0.60303   0.59039   -1.000
 3533.00    0.57789   0.58091  258.938
 3534.00    0.59313   0.57495   -1.000
 3535.00    0.59463   0.57728   -1.000
 3536.00    0.60174   0.58650   -1.000
 3537.00    0.62432   0.59459   -1.000
 3538.00    0.60757   0.59969  244.008
 3539.00    0.62395   0.60236   -1.000
 3540.00    0.60291   0.60244  238.588
 3541.00    0.60638   0.60120  240.253
 3542.00    0.60163   0.60178  244.650
 3543.00    0.56903   0.60594   -1.000
 3544.00    0.58250   0.60984   -1.000
 3545.00    0.59321   0.60932   -1.000
 3546.00    0.59367   0.60605  241.135
 3547.00    0.58166   0.60404   -1.000
 3548.00    0.57415   0.60384   -1.000
 3549.00    0.59459   0.60483  252.143
 3550.00    0.60844   0.60656  251.723
 3551.00    0.58605   0.60786   -1.000
 3552.00    0.58841   0.60526   -1.000
 3553.00    0.54917   0.59875   -1.000
 3554.00    0.57642   0.59429   -1.000
 3555.00    0.61825   0.59506   -1.000
 3556.00    0.58848   0.59955  270.932
 3557.00    0.59420   0.60582  264.979
 3558.00    0.60321   0.60898  265.575
 3559.00    0.59218   0.60882   -1.000
 3560.00    0.59639   0.60914   -1.000
 3561.00    0.58882   0.61118   -1.000
 3562.00    0.61253   0.60995  265.549
 3563.00    0.62046   0.60170   -1.000
 3564.00    0.59912   0.58966  264.591
 3565.00    0.58038   0.58031  276.924
 3566.00    0.56545   0.57733   33.689
 3567.00    0.56177   0.57743   31.785
 3568.00    0.55576   0.57793   31.569
 3569.00    0.54418   0.57342   31.375
 3570.00    0.54843   0.56410   32.333
 3571.00    0.54857   0.55651   32.977
 3572.00    0.54332   0.55661   32.088
 3573.00    0.56795   0.55961   30.687
 3574.00    0.58865   0.56342   -1.000
 3575.00    0.61267   0.56880   -1.000
 3576.00    0.61106   0.57308   -1.000
 3577.00    0.58809   0.57336   -1.000
 3578.00    0.57561   0.57046  276.924
 3579.00    0.56826   0.56416  276.924
 3580.00    0.51658   0.55839   34.973
 3581.00    0.51422   0.55440   33.939
 3582.00    0.52492   0.55199   35.886
 3583.00    0.54016   0.55182   36.284
 3584.00    0.56701   0.54993   36.440
 3585.00    0.53781   0.54402   37.288
 3586.00    0.53390   0.53762   38.494
 3587.00    0.53331   0.53607   39.108
 3588.00    0.55530   0.54303   37.361
 3589.00    0.59820   0.55804   35.375
 3590.00    0.56985   0.57265   33.650
 3591.00    0.57190   0.57938   30.758
 3592.00    0.57595   0.57894  148.288
 3593.00    0.56855   0.57894  271.874
 3594.00    0.57634   0.58335  270.393
 3595.00    0.58996   0.59102  266.296
 3596.00    0.58716   0.59781  258.159
 3597.00    0.57114   0.60209   -1.000
 3598.00    0.60796   0.60511  238.332
 3599.00    0.63784   0.60767   -1.000
 3600.00    0.60726   0.60661  227.998
 3601.00    0.57846   0.59944   -1.000
 3602.00    0.60751   0.59228   -1.000
 3603.00    0.60127   0.58726   -1.000
 3604.00    0.60053   0.58735   -1.000
 3605.00    0.60390   0.58862   -1.000
 3606.00    0.58661   0.58699  272.979
 3607.00    0.58800   0.58327  270.547
 3608.00    0.58841   0.58052  272.982
 3609.00    0.58660   0.58124  276.924
 3610.00    0.54711   0.58352   -1.000
 3611.00    0.55624   0.58656   -1.000
 3612.00    0.58707   0.59129  276.924
 3613.00    0.58909   0.59566  268.777
 3614.00    0.59988   0.60124  262.075
 3615.00    0.60746   0.60700  257.184
 3616.00    0.58701   0.60592   -1.000
 3617.00    0.59631   0.59816  247.807
 3618.00    0.57682   0.58947  267.047
 3619.00    0.57296   0.58703   -1.000
 3620.00    0.56636   0.59258   33.761
 3621.00    0.62575   0.60368   -1.000
 3622.00    0.63879   0.61374   -1.000
 3623.00    0.62782   0.61946  245.471
 3624.00    0.62838   0.62490  238.765
 3625.00    0.61770   0.63534   -1.000
 3626.00    0.60776   0.64809   -1.000
 3627.00    0.63248   0.65450   -1.000
 3628.00    0.65507   0.64658  214.107
 3629.00    0.62959   0.62823  217.302
 3630.00    0.59494   0.60852  229.681
 3631.00    0.56853   0.59896   -1.000
 3632.00    0.54765   0.60094   -1.000
 3633.00    0.55983   0.60965   -1.000
 3634.00    0.56991   0.61683   -1.000
 3635.00    0.58666   0.61592   -1.000
 3636.00    0.59613   0.61341   -1.000
 3637.00    0.63330   0.61898   -1.000
 3638.00    0.64227   0.62759   -1.000
 3639.00    0.61043   0.63354   -1.000
 3640.00    0.61165   0.63612   -1.000
 3641.00    0.62558   0.63405  219.179
 3642.00    0.64630   0.62770   -1.000
 3643.00    0.63892   0.61908   -1.000
 3644.00    0.60955   0.61138  243.559
 3645.00    0.60005   0.60651  251.388
 3646.00    0.60561   0.60289  256.018
 3647.00    0.61622   0.60147   -1.000
 3648.00    0.62459   0.60248   -1.000
 3649.00    0.62082   0.60523   -1.000
 3650.00    0.59712   0.60982  258.969
 3651.00    0.62501   0.61615  248.836
 3652.00    0.62200   0.62429  236.963
 3653.00    0.63432   0.63071  226.843
 3654.00    0.63221   0.63737  220.835
 3655.00    0.63351   0.64497  217.511
 3656.00    0.66040   0.65112  216.529
 3657.00    0.66435   0.65370  214.218
 3658.00    0.66236   0.65313  211.971
 3659.00    0.66555   0.65161  208.494
 3660.00    0.64117   0.64873  208.296
 3661.00    0.64091   0.64413  208.310
 3662.00    0.63699   0.63907  210.366
 3663.00    0.63241   0.63750  212.637
 3664.00    0.66232   0.63926   -1.000
 3665.00    0.66574   0.64166   -1.000
 3666.00    0.65035   0.64216  215.849
 3667.00    0.64077   0.63891  215.663
 3668.00    0.64769   0.63341   -1.000
 3669.00    0.62293   0.63029  222.415
 3670.00    0.60726   0.63211   -1.000
 3671.00    0.63594   0.63698  226.946
 3672.00    0.64718   0.64171  219.158
 3673.00    0.65204   0.64323  214.298
 3674.00    0.65431   0.64147  213.143
 3675.00    0.66356   0.63705   -1.000
 3676.00    0.66738   0.62994   -1.000
 3677.00    0.64295   0.62003   -1.000
 3678.00    0.61997   0.61260  226.217
 3679.00    0.60256   0.61142  233.101
 3680.00    0.63012   0.61498   -1.000
 3681.00    0.66348   0.62005   -1.000
 3682.00    0.63910   0.62383   -1.000
 3683.00    0.63796   0.62455   -1.000
 3684.00    0.63633   0.62222   -1.000
 3685.00    0.63002   0.61640   -1.000
 3686.00    0.60801   0.61060  237.883
 3687.00    0.60654   0.61173  247.693
 3688.00    0.60359   0.62210   -1.000
 3689.00    0.61939   0.63574   -1.000
 3690.00    0.63988   0.64298  231.724
 3691.00    0.66795   0.64449   -1.000
 3692.00    0.67722   0.64358   -1.000
 3693.00    0.66950   0.64211   -1.000
 3694.00    0.63200   0.64086  214.852
 3695.00    0.64684   0.63943  218.180
 3696.00    0.65145   0.63690  217.690
 3697.00    0.64228   0.63772  215.856
 3698.00    0.66711   0.64657   -1.000
 3699.00    0.69031   0.66057   -1.000
 3700.00    0.70103   0.67019   -1.000
 3701.00    0.70347   0.66184   -1.000
 3702.00    0.67602   0.63615   -1.000
 3703.00    0.64516   0.60450   -1.000
 3704.00    0.62156   0.58375   -1.000
 3705.00    0.62096   0.57952   -1.000
 3706.00    0.61394   0.58956   -1.000
 3707.00    0.63683   0.60283   -1.000
 3708.00    0.62601   0.61194   -1.000
 3709.00    0.62775   0.61069   -1.000
 3710.00    0.61481   0.60304  247.746
 3711.00    0.64189   0.59815   -1.000
 3712.00    0.64372   0.60390   -1.000
 3713.00    0.66330   0.62212   -1.000
 3714.00    0.68977   0.64524   -1.000
 3715.00    0.67105   0.66451  197.528
 3716.00    0.67471   0.67047  196.371
 3717.00    0.66362   0.66270  200.834
 3718.00    0.65406   0.64103   -1.000
 3719.00    0.62713   0.60397   -1.000
 3720.00    0.60450   0.56289   -1.000
 3721.00    0.57002   0.54374   -1.000
 3722.00    0.56283   0.55181   35.554
 3723.00    0.59417   0.58207  128.012
 3724.00    0.62124   0.61782  258.619
 3725.00    0.65823   0.64226   -1.000
 3726.00    0.69257   0.65214   -1.000
 3727.00    0.67883   0.65846   -1.000
 3728.00    0.68897   0.66323   -1.000
 3729.00    0.70683   0.66512   -1.000
 3730.00    0.71573   0.65786   -1.000
 3731.00    0.67347   0.63157   -1.000
 3732.00    0.60329   0.58796   -1.000
 3733.00    0.57769   0.54594   -1.000
 3734.00    0.56761   0.51864   34.979
 3735.00    0.55819   0.51872   33.302
 3736.00    0.54770   0.54565   34.971
 3737.00    0.55291   0.58727   33.641
 3738.00    0.60869   0.62782   30.663
 3739.00    0.64099   0.66390  120.850
 3740.00    0.67758   0.68446  243.931
 3741.00    0.71528   0.68861   -1.000
 3742.00    0.70176   0.67848   -1.000
 3743.00    0.69035   0.66322   -1.000
 3744.00    0.65483   0.64786   -1.000
 3745.00    0.66085   0.63303   -1.000
 3746.00    0.65312   0.61338   -1.000
 3747.00    0.60280   0.58475   -1.000
 3748.00    0.57147   0.55290   35.696
 3749.00    0.56127   0.52841   32.342
 3750.00    0.59577   0.52972   32.956
 3751.00    0.61569   0.55746   -1.000
 3752.00    0.65558   0.59855   -1.000
 3753.00    0.69635   0.63913   -1.000
 3754.00    0.68978   0.67049   -1.000
 3755.00    0.72867   0.68501   -1.000
 3756.00    0.74507   0.68352   -1.000
 3757.00    0.68362   0.67019   -1.000
 3758.00    0.68123   0.65834   -1.000
 3759.00    0.68702   0.65427   -1.000
 3760.00    0.66238   0.65785  267.808
 3761.00    0.67894   0.66785   -1.000
 3762.00    0.70986   0.67745   -1.000
 3763.00    0.70709   0.67902   -1.000
 3764.00    0.69038   0.67273   -1.000
 3765.00    0.68979   0.66080   -1.000
 3766.00    0.67321   0.64467   -1.000
 3767.00    0.66127   0.62311   -1.000
 3768.00    0.65093   0.59395   -1.000
 3769.00    0.61974   0.56527   -1.000
 3770.00    0.61047   0.55007   -1.000
 3771.00    0.62365   0.56036   -1.000
 3772.00    0.64150   0.59262   -1.000
 3773.00    0.65727   0.63093   -1.000
 3774.00    0.68407   0.65927   -1.000
 3775.00    0.70680   0.67646   -1.000
 3776.00    0.71316   0.68802   -1.000
 3777.00    0.70000   0.70065  209.023
 3778.00    0.72225   0.71572  208.450
 3779.00    0.75639   0.72981   -1.000
 3780.00    0.77977   0.74113   -1.000
 3781.00    0.77909   0.74667   -1.000
 3782.00    0.75431   0.74732  192.754
 3783.00    0.75710   0.74332   -1.000
 3784.00    0.75864   0.73695   -1.000
 3785.00    0.75768   0.72879   -1.000
 3786.00    0.73614   0.71881   -1.000
 3787.00    0.71791   0.70819   -1.000
 3788.00    0.72422   0.70041   -1.000
 3789.00    0.70863   0.69698   -1.000
 3790.00    0.71799   0.69458   -1.000
 3791.00    0.72125   0.69016   -1.000
 3792.00    0.68552   0.68020  231.058
 3793.00    0.66800   0.66181  233.727
 3794.00    0.65896   0.63477   -1.000
 3795.00    0.64278   0.59873   -1.000
 3796.00    0.61813   0.55964   -1.000
 3797.00    0.56938   0.52765   -1.000
 3798.00    0.58013   0.52087   -1.000
 3799.00    0.60093   0.54910   -1.000
 3800.00    0.63281   0.60123   -1.000
 3801.00    0.66364   0.64968   -1.000
 3802.00    0.70072   0.68487   -1.000
 3803.00    0.70385   0.70363  220.498
 3804.00    0.72652   0.71284   -1.000
 3805.00    0.71997   0.71563  213.165
 3806.00    0.69612   0.71593   -1.000
 3807.00    0.67794   0.72118   -1.000
 3808.00    0.71232   0.73227   -1.000
 3809.00    0.73829   0.74507  223.896
 3810.00    0.73037   0.75371   -1.000
 3811.00    0.74934   0.75096  212.196
 3812.00    0.73200   0.73741  215.354
 3813.00    0.71482   0.72239  225.869
 3814.00    0.72658   0.71160   -1.000
 3815.00    0.72459   0.70928   -1.000
 3816.00    0.71494   0.71303  266.355
 3817.00    0.69338   0.71548   -1.000
 3818.00    0.69778   0.70801  254.981
 3819.00    0.69440   0.69280  257.034
 3820.00    0.68528   0.68371  272.988
 3821.00    0.65795   0.68734   -1.000
 3822.00    0.66971   0.69874   -1.000
 3823.00    0.70286   0.70055  272.786
 3824.00    0.66340   0.69062   -1.000
 3825.00    0.63322   0.67870   -1.000
 3826.00    0.62971   0.66962   37.836
 3827.00    0.63456   0.66444   32.259
 3828.00    0.64163   0.65872   32.137
 3829.00    0.65523   0.64966   31.651
 3830.00    0.66665   0.63623   31.131
 3831.00    0.62769   0.61383   31.372
 3832.00    0.59856   0.58115   32.638
 3833.00    0.58613   0.53995   35.078
 3834.00    0.55452   0.50388   36.452
 3835.00    0.55302   0.49186   36.020
 3836.00    0.56968   0.50565   34.668
 3837.00    0.58500   0.53621   33.802
 3838.00    0.60779   0.57111   34.285
 3839.00    0.61988   0.60373   35.108
 3840.00    0.62845   0.63206   34.723
 3841.00    0.66886   0.66046   32.941
 3842.00    0.70507   0.68809  118.134
 3843.00    0.70824   0.71457  271.805
 3844.00    0.73289   0.73284  253.133
 3845.00    0.75366   0.74251   -1.000
 3846.00    0.75458   0.74797  245.857
 3847.00    0.75063   0.75177  245.755
 3848.00    0.76416   0.75222   -1.000
 3849.00    0.76776   0.74987   -1.000
 3850.00    0.74199   0.74936  260.507
 3851.00    0.73420   0.75698   -1.000
 3852.00    0.73943   0.76711   -1.000
 3853.00    0.75876   0.77125  254.259
 3854.00    0.76259   0.76631  254.564
 3855.00    0.75718   0.75710  260.342
 3856.00    0.74049   0.74769  267.916
 3857.00    0.73643   0.73933  272.545
 3858.00    0.72512   0.73451  276.924
 3859.00    0.69864   0.73629   36.222
 3860.00    0.68843   0.74388   31.562
 3861.00    0.73986   0.75516   31.322
 3862.00    0.77259   0.76294  110.331
 3863.00    0.78586   0.76420   -1.000
 3864.00    0.79107   0.76171   -1.000
 3865.00    0.78407   0.75984   -1.000
 3866.00    0.77693   0.76157   -1.000
 3867.00    0.76738   0.76585  249.449
 3868.00    0.77003   0.76844  254.135
 3869.00    0.76400   0.76474  263.411
 3870.00    0.73131   0.75500   -1.000
 3871.00    0.74214   0.74426  276.924
 3872.00    0.71894   0.73666   36.884
 3873.00    0.72947   0.73772  109.098
 3874.00    0.74881   0.74542  271.801
 3875.00    0.74761   0.75110  247.020
 3876.00    0.75207   0.74515  235.479
 3877.00    0.75173   0.73314   -1.000
 3878.00    0.70265   0.72401   -1.000
 3879.00    0.70468   0.72251   -1.000
 3880.00    0.71172   0.72603   -1.000
 3881.00    0.69652   0.72383   -1.000
 3882.00    0.68589   0.71499   -1.000
 3883.00    0.69845   0.70403  276.924
 3884.00    0.71342   0.68614   -1.000
 3885.00    0.68761   0.65319   -1.000
 3886.00    0.63741   0.60779   -1.000
 3887.00    0.61851   0.55886   -1.000
 3888.00    0.60387   0.52958   -1.000
 3889.00    0.60768   0.53449   -1.000
 3890.00    0.63609   0.57379   -1.000
 3891.00    0.68780   0.62805   -1.000
 3892.00    0.71825   0.67535   -1.000
 3893.00    0.73974   0.70213   -1.000
 3894.00    0.74053   0.71601   -1.000
 3895.00    0.73445   0.72852  207.942
 3896.00    0.74164   0.74142  208.394
 3897.00    0.75406   0.75367  203.534
 3898.00    0.77495   0.76174   -1.000
 3899.00    0.77652   0.76539   -1.000
 3900.00    0.77122   0.77061  202.954
 3901.00    0.78774   0.77720  201.089
 3902.00    0.78134   0.78066  199.018
 3903.00    0.77111   0.78020  200.254
 3904.00    0.78479   0.77690  207.676
 3905.00    0.76651   0.77535  213.483
 3906.00    0.75589   0.78033   -1.000
 3907.00    0.78839   0.79554  219.452
 3908.00    0.80784   0.81429  208.447
 3909.00    0.80988   0.82784   -1.000
 3910.00    0.81755   0.83365  188.431
 3911.00    0.82313   0.83719  186.265
 3912.00    0.81879   0.83810   -1.000
 3913.00    0.82981   0.83471  183.299
 3914.00    0.82530   0.82912  184.866
 3915.00    0.83095   0.82657  188.426
 3916.00    0.82192   0.82519  192.784
 3917.00    0.81510   0.82001  195.628
 3918.00    0.82809   0.81004   -1.000
 3919.00    0.81950   0.79893   -1.000
 3920.00    0.78352   0.79194  211.887
 3921.00    0.76547   0.78799   -1.000
 3922.00    0.78306   0.78707  227.668
 3923.00    0.79156   0.78755  226.838
 3924.00    0.78758   0.78877  222.995
 3925.00    0.76978   0.78584  223.623
 3926.00    0.74786   0.77277   -1.000
 3927.00    0.72188   0.75380   -1.000
 3928.00    0.68240   0.72908   -1.000
 3929.00    0.62880   0.70112   41.359
 3930.00    0.57419   0.66326   37.971
 3931.00    0.51712   0.60450   -1.000
 3932.00    0.47018   0.53564   52.462
 3933.00    0.42681   0.49009   61.532
 3934.00    0.42064   0.50580   -1.000
 3935.00    0.45064   0.56720   -1.000
 3936.00    0.50757   0.63573   -1.000
 3937.00    0.57283   0.69162   -1.000
 3938.00    0.63655   0.73691   -1.000
 3939.00    0.69006   0.76650   34.054
 3940.00    0.72245   0.78630   -1.000
 3941.00    0.75094   0.79708   -1.000
 3942.00    0.76351   0.79749   -1.000
 3943.00    0.75853   0.79471   -1.000
 3944.00    0.76195   0.79566   -1.000
 3945.00    0.80256   0.80164  246.905
 3946.00    0.81703   0.81178  226.078
 3947.00    0.81019   0.81852  211.469
 3948.00    0.81544   0.82072  207.213
 3949.00    0.83197   0.82206  205.607
 3950.00    0.81771   0.82267  199.217
 3951.00    0.81702   0.82165  192.505
 3952.00    0.79541   0.82182   -1.000
 3953.00    0.82510   0.82536  194.428
 3954.00    0.84331   0.82686   -1.000
 3955.00    0.83203   0.82186  187.666
 3956.00    0.79599   0.81296  188.331
 3957.00    0.79901   0.80615  194.297
 3958.00    0.82542   0.80404   -1.000
 3959.00    0.80868   0.79713  196.115
 3960.00    0.77707   0.77864  198.990
 3961.00    0.77933   0.75547   -1.000
 3962.00    0.74177   0.72993   -1.000
 3963.00    0.71805   0.70559   -1.000
 3964.00    0.66747   0.67496  276.924
 3965.00    0.60946   0.62554   39.469
 3966.00    0.52523   0.55548   35.700
 3967.00    0.44320   0.47019   43.530
 3968.00    0.39262   0.40844   53.380
 3969.00    0.38124   0.39846   60.427
 3970.00    0.42530   0.43805   58.230
 3971.00    0.49548   0.50603   49.083
 3972.00    0.57990   0.58286   40.333
 3973.00    0.64496   0.64771   33.630
 3974.00    0.68936   0.69963  102.290
 3975.00    0.73395   0.73862  253.596
 3976.00    0.76548   0.76848  227.597
 3977.00    0.77079   0.79242   -1.000
 3978.00    0.81787   0.81237  195.726
 3979.00    0.86406   0.82922   -1.000
 3980.00    0.85487   0.83774   -1.000
 3981.00    0.85585   0.84189  171.670
 3982.00    0.83371   0.84456  172.229
 3983.00    0.86736   0.84876   -1.000
 3984.00    0.88606   0.85764   -1.000
 3985.00    0.89925   0.86687   -1.000
 3986.00    0.90084   0.87255   -1.000
 3987.00    0.89552   0.88083  165.394
 3988.00    0.91846   0.89218   -1.000
 3989.00    0.91714   0.89589   -1.000
 3990.00    0.92662   0.89858   -1.000
 3991.00    0.94235   0.90368   -1.000
 3992.00    0.93741   0.91009   -1.000
 3993.00    0.95456   0.91425   -1.000
 3994.00    0.95114   0.91275   -1.000
 3995.00    0.92549   0.90542   -1.000
 3996.00    0.91270   0.89566   -1.000
 3997.00    0.88440   0.89195  163.864
 3998.00    0.90008   0.89730  165.613
 3999.00    0.92520   0.90825  162.927
 4000.00    0.94644   0.91728   -1.000
 4001.00    0.95485   0.92392   -1.000
 4002.00    0.94546   0.92533  147.486
 4003.00    0.95198   0.91942   -1.000
 4004.00    0.97308   0.90741   -1.000
 4005.00    0.96912   0.89880   -1.000
 4006.00    0.93580   0.90040   -1.000
 4007.00    0.93673   0.91202   -1.000
 4008.00    0.95573   0.92535   -1.000
 4009.00    0.97783   0.93265   -1.000
 4010.00    0.97563   0.93773   -1.000
 4011.00    0.96404   0.94342  145.873
 4012.00    0.96132   0.94736  145.155
 4013.00    0.96170   0.95103  145.881
 4014.00    0.96912   0.95451  146.743
 4015.00    0.98882   0.95753   -1.000
 4016.00    0.98187   0.96079  144.157
 4017.00    0.98194   0.96415  144.682
 4018.00    0.98564   0.96827  146.390
 4019.00    0.99614   0.97213   -1.000
 4020.00    1.00398   0.97260   -1.000
 4021.00    1.00146   0.96853   -1.000
 4022.00    0.98964   0.96184   -1.000
 4023.00    0.98018   0.95060   -1.000
 4024.00    0.97937   0.93747   -1.000
 4025.00    0.99563   0.93113   -1.000
 4026.00    1.00990   0.93934   -1.000
 4027.00    1.02045   0.95739   -1.000
 4028.00    1.02193   0.96916   -1.000
 4029.00    1.00456   0.96400   -1.000
 4030.00    0.97333   0.94696   -1.000
 4031.00    0.93700   0.92996  152.200
 4032.00    0.95072   0.92219   -1.000
 4033.00    0.97812   0.92449   -1.000
 4034.00    0.97015   0.93675   -1.000
 4035.00    0.98636   0.95836   -1.000
 4036.00    1.02678   0.98239   -1.000
 4037.00    1.04624   1.00056   -1.000
 4038.00    1.04053   1.00712   -1.000
 4039.00    1.02610   1.00353  135.168
 4040.00    1.00587   0.99724  137.321
 4041.00    1.00000   0.99327  140.562
 4042.00    1.02852   0.98441   -1.000
 4043.00    1.01552   0.96541   -1.000
 4044.00    0.98228   0.93918   -1.000
 4045.00    0.95558   0.91987   -1.000
 4046.00    0.94415   0.92335   -1.000
 4047.00    0.96763   0.94777   -1.000
 4048.00    0.98482   0.97760  157.628
 4049.00    1.02558   0.99829   -1.000
 4050.00    1.04351   1.00705   -1.000
 4051.00    1.03068   1.00964  139.387
 4052.00    1.04248   1.00619   -1.000
 4053.00    1.04045   0.99893   -1.000
 4054.00    1.01241   0.99308  146.793
 4055.00    1.00345   0.98878  149.424
 4056.00    1.02126   0.98560   -1.000
 4057.00    1.01825   0.98492   -1.000
 4058.00    1.01289   0.99013   -1.000
 4059.00    1.01558   0.99930  152.349
 4060.00    1.03565   1.00253   -1.000
 4061.00    1.05248   0.98965   -1.000
 4062.00    1.00086   0.96544   -1.000
 4063.00    0.95249   0.94569  154.136
 4064.00    0.96494   0.93197   -1.000
 4065.00    0.98474   0.93090   -1.000
 4066.00    0.99240   0.94696   -1.000
 4067.00    0.99477   0.96198   -1.000
 4068.00    1.02016   0.96738   -1.000
 4069.00    1.03851   0.96412   -1.000
 4070.00    1.02826   0.95236   -1.000
 4071.00    1.00214   0.93998   -1.000
 4072.00    1.00223   0.93855   -1.000
 4073.00    1.00369   0.94720   -1.000
 4074.00    0.99702   0.95461   -1.000
 4075.00    0.95661   0.94829  147.257
 4076.00    0.93247   0.93276  152.549
 4077.00    0.93896   0.92290  164.336
 4078.00    0.95116   0.92867   -1.000
 4079.00    0.96636   0.95068  168.315
 4080.00    1.00368   0.97552   -1.000
 4081.00    1.02358   0.99075   -1.000
 4082.00    1.02631   0.99058   -1.000
 4083.00    1.01641   0.98117   -1.000
 4084.00    0.97791   0.97183  146.456
 4085.00    0.96514   0.97169  149.396
 4086.00    0.99942   0.98156  148.200
 4087.00    1.03889   0.99551   -1.000
 4088.00    1.06997   1.00490   -1.000
 4089.00    1.06727   1.00489   -1.000
 4090.00    1.03849   0.99746   -1.000
 4091.00    1.03363   0.99003   -1.000
 4092.00    1.03756   0.98255   -1.000
 4093.00    1.02804   0.96988   -1.000
 4094.00    1.02458   0.95217   -1.000
 4095.00    0.99319   0.92706   -1.000
 4096.00    0.94852   0.89920   -1.000
 4097.00    0.93827   0.87091   -1.000
 4098.00    0.94849   0.83318   -1.000
 4099.00    0.89882   0.78144   -1.000
 4100.00    0.83785   0.72226   -1.000
 4101.00    0.79689   0.68216   -1.000
 4102.00    0.78365   0.68824   -1.000
 4103.00    0.82989   0.74347   -1.000
 4104.00    0.89082   0.81494   -1.000
 4105.00    0.94905   0.87531   -1.000
 4106.00    0.96918   0.91261   -1.000
 4107.00    0.99107   0.93382   -1.000
 4108.00    1.00441   0.94547   -1.000
 4109.00    0.98854   0.95119   -1.000
 4110.00    0.97652   0.95770  151.062
 4111.00    0.99528   0.96644   -1.000
 4112.00    1.01480   0.97769   -1.000
 4113.00    1.02462   0.99144   -1.000
 4114.00    1.03079   1.00580   -1.000
 4115.00    1.04113   1.01564   -1.000
 4116.00    1.04456   1.01592   -1.000
 4117.00    1.03973   1.00789   -1.000
 4118.00    1.01879   0.99696  145.457
 4119.00    1.00586   0.99046  149.974
 4120.00    1.02086   0.99199   -1.000
 4121.00    1.03452   0.99959   -1.000
 4122.00    1.04302   1.00894   -1.000
 4123.00    1.04705   1.01829   -1.000
 4124.00    1.04951   1.02761  148.424
 4125.00    1.07497   1.03396   -1.000
 4126.00    1.07928   1.03229   -1.000
 4127.00    1.04825   1.02546  146.361
 4128.00    1.04786   1.01911   -1.000
 4129.00    1.04490   1.01552   -1.000
 4130.00    1.03496   1.01010   -1.000
 4131.00    1.02562   1.00082   -1.000
 4132.00    1.01982   0.99268   -1.000
 4133.00    0.99521   0.99628  162.666
 4134.00    1.00781   1.01149  164.283
 4135.00    1.05783   1.03058   -1.000
 4136.00    1.08591   1.04710   -1.000
 4137.00    1.09109   1.05939   -1.000
 4138.00    1.10625   1.06739   -1.000
 4139.00    1.12231   1.07052   -1.000
 4140.00    1.10399   1.06284   -1.000
 4141.00    1.06706   1.04194   -1.000
 4142.00    1.03713   1.01442   -1.000
 4143.00    1.01237   0.99663  160.797
 4144.00    1.00626   0.99882  170.739
 4145.00    1.03668   1.01908  168.201
 4146.00    1.07742   1.04041   -1.000
 4147.00    1.08944   1.05043   -1.000
 4148.00    1.07213   1.05219  149.414
 4149.00    1.06432   1.05243  151.174
 4150.00    1.06184   1.05364  155.129
 4151.00    1.06917   1.05406  157.704
 4152.00    1.07255   1.05100   -1.000
 4153.00    1.05861   1.04719  156.316
 4154.00    1.05855   1.04474  157.179
 4155.00    1.04453   1.04648  159.520
 4156.00    1.04947   1.05365  157.191
 4157.00    1.06520   1.06398  155.129
 4158.00    1.23146   1.07525   -1.000
 4159.00    1.40240   1.08390   -1.000
 4160.00    1.10495   1.08883  151.010
 4161.00    0.86301   1.09307   -1.000
 4162.00    1.03473   1.09802   -1.000
 4163.00    1.14416   1.10121   -1.000
 4164.00    1.12784   1.10016   -1.000
 4165.00    1.10885   1.09408  146.911
 4166.00    1.09679   1.08415  149.185
 4167.00    1.10763   1.07751   -1.000
 4168.00    1.10855   1.07676   -1.000
 4169.00    1.10199   1.07892   -1.000
 4170.00    1.08902   1.07329  152.276
 4171.00    1.05718   1.05615  152.741
 4172.00    1.02047   1.03969  159.909
 4173.00    1.01707   1.03405  169.748
 4174.00    1.03354   1.04153  172.832
 4175.00    1.04947   1.05345  168.199
 4176.00    1.05475   1.06056  162.042
 4177.00    1.06320   1.06501  160.406
 4178.00    1.06902   1.07079  161.141
 4179.00    1.07374   1.07769  160.887
 4180.00    1.08941   1.08243  158.807
 4181.00    1.09034   1.08119  157.003
 4182.00    1.09363   1.08128  156.711
 4183.00    1.10734   1.08852  155.515
 4184.00    1.10922   1.09564  152.735
 4185.00    1.10989   1.09455  149.914
 4186.00    1.09494   1.08521  149.381
 4187.00    1.08771   1.07675  153.190
 4188.00    1.08736   1.07576  157.874
 4189.00    1.07202   1.07927  158.022
 4190.00    1.06990   1.08198  154.922
 4191.00    1.09117   1.08328  153.277
 4192.00    1.11909   1.08712   -1.000
 4193.00    1.12848   1.09381   -1.000
 4194.00    1.12751   1.09299   -1.000
 4195.00    1.11230   1.07886   -1.000
 4196.00    1.06859   1.05899  155.882
 4197.00    1.05395   1.03986  161.934
 4198.00    1.05569   1.02477   -1.000
 4199.00    1.05269   1.01696   -1.000
 4200.00    1.05826   1.01985   -1.000
 4201.00    1.05851   1.02913   -1.000
 4202.00    1.06278   1.04203  161.652
 4203.00    1.07898   1.05985  160.797
 4204.00    1.07408   1.07832  158.638
 4205.00    1.06639   1.09334   -1.000
 4206.00    1.08812   1.10436  154.583
 4207.00    1.11046   1.11220  150.903
 4208.00    1.13425   1.11511  147.731
 4209.00    1.14238   1.11377   -1.000
 4210.00    1.12542   1.11178  146.723
 4211.00    1.12544   1.11332  146.675
 4212.00    1.14468   1.11507   -1.000
 4213.00    1.14337   1.10724   -1.000
 4214.00    1.11359   1.09211   -1.000
 4215.00    1.08423   1.08136  156.335
 4216.00    1.08955   1.08316  161.482
 4217.00    1.10631   1.10034  158.578
 4218.00    1.12158   1.12016  149.538
 4219.00    1.15347   1.13233  142.089
 4220.00    1.16628   1.13600   -1.000
 4221.00    1.15426   1.13070  135.460
 4222.00    1.13853   1.11385   -1.000
 4223.00    1.11209   1.08297   -1.000
 4224.00    1.07240   1.04057   -1.000
 4225.00    1.00982   1.00297  162.869
 4226.00    0.96312   0.98476   -1.000
 4227.00    0.99316   0.99938  201.123
 4228.00    1.05115   1.04090  195.987
 4229.00    1.09802   1.08993  172.684
 4230.00    1.13552   1.11906  153.431
 4231.00    1.14603   1.12575  143.454
 4232.00    1.13988   1.11965  140.680
 4233.00    1.12641   1.10769  142.757
 4234.00    1.11333   1.09875  146.438
 4235.00    1.11031   1.09948  148.555
 4236.00    1.09065   1.10468  151.462
 4237.00    1.07741   1.11277   -1.000
 4238.00    1.10674   1.12302  154.393
 4239.00    1.13034   1.13283  151.373
 4240.00    1.13399   1.14404  148.813
 4241.00    1.13100   1.15741   -1.000
 4242.00    1.14428   1.17041   -1.000
 4243.00    1.16073   1.17973   -1.000
 4244.00    1.15902   1.18275   -1.000
 4245.00    1.16118   1.17748  138.165
 4246.00    1.15026   1.16064  138.392
 4247.00    1.12011   1.13880  143.477
 4248.00    1.09502   1.12062   -1.000
 4249.00    1.06962   1.11091   -1.000
 4250.00    1.07081   1.11239   -1.000
 4251.00    1.10928   1.12220  156.002
 4252.00    1.13901   1.13072  152.640
 4253.00    1.13779   1.13156  148.239
 4254.00    1.13300   1.12878  147.685
 4255.00    1.11909   1.13514  150.922
 4256.00    1.12496   1.14956   -1.000
 4257.00    1.14414   1.15587  145.755
 4258.00    1.13647   1.14449  143.246
 4259.00    1.11850   1.12592  146.927
 4260.00    1.09396   1.11973   -1.000
 4261.00    1.09576   1.13374   -1.000
 4262.00    1.13392   1.16072   -1.000
 4263.00    1.15966   1.18675   -1.000
 4264.00    1.17721   1.20030   -1.000
 4265.00    1.18742   1.20005  135.866
 4266.00    1.18022   1.19281  134.784
 4267.00    1.17776   1.18088  136.318
 4268.00    1.17212   1.16242  140.249
 4269.00    1.15603   1.13856  144.668
 4270.00    1.11701   1.11262  149.901
 4271.00    1.06422   1.09289   -1.000
 4272.00    1.05343   1.08636   -1.000
 4273.00    1.07123   1.09274   -1.000
 4274.00    1.06750   1.10838   -1.000
 4275.00    1.07731   1.13176   -1.000
 4276.00    1.12689   1.16268   -1.000
 4277.00    1.16444   1.18867   -1.000
 4278.00    1.19485   1.19700  142.357
 4279.00    1.15836   1.18938   -1.000
 4280.00    1.10884   1.17591   -1.000
 4281.00    1.09455   1.16996   -1.000
 4282.00    1.13143   1.17140   -1.000
 4283.00    1.15913   1.17400  150.828
 4284.00    1.13410   1.17511   -1.000
 4285.00    1.11601   1.17122   -1.000
 4286.00    1.11246   1.16169   -1.000
 4287.00    1.09026   1.14638   -1.000
 4288.00    1.07103   1.12579   -1.000
 4289.00    1.04980   1.10583   -1.000
 4290.00    1.04224   1.09951   -1.000
 4291.00    1.05025   1.11293   -1.000
 4292.00    1.08866   1.13361   -1.000
 4293.00    1.11292   1.14485   -1.000
 4294.00    1.10488   1.14324   -1.000
 4295.00    1.10057   1.13805   -1.000
 4296.00    1.09964   1.12921   -1.000
 4297.00    1.06558   1.10968   -1.000
 4298.00    1.02902   1.08389   -1.000
 4299.00    0.98787   1.05922   -1.000
 4300.00    0.96570   1.04503   -1.000
 4301.00    0.97903   1.04493   -1.000
 4302.00    0.99190   1.05294   -1.000
 4303.00    0.99517   1.06296   -1.000
 4304.00    1.00700   1.07144   -1.000
 4305.00    1.02195   1.06996   -1.000
 4306.00    0.99967   1.05689   -1.000
 4307.00    0.96439   1.04121   -1.000
 4308.00    0.95672   1.03605   -1.000
 4309.00    0.95963   1.04695   -1.000
 4310.00    0.97750   1.06707   -1.000
 4311.00    0.99981   1.08930   -1.000
 4312.00    1.03214   1.10999   -1.000
 4313.00    1.05502   1.13256   -1.000
 4314.00    1.08792   1.16465   -1.000
 4315.00    1.15166   1.20433   -1.000
 4316.00    1.22651   1.24375   -1.000
 4317.00    1.26590   1.26750  134.384
 4318.00    1.24232   1.27062   -1.000
 4319.00    1.24574   1.26231  126.863
 4320.00    1.23265   1.25069  128.338
 4321.00    1.21643   1.23284  131.024
 4322.00    1.19097   1.20548  135.055
 4323.00    1.13622   1.16976   -1.000
 4324.00    1.08528   1.13478   -1.000
 4325.00    1.07768   1.12288   -1.000
 4326.00    1.10388   1.14501   -1.000
 4327.00    1.16518   1.18749   -1.000
 4328.00    1.22596   1.22484  150.427
 4329.00    1.24758   1.24236  138.063
 4330.00    1.23615   1.24207  133.357
 4331.00    1.24522   1.23897  133.126
 4332.00    1.24221   1.23963  132.829
 4333.00    1.22704   1.23597  130.930
 4334.00    1.22630   1.22007  129.278
 4335.00    1.20900   1.18451  128.710
 4336.00    1.16647   1.12512   -1.000
 4337.00    1.10234   1.04248   -1.000
 4338.00    1.03579   0.95122   -1.000
 4339.00    0.94507   0.88476   -1.000
 4340.00    0.88834   0.86750  176.999
 4341.00    0.95084   0.91188   -1.000
 4342.00    1.07641   0.99761   -1.000
 4343.00    1.14024   1.08531   -1.000
 4344.00    1.16803   1.14431  147.729
 4345.00    1.19844   1.18421  141.875
 4346.00    1.21074   1.21454  137.909
 4347.00    1.22669   1.23889  135.160
 4348.00    1.24386   1.25245  133.509
 4349.00    1.26159   1.24506  131.556
 4350.00    1.24081   1.22156  131.143
 4351.00    1.18287   1.20012  136.344
 4352.00    1.15458   1.19620   -1.000
 4353.00    1.18876   1.21570   -1.000
 4354.00    1.24907   1.24646  146.860
 4355.00    1.27190   1.27236  140.229
 4356.00    1.26749   1.28555  135.295
 4357.00    1.27992   1.28938  132.117
 4358.00    1.28055   1.28835  131.352
 4359.00    1.26740   1.28922   -1.000
 4360.00    1.25696   1.29716   -1.000
 4361.00    1.25794   1.30876   -1.000
 4362.00    1.29815   1.31970   -1.000
 4363.00    1.34082   1.32853  128.171
 4364.00    1.34255   1.33404  127.435
 4365.00    1.32505   1.33288  126.286
 4366.00    1.29589   1.32131   -1.000
 4367.00    1.27402   1.30426   -1.000
 4368.00    1.27388   1.29359  133.042
 4369.00    1.28085   1.29022  135.580
 4370.00    1.28075   1.28732  135.024
 4371.00    1.28891   1.28047  133.981
 4372.00    1.27923   1.26770  133.660
 4373.00    1.24008   1.25035  134.566
 4374.00    1.22482   1.23402  138.816
 4375.00    1.21859   1.23234  144.509
 4376.00    1.22791   1.25102   -1.000
 4377.00    1.28015   1.27892  141.988
 4378.00    1.30926   1.29653  135.095
 4379.00    1.31703   1.29455  131.341
 4380.00    1.32809   1.27448   -1.000
 4381.00    1.31121   1.23752   -1.000
 4382.00    1.25390   1.19061   -1.000
 4383.00    1.17000   1.15715  150.863
 4384.00    1.13350   1.15389   -1.000
 4385.00    1.17292   1.18126  175.359
 4386.00    1.23700   1.21676  164.046
 4387.00    1.27022   1.23964   -1.000
 4388.00    1.26973   1.24958  140.697
 4389.00    1.27016   1.25559  139.520
 4390.00    1.27196   1.26239  140.695
 4391.00    1.27912   1.27110  141.513
 4392.00    1.29838   1.27947  139.719
 4393.00    1.30225   1.28164  136.630
 4394.00    1.28558   1.27935  136.296
 4395.00    1.27892   1.28571  138.770
 4396.00    1.29714   1.30363  139.427
 4397.00    1.30477   1.31917  134.710
 4398.00    1.31456   1.31873  129.976
 4399.00    1.30244   1.30621  130.087
 4400.00    1.28364   1.29456  134.100
 4401.00    1.29256   1.28708  138.482
 4402.00    1.31963   1.27883   -1.000
 4403.00    1.32043   1.26332   -1.000
 4404.00    1.27928   1.24502   -1.000
 4405.00    1.25322   1.24134  145.990
 4406.00    1.26138   1.25435  149.610
 4407.00    1.25420   1.27403   -1.000
 4408.00    1.25194   1.29392   -1.000
 4409.00    1.27836   1.31948   -1.000
 4410.00    1.32796   1.34818   -1.000
 4411.00    1.35956   1.36576  131.777
 4412.00    1.35273   1.36111  126.930
 4413.00    1.36374   1.33781  124.575
 4414.00    1.34773   1.30522   -1.000
 4415.00    1.30335   1.28281  132.633
 4416.00    1.27897   1.28683  138.475
 4417.00    1.29168   1.31378   -1.000
 4418.00    1.32897   1.34704   -1.000
 4419.00    1.36329   1.36899  130.232
 4420.00    1.35705   1.37354  125.993
 4421.00    1.33151   1.36275   -1.000
 4422.00    1.32272   1.34953   -1.000
 4423.00    1.31476   1.34293   -1.000
 4424.00    1.30850   1.34182   -1.000
 4425.00    1.31392   1.34005   -1.000
 4426.00    1.29844   1.33847   -1.000
 4427.00    1.27337   1.34180   -1.000
 4428.00    1.27691   1.34961   -1.000
 4429.00    1.28973   1.35672   -1.000
 4430.00    1.29618   1.36166   -1.000
 4431.00    1.31934   1.36513   -1.000
 4432.00    1.33205   1.36277   -1.000
 4433.00    1.31508   1.34911   -1.000
 4434.00    1.29344   1.33025   -1.000
 4435.00    1.28311   1.32382   -1.000
 4436.00    1.30407   1.34457   -1.000
 4437.00    1.35983   1.38302   -1.000
 4438.00    1.40605   1.41579  129.736
 4439.00    1.42469   1.42278  123.409
 4440.00    1.40855   1.40445  121.547
 4441.00    1.35547   1.37690  124.136
 4442.00    1.32135   1.35845   -1.000
 4443.00    1.30871   1.36334   -1.000
 4444.00    1.32492   1.38800   -1.000
 4445.00    1.37211   1.41732   -1.000
 4446.00    1.38994   1.43426   -1.000
 4447.00    1.41097   1.43760   -1.000
 4448.00    1.42259   1.43809  124.294
 4449.00    1.40420   1.44026   -1.000
 4450.00    1.40066   1.44139   -1.000
 4451.00    1.40916   1.43814   -1.000
 4452.00    1.41030   1.42670  126.618
 4453.00    1.40245   1.40359  126.820
 4454.00    1.36068   1.37615  130.279
 4455.00    1.32236   1.36002   -1.000
 4456.00    1.34526   1.36465   -1.000
 4457.00    1.37585   1.37928  139.294
 4458.00    1.37413   1.38726  136.728
 4459.00    1.36844   1.38822   -1.000
 4460.00    1.36472   1.38701   -1.000
 4461.00    1.35707   1.39141   -1.000
 4462.00    1.37659   1.40588   -1.000
 4463.00    1.40831   1.42475  137.626
 4464.00    1.42832   1.43810  132.969
 4465.00    1.43307   1.43992  129.083
 4466.00    1.42811   1.43169  127.995
 4467.00    1.42059   1.41962  128.060
 4468.00    1.39296   1.40897  129.065
 4469.00    1.37880   1.40323   -1.000
 4470.00    1.40054   1.41013  132.668
 4471.00    1.43180   1.43141  131.649
 4472.00    1.45425   1.45773  128.193
 4473.00    1.48616   1.47916  123.831
 4474.00    1.53132   1.49120   -1.000
 4475.00    1.53628   1.49667   -1.000
 4476.00    1.51808   1.50160  118.267
 4477.00    1.51699   1.50645  117.679
 4478.00    1.51957   1.49789  116.842
 4479.00    1.51349   1.46969   -1.000
 4480.00    1.49224   1.43788   -1.000
 4481.00    1.45711   1.42442   -1.000
 4482.00    1.44525   1.43802  130.160
 4483.00    1.48119   1.47089  130.379
 4484.00    1.50983   1.50838  126.078
 4485.00    1.52294   1.53232  121.029
 4486.00    1.54483   1.53588  117.787
 4487.00    1.54162   1.52135  117.089
 4488.00    1.50806   1.49966  118.967
 4489.00    1.48011   1.48504  122.973
 4490.00    1.47872   1.48820  126.522
 4491.00    1.50901   1.50239  126.556
 4492.00    1.52107   1.50891  123.731
 4493.00    1.51130   1.49974  121.256
 4494.00    1.49319   1.48536  121.810
 4495.00    1.45988   1.48156   -1.000
 4496.00    1.46354   1.49112   -1.000
 4497.00    1.48628   1.50657   -1.000
 4498.00    1.49458   1.51706   -1.000
 4499.00    1.50720   1.51557  120.775
 4500.00    1.52979   1.50785  118.825
 4501.00    1.50967   1.50861  119.378
 4502.00    1.49373   1.52665   -1.000
 4503.00    1.52674   1.55616   -1.000
 4504.00    1.56193   1.57839  114.675
 4505.00    1.58990   1.58648  111.963
 4506.00    1.58063   1.58059  111.814
 4507.00    1.56059   1.57214  113.643
 4508.00    1.56446   1.56969  115.228
 4509.00    1.57471   1.57202  115.648
 4510.00    1.58688   1.57559  115.075
 4511.00    1.60444   1.57337   -1.000
 4512.00    1.59055   1.56446  114.572
 4513.00    1.57078   1.55504  116.436
 4514.00    1.55885   1.55046  118.636
 4515.00    1.54830   1.55148  119.854
 4516.00    1.54927   1.55288  119.694
 4517.00    1.54398   1.55108  119.395
 4518.00    1.53344   1.54796  120.324
 4519.00    1.54934   1.55125  121.341
 4520.00    1.55258   1.56149  120.225
 4521.00    1.55312   1.56739  117.893
 4522.00    1.54403   1.56169  117.291
 4523.00    1.53027   1.54713  119.279
 4524.00    1.51016   1.53378   -1.000
 4525.00    1.50040   1.52174   -1.000
 4526.00    1.50767   1.50430  125.129
 4527.00    1.50333   1.48333  128.375
 4528.00    1.48361   1.46674  132.167
 4529.00    1.47351   1.46306  134.514
 4530.00    1.48399   1.47331  134.402
 4531.00    1.49107   1.48698  132.462
 4532.00    1.49532   1.49025  130.040
 4533.00    1.48257   1.47928  128.779
 4534.00    1.46258   1.46718  130.892
 4535.00    1.46697   1.47114  135.184
 4536.00    1.49657   1.49802  135.710
 4537.00    1.55285   1.53792  129.877
 4538.00    1.59847   1.56847  122.171
 4539.00    1.60041   1.57462  117.481
 4540.00    1.57738   1.56181  117.147
 4541.00    1.56990   1.54964  119.470
 4542.00    1.58341   1.54936   -1.000
 4543.00    1.58161   1.55704  119.796
 4544.00    1.55185   1.56268  119.177
 4545.00    1.51074   1.56230   -1.000
 4546.00    1.57434   1.56106   74.545
 4547.00    1.12659   1.55785   -1.000
 4548.00    0.28176   1.54798   -1.000
 4549.00   -0.05487   1.53865    0.000
 4550.00    0.46065   1.54296   -1.000
 4551.00    0.81222   1.55823   -1.000
 4552.00    0.69036   1.56521   -1.000
 4553.00    1.19781   1.55674   -1.000
 4554.00    1.53141   1.54462  126.045
 4555.00    1.50231   1.54588   -1.000
 4556.00    1.55504   1.56777  126.728
 4557.00    1.59872   1.60202  123.002
 4558.00    1.62399   1.63048  118.144
 4559.00    1.64378   1.64520  115.076
 4560.00    1.64000   1.65215  114.792
 4561.00    1.61725   1.64892   -1.000
 4562.00    1.59754   1.63537   -1.000
 4563.00    1.58268   1.61708   -1.000
 4564.00    1.56641   1.60510   -1.000
 4565.00    1.56705   1.60816   -1.000
 4566.00    1.59158   1.62426   -1.000
 4567.00    1.62856   1.64474  119.411
 4568.00    1.65276   1.65846  116.255
 4569.00    1.65304   1.65398  114.377
 4570.00    1.61735   1.63566  114.777
 4571.00    1.56830   1.61603   -1.000
 4572.00    1.54945   1.61344   -1.000
 4573.00    1.58780   1.63132   -1.000
 4574.00    1.62964   1.65150   -1.000
 4575.00    1.62986   1.66005   -1.000
 4576.00    1.63214   1.65770   -1.000
 4577.00    1.63850   1.65127  115.537
 4578.00    1.61610   1.63875   -1.000
 4579.00    1.58579   1.61867   -1.000
 4580.00    1.57226   1.60065   -1.000
 4581.00    1.56325   1.59539   -1.000
 4582.00    1.57320   1.60023   -1.000
 4583.00    1.57942   1.60790   -1.000
 4584.00    1.58230   1.61167   -1.000
 4585.00    1.59450   1.61391  121.693
 4586.00    1.61677   1.62049  122.338
 4587.00    1.63662   1.63470  121.583
 4588.00    1.64642   1.65219  118.893
 4589.00    1.63731   1.66240   -1.000
 4590.00    1.62668   1.66289   -1.000
 4591.00    1.62034   1.65468   -1.000
 4592.00    1.62116   1.64210  118.138
 4593.00    1.61486   1.63558  120.276
 4594.00    1.61546   1.63641   -1.000
 4595.00    1.62288   1.64232  120.507
 4596.00    1.62429   1.65111   -1.000
 4597.00    1.63193   1.65878   -1.000
 4598.00    1.64379   1.66173  118.688
 4599.00    1.63912   1.65994  118.429
 4600.00    1.63115   1.65329  118.967
 4601.00    1.61390   1.64753   -1.000
 4602.00    1.60849   1.64765   -1.000
 4603.00    1.62719   1.65005   -1.000
 4604.00    1.64752   1.65150  118.648
 4605.00    1.66101   1.65451  118.252
 4606.00    1.66483   1.66364  118.244
 4607.00    1.67414   1.67944  117.364
 4608.00    1.69548   1.70113  115.414
 4609.00    1.71511   1.72139  112.987
 4610.00    1.71473   1.72694  111.231
 4611.00    1.70083   1.72077  111.051
 4612.00    1.68083   1.71085   -1.000
 4613.00    1.67028   1.70605   -1.000
 4614.00    1.67916   1.70976   -1.000
 4615.00    1.69035   1.71799   -1.000
 4616.00    1.70208   1.72386  113.599
 4617.00    1.69852   1.72529   -1.000
 4618.00    1.67643   1.72485   -1.000
 4619.00    1.68762   1.72569   -1.000
 4620.00    1.71407   1.73076  114.322
 4621.00    1.71479   1.73893   -1.000
 4622.00    1.72266   1.74549  112.033
 4623.00    1.72569   1.74588  111.296
 4624.00    1.71968   1.74116  111.498
 4625.00    1.71556   1.73458  111.748
 4626.00    1.70840   1.72858  112.458
 4627.00    1.70125   1.72711   -1.000
 4628.00    1.70323   1.72830   -1.000
 4629.00    1.71244   1.72929  113.519
 4630.00    1.71830   1.73238  113.978
 4631.00    1.72330   1.73907  113.713
 4632.00    1.71613   1.74411   -1.000
 4633.00    1.68063   1.74237   -1.000
 4634.00    1.69130   1.73578   -1.000
 4635.00    1.70350   1.73094   -1.000
 4636.00    1.70567   1.72641  115.553
 4637.00    1.71143   1.71874  116.042
 4638.00    1.71739   1.70987  117.376
 4639.00    1.72134   1.70592  118.301
 4640.00    1.71981   1.71302  118.364
 4641.00    1.72652   1.72803  117.061
 4642.00    1.74845   1.74235  114.489
 4643.00    1.75637   1.74669  112.407
 4644.00    1.74531   1.73530  112.098
 4645.00    1.72863   1.71409  113.586
 4646.00    1.70103   1.68808  116.400
 4647.00    1.68738   1.67463  119.683
 4648.00    1.69429   1.68329  121.315
 4649.00    1.70162   1.70709  120.147
 4650.00    1.71942   1.73310  117.535
 4651.00    1.73551   1.75107  115.455
 4652.00    1.72234   1.75727   -1.000
 4653.00    1.69516   1.75371   -1.000
 4654.00    1.69096   1.74461   -1.000
 4655.00    1.68292   1.73856   -1.000
 4656.00    1.68595   1.74248   -1.000
 4657.00    1.71870   1.75977   -1.000
 4658.00    1.75694   1.79047   -1.000
 4659.00    1.78259   1.82201   -1.000
 4660.00    1.80391   1.83713   -1.000
 4661.00    1.79138   1.82807   -1.000
 4662.00    1.75705   1.80916   -1.000
 4663.00    1.74535   1.79049   -1.000
 4664.00    1.75233   1.77261  113.472
 4665.00    1.74927   1.75283  114.518
 4666.00    1.72396   1.72640  115.690
 4667.00    1.68859   1.69976  119.450
 4668.00    1.65572   1.69131   -1.000
 4669.00    1.65304   1.70727   -1.000
 4670.00    1.70158   1.73733   -1.000
 4671.00    1.75349   1.76484  119.589
 4672.00    1.76854   1.77828  115.606
 4673.00    1.76353   1.77845  113.975
 4674.00    1.76228   1.78068  113.815
 4675.00    1.78495   1.78871  113.799
 4676.00    1.80992   1.79874  112.860
 4677.00    1.79330   1.80055  111.215
 4678.00    1.76815   1.78853  110.853
 4679.00    1.75782   1.77109  112.565
 4680.00    1.73461   1.75527  114.937
 4681.00    1.72184   1.74614   -1.000
 4682.00    1.72553   1.74721   -1.000
 4683.00    1.76012   1.75657  118.006
 4684.00    1.81206   1.76501   -1.000
 4685.00    1.80826   1.76627   -1.000
 4686.00    1.79451   1.76453  113.088
 4687.00    1.80373   1.76531   -1.000
 4688.00    1.80761   1.77279   -1.000
 4689.00    1.78979   1.78363  114.002
 4690.00    1.77815   1.78990  113.992
 4691.00    1.78730   1.79011  114.481
 4692.00    1.79568   1.79247  114.986
 4693.00    1.80079   1.80089  114.261
 4694.00    1.82423   1.81104  112.655
 4695.00    1.85195   1.81936   -1.000
 4696.00    1.84414   1.82160  108.606
 4697.00    1.82066   1.81204  108.373
 4698.00    1.79717   1.79324  110.468
 4699.00    1.77444   1.77611  113.826
 4700.00    1.77886   1.76890  116.042
 4701.00    1.79413   1.76480   -1.000
 4702.00    1.77615   1.75906  116.048
 4703.00    1.76816   1.75745  117.664
 4704.00    1.77133   1.76701  118.928
 4705.00    1.77489   1.78103  117.812
 4706.00    1.76997   1.78633  115.790
 4707.00    1.75602   1.77851  116.023
 4708.00    1.74234   1.76795   -1.000
 4709.00    1.74677   1.76894  119.834
 4710.00    1.77725   1.78260  119.915
 4711.00    1.79499   1.79802  117.527
 4712.00    1.80685   1.80400  114.127
 4713.00    1.81920   1.79953  112.169
 4714.00    1.80515   1.79324  112.377
 4715.00    1.78442   1.79719  114.124
 4716.00    1.80554   1.81484  115.068
 4717.00    1.84080   1.83850  113.671
 4718.00    1.84708   1.85708  111.394
 4719.00    1.84728   1.86849  110.098
 4720.00    1.84050   1.87520   -1.000
 4721.00    1.82256   1.87607   -1.000
 4722.00    1.81203   1.87291   -1.000
 4723.00    1.81084   1.87325   -1.000
 4724.00    1.82459   1.87930   -1.000
 4725.00    1.83430   1.88050   -1.000
 4726.00    1.82293   1.86859   -1.000
 4727.00    1.79912   1.84073   -1.000
 4728.00    1.77258   1.81073   -1.000
 4729.00    1.76676   1.79680   -1.000
 4730.00    1.78735   1.79665  118.498
 4731.00    1.80768   1.80798  117.529
 4732.00    1.82532   1.82648  116.467
 4733.00    1.83479   1.84308  115.276
 4734.00    1.81950   1.85214   -1.000
 4735.00    1.81398   1.85335   -1.000
 4736.00    1.81812   1.85066   -1.000
 4737.00    1.80804   1.85213   -1.000
 4738.00    1.82432   1.85910   -1.000
 4739.00    1.85375   1.86783  112.948
 4740.00    1.84912   1.87046  112.303
 4741.00    1.83908   1.86690   -1.000
 4742.00    1.85377   1.86742  113.128
 4743.00    1.86794   1.87389  112.656
 4744.00    1.85750   1.88135  111.534
 4745.00    1.86145   1.88818   -1.000
 4746.00    1.87507   1.89594  111.324
 4747.00    1.87264   1.90816   -1.000
 4748.00    1.87809   1.91919   -1.000
 4749.00    1.87274   1.92659   -1.000
 4750.00    1.87355   1.93165   -1.000
 4751.00    1.88761   1.93118   -1.000
 4752.00    1.87460   1.92362   -1.000
 4753.00    1.85279   1.91211   -1.000
 4754.00    1.85409   1.90261   -1.000
 4755.00    1.85457   1.90076   -1.000
 4756.00    1.83938   1.90394   -1.000
 4757.00    1.82851   1.90879   -1.000
 4758.00    1.83025   1.91240   -1.000
 4759.00    1.83318   1.91376   -1.000
 4760.00    1.83435   1.91136   -1.000
 4761.00    1.82133   1.90207   -1.000
 4762.00    1.80396   1.88610   -1.000
 4763.00    1.78863   1.86765   -1.000
 4764.00    1.77894   1.85450   -1.000
 4765.00    1.79663   1.85102   -1.000
 4766.00    1.81553   1.85551   -1.000
 4767.00    1.84146   1.86853   -1.000
 4768.00    1.87606   1.89073  117.551
 4769.00    1.89504   1.91484  115.306
 4770.00    1.89439   1.92632   -1.000
 4771.00    1.88426   1.92302   -1.000
 4772.00    1.86401   1.91444   -1.000
 4773.00    1.86100   1.91810   -1.000
 4774.00    1.89537   1.93506   -1.000
 4775.00    1.92936   1.95006  112.031
 4776.00    1.91879   1.95623   -1.000
 4777.00    1.88244   1.95556   -1.000
 4778.00    1.86972   1.95188   -1.000
 4779.00    1.86409   1.94591   -1.000
 4780.00    1.85514   1.93893   -1.000
 4781.00    1.86091   1.93269   -1.000
 4782.00    1.87248   1.92583   -1.000
 4783.00    1.87654   1.91681   -1.000
 4784.00    1.88002   1.91193   -1.000
 4785.00    1.88487   1.91254   -1.000
 4786.00    1.88027   1.91467   -1.000
 4787.00    1.87048   1.91694   -1.000
 4788.00    1.85664   1.92057   -1.000
 4789.00    1.85260   1.92544   -1.000
 4790.00    1.87591   1.93426   -1.000
 4791.00    1.89827   1.95038   -1.000
 4792.00    1.91346   1.97249   -1.000
 4793.00    1.93384   1.99640   -1.000
 4794.00    1.94550   2.01772   -1.000
 4795.00    1.95350   2.02993   -1.000
 4796.00    1.94766   2.02786   -1.000
 4797.00    1.92114   2.01279   -1.000
 4798.00    1.89866   1.99210   -1.000
 4799.00    1.88086   1.97933   -1.000
 4800.00    1.88219   1.98244   -1.000
 4801.00    1.91677   2.00064   -1.000
 4802.00    1.95195   2.02301   -1.000
 4803.00    1.94303   2.03268   -1.000
 4804.00    1.92328   2.01927   -1.000
 4805.00    1.92607   2.00057   -1.000
 4806.00    1.92450   1.98852   -1.000
 4807.00    1.91581   1.98370   -1.000
 4808.00    1.92275   1.98702   -1.000
 4809.00    1.94014   1.99753   -1.000
 4810.00    1.93871   2.00709   -1.000
 4811.00    1.94665   2.01286   -1.000
 4812.00    1.96143   2.01776   -1.000
 4813.00    1.95815   2.02299   -1.000
 4814.00    1.95530   2.03049   -1.000
 4815.00    1.95086   2.03915   -1.000
 4816.00    1.95157   2.04804   -1.000
 4817.00    1.96659   2.05685   -1.000
 4818.00    1.97711   2.06362   -1.000
 4819.00    1.96534   2.06739   -1.000
 4820.00    1.96629   2.06652   -1.000
 4821.00    1.99010   2.05575   -1.000
 4822.00    1.98010   2.03348   -1.000
 4823.00    1.93261   2.00719   -1.000
 4824.00    1.89960   1.99296   -1.000
 4825.00    1.91192   1.99991   -1.000
 4826.00    1.94164   2.01851   -1.000
 4827.00    1.94195   2.03043   -1.000
 4828.00    1.93025   2.02667   -1.000
 4829.00    1.93622   2.01845   -1.000
 4830.00    1.93927   2.01377   -1.000
 4831.00    1.93548   2.00893   -1.000
 4832.00    1.93726   2.00459   -1.000
 4833.00    1.93965   2.00925   -1.000
 4834.00    1.95159   2.02179   -1.000
 4835.00    1.97250   2.03557   -1.000
 4836.00    1.98080   2.04301   -1.000
 4837.00    1.98463   2.04391   -1.000
 4838.00    1.98636   2.03833   -1.000
 4839.00    1.95910   2.02869   -1.000
 4840.00    1.92723   2.02263   -1.000
 4841.00    1.92415   2.02160   -1.000
 4842.00    1.93244   2.01973   -1.000
 4843.00    1.95484   2.01630   -1.000
 4844.00    1.97944   2.01866   -1.000
 4845.00    1.97970   2.03099   -1.000
 4846.00    1.98159   2.04317   -1.000
 4847.00    1.97707   2.04103   -1.000
 4848.00    1.94415   2.02819   -1.000
 4849.00    1.92680   2.01919   -1.000
 4850.00    1.94037   2.01893   -1.000
 4851.00    1.95181   2.01854   -1.000
 4852.00    1.96307   2.01245   -1.000
 4853.00    1.95798   1.99419   -1.000
 4854.00    1.92301   1.96110   -1.000
 4855.00    1.88467   1.92184   -1.000
 4856.00    1.87260   1.89257  117.988
 4857.00    1.87355   1.86911  119.423
 4858.00    1.82411   1.81860  118.559
 4859.00    1.66781   1.70984   -1.000
 4860.00    1.47841   1.55788   -1.000
 4861.00    1.39737   1.44926   -1.000
 4862.00    1.48224   1.45907   -1.000
 4863.00    1.66678   1.57564   -1.000
 4864.00    1.79569   1.71458   -1.000
 4865.00    1.84443   1.82024  127.649
 4866.00    1.86803   1.88776   -1.000
 4867.00    1.88372   1.93355   -1.000
 4868.00    1.90938   1.96559   -1.000
 4869.00    1.92466   1.97595   -1.000
 4870.00    1.89047   1.95885   -1.000
 4871.00    1.84817   1.92814   -1.000
 4872.00    1.83974   1.91857   -1.000
 4873.00    1.87231   1.94521   -1.000
 4874.00    1.91547   1.98970   -1.000
 4875.00    1.92976   2.02421   -1.000
 4876.00    1.93351   2.04040   -1.000
 4877.00    1.92993   2.05055   -1.000
 4878.00    1.93269   2.06447   -1.000
 4879.00    1.95473   2.08238   -1.000
 4880.00    1.95785   2.09500   -1.000
 4881.00    1.93019   2.09151   -1.000
 4882.00    1.93151   2.08042   -1.000
 4883.00    1.95824   2.07602   -1.000
 4884.00    1.95429   2.07338   -1.000
 4885.00    1.92118   2.06528   -1.000
 4886.00    1.89363   2.05719   -1.000
 4887.00    1.90137   2.05676   -1.000
 4888.00    1.92417   2.05803   -1.000
 4889.00    1.91501   2.04761   -1.000
 4890.00    1.88400   2.02436   -1.000
 4891.00    1.88472   2.00732   -1.000
 4892.00    1.92525   2.02753   -1.000
 4893.00    1.98173   2.08358   -1.000
 4894.00    2.04340   2.14713   -1.000
 4895.00    2.08321   2.19559   -1.000
 4896.00    2.08098   2.21792   -1.000
 4897.00    2.06985   2.22438   -1.000
 4898.00    2.06471   2.21748   -1.000
 4899.00    2.04219   2.19862   -1.000
 4900.00    2.02577   2.17783   -1.000
 4901.00    2.03560   2.16751   -1.000
 4902.00    2.02978   2.16273   -1.000
 4903.00    2.00825   2.15650   -1.000
 4904.00    2.02467   2.16002   -1.000
 4905.00    2.06992   2.18408   -1.000
 4906.00    2.08409   2.21234   -1.000
 4907.00    2.06578   2.21990   -1.000
 4908.00    2.06447   2.20298   -1.000
 4909.00    2.05974   2.17599   -1.000
 4910.00    2.02565   2.15298   -1.000
 4911.00    2.01044   2.14841   -1.000
 4912.00    2.03389   2.16265   -1.000
 4913.00    2.06068   2.18283   -1.000
 4914.00    2.07887   2.20277   -1.000
 4915.00    2.09346   2.21749   -1.000
 4916.00    2.10318   2.21663   -1.000
 4917.00    2.08459   2.18671   -1.000
 4918.00    2.03732   2.12205   -1.000
 4919.00    1.97887   2.04608   -1.000
 4920.00    1.93085   1.99659   -1.000
 4921.00    1.95234   1.99746   -1.000
 4922.00    2.00965   2.03945   -1.000
 4923.00    2.02396   2.08377   -1.000
 4924.00    2.00562   2.11253   -1.000
 4925.00    2.01949   2.13529   -1.000
 4926.00    2.07190   2.16954   -1.000
 4927.00    2.11359   2.20888   -1.000
 4928.00    2.13332   2.24404   -1.000
 4929.00    2.14566   2.27021   -1.000
 4930.00    2.15107   2.28065   -1.000
 4931.00    2.14590   2.27154   -1.000
 4932.00    2.11592   2.24133   -1.000
 4933.00    2.05907   2.20016   -1.000
 4934.00    2.03175   2.17446   -1.000
 4935.00    2.06337   2.17964   -1.000
 4936.00    2.09048   2.18889   -1.000
 4937.00    2.07130   2.17126   -1.000
 4938.00    2.04079   2.13648   -1.000
 4939.00    2.03747   2.12134   -1.000
 4940.00    2.06543   2.14628   -1.000
 4941.00    2.10441   2.19612   -1.000
 4942.00    2.12447   2.24258   -1.000
 4943.00    2.13001   2.27184   -1.000
 4944.00    2.13573   2.28152   -1.000
 4945.00    2.14178   2.27823   -1.000
 4946.00    2.13723   2.27420   -1.000
 4947.00    2.13880   2.28083   -1.000
 4948.00    2.16413   2.29753   -1.000
 4949.00    2.16924   2.31403   -1.000
 4950.00    2.16632   2.32341   -1.000
 4951.00    2.17938   2.32543   -1.000
 4952.00    2.17697   2.31940   -1.000
 4953.00    2.17495   2.30653   -1.000
 4954.00    2.18508   2.28363   -1.000
 4955.00    2.17006   2.23691   -1.000
 4956.00    2.11692   2.16498   -1.000
 4957.00    2.04219   2.09231   -1.000
 4958.00    2.01376   2.07004   -1.000
 4959.00    2.07762   2.12011   -1.000
 4960.00    2.16333   2.19605   -1.000
 4961.00    2.19217   2.24883   -1.000
 4962.00    2.19164   2.26769   -1.000
 4963.00    2.19147   2.26501   -1.000
 4964.00    2.17953   2.24788   -1.000
 4965.00    2.14692   2.22171   -1.000
 4966.00    2.13302   2.20110   -1.000
 4967.00    2.13369   2.19500   -1.000
 4968.00    2.14913   2.20043   -1.000
 4969.00    2.16419   2.21563   -1.000
 4970.00    2.14953   2.23914   -1.000
 4971.00    2.15618   2.26364   -1.000
 4972.00    2.18732   2.28436   -1.000
 4973.00    2.20313   2.29738   -1.000
 4974.00    2.20849   2.30257   -1.000
 4975.00    2.22431   2.30168   -1.000
 4976.00    2.21481   2.29395   -1.000
 4977.00    2.18363   2.27828   -1.000
 4978.00    2.17593   2.26106   -1.000
 4979.00    2.17473   2.24621   -1.000
 4980.00    2.13968   2.22483   -1.000
 4981.00    2.09394   2.18741   -1.000
 4982.00    2.06114   2.14310   -1.000
 4983.00    2.04687   2.11639   -1.000
 4984.00    2.06131   2.12395   -1.000
 4985.00    2.08925   2.15926   -1.000
 4986.00    2.11816   2.20410   -1.000
 4987.00    2.14311   2.24772   -1.000
 4988.00    2.15400   2.27233   -1.000
 4989.00    2.15432   2.26972   -1.000
 4990.00    2.15001   2.25271   -1.000
 4991.00    2.14715   2.24302   -1.000
 4992.00    2.16165   2.24907   -1.000
 4993.00    2.17702   2.26223   -1.000
 4994.00    2.16167   2.27353   -1.000
 4995.00    2.15121   2.28400   -1.000
 4996.00    2.16766   2.29426   -1.000
 4997.00    2.17417   2.29491   -1.000
 4998.00    2.15357   2.27368   -1.000
 4999.00    2.13643   2.23332   -1.000
 5000.00    2.12552   2.19729   -1.000
 5001.00    2.10649   2.18844   -1.000
 5002.00    2.13146   2.19951   -1.000
 5003.00    2.16307   2.21107   -1.000
 5004.00    2.16011   2.20690   -1.000
 5005.00    2.14201   2.18226   -1.000
 5006.00    2.11166   2.15710   -1.000
 5007.00    2.11600   2.16086   -1.000
 5008.00    2.17054   2.19713   -1.000
 5009.00    2.21213   2.23503  117.815
 5010.00    2.19870   2.24758   -1.000
 5011.00    2.16152   2.23028   -1.000
 5012.00    2.11249   2.19268   -1.000
 5013.00    2.06527   2.15442   -1.000
 5014.00    2.05431   2.13557   -1.000
 5015.00    2.08592   2.14499   -1.000
 5016.00    2.11843   2.16757   -1.000
 5017.00    2.13298   2.18445   -1.000
 5018.00    2.15237   2.19384   -1.000
 5019.00    2.16264   2.20882   -1.000
 5020.00    2.17730   2.22903   -1.000
 5021.00    2.19071   2.23882   -1.000
 5022.00    2.18169   2.23880   -1.000
 5023.00    2.17825   2.24570   -1.000
 5024.00    2.18923   2.26868   -1.000
 5025.00    2.20259   2.29337   -1.000
 5026.00    2.22054   2.30113   -1.000
 5027.00    2.22943   2.29122   -1.000
 5028.00    2.21709   2.28519   -1.000
 5029.00    2.23702   2.29592   -1.000
 5030.00    2.28578   2.31956   -1.000
 5031.00    2.28665   2.34766   -1.000
 5032.00    2.27994   2.37198   -1.000
 5033.00    2.30444   2.38162   -1.000
 5034.00    2.27969   2.36505   -1.000
 5035.00    2.20590   2.32825   -1.000
 5036.00    2.16587   2.29420   -1.000
 5037.00    2.16022   2.28153   -1.000
 5038.00    2.15097   2.27222   -1.000
 5039.00    2.11089   2.23624   -1.000
 5040.00    2.07016   2.18122   -1.000
 5041.00    2.07380   2.15054   -1.000
 5042.00    2.11333   2.17762   -1.000
 5043.00    2.17886   2.24768   -1.000
 5044.00    2.25688   2.32521   -1.000
 5045.00    2.31389   2.38614   -1.000
 5046.00    2.33106   2.41361   -1.000
 5047.00    2.34795   2.40672   -1.000
 5048.00    2.25493   2.37011   -1.000
 5049.00    1.36128   2.32160   -1.000
 5050.00    0.23978   2.28500   -1.000
 5051.00    0.05468   2.27888   -1.000
 5052.00    0.65353   2.30024   -1.000
 5053.00    1.77930   2.33749   -1.000
 5054.00    2.31503   2.37564   -1.000
 5055.00    2.38061   2.40013  111.592
 5056.00    2.38620   2.41199  110.019
 5057.00    2.37602   2.42022   -1.000
 5058.00    2.35969   2.42980   -1.000
 5059.00    2.35403   2.44198   -1.000
 5060.00    2.35399   2.45475   -1.000
 5061.00    2.35476   2.46409   -1.000
 5062.00    2.35836   2.45792   -1.000
 5063.00    2.33591   2.42646   -1.000
 5064.00    2.28000   2.37956   -1.000
 5065.00    2.23683   2.34287   -1.000
 5066.00    2.25878   2.33455   -1.000
 5067.00    2.30477   2.34302   -1.000
 5068.00    2.31757   2.35172   -1.000
 5069.00    2.32711   2.36145   -1.000
 5070.00    2.33750   2.37307   -1.000
 5071.00    2.33085   2.37792   -1.000
 5072.00    2.31734   2.37365   -1.000
 5073.00    2.31087   2.37313   -1.000
 5074.00    2.31490   2.37946   -1.000
 5075.00    2.32107   2.38422   -1.000
 5076.00    2.32534   2.38345   -1.000
 5077.00    2.32586   2.37234   -1.000
 5078.00    2.29940   2.34232   -1.000
 5079.00    2.23998   2.30165   -1.000
 5080.00    2.20639   2.27746   -1.000
 5081.00    2.23485   2.27993   -1.000
 5082.00    2.28650   2.29564  124.336
 5083.00    2.30484   2.31375  121.606
 5084.00    2.31537   2.33919  119.444
 5085.00    2.35138   2.37189  117.565
 5086.00    2.37463   2.40055  115.419
 5087.00    2.37978   2.41578   -1.000
 5088.00    2.38057   2.42285   -1.000
 5089.00    2.37774   2.42951   -1.000
 5090.00    2.38983   2.43790   -1.000
 5091.00    2.40208   2.44939   -1.000
 5092.00    2.41215   2.46621   -1.000
 5093.00    2.42653   2.48178   -1.000
 5094.00    2.44512   2.48467   -1.000
 5095.00    2.42718   2.46515   -1.000
 5096.00    2.46729   2.43029   -1.000
 5097.00    2.48345   2.39794   -1.000
 5098.00    2.35292   2.37171  115.540
 5099.00    2.30611   2.36068   -1.000
 5100.00    2.35793   2.37578  119.722
 5101.00    2.39359   2.40690  118.555
 5102.00    2.40232   2.43109   -1.000
 5103.00    2.41004   2.43826   -1.000
 5104.00    2.40068   2.43217   -1.000
 5105.00    2.38033   2.41906   -1.000
 5106.00    2.34132   2.39751   -1.000
 5107.00    2.30238   2.37269   -1.000
 5108.00    2.27959   2.35953   -1.000
 5109.00    2.28791   2.36154   -1.000
 5110.00    2.31485   2.37446   -1.000
 5111.00    2.34244   2.39770   -1.000
 5112.00    2.37710   2.42571   -1.000
 5113.00    2.40896   2.45017   -1.000
 5114.00    2.43067   2.47170   -1.000
 5115.00    2.43584   2.49203   -1.000
 5116.00    2.43676   2.51027   -1.000
 5117.00    2.46459   2.52498   -1.000
 5118.00    2.47327   2.53103   -1.000
 5119.00    2.44667   2.52205   -1.000
 5120.00    2.43738   2.50064   -1.000
 5121.00    2.42839   2.47275   -1.000
 5122.00    2.38765   2.43749   -1.000
 5123.00    2.34645   2.40208   -1.000
 5124.00    2.33653   2.37980   -1.000
 5125.00    2.34384   2.37531   -1.000
 5126.00    2.35283   2.38234   -1.000
 5127.00    2.34627   2.38839   -1.000
 5128.00    2.35520   2.39035   -1.000
 5129.00    2.37795   2.39404  119.340
 5130.00    2.38358   2.40778  119.416
 5131.00    2.40284   2.43508   -1.000
 5132.00    2.43543   2.46470   -1.000
 5133.00    2.43928   2.48483   -1.000
 5134.00    2.45057   2.49683   -1.000
 5135.00    2.47860   2.50336  113.272
 5136.00    2.46852   2.49937   -1.000
 5137.00    2.40935   2.47694   -1.000
 5138.00    2.36636   2.44422   -1.000
 5139.00    2.36185   2.42502   -1.000
 5140.00    2.36919   2.42847   -1.000
 5141.00    2.37103   2.44019   -1.000
 5142.00    2.34724   2.44492   -1.000
 5143.00    2.33928   2.44627   -1.000
 5144.00    2.35753   2.45398   -1.000
 5145.00    2.37648   2.45932   -1.000
 5146.00    2.38246   2.45097   -1.000
 5147.00    2.38815   2.44226   -1.000
 5148.00    2.41313   2.44643   -1.000
 5149.00    2.43439   2.45248  118.690
 5150.00    2.40996   2.44527   -1.000
 5151.00    2.36884   2.42528   -1.000
 5152.00    2.35649   2.40966   -1.000
 5153.00    2.36512   2.40850   -1.000
 5154.00    2.40124   2.42045  121.372
 5155.00    2.45153   2.45315  119.973
 5156.00    2.49191   2.50332  117.296
 5157.00    2.51125   2.55053   -1.000
 5158.00    2.52915   2.57860   -1.000
 5159.00    2.55724   2.58973  110.196
 5160.00    2.56544   2.58817  109.762
 5161.00    2.54630   2.57512  109.933
 5162.00    2.51523   2.55333   -1.000
 5163.00    2.49954   2.52490  111.331
 5164.00    2.47679   2.47634  112.807
 5165.00    2.39169   2.38394  115.648
 5166.00    2.25726   2.25054  122.268
 5167.00    2.14913   2.13464   -1.000
 5168.00    2.14410   2.09981   -1.000
 5169.00    2.21416   2.14301   -1.000
 5170.00    2.28759   2.19052   -1.000
 5171.00    2.29036   2.17487   -1.000
 5172.00    2.22269   2.12139   -1.000
 5173.00    2.20000   2.12059   -1.000
 5174.00    2.30051   2.20597   -1.000
 5175.00    2.43391   2.32980   -1.000
 5176.00    2.51474   2.42292   -1.000
 5177.00    2.54551   2.46518   -1.000
 5178.00    2.55799   2.47976   -1.000
 5179.00    2.56633   2.47309   -1.000
 5180.00    2.55307   2.43758   -1.000
 5181.00    2.49284   2.35867   -1.000
 5182.00    2.36977   2.24348   -1.000
 5183.00    2.27573   2.14579   -1.000
 5184.00    2.28409   2.13842   -1.000
 5185.00    2.34733   2.23942   -1.000
 5186.00    2.45915   2.37414   -1.000
 5187.00    2.52672   2.46550   -1.000
 5188.00    2.53027   2.50856   -1.000
 5189.00    2.55409   2.51992   -1.000
 5190.00    2.53790   2.50911   -1.000
 5191.00    2.47617   2.47165  116.722
 5192.00    2.41541   2.42658  119.061
 5193.00    2.40270   2.40954  122.740
 5194.00    2.42283   2.43136  124.289
 5195.00    2.45004   2.46510  122.685
 5196.00    2.51101   2.49841  120.662
 5197.00    2.55315   2.53413  118.899
 5198.00    2.56131   2.56674  116.884
 5199.00    2.58078   2.58818  114.662
 5200.00    2.59407   2.59635  113.151
 5201.00    2.59159   2.58689  112.601
 5202.00    2.58021   2.55647   -1.000
 5203.00    2.53775   2.50602   -1.000
 5204.00    2.48039   2.43650   -1.000
 5205.00    2.45380   2.37008   -1.000
 5206.00    2.45005   2.33448   -1.000
 5207.00    2.45049   2.32357   -1.000
 5208.00    2.44330   2.32299   -1.000
 5209.00    2.44312   2.33814   -1.000
 5210.00    2.49969   2.39271   -1.000
 5211.00    2.56798   2.48170   -1.000
 5212.00    2.61268   2.57115   -1.000
 5213.00    2.65845   2.62565   -1.000
 5214.00    2.65277   2.63158  111.005
 5215.00    2.59426   2.60481  110.236
 5216.00    2.56872   2.58217  112.165
 5217.00    2.57865   2.59111  114.345
 5218.00    2.61902   2.63081  114.711
 5219.00    2.66251   2.67604  113.029
 5220.00    2.68204   2.70782  110.833
 5221.00    2.71225   2.71995  109.528
 5222.00    2.70164   2.70802  108.882
 5223.00    2.66840   2.66445  109.217
 5224.00    2.62223   2.59007   -1.000
 5225.00    2.53223   2.50522   -1.000
 5226.00    2.44790   2.44292  120.550
 5227.00    2.42479   2.43537  125.294
 5228.00    2.48780   2.49995  126.116
 5229.00    2.59786   2.59865  121.355
 5230.00    2.66095   2.66701  115.197
 5231.00    2.68473   2.67803  111.660
 5232.00    2.67919   2.64599   -1.000
 5233.00    2.63299   2.60694   -1.000
 5234.00    2.60242   2.60148  113.639
 5235.00    2.63013   2.64188  114.717
 5236.00    2.68661   2.70081  113.385
 5237.00    2.73598   2.74854  110.649
 5238.00    2.74620   2.76764  108.579
 5239.00    2.73414   2.76553  107.873
 5240.00    2.74522   2.75724  107.998
 5241.00    2.75876   2.75113  108.140
 5242.00    2.75654   2.75264  107.740
 5243.00    2.76790   2.76253  107.412
 5244.00    2.77098   2.77055  107.454
 5245.00    2.73111   2.75635  107.235
 5246.00    2.67594   2.71483   -1.000
 5247.00    2.63484   2.66763  110.768
 5248.00    2.61841   2.64340  113.940
 5249.00    2.60864   2.64225   -1.000
 5250.00    2.58032   2.64254   -1.000
 5251.00    2.58638   2.64754   -1.000
 5252.00    2.64283   2.66509  116.429
 5253.00    2.67743   2.68257  115.385
 5254.00    2.67879   2.69094  113.926
 5255.00    2.67312   2.70046  113.284
 5256.00    2.68696   2.72910   -1.000
 5257.00    2.73765   2.77662   -1.000
 5258.00    2.79690   2.81421  108.562
 5259.00    2.81317   2.81835  106.413
 5260.00    2.77232   2.78547  106.334
 5261.00    2.71478   2.72337  108.177
 5262.00    2.62948   2.64746  111.871
 5263.00    2.56163   2.57263  116.927
 5264.00    2.52967   2.51634  121.927
 5265.00    2.50974   2.48863   -1.000
 5266.00    2.52837   2.49004   -1.000
 5267.00    2.58187   2.50263   -1.000
 5268.00    2.56690   2.48515   -1.000
 5269.00    2.49291   2.42841   -1.000
 5270.00    2.46712   2.40297   -1.000
 5271.00    2.55234   2.46133   -1.000
 5272.00    2.65685   2.57429   -1.000
 5273.00    2.69432   2.66259   -1.000
 5274.00    2.69721   2.69152  114.723
 5275.00    2.70563   2.70327  114.201
 5276.00    2.73090   2.72835  114.176
 5277.00    2.77711   2.77749  113.116
 5278.00    2.82985   2.82791  110.169
 5279.00    2.83466   2.84298  107.017
 5280.00    2.81435   2.81629  106.145
 5281.00    2.78351   2.76720  107.654
 5282.00    2.73332   2.71948  110.421
 5283.00    2.70291   2.69756  112.970
 5284.00    2.73866   2.72457  114.400
 5285.00    2.81103   2.79127   -1.000
 5286.00    2.87615   2.86300  110.843
 5287.00    2.85959   2.90667   -1.000
 5288.00    2.74919   2.91518   -1.000
 5289.00    2.79814   2.91211   -1.000
 5290.00    2.91273   2.91137  105.237
 5291.00    2.88064   2.91119  104.954
 5292.00    2.87938   2.90862  104.467
 5293.00    2.89140   2.90419  104.593
 5294.00    2.88494   2.89315  105.393
 5295.00    2.84195   2.86162  106.565
 5296.00    2.76853   2.79930  108.573
 5297.00    2.69064   2.73216   -1.000
 5298.00    2.70472   2.70344  115.941
 5299.00    2.77049   2.72240   -1.000
 5300.00    2.78077   2.76516  115.679
 5301.00    2.78606   2.79925  112.958
 5302.00    2.80626   2.82862  111.437
 5303.00    2.83940   2.86906  110.527
 5304.00    2.89947   2.91665  108.488
 5305.00    2.92824   2.94784  105.855
 5306.00    2.91149   2.94813  104.608
 5307.00    2.89729   2.93352  104.913
 5308.00    2.91301   2.93006  105.953
 5309.00    2.95255   2.94245  106.236
 5310.00    2.96929   2.95855  105.302
 5311.00    2.96877   2.96288  104.347
 5312.00    2.95506   2.95630  104.001
 5313.00    2.95448   2.94602  104.326
 5314.00    2.95919   2.93235   -1.000
 5315.00    2.93222   2.91603   -1.000
 5316.00    2.90936   2.90018  106.338
 5317.00    2.89892   2.89522  107.363
 5318.00    2.91867   2.90359   -1.000
 5319.00    2.94434   2.91569   -1.000
 5320.00    2.93964   2.92326  106.917
 5321.00    2.92096   2.91784  106.806
 5322.00    2.89947   2.89369  107.377
 5323.00    2.88458   2.85590   -1.000
 5324.00    2.86519   2.82478   -1.000
 5325.00    2.86377   2.80378   -1.000
 5326.00    2.83533   2.75777   -1.000
 5327.00    2.74055   2.67010   -1.000
 5328.00    2.67044   2.58922   -1.000
 5329.00    2.69544   2.59318   -1.000
 5330.00    2.79093   2.69446   -1.000
 5331.00    2.86235   2.80724   -1.000
 5332.00    2.86804   2.86813  112.533
 5333.00    2.88262   2.89963  110.001
 5334.00    2.92866   2.92560  108.989
 5335.00    2.96517   2.94746   -1.000
 5336.00    2.96989   2.95669  106.893
 5337.00    2.94491   2.94737  106.907
 5338.00    2.93776   2.91906   -1.000
 5339.00    2.91865   2.87232   -1.000
 5340.00    2.85429   2.82326   -1.000
 5341.00    2.82831   2.80854   -1.000
 5342.00    2.88746   2.84459   -1.000
 5343.00    2.96441   2.89271   -1.000
 5344.00    2.97423   2.91543   -1.000
 5345.00    2.95081   2.91306   -1.000
 5346.00    2.92381   2.89837   -1.000
 5347.00    2.91982   2.88305   -1.000
 5348.00    2.93189   2.87000   -1.000
 5349.00    2.93502   2.86686   -1.000
 5350.00    2.97640   2.89062   -1.000
 5351.00    2.99982   2.93651   -1.000
 5352.00    3.00794   2.98257   -1.000
 5353.00    3.00690   3.01457  106.298
 5354.00    3.03791   3.03485  105.406
 5355.00    3.08349   3.05670   -1.000
 5356.00    3.09484   3.07523   -1.000
 5357.00    3.07941   3.08486  102.730
 5358.00    3.07795   3.08618  102.312
 5359.00    3.06006   3.07864  102.471
 5360.00    3.03130   3.06031  102.711
 5361.00    3.02982   3.03521  103.407
 5362.00    3.02164   3.01089  104.861
 5363.00    2.99793   2.99110  106.566
 5364.00    2.99303   2.97261   -1.000
 5365.00    2.97397   2.95934   -1.000
 5366.00    2.95834   2.95662  109.113
 5367.00    2.96602   2.95783  109.401
 5368.00    2.96513   2.94330   -1.000
 5369.00    2.92781   2.89216   -1.000
 5370.00    2.86124   2.82004   -1.000
 5371.00    2.81651   2.77511   -1.000
 5372.00    2.88024   2.79940   -1.000
 5373.00    3.01100   2.88753   -1.000
 5374.00    3.07841   2.98340   -1.000
 5375.00    3.08470   3.04121   -1.000
 5376.00    3.09198   3.05326   -1.000
 5377.00    3.10352   3.05376   -1.000
 5378.00    3.09779   3.06340   -1.000
 5379.00    3.08803   3.07209   -1.000
 5380.00    3.07155   3.06741  104.733
 5381.00    3.04237   3.04761  105.522
 5382.00    3.02254   3.02509  106.589
 5383.00    3.03560   3.01246   -1.000
 5384.00    3.05154   3.01379   -1.000
 5385.00    3.07011   3.03248   -1.000
 5386.00    3.09225   3.05637   -1.000
 5387.00    3.08383   3.06530   -1.000
 5388.00    3.07884   3.05015   -1.000
 5389.00    3.07200   3.01907   -1.000
 5390.00    3.05871   2.98791   -1.000
 5391.00    3.05161   2.96894   -1.000
 5392.00    3.04995   2.96224   -1.000
 5393.00    3.01748   2.95919   -1.000
 5394.00    2.98719   2.95020   -1.000
 5395.00    2.96505   2.92431   -1.000
 5396.00    2.92793   2.88207   -1.000
 5397.00    2.92483   2.85302   -1.000
 5398.00    2.97032   2.87623   -1.000
 5399.00    3.03064   2.93767   -1.000
 5400.00    3.05890   2.99244   -1.000
 5401.00    3.06230   3.02048   -1.000
 5402.00    3.07915   3.01525   -1.000
 5403.00    3.03892   2.97060   -1.000
 5404.00    2.95140   2.89479   -1.000
 5405.00    2.88666   2.82426   -1.000
 5406.00    2.89076   2.80509   -1.000
 5407.00    2.94727   2.84509   -1.000
 5408.00    2.98411   2.88593   -1.000
 5409.00    2.98084   2.89320   -1.000
 5410.00    2.99261   2.88875   -1.000
 5411.00    3.03311   2.91258   -1.000
 5412.00    3.07580   2.96529   -1.000
 5413.00    3.11848   3.01130   -1.000
 5414.00    3.12563   3.03589   -1.000
 5415.00    3.09268   3.05740   -1.000
 5416.00    3.11316   3.08591   -1.000
 5417.00    3.14898   3.11314   -1.000
 5418.00    3.13918   3.12434   -1.000
 5419.00    3.12215   3.11815  105.965
 5420.00    3.10548   3.10705  106.692
 5421.00    3.12602   3.09906   -1.000
 5422.00    3.12833   3.09470   -1.000
 5423.00    3.10214   3.08466   -1.000
 5424.00    3.08972   3.07307   -1.000
 5425.00    3.09487   3.08434   -1.000
 5426.00    3.11485   3.11701  109.254
 5427.00    3.12884   3.12965  107.709
 5428.00    3.09811   3.08948  106.619
 5429.00    3.01730   3.01749  108.017
 5430.00    2.99290   2.97516   -1.000
 5431.00    3.04049   2.98485   -1.000
 5432.00    3.06503   3.00480   -1.000
 5433.00    3.04074   2.99548   -1.000
 5434.00    3.01143   2.96394   -1.000
 5435.00    3.01088   2.95630   -1.000
 5436.00    3.06282   2.99477   -1.000
 5437.00    3.12168   3.06046   -1.000
 5438.00    3.17255   3.12470   -1.000
 5439.00    3.21256   3.17194   -1.000
 5440.00    3.23278   3.20400   -1.000
 5441.00    3.23952   3.22268   -1.000
 5442.00    3.23942   3.23072  103.941
 5443.00    3.20887   3.21849  103.867
 5444.00    3.16978   3.16757  104.256
 5445.00    3.08891   3.07837   -1.000
 5446.00    3.02265   2.98460   -1.000
 5447.00    2.99993   2.93746   -1.000
 5448.00    3.06576   2.96344   -1.000
 5449.00    3.15815   3.03025   -1.000
 5450.00    3.19517   3.08833   -1.000
 5451.00    3.21506   3.10848   -1.000
 5452.00    3.22739   3.09680   -1.000
 5453.00    3.18994   3.05983   -1.000
 5454.00    3.12141   2.99903   -1.000
 5455.00    3.06180   2.94403   -1.000
 5456.00    3.06724   2.94430   -1.000
 5457.00    3.15286   3.00671   -1.000
 5458.00    3.22944   3.08833   -1.000
 5459.00    3.25188   3.13664   -1.000
 5460.00    3.24958   3.13844   -1.000
 5461.00    3.22485   3.11251   -1.000
 5462.00    3.19541   3.08169   -1.000
 5463.00    3.20766   3.06753   -1.000
 5464.00    3.22618   3.07628   -1.000
 5465.00    3.23238   3.10109   -1.000
 5466.00    3.25296   3.12850   -1.000
 5467.00    3.26528   3.14852   -1.000
 5468.00    3.28936   3.15793   -1.000
 5469.00    3.27968   3.15627   -1.000
 5470.00    3.25373   3.14435   -1.000
 5471.00    3.26199   3.13013   -1.000
 5472.00    3.25187   3.12054   -1.000
 5473.00    3.22415   3.10854   -1.000
 5474.00    3.21170   3.08413   -1.000
 5475.00    3.19073   3.04661   -1.000
 5476.00    3.13957   3.01024   -1.000
 5477.00    3.09328   3.00597   -1.000
 5478.00    3.16536   3.05062   -1.000
 5479.00    3.24645   3.10344   -1.000
 5480.00    3.24617   3.11557   -1.000
 5481.00    3.23283   3.09710   -1.000
 5482.00    3.22621   3.08765   -1.000
 5483.00    3.23701   3.11466   -1.000
 5484.00    3.27122   3.16184   -1.000
 5485.00    3.28025   3.19292   -1.000
 5486.00    3.27471   3.19347   -1.000
 5487.00    3.25301   3.16957   -1.000
 5488.00    3.23630   3.14748   -1.000
 5489.00    3.22968   3.14571   -1.000
 5490.00    3.23319   3.16248   -1.000
 5491.00    3.26219   3.18271   -1.000
 5492.00    3.29142   3.19460   -1.000
 5493.00    3.30641   3.19695   -1.000
 5494.00    3.30443   3.19224   -1.000
 5495.00    3.30494   3.18069   -1.000
 5496.00    3.28273   3.16237   -1.000
 5497.00    3.24383   3.14694   -1.000
 5498.00    3.23645   3.15126   -1.000
 5499.00    3.28231   3.16929   -1.000
 5500.00    3.31219   3.17135   -1.000
 5501.00    3.29804   3.15081   -1.000
 5502.00    3.29246   3.13206   -1.000
 5503.00    3.31515   3.13433   -1.000
 5504.00    3.34269   3.14282   -1.000
 5505.00    3.29669   3.12821   -1.000
 5506.00    3.21679   3.10253   -1.000
 5507.00    3.21358   3.10268   -1.000
 5508.00    3.25965   3.13745   -1.000
 5509.00    3.29975   3.17777   -1.000
 5510.00    3.31428   3.18498   -1.000
 5511.00    3.28698   3.15518   -1.000
 5512.00    3.25049   3.11448   -1.000
 5513.00    3.23584   3.08732   -1.000
 5514.00    3.24442   3.08712   -1.000
 5515.00    3.28695   3.10750   -1.000
 5516.00    3.34880   3.14180   -1.000
 5517.00    3.38789   3.18755   11.170
 5518.00    3.41553   3.23341   10.990
 5519.00    3.43693   3.26562   10.788
 5520.00    3.43889   3.27841   10.661
 5521.00    3.43337   3.27657   10.660
 5522.00    3.41532   3.27628   10.680
 5523.00    3.40521   3.27946   10.707
 5524.00    3.37249   3.27677   10.739
 5525.00    3.35991   3.25442   10.771
 5526.00    3.32950   3.20684   10.866
 5527.00    3.27621   3.15306   11.054
 5528.00    3.25402   3.12385   11.327
 5529.00    3.28922   3.14444   11.548
 5530.00    3.34955   3.19924   11.491
 5531.00    3.38095   3.24342   11.203
 5532.00    3.38381   3.25647   10.953
 5533.00    3.37322   3.24590   10.875
 5534.00    3.36306   3.23290   10.935
 5535.00    3.36405   3.22945   11.027
 5536.00    3.36617   3.23646   11.047
 5537.00    3.38993   3.24831   10.985
 5538.00    3.41051   3.26409   10.912
 5539.00    3.41423   3.28499   10.884
 5540.00    3.43641   3.30634   10.815
 5541.00    3.45684   3.31765   10.711
 5542.00    3.45015   3.31267   10.657
 5543.00    3.43036   3.29724   10.702
 5544.00    3.42864   3.28562   10.820
 5545.00    3.41784   3.28446   10.903
 5546.00    3.40559   3.29009   10.906
 5547.00    3.43788   3.30348   10.873
 5548.00    3.47054   3.32935   10.836
 5549.00    3.48980   3.35551   10.751
 5550.00    3.50696   3.36601   10.647
 5551.00    3.50743   3.36236   10.580
 5552.00    3.50232   3.35096   10.586
 5553.00    3.49625   3.33743   10.660
 5554.00    3.46345   3.32641   10.765
 5555.00    3.45911   3.32187   10.868
 5556.00    3.50166   3.32072   10.893
 5557.00    3.51863   3.32094   10.866
 5558.00    3.51566   3.32254   10.836
 5559.00    3.50006   3.32666   10.820
 5560.00    3.50137   3.32935   10.807
 5561.00    3.49390   3.32292   10.807
 5562.00    3.47935   3.30960   10.843
 5563.00    3.44165   3.30049   10.919
 5564.00    3.43427   3.29772   11.023
 5565.00    3.45499   3.29286   11.083
 5566.00    3.45898   3.28458   11.108
 5567.00    3.44292   3.28030   11.127
 5568.00    3.42181   3.27898   11.127
 5569.00    3.42923   3.27970   11.100
 5570.00    3.44923   3.28473   11.095
 5571.00    3.44972   3.28556   11.119
 5572.00    3.42957   3.27884   11.110
 5573.00    3.40474   3.27745   11.122
 5574.00    3.36031   3.29155   11.132
 5575.00    3.14308   3.31685   11.055
 5576.00    2.56615   3.33658   -1.000
 5577.00    2.14191   3.34943   -1.000
 5578.00    2.88501   3.36524   -1.000
 5579.00    3.78473   3.37947   -1.000
 5580.00    4.25710   3.37991   -1.000
 5581.00    3.65612   3.36942   -1.000
 5582.00    3.24638   3.35714   11.191
 5583.00    3.47544   3.34811   11.045
 5584.00    3.56106   3.33558   10.955
 5585.00    3.49889   3.29945   10.966
 5586.00    3.43265   3.24230   11.091
 5587.00    3.37859   3.18451   11.364
 5588.00    3.34298   3.15325   11.644
 5589.00    3.35541   3.16161   11.850
 5590.00    3.42104   3.19696   11.855
 5591.00    3.46693   3.23905   11.674
 5592.00    3.47458   3.26642   11.473
 5593.00    3.45610   3.27894   11.355
 5594.00    3.44371   3.29391   11.355
 5595.00    3.48004   3.32240   11.372
 5596.00    3.52070   3.34729   11.264
 5597.00    3.52540   3.33739   11.115
 5598.00    3.49232   3.29849   11.089
 5599.00    3.46994   3.26453   11.237
 5600.00    3.46202   3.24402   11.418
 5601.00    3.45249   3.23397   11.493
 5602.00    3.43626   3.23750   11.497
 5603.00    3.46031   3.26513   11.567
 5604.00    3.50633   3.32006   11.546
 5605.00    3.58012   3.38137   11.297
 5606.00    3.64312   3.42386   10.994
 5607.00    3.64014   3.44543   10.784
 5608.00    3.64006   3.45092   10.697
 5609.00    3.63182   3.45102   10.693
 5610.00    3.61091   3.45623   10.714
 5611.00    3.63750   3.46632   10.726
 5612.00    3.64068   3.46298   10.706
 5613.00    3.63380   3.42564   10.696
 5614.00    3.55968   3.35159   10.805
 5615.00    3.45822   3.28131   11.088
 5616.00    3.44158   3.26660   11.451
 5617.00    3.51805   3.30086   11.596
 5618.00    3.59845   3.34444   -1.000
 5619.00    3.62314   3.37056   -1.000
 5620.00    3.62176   3.38427   11.059
 5621.00    3.64083   3.40106   11.035
 5622.00    3.64020   3.40809   10.981
 5623.00    3.61197   3.38573   10.956
 5624.00    3.56031   3.34895   11.062
 5625.00    3.55641   3.33010   11.293
 5626.00    3.60648   3.34755   -1.000
 5627.00    3.62320   3.38300   11.308
 5628.00    3.62599   3.40983   11.114
 5629.00    3.66037   3.42806   10.967
 5630.00    3.68274   3.44001   10.856
 5631.00    3.69391   3.44675   10.794
 5632.00    3.68714   3.44583   10.764
 5633.00    3.67233   3.43881   10.735
 5634.00    3.64806   3.43399   10.773
 5635.00    3.63505   3.42550   10.862
 5636.00    3.65453   3.40971   10.936
 5637.00    3.64935   3.39825   -1.000
 5638.00    3.62480   3.39661   11.088
 5639.00    3.61859   3.39795   11.140
 5640.00    3.62245   3.39336   11.131
 5641.00    3.62889   3.38591   11.133
 5642.00    3.64013   3.38707   -1.000
 5643.00    3.65626   3.39944   -1.000
 5644.00    3.67579   3.41306   -1.000
 5645.00    3.66508   3.42313   11.061
 5646.00    3.66387   3.43073   11.029
 5647.00    3.69664   3.43506   -1.000
 5648.00    3.70821   3.43711   -1.000
 5649.00    3.69502   3.43902   -1.000
 5650.00    3.69254   3.44970   10.907
 5651.00    3.72206   3.47002   -1.000
 5652.00    3.71826   3.48719   10.901
 5653.00    3.71327   3.49116   10.822
 5654.00    3.69914   3.48084   10.820
 5655.00    3.67740   3.46199   10.881
 5656.00    3.65157   3.42864   10.977
 5657.00    3.56423   3.37652   11.114
 5658.00    3.49672   3.33394   11.375
 5659.00    3.52276   3.33210   11.693
 5660.00    3.58047   3.36301   11.762
 5661.00    3.63756   3.38991   -1.000
 5662.00    3.64933   3.39522   -1.000
 5663.00    3.65029   3.40852   -1.000
 5664.00    3.69502   3.44209   -1.000
 5665.00    3.71464   3.47020   11.161
 5666.00    3.69980   3.47206   11.032
 5667.00    3.67947   3.45289   11.029
 5668.00    3.65643   3.43734   11.098
 5669.00    3.64880   3.43737   11.150
 5670.00    3.67028   3.44757   11.146
 5671.00    3.69746   3.46546   11.102
 5672.00    3.70511   3.49044   11.019
 5673.00    3.74224   3.51431   10.917
 5674.00    3.73957   3.52829   10.807
 5675.00    3.74254   3.53509   10.734
 5676.00    3.76637   3.54132   10.756
 5677.00    3.77389   3.54836   10.775
 5678.00    3.75421   3.54933   10.738
 5679.00    3.74262   3.53936   10.744
 5680.00    3.75342   3.52115   10.803
 5681.00    3.75981   3.49773   -1.000
 5682.00    3.72215   3.47345   -1.000
 5683.00    3.69653   3.46351   11.069
 5684.00    3.69874   3.47750   11.171
 5685.00    3.67986   3.49702   11.160
 5686.00    3.67925   3.49635   11.091
 5687.00    3.67111   3.47894   11.072
 5688.00    3.66458   3.46569   11.157
 5689.00    3.68931   3.47466   11.270
 5690.00    3.73589   3.50501   11.251
 5691.00    3.77276   3.54296   11.086
 5692.00    3.78533   3.57317   10.902
 5693.00    3.81992   3.58485   10.819
 5694.00    3.81600   3.58304   10.766
 5695.00    3.80043   3.57559   10.761
 5696.00    3.80079   3.56535   10.775
 5697.00    3.76855   3.54958   10.789
 5698.00    3.72435   3.52748   10.843
 5699.00    3.69871   3.50633   10.963
 5700.00    3.71008   3.49079   11.084
 5701.00    3.69143   3.47694   11.184
 5702.00    3.68839   3.47466   11.288
 5703.00    3.67636   3.49195   11.295
 5704.00    3.68196   3.51227   11.188
 5705.00    3.67065   3.51515   11.093
 5706.00    3.63061   3.49330   11.103
 5707.00    3.60132   3.45827   11.210
 5708.00    3.59783   3.42549   11.391
 5709.00    3.58618   3.40384   11.599
 5710.00    3.54907   3.40229   11.745
 5711.00    3.55991   3.42116   11.776
 5712.00    3.64861   3.45706   11.714
 5713.00    3.70557   3.50499   11.551
 5714.00    3.76190   3.54775   11.288
 5715.00    3.82072   3.57295   -1.000
 5716.00    3.82942   3.58906   10.911
 5717.00    3.81497   3.59895   10.888
 5718.00    3.81743   3.60649   10.862
 5719.00    3.82318   3.61689   10.821
 5720.00    3.84449   3.63276   10.762
 5721.00    3.86837   3.64983   10.696
 5722.00    3.86269   3.66327   10.654
 5723.00    3.86085   3.67160   10.634
 5724.00    3.86947   3.66896   10.619
 5725.00    3.84739   3.64665   10.617
 5726.00    3.82384   3.61340   10.663
 5727.00    3.80190   3.59265   10.766
 5728.00    3.81183   3.59480   10.875
 5729.00    3.84293   3.61309   10.919
 5730.00    3.83367   3.62574   10.843
 5731.00    3.82547   3.62563   10.804
 5732.00    3.83684   3.62858   10.851
 5733.00    3.84755   3.64794   10.883
 5734.00    3.86312   3.67293   10.814
 5735.00    3.88503   3.68170   10.712
 5736.00    3.88224   3.67617   10.669
 5737.00    3.86989   3.66727   10.688
 5738.00    3.88776   3.66158   10.705
 5739.00    3.87506   3.66369   10.733
 5740.00    3.86986   3.66868   10.742
 5741.00    3.88488   3.67016   10.766
 5742.00    3.87150   3.66762   10.783
 5743.00    3.85528   3.67201   10.795
 5744.00    3.87894   3.68964   10.768
 5745.00    3.87974   3.70832   10.742
 5746.00    3.86115   3.70940   10.660
 5747.00    3.86694   3.69057   10.636
 5748.00    3.86700   3.67668   10.719
 5749.00    3.87178   3.68750   10.813
 5750.00    3.86433   3.70533   10.819
 5751.00    3.88428   3.70442   10.753
 5752.00    3.86718   3.67353   10.755
 5753.00    3.83614   3.63679   10.864
 5754.00    3.80729   3.63277   10.995
 5755.00    3.84592   3.66705   11.073
 5756.00    3.89937   3.71641   11.022
 5757.00    3.95061   3.75277   10.851
 5758.00    3.96923   3.76061   10.663
 5759.00    3.94591   3.73629   10.586
 5760.00    3.90342   3.69297   10.657
 5761.00    3.88621   3.65140   10.789
 5762.00    3.88324   3.63116   -1.000
 5763.00    3.88585   3.64949   11.060
 5764.00    3.90845   3.69866   11.060
 5765.00    3.93226   3.74404   10.903
 5766.00    3.94857   3.76370   10.717
 5767.00    3.93138   3.76994   10.618
 5768.00    3.93890   3.77047   10.601
 5769.00    3.95072   3.76488   10.589
 5770.00    3.94248   3.75578   10.580
 5771.00    3.92924   3.74767   10.610
 5772.00    3.90602   3.74032   10.652
 5773.00    3.89609   3.73238   10.716
 5774.00    3.89232   3.72123   10.773
 5775.00    3.87521   3.71314   10.792
 5776.00    3.88074   3.71490   10.795
 5777.00    3.85972   3.71743   10.761
 5778.00    3.80760   3.70643   10.714
 5779.00    3.71339   3.67541   10.720
 5780.00    3.57719   3.63081   10.788
 5781.00    3.50214   3.59164   10.980
 5782.00    3.52901   3.57671   11.212
 5783.00    3.62959   3.58368   11.304
 5784.00    3.74410   3.59248   11.262
 5785.00    3.81774   3.60081   11.218
 5786.00    3.85775   3.62330   11.178
 5787.00    3.89688   3.65785   11.117
 5788.00    3.92805   3.68859   10.978
 5789.00    3.93788   3.70580   10.845
 5790.00    3.93473   3.70697   10.792
 5791.00    3.93327   3.70892   10.822
 5792.00    3.94129   3.73017   10.858
 5793.00    3.94207   3.77091   10.817
 5794.00    3.96441   3.80829   10.724
 5795.00    3.95626   3.81926   10.655
 5796.00    3.88879   3.80359   10.605
 5797.00    3.82856   3.77786   10.621
 5798.00    3.85273   3.77206   10.693
 5799.00    3.91095   3.79634   10.732
 5800.00    3.99706   3.83584   10.648
 5801.00    4.05315   3.86602   10.502
 5802.00    4.03733   3.86917   10.386
 5803.00    3.99603   3.85012   10.400
 5804.00    3.95967   3.82716   10.496
 5805.00    3.99156   3.81737   10.577
 5806.00    4.00791   3.82144   10.655
 5807.00    3.99777   3.83237   10.681
 5808.00    3.99867   3.84175   10.646
 5809.00    4.01552   3.84703   10.607
 5810.00    4.02250   3.85003   10.584
 5811.00    4.05178   3.84945   10.584
 5812.00    4.06409   3.84408   10.566
 5813.00    4.06758   3.83294   10.525
 5814.00    4.06155   3.81445   10.507
 5815.00    4.06646   3.79365   -1.000
 5816.00    4.06041   3.78755   -1.000
 5817.00    4.05496   3.80909   10.654
 5818.00    4.09643   3.84321   -1.000
 5819.00    4.08939   3.86757   10.515
 5820.00    4.10587   3.87811   10.461
 5821.00    4.10489   3.87829   10.413
 5822.00    4.10814   3.87084   10.392
 5823.00    4.13240   3.86241   -1.000
 5824.00    4.12742   3.86095   -1.000
 5825.00    4.12733   3.86713   -1.000
 5826.00    4.14737   3.87788   -1.000
 5827.00    4.13214   3.88731   10.387
 5828.00    4.12730   3.89548   10.381
 5829.00    4.14248   3.90280   10.390
 5830.00    4.13057   3.90632   10.403
 5831.00    4.12383   3.90648   10.383
 5832.00    4.13391   3.90319   10.385
 5833.00    4.12925   3.89438   10.376
 5834.00    4.12935   3.88262   10.412
 5835.00    4.14024   3.87726   -1.000
 5836.00    4.13635   3.88206   -1.000
 5837.00    4.11405   3.88664   10.438
 5838.00    4.12087   3.88843   10.432
 5839.00    4.16426   3.89535   -1.000
 5840.00    4.17336   3.90994   -1.000
 5841.00    4.16003   3.92782   10.429
 5842.00    4.13871   3.93798   10.352
 5843.00    4.11572   3.93230   10.314
 5844.00    4.12117   3.91636   10.329
 5845.00    4.10531   3.89681   10.368
 5846.00    4.09428   3.87797   10.415
 5847.00    4.11001   3.86345   10.484
 5848.00    4.10075   3.85589   10.534
 5849.00    4.09370   3.85209   10.572
 5850.00    4.07931   3.84626   10.560
 5851.00    4.07391   3.82747   10.591
 5852.00    4.04598   3.80030   -1.000
 5853.00    4.00542   3.78427   10.732
 5854.00    4.06189   3.78410   -1.000
 5855.00    4.05551   3.78051   -1.000
 5856.00    4.05023   3.75247   -1.000
 5857.00    4.03060   3.71718   -1.000
 5858.00    4.04801   3.71055   -1.000
 5859.00    4.05925   3.74092   -1.000
 5860.00    4.09865   3.78434   -1.000
 5861.00    4.11222   3.81101   -1.000
 5862.00    4.11576   3.81816   -1.000
 5863.00    4.11771   3.81796   -1.000
 5864.00    4.14664   3.81521   -1.000
 5865.00    4.17395   3.80681   -1.000
 5866.00    4.13079   3.79428   -1.000
 5867.00    4.12967   3.79503   -1.000
 5868.00    4.16486   3.82033   -1.000
 5869.00    4.20042   3.85291   -1.000
 5870.00    4.19948   3.87196   -1.000
 5871.00    4.20417   3.87244   -1.000
 5872.00    4.19479   3.85889   -1.000
 5873.00    4.19952   3.84140   -1.000
 5874.00    4.19675   3.82679   -1.000
 5875.00    4.17976   3.81882   -1.000
 5876.00    4.17024   3.81522   -1.000
 5877.00    4.18522   3.80863   -1.000
 5878.00    4.19796   3.79391   -1.000
 5879.00    4.18170   3.77637   -1.000
 5880.00    4.17239   3.76553   -1.000
 5881.00    4.15452   3.76668   -1.000
 5882.00    4.13512   3.77350   -1.000
 5883.00    4.13820   3.77044   -1.000
 5884.00    4.14632   3.75597   -1.000
 5885.00    4.13799   3.73310   -1.000
 5886.00    4.12546   3.68007   -1.000
 5887.00    3.99900   3.55120   -1.000
 5888.00    3.67505   3.33979   -1.000
 5889.00    3.22475   3.14042   11.621
 5890.00    2.92598   3.07596   12.420
 5891.00    3.02395   3.16378   13.085
 5892.00    3.48624   3.30472   13.143
 5893.00    3.84256   3.36712   -1.000
 5894.00    3.72711   3.30889   -1.000
 5895.00    3.42910   3.21027   12.094
 5896.00    3.18504   3.19167   12.317
 5897.00    3.25078   3.29900   12.610
 5898.00    3.64648   3.44543   12.449
 5899.00    3.98961   3.55680   -1.000
 5900.00    4.08217   3.63763   -1.000
 5901.00    4.10499   3.69777   -1.000
 5902.00    4.13076   3.74235   -1.000
 5903.00    4.14566   3.77069   -1.000
 5904.00    4.16577   3.78178   -1.000
 5905.00    4.18988   3.78491   -1.000
 5906.00    4.21687   3.78841   -1.000
 5907.00    4.20152   3.79894   -1.000
 5908.00    4.21397   3.81471   -1.000
 5909.00    4.22162   3.82886   -1.000
 5910.00    4.19688   3.83817   -1.000
 5911.00    4.18643   3.83764   -1.000
 5912.00    4.18323   3.82141   -1.000
 5913.00    4.17804   3.79129   -1.000
 5914.00    4.16298   3.76201   -1.000
 5915.00    4.13431   3.74995   -1.000
 5916.00    4.14186   3.75971   -1.000
 5917.00    4.17123   3.78207   -1.000
 5918.00    4.18434   3.80656   -1.000
 5919.00    4.17993   3.82508   -1.000
 5920.00    4.17087   3.83426   -1.000
 5921.00    4.18182   3.83365   -1.000
 5922.00    4.17274   3.82752   -1.000
 5923.00    4.18457   3.82706   -1.000
 5924.00    4.21155   3.84077   -1.000
 5925.00    4.21097   3.86204   -1.000
 5926.00    4.21668   3.87928   -1.000
 5927.00    4.24580   3.88295   -1.000
 5928.00    4.23321   3.86972   -1.000
 5929.00    4.19993   3.85278   -1.000
 5930.00    4.20215   3.85030   -1.000
 5931.00    4.21940   3.86542   -1.000
 5932.00    4.25954   3.87971   -1.000
 5933.00    4.25720   3.87776   -1.000
 5934.00    4.21599   3.86577   -1.000
 5935.00    4.21600   3.86192   -1.000
 5936.00    4.25586   3.87651   -1.000
 5937.00    4.26747   3.89791   -1.000
 5938.00    4.27035   3.90837   -1.000
 5939.00    4.29201   3.90018   -1.000
 5940.00    4.27664   3.87758   -1.000
 5941.00    4.20718   3.85644   -1.000
 5942.00    4.18106   3.85296   -1.000
 5943.00    4.20547   3.87384   -1.000
 5944.00    4.23690   3.90302   -1.000
 5945.00    4.24820   3.92123   -1.000
 5946.00    4.22490   3.92409   -1.000
 5947.00    4.21682   3.91144   -1.000
 5948.00    4.20508   3.89155   -1.000
 5949.00    4.18770   3.88298   -1.000
 5950.00    4.20342   3.88891   -1.000
 5951.00    4.23402   3.89380   -1.000
 5952.00    4.23868   3.89309   -1.000
 5953.00    4.22020   3.89285   -1.000
 5954.00    4.22342   3.89412   -1.000
 5955.00    4.23556   3.88680   -1.000
 5956.00    4.22977   3.87200   -1.000
 5957.00    4.21460   3.86547   -1.000
 5958.00    4.22770   3.88168   -1.000
 5959.00    4.23849   3.91513   -1.000
 5960.00    4.27165   3.94923   -1.000
 5961.00    4.32342   3.97207   -1.000
 5962.00    4.35605   3.97797   -1.000
 5963.00    4.36483   3.97196   -1.000
 5964.00    4.33559   3.95862   -1.000
 5965.00    4.30328   3.94371   -1.000
 5966.00    4.32371   3.94001   -1.000
 5967.00    4.31076   3.95393   -1.000
 5968.00    4.32533   3.97314   -1.000
 5969.00    4.31745   3.98772   -1.000
 5970.00    4.32780   3.99945   -1.000
 5971.00    4.32305   4.00656   -1.000
 5972.00    4.34019   4.00457   -1.000
 5973.00    4.34256   3.99647   -1.000
 5974.00    4.34259   3.98231   -1.000
 5975.00    4.29633   3.95954   -1.000
 5976.00    4.27484   3.93766   -1.000
 5977.00    4.25702   3.92563   -1.000
 5978.00    4.26945   3.92961   -1.000
 5979.00    4.30026   3.94986   -1.000
 5980.00    4.32591   3.97163   -1.000
 5981.00    4.36801   3.97877   -1.000
 5982.00    4.33792   3.96188   -1.000
 5983.00    4.31422   3.93319   -1.000
 5984.00    4.29021   3.91752   -1.000
 5985.00    4.29381   3.92997   -1.000
 5986.00    4.34974   3.96109   -1.000
 5987.00    4.34753   3.98695   -1.000
 5988.00    4.34699   4.00184   -1.000
 5989.00    4.35409   4.00905   -1.000
 5990.00    4.34421   4.01117   -1.000
 5991.00    4.31038   4.01689   -1.000
 5992.00    4.35810   4.03692   -1.000
 5993.00    4.38470   4.06655   -1.000
 5994.00    4.36704   4.08538   -1.000
 5995.00    4.36317   4.07906   -1.000
 5996.00    4.38098   4.05345   -1.000
 5997.00    4.37063   4.03056   -1.000
 5998.00    4.35362   4.02325   -1.000
 5999.00    4.36615   4.02553   -1.000
 6000.00    4.39327   4.02780   -1.000
 6001.00    4.38038   4.02587   -1.000
 6002.00    4.37391   4.02005   -1.000
 6003.00    4.36004   4.01929   -1.000
 6004.00    4.34494   4.02617   -1.000
 6005.00    4.34314   4.02344   -1.000
 6006.00    4.34493   3.99883   -1.000
 6007.00    4.30088   3.97161   -1.000
 6008.00    4.28110   3.97050   -1.000
 6009.00    4.31401   4.00159   -1.000
 6010.00    4.33205   4.03788   -1.000
 6011.00    4.34570   4.04884   -1.000
 6012.00    4.33356   4.03968   -1.000
 6013.00    4.31709   4.03027   -1.000
 6014.00    4.35840   4.03257   -1.000
 6015.00    4.37476   4.03859   -1.000
 6016.00    4.35589   4.03276   -1.000
 6017.00    4.36519   4.02432   -1.000
 6018.00    4.37839   4.02296   -1.000
 6019.00    4.38534   4.02238   -1.000
 6020.00    4.35924   4.02279   -1.000
 6021.00    4.34187   4.02903   -1.000
 6022.00    4.37507   4.03942   -1.000
 6023.00    4.38970   4.05223   -1.000
 6024.00    4.38418   4.06939   -1.000
 6025.00    4.40424   4.09009   -1.000
 6026.00    4.43301   4.10990   -1.000
 6027.00    4.46123   4.12684   -1.000
 6028.00    4.43999   4.14280   -1.000
 6029.00    4.44726   4.15262   -1.000
 6030.00    4.46360   4.15398   -1.000
 6031.00    4.46672   4.15587   -1.000
 6032.00    4.48561   4.16369   -1.000
 6033.00    4.50697   4.17678   -1.000
 6034.00    4.47171   4.18913   -1.000
 6035.00    4.49755   4.19398   -1.000
 6036.00    4.46534   4.19049   -1.000
 6037.00    4.46847   4.18146   -1.000
 6038.00    4.48057   4.17044   -1.000
 6039.00    4.46133   4.15967   -1.000
 6040.00    4.45682   4.15542   -1.000
 6041.00    4.44829   4.15813   -1.000
 6042.00    4.49555   4.16218   -1.000
 6043.00    4.50944   4.17764   -1.000
 6044.00    4.50574   4.20650   -1.000
 6045.00    4.49262   4.23066   -1.000
 6046.00    4.49568   4.24209   -1.000
 6047.00    4.53564   4.24550   -1.000
 6048.00    4.50456   4.24540   -1.000
 6049.00    4.50627   4.24522   -1.000
 6050.00    4.51156   4.24753   -1.000
 6051.00    4.52406   4.24490   -1.000
 6052.00    4.51551   4.23197   -1.000
 6053.00    4.53943   4.21609   -1.000
 6054.00    4.53896   4.20196   -1.000
 6055.00    4.51748   4.18611   -1.000
 6056.00    4.49692   4.17230   -1.000
 6057.00    4.52533   4.16875   -1.000
 6058.00    4.52891   4.17831   -1.000
 6059.00    4.51424   4.19897   -1.000
 6060.00    4.51770   4.21553   -1.000
 6061.00    4.49182   4.21192   -1.000
 6062.00    4.48167   4.18413   -1.000
 6063.00    4.46086   4.14290   -1.000
 6064.00    4.38046   4.10836   -1.000
 6065.00    4.28757   4.10260   11.217
 6066.00    4.41525   4.13896   -1.000
 6067.00    4.41833   4.19713   -1.000
 6068.00    2.91862   4.24535   -1.000
 6069.00    1.82135   4.27277   -1.000
 6070.00    2.65164   4.28679   -1.000
 6071.00    4.08856   4.29491   10.829
 6072.00    4.01910   4.29918   10.525
 6073.00    4.05316   4.29837   10.461
 6074.00    1.70986   4.29366   -1.000
 6075.00    2.94963   4.28454   -1.000
 6076.00    4.80840   4.26879   -1.000
 6077.00    4.53709   4.24864   -1.000
 6078.00    4.52264   4.22952   -1.000
 6079.00    4.51742   4.21497   -1.000
 6080.00    4.51932   4.20222   -1.000
 6081.00    4.49409   4.18779   -1.000
 6082.00    4.48287   4.18245   -1.000
 6083.00    4.48037   4.19321   -1.000
 6084.00    4.46954   4.20764   -1.000
 6085.00    4.48337   4.21906   -1.000
 6086.00    4.52558   4.23147   -1.000
 6087.00    4.55165   4.24163   -1.000
 6088.00    4.55576   4.23926   -1.000
 6089.00    4.53527   4.22170   -1.000
 6090.00    4.50584   4.20056   -1.000
 6091.00    4.51157   4.19370   -1.000
 6092.00    4.51825   4.20510   -1.000
 6093.00    4.50202   4.22851   -1.000
 6094.00    4.53608   4.25446   -1.000
 6095.00    4.58560   4.27186   -1.000
 6096.00    4.57231   4.27928   -1.000
 6097.00    4.55267   4.28474   -1.000
 6098.00    4.56228   4.29397   -1.000
 6099.00    4.58031   4.29211   -1.000
 6100.00    4.54394   4.25746   -1.000
 6101.00    4.49047   4.18756   -1.000
 6102.00    4.43765   4.12094   -1.000
 6103.00    4.39953   4.11343   -1.000
 6104.00    4.45522   4.16022   -1.000
 6105.00    4.55170   4.21454   -1.000
 6106.00    4.56662   4.25077   -1.000
 6107.00    4.53022   4.26997   -1.000
 6108.00    4.51915   4.28540   -1.000
 6109.00    4.52689   4.29718   -1.000
 6110.00    4.55994   4.29689   -1.000
 6111.00    4.57105   4.29314   -1.000
 6112.00    4.56143   4.30205   -1.000
 6113.00    4.58488   4.32075   -1.000
 6114.00    4.57232   4.33331   -1.000
 6115.00    4.56964   4.32875   -1.000
 6116.00    4.55775   4.31836   -1.000
 6117.00    4.57909   4.31118   -1.000
 6118.00    4.54374   4.28187   -1.000
 6119.00    4.47776   4.22228   -1.000
 6120.00    4.44789   4.14992   -1.000
 6121.00    4.39298   4.09365   -1.000
 6122.00    4.37096   4.09708   -1.000
 6123.00    4.41660   4.15519   -1.000
 6124.00    4.51621   4.21845   -1.000
 6125.00    4.51441   4.25378   -1.000
 6126.00    4.48593   4.26239   -1.000
 6127.00    4.45112   4.26179   11.209
 6128.00    4.48172   4.27216   11.271
 6129.00    4.51356   4.30542   11.244
 6130.00    4.55999   4.34590   11.212
 6131.00    4.60366   4.37200   -1.000
 6132.00    4.58217   4.37090   11.014
 6133.00    4.56249   4.33412   -1.000
 6134.00    4.46837   4.25333   11.043
 6135.00    4.40829   4.14150   -1.000
 6136.00    4.30684   4.05474   -1.000
 6137.00    4.25644   4.05545   11.799
 6138.00    4.32415   4.13062   12.056
 6139.00    4.41485   4.20922   -1.000
 6140.00    4.47206   4.24564   -1.000
 6141.00    4.46068   4.25137   -1.000
 6142.00    4.41605   4.27379   11.283
 6143.00    4.47398   4.31743   11.318
 6144.00    4.55278   4.35311   11.319
 6145.00    4.61907   4.36538   -1.000
 6146.00    4.60571   4.35616   -1.000
 6147.00    4.58873   4.32882   -1.000
 6148.00    4.55846   4.29311   -1.000
 6149.00    4.52808   4.26861   -1.000
 6150.00    4.53554   4.26785   -1.000
 6151.00    4.51102   4.28862   -1.000
 6152.00    4.50964   4.30924   11.328
 6153.00    4.54973   4.31022   -1.000
 6154.00    4.55381   4.29398   -1.000
 6155.00    4.54367   4.27599   -1.000
 6156.00    4.53762   4.26275   -1.000
 6157.00    4.55010   4.24600   -1.000
 6158.00    4.53616   4.21349   -1.000
 6159.00    4.50083   4.14530   -1.000
 6160.00    4.44224   4.03900   -1.000
 6161.00    4.35027   3.92734   -1.000
 6162.00    4.27911   3.86884   -1.000
 6163.00    4.27040   3.89607   -1.000
 6164.00    4.33500   3.97220   -1.000
 6165.00    4.37856   4.04468   -1.000
 6166.00    4.39312   4.08967   -1.000
 6167.00    4.40954   4.09765   -1.000
 6168.00    4.37057   4.06764   -1.000
 6169.00    4.31348   4.03597   -1.000
 6170.00    4.32275   4.04514   -1.000
 6171.00    4.37602   4.09432   -1.000
 6172.00    4.41002   4.14359   -1.000
 6173.00    4.42300   4.16803   -1.000
 6174.00    4.43156   4.18074   -1.000
 6175.00    4.44905   4.19016   -1.000
 6176.00    4.45537   4.19813   -1.000
 6177.00    4.45959   4.21115   -1.000
 6178.00    4.48512   4.22736   -1.000
 6179.00    4.46988   4.23942   -1.000
 6180.00    4.45381   4.24988   11.504
 6181.00    4.48853   4.26279   -1.000
 6182.00    4.53925   4.27113   -1.000
 6183.00    4.56158   4.26893   -1.000
 6184.00    4.54004   4.25603   -1.000
 6185.00    4.54209   4.22997   -1.000
 6186.00    4.52139   4.19531   -1.000
 6187.00    4.49998   4.16525   -1.000
 6188.00    4.49589   4.13666   -1.000
 6189.00    4.42651   4.09695   -1.000
 6190.00    4.38946   4.04861   -1.000
 6191.00    4.34845   4.02698   -1.000
 6192.00    4.37941   4.05988   -1.000
 6193.00    4.48683   4.12399   -1.000
 6194.00    4.53260   4.18167   -1.000
 6195.00    4.55276   4.22147   -1.000
 6196.00    4.52666   4.24355   -1.000
 6197.00    4.52568   4.23920   -1.000
 6198.00    4.50188   4.20967   -1.000
 6199.00    4.47469   4.18422   -1.000
 6200.00    4.47845   4.19309   -1.000
 6201.00    4.47761   4.22550   -1.000
 6202.00    4.47008   4.25832   -1.000
 6203.00    4.45920   4.28092   11.615
 6204.00    4.47344   4.29238   11.478
 6205.00    4.45078   4.30033   11.467
 6206.00    4.51139   4.30854   11.468
 6207.00    4.56207   4.31662   -1.000
 6208.00    4.58705   4.31766   -1.000
 6209.00    4.58128   4.30526   -1.000
 6210.00    4.55105   4.28172   -1.000
 6211.00    4.49568   4.24808   -1.000
 6212.00    4.50277   4.19880   -1.000
 6213.00    4.48021   4.14532   -1.000
 6214.00    4.45370   4.10963   -1.000
 6215.00    4.44508   4.09931   -1.000
 6216.00    4.48702   4.10807   -1.000
 6217.00    4.53097   4.12112   -1.000
 6218.00    4.53907   4.12511   -1.000
 6219.00    4.47932   4.12078   -1.000
 6220.00    4.47056   4.12346   -1.000
 6221.00    4.52651   4.13442   -1.000
 6222.00    4.55085   4.13992   -1.000
 6223.00    4.58278   4.14104   -1.000
 6224.00    4.60649   4.14804   -1.000
 6225.00    4.47005   4.16010   -1.000
 6226.00    4.01390   4.16967   11.825
 6227.00    4.53552   4.16246   -1.000
 6228.00    4.57003   4.12673   -1.000
 6229.00    4.47517   4.06703   -1.000
 6230.00    4.39640   4.01892   -1.000
 6231.00    4.39441   4.01770   -1.000
 6232.00    4.43899   4.06130   -1.000
 6233.00    4.51271   4.12688   -1.000
 6234.00    4.53732   4.18893   -1.000
 6235.00    4.57652   4.22319   -1.000
 6236.00    4.61708   4.22125   -1.000
 6237.00    4.61034   4.19535   -1.000
 6238.00    4.61532   4.16070   -1.000
 6239.00    4.55995   4.13145   -1.000
 6240.00    4.51195   4.11772   -1.000
 6241.00    4.50893   4.11445   -1.000
 6242.00    4.45362   4.10508   -1.000
 6243.00    4.45853   4.09111   -1.000
 6244.00    4.47573   4.08820   -1.000
 6245.00    4.45881   4.10275   -1.000
 6246.00    4.47465   4.13904   -1.000
 6247.00    4.50548   4.18672   -1.000
 6248.00    4.52485   4.22271   -1.000
 6249.00    4.55816   4.23491   -1.000
 6250.00    4.54231   4.21802   -1.000
 6251.00    4.48381   4.17525   -1.000
 6252.00    4.41005   4.13296   -1.000
 6253.00    4.34018   4.11663   -1.000
 6254.00    4.35803   4.11894   -1.000
 6255.00    4.38668   4.11735   -1.000
 6256.00    4.34126   4.09640   -1.000
 6257.00    4.33794   4.07348   -1.000
 6258.00    4.42637   4.07906   -1.000
 6259.00    4.45104   4.11602   -1.000
 6260.00    4.45400   4.17018   -1.000
 6261.00    4.51251   4.22760   -1.000
 6262.00    4.51977   4.27345   -1.000
 6263.00    4.53183   4.29323   -1.000
 6264.00    4.52408   4.28797   -1.000
 6265.00    4.49214   4.27653   -1.000
 6266.00    4.52713   4.27528   -1.000
 6267.00    4.57275   4.27958   -1.000
 6268.00    4.54093   4.27973   -1.000
 6269.00    4.52878   4.28090   -1.000
 6270.00    4.49452   4.29118   -1.000
 6271.00    4.49191   4.30477   12.036
 6272.00    4.52612   4.30855   -1.000
 6273.00    4.56583   4.29460   -1.000
 6274.00    4.54362   4.26358   -1.000
 6275.00    4.49062   4.22436   -1.000
 6276.00    4.48193   4.18594   -1.000
 6277.00    4.44032   4.15719   -1.000
 6278.00    4.32209   4.14123   12.404
 6279.00    4.16391   4.13592   12.727
 6280.00    4.07860   4.14430   12.932
 6281.00    4.05389   4.17142   12.986
 6282.00    4.02980   4.21582   12.910
 6283.00    4.00737   4.26397   12.687
 6284.00    3.99552   4.30355   -1.000
 6285.00    4.00853   4.33702   -1.000
 6286.00    4.09456   4.36780   12.143
 6287.00    4.21853   4.39382   12.048
 6288.00    4.35579   4.40526   11.937
 6289.00    4.45477   4.39629   11.862
 6290.00    4.49133   4.37510   11.851
 6291.00    4.50199   4.35293   11.928
 6292.00    4.49891   4.33539   12.032
 6293.00    4.50469   4.32393   12.115
 6294.00    4.50688   4.31299   12.130
 6295.00    4.47329   4.28942   12.143
 6296.00    4.44785   4.26274   12.171
 6297.00    4.43137   4.25872   12.274
 6298.00    4.40508   4.27618   12.348
 6299.00    4.40435   4.29394   12.356
 6300.00    4.42503   4.29703   12.332
 6301.00    4.42325   4.29118   12.276
 6302.00    4.44828   4.29788   12.231
 6303.00    4.50971   4.31958   12.358
 6304.00    4.52441   4.34216   12.486
 6305.00    4.53086   4.36353   12.345
 6306.00    4.57810   4.39326   12.144
 6307.00    4.60260   4.42978   12.004
 6308.00    4.55883   4.45460   11.906
 6309.00    4.53489   4.45599   11.801
 6310.00    4.57985   4.44338   11.798
 6311.00    4.56895   4.42918   11.859
 6312.00    4.52702   4.41962   11.941
 6313.00    4.51710   4.41157   11.982
 6314.00    4.48037   4.39963   12.030
 6315.00    4.47337   4.38887   12.042
 6316.00    4.45596   4.37914   12.164
 6317.00    4.44475   4.36721   12.194
 6318.00    4.44940   4.36777   12.180
 6319.00    4.46976   4.39496   12.170
 6320.00    4.50378   4.43160   12.187
 6321.00    4.51659   4.45735   12.129
 6322.00    4.55918   4.47774   11.972
 6323.00    4.60920   4.50051   11.863
 6324.00    4.60486   4.51885   11.826
 6325.00    4.62648   4.52711   11.785
 6326.00    4.59162   4.53115   11.719
 6327.00    4.61939   4.53651   11.688
 6328.00    4.64982   4.54382   11.682
 6329.00    4.60366   4.55005   11.620
 6330.00    4.60305   4.55889   11.641
 6331.00    4.62916   4.57774   11.647
 6332.00    4.64170   4.58881   11.653
 6333.00    4.64841   4.56882   11.605
 6334.00    4.60387   4.52119   11.592
 6335.00    4.55216   4.47478   11.630
 6336.00    4.57980   4.46456   11.670
 6337.00    4.18585   4.48912   11.962
 6338.00    3.92999   4.52544   -1.000
 6339.00    4.69056   4.56009   11.836
 6340.00    4.65022   4.58307   11.714
 6341.00    4.64988   4.58539   11.587
 6342.00    4.66224   4.56460   11.539
 6343.00    4.60993   4.53116   11.484
 6344.00    4.58495   4.51462   11.506
 6345.00    4.59268   4.53167   11.617
 6346.00    4.63964   4.56632   11.619
 6347.00    4.66902   4.60164   11.582
 6348.00    4.66884   4.63182   11.515
 6349.00    4.65521   4.65285   11.434
 6350.00    4.68187   4.65978   11.397
 6351.00    4.68249   4.65245   11.403
 6352.00    4.64162   4.63321   11.376
 6353.00    4.62296   4.60366   11.393
 6354.00    4.61433   4.57584   11.446
 6355.00    4.57382   4.56182   11.502
 6356.00    4.58149   4.55048   11.643
 6357.00    4.56095   4.52545   11.735
 6358.00    4.58025   4.49261   11.730
 6359.00    4.55855   4.46883   11.773
 6360.00    4.55586   4.45553   11.916
 6361.00    4.59449   4.44864   11.952
 6362.00    4.55476   4.45336   11.894
 6363.00    4.56098   4.47502   11.859
 6364.00    4.58886   4.50888   11.850
 6365.00    4.59293   4.54602   11.803
 6366.00    4.59659   4.58239   11.722
 6367.00    4.61692   4.61879   11.648
 6368.00    4.61500   4.64454   11.586
 6369.00    4.64313   4.65263   11.511
 6370.00    4.64004   4.65517   11.436
 6371.00    4.59541   4.66321   11.413
 6372.00    4.62825   4.67976   11.423
 6373.00    4.66221   4.69626   11.378
 6374.00    4.67301   4.70350   11.336
 6375.00    4.64127   4.70420   11.374
 6376.00    4.60557   4.69715   11.380
 6377.00    4.63431   4.67323   11.407
 6378.00    4.57163   4.64262   11.452
 6379.00    4.54914   4.62227   11.513
 6380.00    4.56702   4.61701   11.592
 6381.00    4.57342   4.62529   11.631
 6382.00    4.57679   4.64054   11.636
 6383.00    4.57880   4.65428   11.659
 6384.00    4.60743   4.66262   11.652
 6385.00    4.58345   4.67135   11.621
 6386.00    4.57257   4.68232   11.684
 6387.00    4.58682   4.68997   11.706
 6388.00    4.57461   4.69277   11.694
 6389.00    4.55603   4.69088   11.735
 6390.00    4.51384   4.67539   11.774
 6391.00    4.44406   4.63702   11.878
 6392.00    4.39657   4.58890   11.971
 6393.00    4.36494   4.56771   12.115
 6394.00    4.33487   4.59962   12.303
 6395.00    4.32631   4.65887   -1.000
 6396.00    4.37306   4.70201   -1.000
 6397.00    4.38284   4.70252   -1.000
 6398.00    4.32962   4.65888   -1.000
 6399.00    4.25524   4.60555   -1.000
 6400.00    4.18495   4.59263   -1.000
 6401.00    4.18896   4.64043   -1.000
 6402.00    4.26235   4.70935   -1.000
 6403.00    4.32688   4.75802   -1.000
 6404.00    4.31726   4.77513   -1.000
 6405.00    4.31580   4.76154   -1.000
 6406.00    4.28449   4.72905   -1.000
 6407.00    4.21503   4.70218   -1.000
 6408.00    4.18373   4.69988   -1.000
 6409.00    4.14679   4.70929   -1.000
 6410.00    4.10368   4.70637   -1.000
 6411.00    4.08650   4.69108   -1.000
 6412.00    4.03519   4.68468   -1.000
 6413.00    4.01904   4.69806   -1.000
 6414.00    4.02111   4.72350   -1.000
 6415.00    4.04439   4.74843   -1.000
 6416.00    4.01641   4.75897   -1.000
 6417.00    4.00249   4.74753   -1.000
 6418.00    3.97652   4.71369   -1.000
 6419.00    3.89517   4.67028   -1.000
 6420.00    3.81543   4.64500   -1.000
 6421.00    3.74166   4.66251   -1.000
 6422.00    3.77580   4.71422   -1.000
 6423.00    3.79137   4.76734   -1.000
 6424.00    3.78815   4.80384   -1.000
 6425.00    3.73548   4.82553   -1.000
 6426.00    3.72557   4.83833   -1.000
 6427.00    3.69736   4.83347   -1.000
 6428.00    3.66272   4.79336   -1.000
