###################################################################
## OUTPUT of StarlightChains_v04.for    [Cid@UFSC - 01/Apr/2007] ##
###################################################################

## Some input info
NGC6284_a_2.cxt                          [arq_obs]
Base.BC03.S                              [arq_base]
NGC6284_a_2.msk                          [arq_masks]
StCv04.C11.config                        [arq_config]
  150                                    [N_base]
    0                                    [N_YAV_components = # of components with extra extinction!]
    0                                    [i_FitPowerLaw (1/0 = Yes/No)]
-9.99                                    [alpha_PowerLaw]
CCM                                      [red_law_option]
 1.458241                                [q_norm = A(l_norm)/A(V)]

## (Re)Sampling Parameters
 3359.00                                 [l_ini (A)]
 6428.00                                 [l_fin (A)]
    1.00                                 [dl    (A)]     (OBS: dl_cushion =    50.00 A)

## Normalization info
 4020.00                                 [l_norm (A) - for base]
 4010.00                                 [llow_norm (A) - window for f_obs]
 4060.00                                 [lupp_norm (A) - window for f_obs]
1.360561E-14                             [fobs_norm (in input units)]

## S/N
 4730.00                                 [llow_SN (A) - window for S/N]
 4780.00                                 [lupp_SN (A) - window for S/N]
  73.354                                 [S/N in S/N window]
  58.120                                 [S/N in norm. window]
  64.892                                 [S/N_err in S/N window]
  51.416                                 [S/N_err in norm. window]
  1.0000                                 [fscale_chi2]

## etc...
  2147483620                             [idum_orig]
  3068                                   [NOl_eff]
  2153                                   [Nl_eff]
   915    NSIGMA                         [Ntot_cliped & clip_method]
  2174200                                [Nglobal_steps]
   7                                     [N_chains]
  34                                     [NEX0s_base = N_base in EX0s-fits]
 0   0   1      379   2.0   9.368E+02    [Clip-Bug, RC-Crash & Burn-In warning-flags, n_censored_weights, wei_nsig_threshold & wei_limit]
    66     66.553     66.549      0.004  [idt_all, wdt_TotTime, wdt_UsrTime & wdt_SysTime (sec)]

## Synthesis Results - Best model ##

 2.10249E+00                             [chi2/Nl_eff]
     1.61439                             [adev (%)]

   101.74491                             [sum-of-x (%)]
 4.36033E-14                             [Flux_tot (units of input spectrum!)]
 1.03101E-09                             [Mini_tot (???)]
 5.22985E-10                             [Mcor_tot (???)]

 -18.12                                  [v0_min  (km/s)]
  81.80                                  [vd_min  (km/s)]
 0.8543                                  [AV_min  (mag)]
 0.0000                                  [YAV_min (mag)]

# j     x_j(%)      Mini_j(%)     Mcor_j(%)     age_j(yr)     Z_j      (L/M)_j    YAV?  Mstars   component_j        a/Fe...       SSP_chi2r SSP_adev(%)   SSP_AV   SSP_x(%)
  1      0.0000     0.0000E+00    0.0000E+00    1.000000E+06  0.00010  8.160E-03    0   1.0000   age020_m22            0.0000     4.4958E+02    18.6084   4.0000    73.1335
  2     12.0897     1.0559E-02    2.0817E-02    3.160000E+06  0.00010  4.759E-02    0   1.0000   age045_m22            0.0000     2.9194E+01     3.6072   2.4131    93.8500
  3      0.0000     0.0000E+00    0.0000E+00    5.010000E+06  0.00010  1.932E-02    0   0.9582   age055_m22            0.0000     1.9878E+02     9.3296   2.8027    77.7204
  4      0.0000     0.0000E+00    0.0000E+00    6.610000E+06  0.00010  9.973E-03    0   0.9297   age061_m22            0.0000     3.9195E+02    17.5926   4.0000    75.6968
  5      0.0000     0.0000E+00    0.0000E+00    8.710000E+06  0.00010  7.690E-03    0   0.9030   age067_m22            0.0000     3.7167E+02    17.1453   4.0000    76.2367
  6      0.0000     0.0000E+00    0.0000E+00    1.000000E+07  0.00010  6.375E-03    0   0.8902   age070_m22            0.0000     3.6801E+02    17.2591   4.0000    76.5514
  7      0.0000     0.0000E+00    0.0000E+00    1.445000E+07  0.00010  4.874E-03    0   0.8589   age078_m22            0.0000     2.0267E+02    11.4973   4.0000    79.5630
  8      0.0000     0.0000E+00    0.0000E+00    2.512000E+07  0.00010  4.103E-03    0   0.8174   age090_m22            0.0000     5.4679E+01     5.5943   3.8241    86.0147
  9      0.6874     7.8199E-03    1.2071E-02    4.000000E+07  0.00010  3.654E-03    0   0.7830   age104_m22            0.0000     7.3720E+01     4.4054   3.4930    91.8280
 10      0.3218     4.3249E-03    6.4774E-03    5.500000E+07  0.00010  3.093E-03    0   0.7597   age110_m22            0.0000     9.6599E+01     4.0307   3.3696    94.2904
 11      1.1217     1.9179E-02    2.6988E-02    1.015200E+08  0.00010  2.431E-03    0   0.7138   age116_m22            0.0000     1.6893E+02     3.9273   2.9978    98.1353
 12      0.0000     0.0000E+00    0.0000E+00    1.609000E+08  0.00010  1.319E-03    0   0.6775   age120_m22            0.0000     1.7889E+02     3.7669   2.4922   101.7252
 13      0.0000     0.0000E+00    0.0000E+00    2.861200E+08  0.00010  1.075E-03    0   0.6412   age125_m22            0.0000     5.0870E+02     6.5308   2.4611   109.3925
 14      0.0000     0.0000E+00    0.0000E+00    5.088000E+08  0.00010  7.183E-04    0   0.6083   age130_m22            0.0000     6.1872E+02     7.8361   2.1856   113.3213
 15      0.0000     0.0000E+00    0.0000E+00    9.047900E+08  0.00010  4.524E-04    0   0.5785   age135_m22            0.0000     6.1662E+02     8.1234   1.9755   115.2254
 16      0.0000     0.0000E+00    0.0000E+00    1.278050E+09  0.00010  3.018E-04    0   0.5588   age138_m22            0.0000     2.6773E+02     5.5976   1.5050   110.9191
 17      0.0000     0.0000E+00    0.0000E+00    1.434000E+09  0.00010  2.691E-04    0   0.5532   age139_m22            0.0000     2.0737E+02     5.1078   1.3601   109.9438
 18      0.0000     0.0000E+00    0.0000E+00    2.500000E+09  0.00010  1.582E-04    0   0.5296   age150_m22            0.0000     1.7511E+02     4.4068   1.2698   109.5470
 19      0.0000     0.0000E+00    0.0000E+00    4.250000E+09  0.00010  1.007E-04    0   0.5110   age158_m22            0.0000     8.0544E+01     3.2967   1.1492   106.5626
 20      0.0000     0.0000E+00    0.0000E+00    6.250000E+09  0.00010  6.869E-05    0   0.4985   age166_m22            0.0000     2.4945E+01     2.4600   1.1224   102.5013
 21      0.1151     8.1456E-02    7.9183E-02    7.500000E+09  0.00010  5.873E-05    0   0.4931   age171_m22            0.0000     2.0733E+01     2.3922   1.1204   101.4416
 22      0.0210     1.9458E-02    1.8620E-02    1.000000E+10  0.00010  4.481E-05    0   0.4854   age181_m22            0.0000     1.9403E+01     2.3511   1.0820   101.1230
 23      0.0000     0.0000E+00    0.0000E+00    1.300000E+10  0.00010  3.489E-05    0   0.4791   age193_m22            0.0000     1.5776E+01     2.2605   1.0250   100.6426
 24      0.0000     0.0000E+00    0.0000E+00    1.500000E+10  0.00010  3.035E-05    0   0.4766   age201_m22            0.0000     1.3800E+01     2.1983   0.9871   100.4128
 25      0.7006     1.1602E+00    1.0830E+00    1.800000E+10  0.00010  2.510E-05    0   0.4735   age213_m22            0.0000     9.6518E+00     2.0862   0.9231    99.6612
 26      0.0000     0.0000E+00    0.0000E+00    1.000000E+06  0.00040  8.458E-03    0   1.0000   age020_m32            0.0000     4.4927E+02    18.9023   4.0000    73.8025
 27      0.0000     0.0000E+00    0.0000E+00    3.160000E+06  0.00040  3.973E-02    0   1.0000   age045_m32            0.0000     5.7234E+01     5.7891   3.7287    85.6069
 28      0.0000     0.0000E+00    0.0000E+00    5.010000E+06  0.00040  1.935E-02    0   0.9532   age055_m32            0.0000     1.4888E+02     8.5324   4.0000    78.3121
 29      0.0000     0.0000E+00    0.0000E+00    6.610000E+06  0.00040  1.204E-02    0   0.9243   age061_m32            0.0000     2.5895E+02    13.2810   4.0000    77.6900
 30      0.0000     0.0000E+00    0.0000E+00    8.710000E+06  0.00040  9.433E-03    0   0.9001   age067_m32            0.0000     2.2059E+02    12.1633   4.0000    78.6935
 31      0.0000     0.0000E+00    0.0000E+00    1.000000E+07  0.00040  8.053E-03    0   0.8877   age070_m32            0.0000     1.9735E+02    11.0741   4.0000    79.1353
 32      0.0000     0.0000E+00    0.0000E+00    1.445000E+07  0.00040  7.027E-03    0   0.8578   age078_m32            0.0000     7.2972E+01     6.7105   3.7014    83.7031
 33      0.0000     0.0000E+00    0.0000E+00    2.512000E+07  0.00040  4.707E-03    0   0.8166   age090_m32            0.0000     4.8482E+01     5.4452   3.3792    88.5793
 34      1.0278     1.1503E-02    1.7749E-02    4.000000E+07  0.00040  3.714E-03    0   0.7827   age104_m32            0.0000     6.4086E+01     4.4336   3.1472    92.9987
 35      0.0000     0.0000E+00    0.0000E+00    5.500000E+07  0.00040  2.982E-03    0   0.7593   age110_m32            0.0000     8.6491E+01     4.1287   3.0695    94.8700
 36      0.0000     0.0000E+00    0.0000E+00    1.015200E+08  0.00040  2.188E-03    0   0.7143   age116_m32            0.0000     2.6091E+02     4.2770   2.7310   102.1991
 37      0.0000     0.0000E+00    0.0000E+00    1.609000E+08  0.00040  1.690E-03    0   0.6856   age120_m32            0.0000     4.1014E+02     5.1940   2.4812   106.6169
 38      0.0000     0.0000E+00    0.0000E+00    2.861200E+08  0.00040  1.152E-03    0   0.6509   age125_m32            0.0000     5.3186E+02     6.9364   2.1943   111.5070
 39      0.0000     0.0000E+00    0.0000E+00    5.088000E+08  0.00040  7.331E-04    0   0.6182   age130_m32            0.0000     5.7137E+02     7.6984   2.0066   113.5698
 40      0.0000     0.0000E+00    0.0000E+00    9.047900E+08  0.00040  3.960E-04    0   0.5890   age135_m32            0.0000     2.6645E+02     6.2241   1.5817   111.1088
 41      0.0000     0.0000E+00    0.0000E+00    1.278050E+09  0.00040  2.854E-04    0   0.5687   age138_m32            0.0000     2.0708E+02     4.9796   1.3214   111.2740
 42      0.0000     0.0000E+00    0.0000E+00    1.434000E+09  0.00040  2.531E-04    0   0.5632   age139_m32            0.0000     2.0002E+02     4.8048   1.2633   111.1001
 43      3.9318     1.0983E+00    1.1662E+00    2.500000E+09  0.00040  1.488E-04    0   0.5386   age150_m32            0.0000     1.1947E+02     4.0163   1.0203   108.7920
 44     51.0196     2.3351E+01    2.3933E+01    4.250000E+09  0.00040  9.082E-05    0   0.5199   age158_m32            0.0000     2.1275E+01     2.3769   0.9691   103.5169
 45      8.1666     5.3357E+00    5.3393E+00    6.250000E+09  0.00040  6.362E-05    0   0.5076   age166_m32            0.0000     6.8313E+00     1.9758   0.9711    98.2401
 46      0.6385     5.0178E-01    4.9728E-01    7.500000E+09  0.00040  5.289E-05    0   0.5027   age171_m32            0.0000     1.0470E+01     2.0318   0.9381    96.9335
 47      0.0058     6.1206E-03    5.9703E-03    1.000000E+10  0.00040  3.972E-05    0   0.4948   age181_m32            0.0000     1.5103E+01     2.1207   0.8746    95.8016
 48      0.0000     0.0000E+00    0.0000E+00    1.300000E+10  0.00040  3.283E-05    0   0.4870   age193_m32            0.0000     5.2644E+00     1.9586   0.8088    99.3944
 49      0.0062     8.8249E-03    8.4447E-03    1.500000E+10  0.00040  2.925E-05    0   0.4854   age201_m32            0.0000     7.9367E+00     2.0720   0.7777   101.4971
 50      0.0485     8.1666E-02    7.7584E-02    1.800000E+10  0.00040  2.469E-05    0   0.4819   age213_m32            0.0000     1.0685E+01     2.1736   0.7308   102.2908
 51      0.0000     0.0000E+00    0.0000E+00    1.000000E+06  0.00400  1.114E-02    0   1.0000   age020_m42            0.0000     3.9529E+02    16.8278   4.0000    74.3493
 52      1.0440     1.0654E-03    2.1002E-03    3.160000E+06  0.00400  4.073E-02    0   0.9999   age045_m42            0.0000     3.8094E+01     4.5154   3.4021    89.3025
 53      0.0000     0.0000E+00    0.0000E+00    5.010000E+06  0.00400  2.534E-02    0   0.9488   age055_m42            0.0000     9.7995E+01     6.8258   3.8566    81.4514
 54      1.1995     1.9302E-03    3.5084E-03    6.610000E+06  0.00400  2.583E-02    0   0.9220   age061_m42            0.0000     4.5595E+01     4.2951   3.2195    90.1650
 55      0.0000     0.0000E+00    0.0000E+00    8.710000E+06  0.00400  1.706E-02    0   0.8983   age067_m42            0.0000     5.0580E+01     5.6688   3.0768    86.8973
 56      0.3912     1.2794E-03    2.2352E-03    1.000000E+07  0.00400  1.271E-02    0   0.8862   age070_m42            0.0000     7.2270E+01     7.0910   3.0850    84.5268
 57      0.0000     0.0000E+00    0.0000E+00    1.445000E+07  0.00400  7.666E-03    0   0.8571   age078_m42            0.0000     1.1791E+02     7.6374   3.4966    81.3013
 58      0.0000     0.0000E+00    0.0000E+00    2.512000E+07  0.00400  5.070E-03    0   0.8174   age090_m42            0.0000     6.2742E+01     6.5210   2.9366    86.8104
 59      0.0000     0.0000E+00    0.0000E+00    4.000000E+07  0.00400  3.505E-03    0   0.7851   age104_m42            0.0000     4.2824E+01     4.8544   2.5817    91.3664
 60      0.0000     0.0000E+00    0.0000E+00    5.500000E+07  0.00400  3.059E-03    0   0.7629   age110_m42            0.0000     8.6339E+01     3.0189   2.5735    98.6174
 61      0.0000     0.0000E+00    0.0000E+00    1.015200E+08  0.00400  2.268E-03    0   0.7207   age116_m42            0.0000     3.5437E+02     5.0060   2.3976   107.4925
 62      0.0000     0.0000E+00    0.0000E+00    1.609000E+08  0.00400  1.720E-03    0   0.6930   age120_m42            0.0000     3.8471E+02     5.8135   2.2277   110.4751
 63      0.0000     0.0000E+00    0.0000E+00    2.861200E+08  0.00400  1.079E-03    0   0.6613   age125_m42            0.0000     3.9282E+02     6.2190   1.8499   112.1008
 64      0.0000     0.0000E+00    0.0000E+00    5.088000E+08  0.00400  6.261E-04    0   0.6313   age130_m42            0.0000     4.5515E+02     6.7665   1.6385   115.8222
 65      0.0000     0.0000E+00    0.0000E+00    9.047900E+08  0.00400  3.535E-04    0   0.6024   age135_m42            0.0000     2.3128E+02     5.5880   1.2661   115.3064
 66      0.0000     0.0000E+00    0.0000E+00    1.278050E+09  0.00400  2.677E-04    0   0.5837   age138_m42            0.0000     5.1205E+01     5.1574   0.5942   113.2230
 67      0.0000     0.0000E+00    0.0000E+00    1.434000E+09  0.00400  1.910E-04    0   0.5716   age139_m42            0.0000     7.3888E+01     5.2413   0.7559   114.1661
 68      0.0000     0.0000E+00    0.0000E+00    2.500000E+09  0.00400  9.818E-05    0   0.5463   age150_m42            0.0000     2.3357E+01     4.2852   0.5288   107.9359
 69      0.0000     0.0000E+00    0.0000E+00    4.250000E+09  0.00400  5.491E-05    0   0.5269   age158_m42            0.0000     4.9409E+01     3.9020   0.4285   104.1242
 70      0.0000     0.0000E+00    0.0000E+00    6.250000E+09  0.00400  3.857E-05    0   0.5151   age166_m42            0.0000     7.9494E+01     4.3854   0.3032   102.9687
 71      0.0732     9.3772E-02    9.4464E-02    7.500000E+09  0.00400  3.243E-05    0   0.5110   age171_m42            0.0000     1.0016E+02     4.7314   0.2227   102.6652
 72      0.1025     1.7584E-01    1.7429E-01    1.000000E+10  0.00400  2.424E-05    0   0.5028   age181_m42            0.0000     1.3516E+02     5.1685   0.1406   102.3234
 73      0.0000     0.0000E+00    0.0000E+00    1.300000E+10  0.00400  1.883E-05    0   0.4927   age193_m42            0.0000     1.6858E+02     5.4141   0.1023   102.0895
 74      1.1306     2.7889E+00    2.7045E+00    1.500000E+10  0.00400  1.685E-05    0   0.4919   age201_m42            0.0000     1.5971E+02     5.2870   0.1081   101.9962
 75      1.4897     4.2646E+00    4.0977E+00    1.800000E+10  0.00400  1.452E-05    0   0.4874   age213_m42            0.0000     1.4368E+02     5.0588   0.1251   102.0703
 76      0.0000     0.0000E+00    0.0000E+00    1.000000E+06  0.00800  1.286E-02    0   1.0000   age020_m52            0.0000     3.3035E+02    15.5009   4.0000    76.4337
 77      0.0000     0.0000E+00    0.0000E+00    3.160000E+06  0.00800  3.147E-02    0   0.9966   age045_m52            0.0000     2.6626E+02    13.2506   4.0000    77.6724
 78      0.0000     0.0000E+00    0.0000E+00    5.010000E+06  0.00800  2.664E-02    0   0.9443   age055_m52            0.0000     1.2233E+02     7.2418   3.9799    80.4096
 79      0.0000     0.0000E+00    0.0000E+00    6.610000E+06  0.00800  2.151E-02    0   0.9177   age061_m52            0.0000     7.1300E+01     5.7791   2.6534    87.5191
 80      0.0000     0.0000E+00    0.0000E+00    8.710000E+06  0.00800  1.628E-02    0   0.8948   age067_m52            0.0000     5.9071E+01     6.0456   3.0289    87.4498
 81      0.0000     0.0000E+00    0.0000E+00    1.000000E+07  0.00800  1.215E-02    0   0.8827   age070_m52            0.0000     7.4463E+01     6.6776   3.3792    85.2234
 82      0.0000     0.0000E+00    0.0000E+00    1.445000E+07  0.00800  8.739E-03    0   0.8552   age078_m52            0.0000     6.2781E+01     6.0094   3.4094    86.8608
 83      0.0000     0.0000E+00    0.0000E+00    2.512000E+07  0.00800  5.676E-03    0   0.8162   age090_m52            0.0000     7.6852E+01     5.0533   2.9823    92.3190
 84      0.0000     0.0000E+00    0.0000E+00    4.000000E+07  0.00800  3.939E-03    0   0.7841   age104_m52            0.0000     1.0833E+02     3.9220   2.7841    96.3990
 85      0.0000     0.0000E+00    0.0000E+00    5.500000E+07  0.00800  3.155E-03    0   0.7627   age110_m52            0.0000     1.5226E+02     3.5096   2.7237    99.5226
 86      0.0000     0.0000E+00    0.0000E+00    1.015200E+08  0.00800  2.206E-03    0   0.7226   age116_m52            0.0000     2.6399E+02     4.2474   2.4826   106.1471
 87      0.0000     0.0000E+00    0.0000E+00    1.609000E+08  0.00800  1.596E-03    0   0.6963   age120_m52            0.0000     3.1940E+02     5.1763   2.2350   109.3411
 88      0.0000     0.0000E+00    0.0000E+00    2.861200E+08  0.00800  1.002E-03    0   0.6665   age125_m52            0.0000     4.7886E+02     7.5327   1.8640   116.0442
 89      0.0000     0.0000E+00    0.0000E+00    5.088000E+08  0.00800  5.759E-04    0   0.6377   age130_m52            0.0000     4.5763E+02     8.7818   1.4657   123.2206
 90      0.0000     0.0000E+00    0.0000E+00    9.047900E+08  0.00800  2.972E-04    0   0.6086   age135_m52            0.0000     1.5617E+02     8.1499   0.9336   123.0065
 91      0.0000     0.0000E+00    0.0000E+00    1.278050E+09  0.00800  2.242E-04    0   0.5907   age138_m52            0.0000     4.9918E+01     6.5056   0.3834   118.9907
 92      0.0000     0.0000E+00    0.0000E+00    1.434000E+09  0.00800  1.645E-04    0   0.5787   age139_m52            0.0000     4.1367E+01     5.8577   0.5496   117.2822
 93      0.0000     0.0000E+00    0.0000E+00    2.500000E+09  0.00800  7.723E-05    0   0.5519   age150_m52            0.0000     6.4395E+01     5.6383   0.2459   112.1195
 94      0.0000     0.0000E+00    0.0000E+00    4.250000E+09  0.00800  4.151E-05    0   0.5320   age158_m52            0.0000     8.8794E+01     5.4392   0.1967   108.6408
 95      0.0000     0.0000E+00    0.0000E+00    6.250000E+09  0.00800  3.010E-05    0   0.5197   age166_m52            0.0000     1.4926E+02     6.1719  -0.0009   107.7246
 96      0.0000     0.0000E+00    0.0000E+00    7.500000E+09  0.00800  2.467E-05    0   0.5139   age171_m52            0.0000     1.6595E+02     6.4012  -0.0445   107.5244
 97      3.3008     7.3686E+00    7.3417E+00    1.000000E+10  0.00800  1.862E-05    0   0.5054   age181_m52            0.0000     2.1487E+02     7.1876  -0.1871   107.9842
 98      3.4669     1.0056E+01    9.8886E+00    1.300000E+10  0.00800  1.433E-05    0   0.4988   age193_m52            0.0000     2.8035E+02     7.9151  -0.2952   109.4877
 99      0.4010     1.3399E+00    1.3038E+00    1.500000E+10  0.00800  1.244E-05    0   0.4936   age201_m52            0.0000     3.0814E+02     8.1566  -0.3293   110.3052
100      2.4845     9.6517E+00    9.3006E+00    1.800000E+10  0.00800  1.070E-05    0   0.4888   age213_m52            0.0000     3.2572E+02     8.3555  -0.3676   110.3728
101      0.0000     0.0000E+00    0.0000E+00    1.000000E+06  0.02000  1.989E-02    0   1.0000   age020_m62            0.0000     3.7714E+02    15.6446   4.0000    75.1926
102      0.0000     0.0000E+00    0.0000E+00    3.160000E+06  0.02000  3.772E-02    0   0.9858   age045_m62            0.0000     2.6363E+02    11.8389   4.0000    77.0325
103      0.0000     0.0000E+00    0.0000E+00    5.010000E+06  0.02000  3.227E-02    0   0.9342   age055_m62            0.0000     6.1560E+01     5.8238   3.6938    84.9071
104      0.0000     0.0000E+00    0.0000E+00    6.610000E+06  0.02000  2.387E-02    0   0.9090   age061_m62            0.0000     9.1683E+01     7.5495   3.4738    82.9401
105      0.0000     0.0000E+00    0.0000E+00    8.710000E+06  0.02000  1.102E-02    0   0.8861   age067_m62            0.0000     2.7687E+02    13.4764   3.1604    75.7660
106      0.0000     0.0000E+00    0.0000E+00    1.000000E+07  0.02000  1.011E-02    0   0.8751   age070_m62            0.0000     1.9667E+02    11.0464   3.1522    79.3253
107      0.0000     0.0000E+00    0.0000E+00    1.445000E+07  0.02000  7.331E-03    0   0.8472   age078_m62            0.0000     1.4154E+02     8.9187   3.1449    81.9295
108      0.0000     0.0000E+00    0.0000E+00    2.512000E+07  0.02000  4.206E-03    0   0.8099   age090_m62            0.0000     1.5163E+02     8.9214   3.0495    81.7728
109      0.0000     0.0000E+00    0.0000E+00    4.000000E+07  0.02000  3.373E-03    0   0.7799   age104_m62            0.0000     6.3136E+01     4.7324   2.7685    93.6358
110      0.0000     0.0000E+00    0.0000E+00    5.500000E+07  0.02000  2.747E-03    0   0.7595   age110_m62            0.0000     1.1536E+02     3.6432   2.6570    98.9833
111      0.0000     0.0000E+00    0.0000E+00    1.015200E+08  0.02000  1.878E-03    0   0.7221   age116_m62            0.0000     3.1396E+02     4.3793   2.4479   106.8691
112      0.0000     0.0000E+00    0.0000E+00    1.609000E+08  0.02000  1.378E-03    0   0.6978   age120_m62            0.0000     4.6287E+02     5.9426   2.2423   111.8810
113      0.0000     0.0000E+00    0.0000E+00    2.861200E+08  0.02000  8.869E-04    0   0.6700   age125_m62            0.0000     7.0553E+02     8.2414   1.7946   120.1405
114      0.0000     0.0000E+00    0.0000E+00    5.088000E+08  0.02000  4.834E-04    0   0.6430   age130_m62            0.0000     5.0903E+02     9.3163   1.3090   126.0928
115      0.0000     0.0000E+00    0.0000E+00    9.047900E+08  0.02000  2.312E-04    0   0.6152   age135_m62            0.0000     1.3929E+02     7.5949   0.7596   123.8821
116      0.0000     0.0000E+00    0.0000E+00    1.278050E+09  0.02000  1.387E-04    0   0.5927   age138_m62            0.0000     3.6103E+01     5.8599   0.4409   116.6136
117      0.0000     0.0000E+00    0.0000E+00    1.434000E+09  0.02000  1.168E-04    0   0.5865   age139_m62            0.0000     3.3535E+01     5.6521   0.4276   114.4698
118      0.0000     0.0000E+00    0.0000E+00    2.500000E+09  0.02000  5.505E-05    0   0.5610   age150_m62            0.0000     9.0888E+01     6.3008   0.0699   111.3605
119      0.0000     0.0000E+00    0.0000E+00    4.250000E+09  0.02000  3.070E-05    0   0.5407   age158_m62            0.0000     1.9073E+02     8.0007  -0.2533   113.2966
120      0.0000     0.0000E+00    0.0000E+00    6.250000E+09  0.02000  2.104E-05    0   0.5277   age166_m62            0.0000     2.6306E+02     8.8151  -0.4001   114.7857
121      0.0000     0.0000E+00    0.0000E+00    7.500000E+09  0.02000  1.770E-05    0   0.5223   age171_m62            0.0000     2.9609E+02     9.3110  -0.5011   115.9216
122      0.0000     0.0000E+00    0.0000E+00    1.000000E+10  0.02000  1.297E-05    0   0.5121   age181_m62            0.0000     3.7520E+02    10.2742  -0.6850   117.9279
123      0.0000     0.0000E+00    0.0000E+00    1.300000E+10  0.02000  9.691E-06    0   0.5047   age193_m62            0.0000     4.3530E+02    10.8674  -0.7860   119.3652
124      0.0000     0.0000E+00    0.0000E+00    1.500000E+10  0.02000  8.360E-06    0   0.4999   age201_m62            0.0000     4.8283E+02    11.4408  -0.8742   120.6256
125      0.2363     1.4212E+00    1.3858E+00    1.800000E+10  0.02000  6.911E-06    0   0.4946   age213_m62            0.0000     5.3879E+02    12.2061  -0.9730   122.2803
126      0.0000     0.0000E+00    0.0000E+00    1.000000E+06  0.05000  2.651E-02    0   0.9998   age020_m72            0.0000     3.6082E+02    15.2269   4.0000    76.3417
127      0.0000     0.0000E+00    0.0000E+00    3.160000E+06  0.05000  4.817E-02    0   0.9577   age045_m72            0.0000     1.4114E+02     7.7545   4.0000    80.2688
128      0.0000     0.0000E+00    0.0000E+00    5.010000E+06  0.05000  3.101E-02    0   0.9147   age055_m72            0.0000     1.1155E+02     7.2613   3.7392    82.2035
129      0.0000     0.0000E+00    0.0000E+00    6.610000E+06  0.05000  1.472E-02    0   0.8877   age061_m72            0.0000     2.3511E+02    11.1606   3.3363    78.2708
130      0.0000     0.0000E+00    0.0000E+00    8.710000E+06  0.05000  1.050E-02    0   0.8638   age067_m72            0.0000     1.8604E+02     8.7836   3.7044    80.2871
131      0.0000     0.0000E+00    0.0000E+00    1.000000E+07  0.05000  8.954E-03    0   0.8524   age070_m72            0.0000     1.5411E+02     7.2637   3.9593    81.6796
132      0.0000     0.0000E+00    0.0000E+00    1.445000E+07  0.05000  6.392E-03    0   0.8262   age078_m72            0.0000     1.3263E+02     6.6886   3.8958    83.2362
133      0.0000     0.0000E+00    0.0000E+00    2.512000E+07  0.05000  4.207E-03    0   0.7902   age090_m72            0.0000     7.3163E+01     5.1731   3.4760    88.9748
134      0.0000     0.0000E+00    0.0000E+00    4.000000E+07  0.05000  3.198E-03    0   0.7618   age104_m72            0.0000     1.6583E+02     3.6613   2.8617   100.9435
135      0.0000     0.0000E+00    0.0000E+00    5.500000E+07  0.05000  2.593E-03    0   0.7432   age110_m72            0.0000     2.3730E+02     3.9390   2.7457   103.6273
136      0.0000     0.0000E+00    0.0000E+00    1.015200E+08  0.05000  1.716E-03    0   0.7092   age116_m72            0.0000     3.8183E+02     4.9109   2.5114   107.8634
137      0.0000     0.0000E+00    0.0000E+00    1.609000E+08  0.05000  1.218E-03    0   0.6876   age120_m72            0.0000     5.4566E+02     6.5954   2.1952   113.1318
138      0.0000     0.0000E+00    0.0000E+00    2.861200E+08  0.05000  7.047E-04    0   0.6618   age125_m72            0.0000     6.3345E+02     8.6993   1.5721   121.7141
139      0.0000     0.0000E+00    0.0000E+00    5.088000E+08  0.05000  3.590E-04    0   0.6356   age130_m72            0.0000     3.6948E+02     9.1927   0.9601   127.5247
140      0.0000     0.0000E+00    0.0000E+00    9.047900E+08  0.05000  1.484E-04    0   0.6088   age135_m72            0.0000     5.1837E+01     7.3473   0.3009   118.3430
141      0.0000     0.0000E+00    0.0000E+00    1.278050E+09  0.05000  9.435E-05    0   0.5924   age138_m72            0.0000     9.6275E+01     8.2058  -0.0902   115.4109
142      0.0000     0.0000E+00    0.0000E+00    1.434000E+09  0.05000  7.827E-05    0   0.5847   age139_m72            0.0000     1.0960E+02     7.9265  -0.0648   114.1130
143      0.0000     0.0000E+00    0.0000E+00    2.500000E+09  0.05000  3.759E-05    0   0.5583   age150_m72            0.0000     2.3693E+02     8.9154  -0.3956   114.0689
144      1.4089     3.1792E+00    3.3682E+00    4.250000E+09  0.05000  1.842E-05    0   0.5374   age158_m72            0.0000     3.4907E+02    10.0406  -0.7465   115.3751
145      1.4137     4.8686E+00    5.0313E+00    6.250000E+09  0.05000  1.207E-05    0   0.5242   age166_m72            0.0000     4.4113E+02    11.4369  -1.0000   117.2586
146      1.5323     6.3736E+00    6.5124E+00    7.500000E+09  0.05000  9.993E-06    0   0.5183   age171_m72            0.0000     4.5200E+02    11.7642  -1.0000   117.1389
147      0.9429     5.3755E+00    5.3845E+00    1.000000E+10  0.05000  7.291E-06    0   0.5081   age181_m72            0.0000     5.3820E+02    14.5201  -1.0000   117.3655
148      0.3017     2.3589E+00    2.3335E+00    1.300000E+10  0.05000  5.316E-06    0   0.5018   age193_m72            0.0000     7.5328E+02    20.1428  -1.0000   116.8462
149      0.6839     6.3216E+00    6.1963E+00    1.500000E+10  0.05000  4.497E-06    0   0.4972   age201_m72            0.0000     8.7902E+02    22.6200  -1.0000   116.9059
150      0.2393     2.6599E+00    2.5820E+00    1.800000E+10  0.05000  3.739E-06    0   0.4924   age213_m72            0.0000     1.0860E+03    25.9270  -1.0000   116.1841


## Synthesis Results - Average & Chains ##

# j      x_j: min, <> & last-chain-values for 1 ...  7 chains
  1      0.0000      0.0069      0.0000      0.0000      0.0502      0.0370      0.0000      0.0000      0.0000
  2     12.0897      9.0948     10.2893      9.9984     10.5838     10.0598     10.3090      9.0991      9.3839
  3      0.0000      0.0831      0.2612      0.1529      0.1248      0.0000      0.2459      0.0402      0.2874
  4      0.0000      0.0094      0.0000      0.0000      0.0496      0.0000      0.0000      0.0000      0.0000
  5      0.0000      0.0338      0.0000      0.0000      0.0088      0.0000      0.0000      0.0000      0.0070
  6      0.0000      0.0233      0.0000      0.1111      0.0000      0.0918      0.0000      0.0000      0.0000
  7      0.0000      0.0326      0.0000      0.0000      0.0371      0.0000      0.0937      0.0000      0.0000
  8      0.0000      0.1041      0.0000      0.1664      0.0000      0.0000      0.0000      0.1065      0.0000
  9      0.6874      0.3834      0.1894      0.5008      0.7413      0.4900      0.3518      0.2536      0.3294
 10      0.3218      0.2977      0.0000      0.2817      0.3854      0.3899      0.3323      0.0000      0.7164
 11      1.1217      1.4661      1.5381      1.4945      1.4488      1.4797      1.5637      1.5649      1.4598
 12      0.0000      0.0164      0.0000      0.1003      0.0192      0.0000      0.0927      0.0000      0.0000
 13      0.0000      0.0077      0.0000      0.0000      0.0000      0.0000      0.0000      0.0000      0.0000
 14      0.0000      0.0052      0.0000      0.0000      0.0000      0.0000      0.0000      0.0020      0.0000
 15      0.0000      0.0041      0.0000      0.0000      0.0000      0.0111      0.0000      0.0000      0.0000
 16      0.0000      0.0057      0.0000      0.0000      0.0000      0.0000      0.0000      0.0000      0.0000
 17      0.0000      0.0061      0.0000      0.0000      0.0000      0.0000      0.0000      0.0000      0.0000
 18      0.0000      0.0152      0.0000      0.0000      0.0641      0.0000      0.0000      0.0000      0.0000
 19      0.0000      0.0379      0.0000      0.0000      0.0000      0.0000      0.0000      0.0000      0.0000
 20      0.0000      0.0673      0.1923      0.0000      0.0000      0.0000      0.0577      0.0995      0.0027
 21      0.1151      0.1462      0.0000      0.0000      0.3553      0.0000      0.0000      0.0000      0.0000
 22      0.0210      0.1276      0.1235      0.0000      0.2632      0.0369      0.4349      0.0267      0.0440
 23      0.0000      0.1257      0.4575      0.5047      0.1930      0.0125      0.0000      0.3014      0.0000
 24      0.0000      0.1667      0.0688      0.0000      0.1135      0.0000      0.0000      0.0000      0.4161
 25      0.7006      1.1628      0.3078      0.9672      0.9600      1.2847      0.4135      0.9811      1.4537
 26      0.0000      0.0071      0.0560      0.0000      0.0000      0.0000      0.0000      0.0000      0.0000
 27      0.0000      0.1333      0.1599      0.0170      0.0000      0.0000      0.0677      0.0000      0.0000
 28      0.0000      0.0530      0.0000      0.0000      0.0000      0.0000      0.0036      0.0000      0.0000
 29      0.0000      0.0188      0.0000      0.0000      0.0000      0.0913      0.0484      0.0000      0.0000
 30      0.0000      0.0283      0.0000      0.0000      0.0000      0.0694      0.0707      0.1940      0.0000
 31      0.0000      0.0297      0.0445      0.0000      0.1652      0.0000      0.0000      0.0000      0.0000
 32      0.0000      0.0954      0.0318      0.0000      0.0097      0.3936      0.0357      0.0638      0.1115
 33      0.0000      0.0353      0.0121      0.3185      0.0000      0.1000      0.0000      0.0375      0.0367
 34      1.0278      0.3836      1.0326      0.3814      0.3561      0.3503      0.4473      0.4594      0.4792
 35      0.0000      0.1815      0.0000      0.1611      0.0215      0.2899      0.0318      0.0794      0.0435
 36      0.0000      0.0162      0.0000      0.0000      0.0059      0.0000      0.0000      0.0649      0.1076
 37      0.0000      0.0134      0.0000      0.0000      0.0000      0.0000      0.0000      0.0000      0.0000
 38      0.0000      0.0046      0.0000      0.0000      0.0000      0.0000      0.0000      0.0000      0.0000
 39      0.0000      0.0043      0.0000      0.0000      0.0000      0.0023      0.0000      0.0000      0.0000
 40      0.0000      0.0038      0.0000      0.0000      0.0000      0.0000      0.0000      0.0000      0.0000
 41      0.0000      0.0074      0.0000      0.0000      0.0000      0.0071      0.0000      0.0002      0.0000
 42      0.0000      0.0222      0.0044      0.0000      0.0000      0.0000      0.0000      0.0000      0.0551
 43      3.9318      6.9682      5.7845      6.9900      4.9686      5.9212      6.4171      6.1806      6.0887
 44     51.0196     47.8439     49.2079     48.6050     49.6023     48.9744     47.0723     49.5234     48.2217
 45      8.1666      2.9991      4.1309      3.1676      4.5762      4.8720      7.5529      3.9697      4.0922
 46      0.6385      1.2696      2.0483      0.5642      0.9709      1.1424      1.5272      1.1853      2.0450
 47      0.0058      2.9021      2.4698      3.4065      1.0702      0.9561      0.3885      1.0593      1.8072
 48      0.0000      0.1575      0.0000      0.1370      0.0000      0.4475      0.2690      0.0000      0.0000
 49      0.0062      0.3462      0.1004      0.1183      0.8058      0.7375      0.0284      0.4333      0.2190
 50      0.0485      0.3218      0.0308      0.0000      0.2219      0.3030      0.1792      0.4441      0.0789
 51      0.0000      0.0053      0.0000      0.0000      0.0000      0.0111      0.0000      0.0000      0.0368
 52      1.0440      0.4931      0.5972      0.5129      0.5725      0.5195      0.3084      1.1991      0.5991
 53      0.0000      0.0207      0.0895      0.0078      0.0029      0.0000      0.0386      0.1228      0.0811
 54      1.1995      1.9777      1.9262      2.0365      2.0868      1.9835      2.0580      2.1452      2.0278
 55      0.0000      0.1657      0.0000      0.0827      0.0000      0.0345      0.0690      0.5106      0.1606
 56      0.3912      0.1228      0.0000      0.0535      0.2032      0.0000      0.3538      0.0374      0.1588
 57      0.0000      0.0176      0.0000      0.0000      0.0000      0.0000      0.0000      0.0000      0.0768
 58      0.0000      0.0229      0.0000      0.0000      0.0000      0.0000      0.0000      0.0000      0.0000
 59      0.0000      0.0094      0.0000      0.0000      0.0145      0.0000      0.0000      0.0000      0.0000
 60      0.0000      0.0055      0.0000      0.0000      0.0000      0.0000      0.0000      0.0000      0.0000
 61      0.0000      0.0101      0.0035      0.0000      0.0000      0.0000      0.0000      0.0000      0.0000
 62      0.0000      0.0173      0.0000      0.0000      0.0000      0.0000      0.0000      0.0000      0.0000
 63      0.0000      0.0110      0.0153      0.0000      0.0000      0.0000      0.0000      0.0000      0.0000
 64      0.0000      0.0162      0.1108      0.0000      0.0000      0.0000      0.0754      0.1991      0.0000
 65      0.0000      0.0515      0.0000      0.0000      0.0000      0.0000      0.0000      0.0958      0.2120
 66      0.0000      0.0320      0.0000      0.0000      0.0750      0.0701      0.0000      0.0000      0.0000
 67      0.0000      0.0331      0.0000      0.0000      0.0691      0.0000      0.0000      0.0000      0.0000
 68      0.0000      0.0245      0.0000      0.0000      0.0327      0.0000      0.0780      0.0000      0.0000
 69      0.0000      0.0618      0.3578      0.0000      0.1078      0.0000      0.0000      0.0000      0.0000
 70      0.0000      0.0391      0.0000      0.0000      0.0000      0.1230      0.2853      0.2307      0.0000
 71      0.0732      4.0693      2.3778      3.5573      2.6757      3.2468      4.3286      4.1001      3.2783
 72      0.1025      0.5903      0.4730      0.0000      0.4051      0.6478      0.0000      0.2645      0.0000
 73      0.0000      0.0669      0.0000      0.0083      0.0353      0.0000      0.0000      0.0000      0.0000
 74      1.1306      0.0789      0.0761      0.2284      0.4630      0.0000      0.1156      0.0000      0.1368
 75      1.4897      0.1479      0.0000      0.2740      0.6950      0.0000      0.0000      0.1550      0.2845
 76      0.0000      0.0061      0.0000      0.0000      0.0052      0.0000      0.0000      0.0031      0.0000
 77      0.0000      0.0066      0.0000      0.0000      0.0000      0.0000      0.0000      0.0000      0.0222
 78      0.0000      0.0057      0.0000      0.0000      0.0000      0.0000      0.0000      0.0000      0.0000
 79      0.0000      0.0082      0.0000      0.0000      0.0000      0.0000      0.0000      0.0000      0.0000
 80      0.0000      0.0105      0.0000      0.0000      0.0000      0.0000      0.0000      0.0000      0.0000
 81      0.0000      0.0077      0.0000      0.0000      0.0000      0.0000      0.0938      0.0000      0.0044
 82      0.0000      0.0092      0.0000      0.0000      0.0000      0.0000      0.0000      0.0000      0.0000
 83      0.0000      0.0349      0.0000      0.0000      0.0000      0.0000      0.0000      0.0000      0.0183
 84      0.0000      0.0144      0.0000      0.0000      0.0000      0.0000      0.0000      0.0289      0.0180
 85      0.0000      0.0162      0.1524      0.0000      0.0000      0.0000      0.0000      0.0000      0.0338
 86      0.0000      0.0171      0.0000      0.0000      0.0000      0.0000      0.0694      0.0000      0.0000
 87      0.0000      0.0075      0.0000      0.0008      0.0000      0.0000      0.0000      0.0000      0.0000
 88      0.0000      0.0042      0.0000      0.0000      0.0046      0.0000      0.0000      0.0000      0.0000
 89      0.0000      0.0034      0.0000      0.0413      0.0472      0.0000      0.0000      0.0000      0.0000
 90      0.0000      0.0032      0.0037      0.0000      0.0000      0.0000      0.0000      0.0000      0.0000
 91      0.0000      0.0082      0.0000      0.0000      0.0000      0.0000      0.0000      0.0000      0.0055
 92      0.0000      0.0106      0.0000      0.0000      0.0000      0.0000      0.0000      0.0000      0.0000
 93      0.0000      0.0291      0.1293      0.0000      0.0223      0.0000      0.2162      0.0000      0.0372
 94      0.0000      0.0505      0.2361      0.0000      0.0000      0.0000      0.0000      0.0000      0.2450
 95      0.0000      0.0536      0.0000      0.0000      0.0000      0.0217      0.0000      0.0000      0.0000
 96      0.0000      0.0521      0.0000      0.4070      0.0000      0.0000      0.1886      0.0000      0.0000
 97      3.3008      3.6441      3.9625      3.6637      3.7907      3.8155      3.4727      3.5770      3.4159
 98      3.4669      3.4728      3.5814      3.7933      2.8537      3.7940      3.1761      3.5482      3.0660
 99      0.4010      0.1791      0.0000      0.0000      0.5720      0.0432      0.0000      0.0000      0.2905
100      2.4845      2.0811      2.3166      1.6305      2.0074      1.9415      2.1969      1.9851      2.1700
101      0.0000      0.0042      0.0000      0.0000      0.0000      0.0000      0.0000      0.0342      0.0000
102      0.0000      0.0064      0.0000      0.0000      0.0000      0.0000      0.0000      0.0000      0.0000
103      0.0000      0.0230      0.0000      0.0000      0.0000      0.0000      0.0000      0.0680      0.0000
104      0.0000      0.0388      0.0000      0.0000      0.0076      0.1367      0.0000      0.1561      0.2483
105      0.0000      0.0489      0.0000      0.0000      0.0106      0.0000      0.0000      0.0000      0.0000
106      0.0000      0.0376      0.1647      0.2437      0.0000      0.0000      0.0119      0.1233      0.0000
107      0.0000      0.0120      0.0000      0.0000      0.0000      0.0000      0.0033      0.0000      0.0453
108      0.0000      0.0054      0.0000      0.0000      0.0000      0.0000      0.0000      0.0000      0.0000
109      0.0000      0.0078      0.0000      0.0000      0.0000      0.0000      0.0000      0.0000      0.0046
110      0.0000      0.0070      0.0000      0.0034      0.0000      0.0000      0.0000      0.0000      0.0717
111      0.0000      0.0073      0.0000      0.0000      0.0000      0.0171      0.0000      0.0000      0.0000
112      0.0000      0.0087      0.0000      0.0000      0.0000      0.0000      0.0000      0.0325      0.0000
113      0.0000      0.0031      0.0000      0.0000      0.0000      0.0000      0.0000      0.0000      0.0000
114      0.0000      0.0031      0.0000      0.0000      0.0000      0.0000      0.0000      0.0010      0.0000
115      0.0000      0.0054      0.0000      0.0000      0.0273      0.0000      0.0000      0.0000      0.0000
116      0.0000      0.0045      0.0000      0.0000      0.0000      0.0000      0.0000      0.0000      0.0000
117      0.0000      0.0067      0.0000      0.0000      0.0000      0.0000      0.0047      0.0000      0.0011
118      0.0000      0.0149      0.0000      0.0000      0.0000      0.0942      0.0000      0.0000      0.0000
119      0.0000      0.0200      0.0436      0.0000      0.0096      0.0000      0.0000      0.0016      0.0000
120      0.0000      0.0332      0.0000      0.0000      0.0000      0.0377      0.0000      0.2422      0.0386
121      0.0000      0.0249      0.0000      0.0000      0.0000      0.0000      0.0000      0.0000      0.0000
122      0.0000      0.0416      0.0000      0.0000      0.0000      0.0000      0.0000      0.0000      0.0000
123      0.0000      0.1585      0.2325      0.0000      0.0000      0.3056      0.0000      0.1606      0.1951
124      0.0000      0.1909      0.0000      0.3253      0.1734      0.1721      0.4794      0.2469      0.0649
125      0.2363      0.3588      0.3200      0.3878      0.3425      0.2126      0.3292      0.1650      0.7174
126      0.0000      0.0103      0.0000      0.0000      0.0000      0.0343      0.0102      0.0000      0.0000
127      0.0000      0.0061      0.0000      0.0541      0.0000      0.0000      0.0000      0.0276      0.0000
128      0.0000      0.0075      0.0000      0.0000      0.0000      0.0000      0.0000      0.0000      0.0000
129      0.0000      0.0147      0.0000      0.0000      0.0532      0.0000      0.0000      0.0000      0.0000
130      0.0000      0.0082      0.0361      0.0000      0.0000      0.0000      0.0000      0.0000      0.0000
131      0.0000      0.0041      0.0000      0.0000      0.0000      0.0000      0.0000      0.0000      0.0000
132      0.0000      0.0052      0.0000      0.0000      0.0000      0.0000      0.0000      0.0000      0.0000
133      0.0000      0.0047      0.0000      0.0000      0.0000      0.0000      0.0000      0.0000      0.0000
134      0.0000      0.0080      0.0000      0.0137      0.1547      0.0666      0.0000      0.0112      0.0000
135      0.0000      0.0113      0.0000      0.0000      0.0000      0.0000      0.0000      0.0000      0.0000
136      0.0000      0.0080      0.0787      0.0000      0.0000      0.0000      0.0000      0.0000      0.1254
137      0.0000      0.0071      0.0000      0.0000      0.0000      0.0000      0.0000      0.0000      0.0000
138      0.0000      0.0042      0.0000      0.0000      0.0000      0.0000      0.0195      0.0000      0.0000
139      0.0000      0.0035      0.0000      0.0312      0.0000      0.0000      0.0000      0.0000      0.0000
140      0.0000      0.0071      0.0000      0.0000      0.0000      0.0000      0.0000      0.0000      0.0000
141      0.0000      0.0109      0.0000      0.0000      0.0000      0.0000      0.0000      0.0000      0.1004
142      0.0000      0.0070      0.0000      0.0000      0.0000      0.0000      0.0457      0.0000      0.0000
143      0.0000      0.0163      0.0847      0.0000      0.1433      0.0000      0.0000      0.0067      0.0000
144      1.4089      0.7058      0.9013      1.0222      0.7194      0.6783      0.7339      0.9673      0.6189
145      1.4137      0.8615      0.9127      0.8640      1.0800      1.1180      0.8661      0.8694      0.9703
146      1.5323      1.1456      1.1793      1.2366      1.0951      1.2578      1.1376      1.2105      1.8597
147      0.9429      0.7964      0.8080      0.9503      0.8022      0.7185      0.9269      1.0139      0.8056
148      0.3017      0.6316      0.6037      0.5640      0.6424      0.6323      0.5460      0.5781      0.6969
149      0.6839      0.9447      0.9961      1.2439      1.0562      1.0544      0.9767      1.0463      0.8979
150      0.2393      0.6460      0.6342      0.6410      0.6535      0.6252      0.6567      0.6461      0.6464

# j      m_j: min, <> & last-chain-values for 1 ...  7 chains
  1  0.0000E+00  6.4808E-05  0.0000E+00  0.0000E+00  4.7413E-04  3.5081E-04  0.0000E+00  0.0000E+00  0.0000E+00
  2  2.0817E-02  1.4701E-02  1.7007E-02  1.5991E-02  1.7153E-02  1.6353E-02  1.7163E-02  1.4839E-02  1.4907E-02
  3  0.0000E+00  3.1718E-04  1.0191E-03  5.7719E-04  4.7732E-04  0.0000E+00  9.6615E-04  1.5467E-04  1.0774E-03
  4  0.0000E+00  6.7223E-05  0.0000E+00  0.0000E+00  3.5645E-04  0.0000E+00  0.0000E+00  0.0000E+00  0.0000E+00
  5  0.0000E+00  3.0563E-04  0.0000E+00  0.0000E+00  8.0098E-05  0.0000E+00  0.0000E+00  0.0000E+00  6.2533E-05
  6  0.0000E+00  2.5029E-04  0.0000E+00  1.1806E-03  0.0000E+00  9.9159E-04  0.0000E+00  0.0000E+00  0.0000E+00
  7  0.0000E+00  4.4222E-04  0.0000E+00  0.0000E+00  5.0490E-04  0.0000E+00  1.3081E-03  0.0000E+00  0.0000E+00
  8  0.0000E+00  1.5951E-03  0.0000E+00  2.5230E-03  0.0000E+00  0.0000E+00  0.0000E+00  1.6473E-03  0.0000E+00
  9  1.2071E-02  6.3200E-03  3.1919E-03  8.1682E-03  1.2252E-02  8.1225E-03  5.9727E-03  4.2172E-03  5.3358E-03
 10  6.4774E-03  5.6246E-03  0.0000E+00  5.2665E-03  7.3007E-03  7.4091E-03  6.4661E-03  0.0000E+00  1.3303E-02
 11  2.6988E-02  3.3115E-02  3.5525E-02  3.3402E-02  3.2810E-02  3.3612E-02  3.6379E-02  3.5660E-02  3.2404E-02
 12  0.0000E+00  6.4626E-04  0.0000E+00  3.9227E-03  7.5867E-04  0.0000E+00  3.7728E-03  0.0000E+00  0.0000E+00
 13  0.0000E+00  3.5335E-04  0.0000E+00  0.0000E+00  0.0000E+00  0.0000E+00  0.0000E+00  0.0000E+00  0.0000E+00
 14  0.0000E+00  3.3604E-04  0.0000E+00  0.0000E+00  0.0000E+00  0.0000E+00  0.0000E+00  1.3377E-04  0.0000E+00
 15  0.0000E+00  4.0595E-04  0.0000E+00  0.0000E+00  0.0000E+00  1.1005E-03  0.0000E+00  0.0000E+00  0.0000E+00
 16  0.0000E+00  8.0685E-04  0.0000E+00  0.0000E+00  0.0000E+00  0.0000E+00  0.0000E+00  0.0000E+00  0.0000E+00
 17  0.0000E+00  9.6574E-04  0.0000E+00  0.0000E+00  0.0000E+00  0.0000E+00  0.0000E+00  0.0000E+00  0.0000E+00
 18  0.0000E+00  3.9122E-03  0.0000E+00  0.0000E+00  1.6548E-02  0.0000E+00  0.0000E+00  0.0000E+00  0.0000E+00
 19  0.0000E+00  1.4811E-02  0.0000E+00  0.0000E+00  0.0000E+00  0.0000E+00  0.0000E+00  0.0000E+00  0.0000E+00
 20  0.0000E+00  3.7588E-02  1.0980E-01  0.0000E+00  0.0000E+00  0.0000E+00  3.3149E-02  5.6034E-02  1.4613E-03
 21  7.9183E-02  9.4455E-02  0.0000E+00  0.0000E+00  2.3009E-01  0.0000E+00  0.0000E+00  0.0000E+00  0.0000E+00
 22  1.8620E-02  1.0629E-01  1.0526E-01  0.0000E+00  2.1989E-01  3.0961E-02  3.7322E-01  2.2452E-02  3.6057E-02
 23  0.0000E+00  1.3278E-01  4.9418E-01  5.2755E-01  2.0440E-01  1.3316E-02  0.0000E+00  3.2116E-01  0.0000E+00
 24  0.0000E+00  2.0135E-01  8.5001E-02  0.0000E+00  1.3748E-01  0.0000E+00  0.0000E+00  0.0000E+00  4.9397E-01
 25  1.0830E+00  1.6874E+00  4.5678E-01  1.3888E+00  1.3967E+00  1.8748E+00  6.1809E-01  1.4363E+00  2.0732E+00
 26  0.0000E+00  6.4710E-05  5.2114E-04  0.0000E+00  0.0000E+00  0.0000E+00  0.0000E+00  0.0000E+00  0.0000E+00
 27  0.0000E+00  2.5813E-04  3.1664E-04  3.2554E-05  0.0000E+00  0.0000E+00  1.3499E-04  0.0000E+00  0.0000E+00
 28  0.0000E+00  2.0076E-04  0.0000E+00  0.0000E+00  0.0000E+00  0.0000E+00  1.4010E-05  0.0000E+00  0.0000E+00
 29  0.0000E+00  1.1103E-04  0.0000E+00  0.0000E+00  0.0000E+00  5.4216E-04  2.9418E-04  0.0000E+00  0.0000E+00
 30  0.0000E+00  2.0751E-04  0.0000E+00  0.0000E+00  0.0000E+00  5.1219E-04  5.3418E-04  1.4367E-03  0.0000E+00
 31  0.0000E+00  2.5198E-04  3.8587E-04  0.0000E+00  1.4046E-03  0.0000E+00  0.0000E+00  0.0000E+00  0.0000E+00
 32  0.0000E+00  8.9556E-04  3.0534E-04  0.0000E+00  9.1622E-05  3.7171E-03  3.4519E-04  6.0410E-04  1.0286E-03
 33  0.0000E+00  4.7062E-04  1.6541E-04  4.2059E-03  0.0000E+00  1.3415E-03  0.0000E+00  5.0491E-04  4.8160E-04
 34  1.7749E-02  6.2180E-03  1.7117E-02  6.1183E-03  5.7874E-03  5.7117E-03  7.4688E-03  7.5141E-03  7.6350E-03
 35  0.0000E+00  3.5542E-03  0.0000E+00  3.1218E-03  4.2142E-04  5.7106E-03  6.4175E-04  1.5694E-03  8.3741E-04
 36  0.0000E+00  4.0634E-04  0.0000E+00  0.0000E+00  1.4949E-04  0.0000E+00  0.0000E+00  1.6453E-03  2.6547E-03
 37  0.0000E+00  4.1761E-04  0.0000E+00  0.0000E+00  0.0000E+00  0.0000E+00  0.0000E+00  0.0000E+00  0.0000E+00
 38  0.0000E+00  2.0197E-04  0.0000E+00  0.0000E+00  0.0000E+00  0.0000E+00  0.0000E+00  0.0000E+00  0.0000E+00
 39  0.0000E+00  2.7789E-04  0.0000E+00  0.0000E+00  0.0000E+00  1.4972E-04  0.0000E+00  0.0000E+00  0.0000E+00
 40  0.0000E+00  4.3968E-04  0.0000E+00  0.0000E+00  0.0000E+00  0.0000E+00  0.0000E+00  0.0000E+00  0.0000E+00
 41  0.0000E+00  1.1341E-03  0.0000E+00  0.0000E+00  0.0000E+00  1.0977E-03  0.0000E+00  2.7289E-05  0.0000E+00
 42  0.0000E+00  3.7947E-03  7.7667E-04  0.0000E+00  0.0000E+00  0.0000E+00  0.0000E+00  0.0000E+00  9.2690E-03
 43  1.1662E+00  1.9402E+00  1.6470E+00  1.9258E+00  1.3871E+00  1.6580E+00  1.8403E+00  1.7362E+00  1.6661E+00
 44  2.3933E+01  2.1068E+01  2.2158E+01  2.1178E+01  2.1900E+01  2.1689E+01  2.1350E+01  2.2002E+01  2.0869E+01
 45  5.3393E+00  1.8407E+00  2.5926E+00  1.9237E+00  2.8160E+00  3.0072E+00  4.7745E+00  2.4581E+00  2.4683E+00
 46  4.9728E-01  9.2827E-01  1.5314E+00  4.0817E-01  7.1174E-01  8.3997E-01  1.1500E+00  8.7430E-01  1.4694E+00
 47  5.9703E-03  2.7810E+00  2.4201E+00  3.2300E+00  1.0283E+00  9.2142E-01  3.8345E-01  1.0241E+00  1.7019E+00
 48  0.0000E+00  1.7971E-01  0.0000E+00  1.5464E-01  0.0000E+00  5.1357E-01  3.1614E-01  0.0000E+00  0.0000E+00
 49  8.4447E-03  4.4200E-01  1.3111E-01  1.4943E-01  1.0314E+00  9.4678E-01  3.7391E-02  5.5809E-01  2.7478E-01
 50  7.7584E-02  4.8320E-01  4.7361E-02  0.0000E+00  3.3401E-01  4.5755E-01  2.7708E-01  6.7271E-01  1.1648E-01
 51  0.0000E+00  3.6670E-05  0.0000E+00  0.0000E+00  0.0000E+00  7.7339E-05  0.0000E+00  0.0000E+00  2.4988E-04
 52  2.1002E-03  9.3127E-04  1.1532E-03  9.5848E-04  1.0841E-03  9.8659E-04  5.9987E-04  2.2845E-03  1.1120E-03
 53  0.0000E+00  5.9515E-05  2.6368E-04  2.2242E-05  8.3052E-06  0.0000E+00  1.1439E-04  3.5690E-04  2.2944E-04
 54  3.5084E-03  5.4304E-03  5.4083E-03  5.5331E-03  5.7450E-03  5.4771E-03  5.8201E-03  5.9426E-03  5.4720E-03
 55  0.0000E+00  6.7110E-04  0.0000E+00  3.3144E-04  0.0000E+00  1.4066E-04  2.8770E-04  2.0867E-03  6.3914E-04
 56  2.2352E-03  6.5882E-04  0.0000E+00  2.8414E-04  1.0928E-03  0.0000E+00  1.9544E-03  2.0265E-04  8.3693E-04
 57  0.0000E+00  1.5180E-04  0.0000E+00  0.0000E+00  0.0000E+00  0.0000E+00  0.0000E+00  0.0000E+00  6.4923E-04
 58  0.0000E+00  2.8432E-04  0.0000E+00  0.0000E+00  0.0000E+00  0.0000E+00  0.0000E+00  0.0000E+00  0.0000E+00
 59  0.0000E+00  1.6227E-04  0.0000E+00  0.0000E+00  2.4982E-04  0.0000E+00  0.0000E+00  0.0000E+00  0.0000E+00
 60  0.0000E+00  1.0594E-04  0.0000E+00  0.0000E+00  0.0000E+00  0.0000E+00  0.0000E+00  0.0000E+00  0.0000E+00
 61  0.0000E+00  2.4573E-04  8.6306E-05  0.0000E+00  0.0000E+00  0.0000E+00  0.0000E+00  0.0000E+00  0.0000E+00
 62  0.0000E+00  5.3636E-04  0.0000E+00  0.0000E+00  0.0000E+00  0.0000E+00  0.0000E+00  0.0000E+00  0.0000E+00
 63  0.0000E+00  5.1756E-04  7.3554E-04  0.0000E+00  0.0000E+00  0.0000E+00  0.0000E+00  0.0000E+00  0.0000E+00
 64  0.0000E+00  1.2592E-03  8.7868E-03  0.0000E+00  0.0000E+00  0.0000E+00  6.0254E-03  1.5581E-02  0.0000E+00
 65  0.0000E+00  6.7458E-03  0.0000E+00  0.0000E+00  0.0000E+00  0.0000E+00  0.0000E+00  1.2664E-02  2.7311E-02
 66  0.0000E+00  5.3596E-03  0.0000E+00  0.0000E+00  1.2618E-02  1.1821E-02  0.0000E+00  0.0000E+00  0.0000E+00
 67  0.0000E+00  7.6260E-03  0.0000E+00  0.0000E+00  1.5951E-02  0.0000E+00  0.0000E+00  0.0000E+00  0.0000E+00
 68  0.0000E+00  1.0494E-02  0.0000E+00  0.0000E+00  1.4049E-02  0.0000E+00  3.4382E-02  0.0000E+00  0.0000E+00
 69  0.0000E+00  4.5610E-02  2.7004E-01  0.0000E+00  7.9766E-02  0.0000E+00  0.0000E+00  0.0000E+00  0.0000E+00
 70  0.0000E+00  4.0121E-02  0.0000E+00  0.0000E+00  0.0000E+00  1.2707E-01  3.0182E-01  2.3909E-01  0.0000E+00
 71  9.4464E-02  4.9324E+00  2.9472E+00  4.2664E+00  3.2518E+00  3.9578E+00  5.4039E+00  5.0140E+00  3.9052E+00
 72  1.7429E-01  9.4194E-01  7.7175E-01  0.0000E+00  6.4806E-01  1.0395E+00  0.0000E+00  4.2587E-01  0.0000E+00
 73  0.0000E+00  1.3459E-01  0.0000E+00  1.6617E-02  7.1147E-02  0.0000E+00  0.0000E+00  0.0000E+00  0.0000E+00
 74  2.7045E+00  1.7725E-01  1.7467E-01  5.0741E-01  1.0425E+00  0.0000E+00  2.6737E-01  0.0000E+00  3.0198E-01
 75  4.0977E+00  3.8183E-01  0.0000E+00  6.9997E-01  1.7994E+00  0.0000E+00  0.0000E+00  4.0389E-01  7.2193E-01
 76  0.0000E+00  3.6205E-05  0.0000E+00  0.0000E+00  3.1205E-05  0.0000E+00  0.0000E+00  1.8644E-05  0.0000E+00
 77  0.0000E+00  1.6003E-05  0.0000E+00  0.0000E+00  0.0000E+00  0.0000E+00  0.0000E+00  0.0000E+00  5.3211E-05
 78  0.0000E+00  1.5417E-05  0.0000E+00  0.0000E+00  0.0000E+00  0.0000E+00  0.0000E+00  0.0000E+00  0.0000E+00
 79  0.0000E+00  2.6750E-05  0.0000E+00  0.0000E+00  0.0000E+00  0.0000E+00  0.0000E+00  0.0000E+00  0.0000E+00
 80  0.0000E+00  4.4226E-05  0.0000E+00  0.0000E+00  0.0000E+00  0.0000E+00  0.0000E+00  0.0000E+00  0.0000E+00
 81  0.0000E+00  4.2809E-05  0.0000E+00  0.0000E+00  0.0000E+00  0.0000E+00  5.4004E-04  0.0000E+00  2.3947E-05
 82  0.0000E+00  6.9489E-05  0.0000E+00  0.0000E+00  0.0000E+00  0.0000E+00  0.0000E+00  0.0000E+00  0.0000E+00
 83  0.0000E+00  3.8656E-04  0.0000E+00  0.0000E+00  0.0000E+00  0.0000E+00  0.0000E+00  0.0000E+00  1.9932E-04
 84  0.0000E+00  2.1996E-04  0.0000E+00  0.0000E+00  0.0000E+00  0.0000E+00  0.0000E+00  4.4628E-04  2.7021E-04
 85  0.0000E+00  3.0069E-04  2.8982E-03  0.0000E+00  0.0000E+00  0.0000E+00  0.0000E+00  0.0000E+00  6.1719E-04
 86  0.0000E+00  4.3061E-04  0.0000E+00  0.0000E+00  0.0000E+00  0.0000E+00  1.8023E-03  0.0000E+00  0.0000E+00
 87  0.0000E+00  2.5247E-04  0.0000E+00  2.5908E-05  0.0000E+00  0.0000E+00  0.0000E+00  0.0000E+00  0.0000E+00
 88  0.0000E+00  2.1676E-04  0.0000E+00  0.0000E+00  2.3843E-04  0.0000E+00  0.0000E+00  0.0000E+00  0.0000E+00
 89  0.0000E+00  2.9294E-04  0.0000E+00  3.4826E-03  4.0343E-03  0.0000E+00  0.0000E+00  0.0000E+00  0.0000E+00
 90  0.0000E+00  5.0067E-04  5.9171E-04  0.0000E+00  0.0000E+00  0.0000E+00  0.0000E+00  0.0000E+00  0.0000E+00
 91  0.0000E+00  1.6713E-03  0.0000E+00  0.0000E+00  0.0000E+00  0.0000E+00  0.0000E+00  0.0000E+00  1.1047E-03
 92  0.0000E+00  2.8579E-03  0.0000E+00  0.0000E+00  0.0000E+00  0.0000E+00  0.0000E+00  0.0000E+00  0.0000E+00
 93  0.0000E+00  1.6016E-02  7.2673E-02  0.0000E+00  1.2286E-02  0.0000E+00  1.2240E-01  0.0000E+00  2.0097E-02
 94  0.0000E+00  4.9781E-02  2.3802E-01  0.0000E+00  0.0000E+00  0.0000E+00  0.0000E+00  0.0000E+00  2.3741E-01
 95  0.0000E+00  7.1140E-02  0.0000E+00  0.0000E+00  0.0000E+00  2.8921E-02  0.0000E+00  0.0000E+00  0.0000E+00
 96  0.0000E+00  8.3407E-02  0.0000E+00  6.4525E-01  0.0000E+00  0.0000E+00  3.1123E-01  0.0000E+00  0.0000E+00
 97  7.3417E+00  7.6088E+00  8.4604E+00  7.5692E+00  7.9356E+00  8.0118E+00  7.4681E+00  7.5349E+00  7.0095E+00
 98  9.8886E+00  9.2989E+00  9.8061E+00  1.0050E+01  7.6613E+00  1.0217E+01  8.7591E+00  9.5851E+00  8.0681E+00
 99  1.3038E+00  5.4661E-01  0.0000E+00  0.0000E+00  1.7504E+00  1.3251E-01  0.0000E+00  0.0000E+00  8.7141E-01
100  9.3006E+00  7.3133E+00  8.3246E+00  5.6695E+00  7.0727E+00  6.8614E+00  7.9513E+00  7.0377E+00  7.4944E+00
101  0.0000E+00  1.6321E-05  0.0000E+00  0.0000E+00  0.0000E+00  0.0000E+00  0.0000E+00  1.3329E-04  0.0000E+00
102  0.0000E+00  1.2927E-05  0.0000E+00  0.0000E+00  0.0000E+00  0.0000E+00  0.0000E+00  0.0000E+00  0.0000E+00
103  0.0000E+00  5.1259E-05  0.0000E+00  0.0000E+00  0.0000E+00  0.0000E+00  0.0000E+00  1.5281E-04  0.0000E+00
104  0.0000E+00  1.1373E-04  0.0000E+00  0.0000E+00  2.2345E-05  4.0284E-04  0.0000E+00  4.6145E-04  7.1474E-04
105  0.0000E+00  3.0244E-04  0.0000E+00  0.0000E+00  6.5688E-05  0.0000E+00  0.0000E+00  0.0000E+00  0.0000E+00
106  0.0000E+00  2.5053E-04  1.1212E-03  1.6056E-03  0.0000E+00  0.0000E+00  8.1413E-05  8.2861E-04  0.0000E+00
107  0.0000E+00  1.0644E-04  0.0000E+00  0.0000E+00  0.0000E+00  0.0000E+00  2.9982E-05  0.0000E+00  3.9538E-04
108  0.0000E+00  7.9409E-05  0.0000E+00  0.0000E+00  0.0000E+00  0.0000E+00  0.0000E+00  0.0000E+00  0.0000E+00
109  0.0000E+00  1.3935E-04  0.0000E+00  0.0000E+00  0.0000E+00  0.0000E+00  0.0000E+00  0.0000E+00  8.1141E-05
110  0.0000E+00  1.4911E-04  0.0000E+00  7.1168E-05  0.0000E+00  0.0000E+00  0.0000E+00  0.0000E+00  1.4978E-03
111  0.0000E+00  2.1649E-04  0.0000E+00  0.0000E+00  0.0000E+00  5.0945E-04  0.0000E+00  0.0000E+00  0.0000E+00
112  0.0000E+00  3.3947E-04  0.0000E+00  0.0000E+00  0.0000E+00  0.0000E+00  0.0000E+00  1.2777E-03  0.0000E+00
113  0.0000E+00  1.8283E-04  0.0000E+00  0.0000E+00  0.0000E+00  0.0000E+00  0.0000E+00  0.0000E+00  0.0000E+00
114  0.0000E+00  3.2225E-04  0.0000E+00  0.0000E+00  0.0000E+00  0.0000E+00  0.0000E+00  9.8408E-05  0.0000E+00
115  0.0000E+00  1.1051E-03  0.0000E+00  0.0000E+00  5.6016E-03  0.0000E+00  0.0000E+00  0.0000E+00  0.0000E+00
116  0.0000E+00  1.4650E-03  0.0000E+00  0.0000E+00  0.0000E+00  0.0000E+00  0.0000E+00  0.0000E+00  0.0000E+00
117  0.0000E+00  2.5994E-03  0.0000E+00  0.0000E+00  0.0000E+00  0.0000E+00  1.8510E-03  0.0000E+00  4.1568E-04
118  0.0000E+00  1.1683E-02  0.0000E+00  0.0000E+00  0.0000E+00  7.4229E-02  0.0000E+00  0.0000E+00  0.0000E+00
119  0.0000E+00  2.7064E-02  6.0338E-02  0.0000E+00  1.3065E-02  0.0000E+00  0.0000E+00  2.2195E-03  0.0000E+00
120  0.0000E+00  6.4053E-02  0.0000E+00  0.0000E+00  0.0000E+00  7.3067E-02  0.0000E+00  4.7153E-01  7.3251E-02
121  0.0000E+00  5.6486E-02  0.0000E+00  0.0000E+00  0.0000E+00  0.0000E+00  0.0000E+00  0.0000E+00  0.0000E+00
122  0.0000E+00  1.2636E-01  0.0000E+00  0.0000E+00  0.0000E+00  0.0000E+00  0.0000E+00  0.0000E+00  0.0000E+00
123  0.0000E+00  6.3515E-01  9.5254E-01  0.0000E+00  0.0000E+00  1.2314E+00  0.0000E+00  6.4893E-01  7.6804E-01
124  0.0000E+00  8.7827E-01  0.0000E+00  1.4807E+00  7.9970E-01  7.9601E-01  2.2713E+00  1.1456E+00  2.9335E-01
125  1.3858E+00  1.9755E+00  1.8013E+00  2.1126E+00  1.8903E+00  1.1771E+00  1.8665E+00  9.1638E-01  3.8813E+00
126  0.0000E+00  2.9797E-05  0.0000E+00  0.0000E+00  0.0000E+00  1.0019E-04  3.0374E-05  0.0000E+00  0.0000E+00
127  0.0000E+00  9.2662E-06  0.0000E+00  8.1913E-05  0.0000E+00  0.0000E+00  0.0000E+00  4.2662E-05  0.0000E+00
128  0.0000E+00  1.6981E-05  0.0000E+00  0.0000E+00  0.0000E+00  0.0000E+00  0.0000E+00  0.0000E+00  0.0000E+00
129  0.0000E+00  6.8117E-05  0.0000E+00  0.0000E+00  2.4762E-04  0.0000E+00  0.0000E+00  0.0000E+00  0.0000E+00
130  0.0000E+00  5.1716E-05  2.3335E-04  0.0000E+00  0.0000E+00  0.0000E+00  0.0000E+00  0.0000E+00  0.0000E+00
131  0.0000E+00  2.9849E-05  0.0000E+00  0.0000E+00  0.0000E+00  0.0000E+00  0.0000E+00  0.0000E+00  0.0000E+00
132  0.0000E+00  5.1454E-05  0.0000E+00  0.0000E+00  0.0000E+00  0.0000E+00  0.0000E+00  0.0000E+00  0.0000E+00
133  0.0000E+00  6.7283E-05  0.0000E+00  0.0000E+00  0.0000E+00  0.0000E+00  0.0000E+00  0.0000E+00  0.0000E+00
134  0.0000E+00  1.4585E-04  0.0000E+00  2.4879E-04  2.8414E-03  1.2275E-03  0.0000E+00  2.0725E-04  0.0000E+00
135  0.0000E+00  2.4922E-04  0.0000E+00  0.0000E+00  0.0000E+00  0.0000E+00  0.0000E+00  0.0000E+00  0.0000E+00
136  0.0000E+00  2.5532E-04  2.5577E-03  0.0000E+00  0.0000E+00  0.0000E+00  0.0000E+00  0.0000E+00  3.9180E-03
137  0.0000E+00  3.0691E-04  0.0000E+00  0.0000E+00  0.0000E+00  0.0000E+00  0.0000E+00  0.0000E+00  0.0000E+00
138  0.0000E+00  3.0595E-04  0.0000E+00  0.0000E+00  0.0000E+00  0.0000E+00  1.4493E-03  0.0000E+00  0.0000E+00
139  0.0000E+00  4.8053E-04  0.0000E+00  4.2078E-03  0.0000E+00  0.0000E+00  0.0000E+00  0.0000E+00  0.0000E+00
140  0.0000E+00  2.2340E-03  0.0000E+00  0.0000E+00  0.0000E+00  0.0000E+00  0.0000E+00  0.0000E+00  0.0000E+00
141  0.0000E+00  5.2607E-03  0.0000E+00  0.0000E+00  0.0000E+00  0.0000E+00  0.0000E+00  0.0000E+00  4.7647E-02
142  0.0000E+00  4.0146E-03  0.0000E+00  0.0000E+00  0.0000E+00  0.0000E+00  2.7021E-02  0.0000E+00  0.0000E+00
143  0.0000E+00  1.8630E-02  9.8957E-02  0.0000E+00  1.6416E-01  0.0000E+00  0.0000E+00  7.7242E-03  0.0000E+00
144  3.3682E+00  1.5841E+00  2.0684E+00  2.2699E+00  1.6188E+00  1.5309E+00  1.6964E+00  2.1903E+00  1.3650E+00
145  5.0313E+00  2.8782E+00  3.1179E+00  2.8563E+00  3.6176E+00  3.7564E+00  2.9800E+00  2.9304E+00  3.1859E+00
146  6.5124E+00  4.5709E+00  4.8113E+00  4.8820E+00  4.3806E+00  5.0468E+00  4.6748E+00  4.8726E+00  7.2922E+00
147  5.3845E+00  4.2695E+00  4.4295E+00  5.0406E+00  4.3120E+00  3.8733E+00  5.1180E+00  5.4838E+00  4.2441E+00
148  2.3335E+00  4.5861E+00  4.4826E+00  4.0524E+00  4.6766E+00  4.6172E+00  4.0836E+00  4.2349E+00  4.9731E+00
149  6.1963E+00  8.0348E+00  8.6631E+00  1.0468E+01  9.0065E+00  9.0186E+00  8.5558E+00  8.9775E+00  7.5052E+00
150  2.5820E+00  6.5445E+00  6.5697E+00  6.4252E+00  6.6380E+00  6.3697E+00  6.8518E+00  6.6036E+00  6.4352E+00

# AV, chi2 & Mass for <> & i_chain = 1 ...  7 solutions
AV       0.8543      0.8167      0.8301      0.8184      0.8350      0.8265      0.8332      0.8264      0.8207
chi2 2.1025E+00  2.2255E+00  2.1747E+00  2.2022E+00  2.1596E+00  2.1772E+00  2.1633E+00  2.1907E+00  2.1926E+00
Mass 5.2298E-10  5.2970E-10  5.2742E-10  5.3654E-10  5.4144E-10  5.3368E-10  5.2582E-10  5.3190E-10  5.4188E-10
 -18.12                                  [v0_min (km/s) before EX0s...]
  81.80                                  [vd_min (km/s) before EX0s...]


## Synthetic spectrum (Best Model) ##l_obs f_obs f_syn wei
 3070    [Nl_obs]
 3359.00    0.04133   0.41322   -1.000
 3360.00    0.22867   0.40217   -1.000
 3361.00    0.21710   0.41131   -1.000
 3362.00    0.23638   0.43458   -1.000
 3363.00    0.25824   0.45998   -1.000
 3364.00    0.27963   0.47497   -1.000
 3365.00    0.27362   0.47525   -1.000
 3366.00    0.27202   0.46659   -1.000
 3367.00    0.28052   0.45539   -1.000
 3368.00    0.26133   0.44418   -1.000
 3369.00    0.26463   0.43243   -1.000
 3370.00    0.26280   0.42066   -1.000
 3371.00    0.26485   0.41454   -1.000
 3372.00    0.26314   0.42002   -1.000
 3373.00    0.26900   0.43695   -1.000
 3374.00    0.28169   0.45958   -1.000
 3375.00    0.29962   0.47954   -1.000
 3376.00    0.32034   0.48898   -1.000
 3377.00    0.32627   0.48533   -1.000
 3378.00    0.32654   0.47389   -1.000
 3379.00    0.33072   0.46424   -1.000
 3380.00    0.32674   0.46245   -1.000
 3381.00    0.31382   0.46760   -1.000
 3382.00    0.31966   0.47551   -1.000
 3383.00    0.32356   0.48307   -1.000
 3384.00    0.32099   0.48917   -1.000
 3385.00    0.32590   0.49177   -1.000
 3386.00    0.34411   0.48868   -1.000
 3387.00    0.35121   0.48307   -1.000
 3388.00    0.36160   0.48141   -1.000
 3389.00    0.36079   0.48513   -1.000
 3390.00    0.36532   0.48935   -1.000
 3391.00    0.38053   0.48848   -1.000
 3392.00    0.36309   0.48309   -1.000
 3393.00    0.36827   0.48072   -1.000
 3394.00    0.36879   0.48682   -1.000
 3395.00    0.37642   0.49981   -1.000
 3396.00    0.39344   0.51460   -1.000
 3397.00    0.40914   0.52706   -1.000
 3398.00    0.42233   0.53460   -1.000
 3399.00    0.43127   0.53537   -1.000
 3400.00    0.44093   0.52924   -1.000
 3401.00    0.44243   0.51725   -1.000
 3402.00    0.44420   0.50368   -1.000
 3403.00    0.42755   0.49409   -1.000
 3404.00    0.41640   0.49041   -1.000
 3405.00    0.41124   0.48983   -1.000
 3406.00    0.41740   0.48772   -1.000
 3407.00    0.41081   0.48314   -1.000
 3408.00    0.40697   0.48022   -1.000
 3409.00    0.40484   0.48284   -1.000
 3410.00    0.40761   0.48738   -1.000
 3411.00    0.41482   0.48722   -1.000
 3412.00    0.42611   0.48155   -1.000
 3413.00    0.42275   0.47581   -1.000
 3414.00    0.41537   0.47666   -1.000
 3415.00    0.40836   0.48537   -1.000
 3416.00    0.41116   0.49779   -1.000
 3417.00    0.42847   0.51007   -1.000
 3418.00    0.43927   0.52067   -1.000
 3419.00    0.44595   0.52855   -1.000
 3420.00    0.45815   0.53138   -1.000
 3421.00    0.46765   0.52632   -1.000
 3422.00    0.45032   0.51488   -1.000
 3423.00    0.45645   0.50422   -1.000
 3424.00    0.45982   0.50048   -1.000
 3425.00    0.47229   0.50348   -1.000
 3426.00    0.47095   0.51055   -1.000
 3427.00    0.46095   0.52145   -1.000
 3428.00    0.48725   0.53550   -1.000
 3429.00    0.49869   0.54672   -1.000
 3430.00    0.50093   0.54659   -1.000
 3431.00    0.49954   0.53447   -1.000
 3432.00    0.47425   0.52049   -1.000
 3433.00    0.46830   0.51608   -1.000
 3434.00    0.48354   0.52301   -1.000
 3435.00    0.49099   0.53183   -1.000
 3436.00    0.50491   0.53222   -1.000
 3437.00    0.49747   0.52232  138.655
 3438.00    0.46562   0.50596   -1.000
 3439.00    0.46246   0.48707  154.839
 3440.00    0.44938   0.46891  166.143
 3441.00    0.43689   0.45566  171.583
 3442.00    0.43735   0.45098  171.615
 3443.00    0.43941   0.45515  169.709
 3444.00    0.44712   0.46571  162.409
 3445.00    0.46159   0.48094  153.467
 3446.00    0.47847   0.49990  145.569
 3447.00    0.48201   0.51963   -1.000
 3448.00    0.49700   0.53484   -1.000
 3449.00    0.51770   0.53920   -1.000
 3450.00    0.52048   0.53038   -1.000
 3451.00    0.51101   0.51486  936.779
 3452.00    0.49186   0.50333   -1.000
 3453.00    0.49289   0.50140   -1.000
 3454.00    0.49772   0.50673   -1.000
 3455.00    0.50229   0.51260   -1.000
 3456.00    0.51286   0.51355   -1.000
 3457.00    0.50318   0.50840  936.779
 3458.00    0.50127   0.49955   -1.000
 3459.00    0.49773   0.49000  138.263
 3460.00    0.48791   0.48332  139.628
 3461.00    0.49831   0.48431   -1.000
 3462.00    0.51143   0.49341   -1.000
 3463.00    0.51730   0.50362   -1.000
 3464.00    0.52307   0.50783   -1.000
 3465.00    0.52429   0.50739   -1.000
 3466.00    0.52128   0.50963   -1.000
 3467.00    0.51850   0.51870   -1.000
 3468.00    0.52092   0.53170   -1.000
 3469.00    0.53039   0.54198   -1.000
 3470.00    0.54593   0.54415   -1.000
 3471.00    0.54541   0.53718   -1.000
 3472.00    0.52254   0.52279   -1.000
 3473.00    0.51687   0.50459   -1.000
 3474.00    0.50218   0.48851   -1.000
 3475.00    0.48950   0.48054  140.014
 3476.00    0.48403   0.48384  143.741
 3477.00    0.48377   0.49614  168.896
 3478.00    0.50633   0.51118  936.779
 3479.00    0.52898   0.52406   -1.000
 3480.00    0.53899   0.53190   -1.000
 3481.00    0.53656   0.53295   -1.000
 3482.00    0.54196   0.52881   -1.000
 3483.00    0.54179   0.52460   -1.000
 3484.00    0.54506   0.52600   -1.000
 3485.00    0.53495   0.53403   -1.000
 3486.00    0.54949   0.54231   -1.000
 3487.00    0.56386   0.54295   -1.000
 3488.00    0.55349   0.53361   -1.000
 3489.00    0.53374   0.51923   -1.000
 3490.00    0.52267   0.50900   -1.000
 3491.00    0.51322   0.50850   -1.000
 3492.00    0.51496   0.51391   -1.000
 3493.00    0.51542   0.51737   -1.000
 3494.00    0.51849   0.51466   -1.000
 3495.00    0.51700   0.50754   -1.000
 3496.00    0.50587   0.50281   -1.000
 3497.00    0.51180   0.50568   -1.000
 3498.00    0.53094   0.51500   -1.000
 3499.00    0.53770   0.52471   -1.000
 3500.00    0.55217   0.53044   -1.000
 3501.00    0.56609   0.53381   -1.000
 3502.00    0.55708   0.53729   -1.000
 3503.00    0.55780   0.53931   -1.000
 3504.00    0.55937   0.53707   -1.000
 3505.00    0.55432   0.53112   -1.000
 3506.00    0.53744   0.52514   -1.000
 3507.00    0.53483   0.52158   -1.000
 3508.00    0.54564   0.51993   -1.000
 3509.00    0.55106   0.51819   -1.000
 3510.00    0.53907   0.51487   -1.000
 3511.00    0.52352   0.50960   -1.000
 3512.00    0.53048   0.50331   -1.000
 3513.00    0.52746   0.49940   -1.000
 3514.00    0.52149   0.50289   -1.000
 3515.00    0.51925   0.51662   -1.000
 3516.00    0.55042   0.53601   -1.000
 3517.00    0.57040   0.55057   -1.000
 3518.00    0.56871   0.55178   -1.000
 3519.00    0.56252   0.54066   -1.000
 3520.00    0.55053   0.52521   -1.000
 3521.00    0.53467   0.51206   -1.000
 3522.00    0.52958   0.50190   -1.000
 3523.00    0.51842   0.49227   -1.000
 3524.00    0.49852   0.48359   -1.000
 3525.00    0.48356   0.48125  142.682
 3526.00    0.48741   0.48909  170.319
 3527.00    0.50931   0.50520   -1.000
 3528.00    0.53606   0.52381   -1.000
 3529.00    0.55502   0.53893   -1.000
 3530.00    0.56751   0.54725   -1.000
 3531.00    0.56387   0.54867   -1.000
 3532.00    0.55587   0.54472   -1.000
 3533.00    0.54747   0.53903   -1.000
 3534.00    0.55432   0.53627   -1.000
 3535.00    0.56048   0.53981   -1.000
 3536.00    0.56613   0.54932   -1.000
 3537.00    0.56174   0.56097  936.779
 3538.00    0.57126   0.57029  936.779
 3539.00    0.57820   0.57450  936.779
 3540.00    0.57117   0.57365   -1.000
 3541.00    0.56711   0.57115   -1.000
 3542.00    0.56659   0.57151   -1.000
 3543.00    0.57222   0.57549   -1.000
 3544.00    0.57137   0.57924   -1.000
 3545.00    0.56716   0.57928   -1.000
 3546.00    0.56873   0.57600   -1.000
 3547.00    0.57480   0.57237  936.779
 3548.00    0.57544   0.57110  936.779
 3549.00    0.57750   0.57286  936.779
 3550.00    0.57085   0.57557   -1.000
 3551.00    0.55471   0.57499   -1.000
 3552.00    0.54369   0.56870   -1.000
 3553.00    0.53446   0.55993   -1.000
 3554.00    0.55058   0.55494   -1.000
 3555.00    0.55601   0.55648  936.779
 3556.00    0.54767   0.56243   -1.000
 3557.00    0.55284   0.56828   -1.000
 3558.00    0.55431   0.57110   -1.000
 3559.00    0.55296   0.57174   -1.000
 3560.00    0.55414   0.57285   -1.000
 3561.00    0.55395   0.57413   -1.000
 3562.00    0.55257   0.57097   -1.000
 3563.00    0.55483   0.55896   -1.000
 3564.00    0.54511   0.53975   -1.000
 3565.00    0.51788   0.52143  140.318
 3566.00    0.49330   0.51111  144.670
 3567.00    0.50139   0.50824  143.097
 3568.00    0.50158   0.50655  143.373
 3569.00    0.49324   0.50153  147.916
 3570.00    0.49344   0.49488  149.167
 3571.00    0.49577   0.49169  144.018
 3572.00    0.50204   0.49385  167.149
 3573.00    0.51033   0.49933   -1.000
 3574.00    0.52100   0.50612   -1.000
 3575.00    0.52707   0.51316   -1.000
 3576.00    0.52828   0.51880   -1.000
 3577.00    0.52980   0.52092   -1.000
 3578.00    0.53823   0.51711   -1.000
 3579.00    0.52556   0.50713   -1.000
 3580.00    0.49830   0.49453  157.037
 3581.00    0.47283   0.48469  164.162
 3582.00    0.46690   0.48083  165.076
 3583.00    0.47562   0.47985  166.414
 3584.00    0.47561   0.47499  170.911
 3585.00    0.46097   0.46453  175.962
 3586.00    0.44679   0.45523  176.126
 3587.00    0.46114   0.45563  167.007
 3588.00    0.47313   0.46862  158.260
 3589.00    0.48854   0.48958  149.261
 3590.00    0.50130   0.51025  166.675
 3591.00    0.52669   0.52424   -1.000
 3592.00    0.54154   0.53100   -1.000
 3593.00    0.55204   0.53526   -1.000
 3594.00    0.55305   0.54251   -1.000
 3595.00    0.56647   0.55358   -1.000
 3596.00    0.56988   0.56473  936.779
 3597.00    0.57010   0.57275   -1.000
 3598.00    0.59046   0.57732   -1.000
 3599.00    0.60065   0.57816   -1.000
 3600.00    0.59498   0.57272   -1.000
 3601.00    0.58349   0.56076   -1.000
 3602.00    0.56720   0.54668   -1.000
 3603.00    0.55632   0.53689   -1.000
 3604.00    0.55353   0.53377   -1.000
 3605.00    0.55368   0.53382   -1.000
 3606.00    0.55035   0.53196   -1.000
 3607.00    0.53943   0.52672   -1.000
 3608.00    0.53426   0.52098   -1.000
 3609.00    0.52924   0.51865   -1.000
 3610.00    0.53022   0.52146   -1.000
 3611.00    0.52921   0.52817   -1.000
 3612.00    0.54067   0.53643   -1.000
 3613.00    0.54451   0.54552  936.779
 3614.00    0.55403   0.55594  936.779
 3615.00    0.55955   0.56339   -1.000
 3616.00    0.56934   0.56080   -1.000
 3617.00    0.55222   0.54694   -1.000
 3618.00    0.51151   0.53074   -1.000
 3619.00    0.50056   0.52450   -1.000
 3620.00    0.52403   0.53280   -1.000
 3621.00    0.55450   0.54946   -1.000
 3622.00    0.57635   0.56552   -1.000
 3623.00    0.58825   0.57796   -1.000
 3624.00    0.58626   0.59043   -1.000
 3625.00    0.58537   0.60612   -1.000
 3626.00    0.59643   0.62207   -1.000
 3627.00    0.60376   0.62903   -1.000
 3628.00    0.60362   0.61897   -1.000
 3629.00    0.58467   0.59260   -1.000
 3630.00    0.56240   0.56199  936.779
 3631.00    0.53605   0.54210   -1.000
 3632.00    0.52581   0.53986   -1.000
 3633.00    0.53191   0.54996   -1.000
 3634.00    0.53857   0.56184   -1.000
 3635.00    0.54892   0.57001   -1.000
 3636.00    0.55524   0.57725   -1.000
 3637.00    0.57421   0.58755   -1.000
 3638.00    0.57812   0.59942   -1.000
 3639.00    0.58711   0.60767   -1.000
 3640.00    0.57744   0.60831   -1.000
 3641.00    0.58235   0.60084   -1.000
 3642.00    0.58231   0.58843   -1.000
 3643.00    0.57493   0.57561  936.779
 3644.00    0.56404   0.56522  936.779
 3645.00    0.55412   0.55749  936.779
 3646.00    0.54436   0.55207   -1.000
 3647.00    0.54743   0.54952  936.779
 3648.00    0.55078   0.55050  936.779
 3649.00    0.55434   0.55547  936.779
 3650.00    0.55694   0.56455   -1.000
 3651.00    0.57166   0.57730   -1.000
 3652.00    0.58895   0.59147   -1.000
 3653.00    0.59942   0.60466   -1.000
 3654.00    0.61180   0.61608   -1.000
 3655.00    0.60713   0.62605   -1.000
 3656.00    0.61895   0.63422   -1.000
 3657.00    0.61786   0.63948   -1.000
 3658.00    0.61294   0.64134   -1.000
 3659.00    0.61219   0.63992   -1.000
 3660.00    0.61607   0.63521   -1.000
 3661.00    0.61921   0.62779   -1.000
 3662.00    0.61520   0.62019   -1.000
 3663.00    0.61078   0.61573   -1.000
 3664.00    0.61448   0.61557   -1.000
 3665.00    0.60822   0.61743   -1.000
 3666.00    0.61057   0.61763   -1.000
 3667.00    0.61206   0.61410   -1.000
 3668.00    0.59925   0.60834   -1.000
 3669.00    0.59204   0.60469   -1.000
 3670.00    0.59455   0.60674   -1.000
 3671.00    0.59409   0.61398   -1.000
 3672.00    0.61131   0.62213   -1.000
 3673.00    0.62286   0.62639   -1.000
 3674.00    0.61759   0.62438   -1.000
 3675.00    0.61852   0.61595  936.779
 3676.00    0.61299   0.60282   -1.000
 3677.00    0.60179   0.58872   -1.000
 3678.00    0.59289   0.57871   -1.000
 3679.00    0.58517   0.57596   -1.000
 3680.00    0.58365   0.57961  936.779
 3681.00    0.59493   0.58603   -1.000
 3682.00    0.60559   0.59111   -1.000
 3683.00    0.60652   0.59170   -1.000
 3684.00    0.58952   0.58631  936.779
 3685.00    0.58120   0.57714  936.779
 3686.00    0.57093   0.57080  936.779
 3687.00    0.56446   0.57458   -1.000
 3688.00    0.57454   0.58972   -1.000
 3689.00    0.59215   0.60914   -1.000
 3690.00    0.61568   0.62384   -1.000
 3691.00    0.62572   0.63011   -1.000
 3692.00    0.63146   0.63059  936.779
 3693.00    0.62790   0.62969   -1.000
 3694.00    0.62424   0.62923   -1.000
 3695.00    0.61727   0.62810   -1.000
 3696.00    0.61843   0.62688   -1.000
 3697.00    0.62418   0.63082   -1.000
 3698.00    0.63708   0.64367   -1.000
 3699.00    0.64867   0.66100   -1.000
 3700.00    0.66047   0.67012   -1.000
 3701.00    0.65648   0.65950   -1.000
 3702.00    0.63101   0.62863  936.779
 3703.00    0.59626   0.58983   -1.000
 3704.00    0.56455   0.55949   -1.000
 3705.00    0.54782   0.54767  936.779
 3706.00    0.55269   0.55315  936.779
 3707.00    0.56550   0.56670  936.779
 3708.00    0.57241   0.57792  936.779
 3709.00    0.58323   0.58167   -1.000
 3710.00    0.59837   0.58078   -1.000
 3711.00    0.60302   0.58341   -1.000
 3712.00    0.61124   0.59673   -1.000
 3713.00    0.63659   0.62104   -1.000
 3714.00    0.66302   0.64884   -1.000
 3715.00    0.67528   0.66983  896.468
 3716.00    0.68563   0.67668   -1.000
 3717.00    0.67843   0.66511   -1.000
 3718.00    0.63816   0.63311   -1.000
 3719.00    0.58943   0.58499   -1.000
 3720.00    0.53945   0.53678  499.519
 3721.00    0.51596   0.50922  169.870
 3722.00    0.51979   0.51420   -1.000
 3723.00    0.55322   0.54834   -1.000
 3724.00    0.60545   0.59471   -1.000
 3725.00    0.64665   0.63272   -1.000
 3726.00    0.65507   0.65319   -1.000
 3727.00    0.65540   0.66150   -1.000
 3728.00    0.65139   0.66556   -1.000
 3729.00    0.64954   0.66490   -1.000
 3730.00    0.64893   0.65105  936.779
 3731.00    0.63151   0.61589   -1.000
 3732.00    0.58181   0.56349   -1.000
 3733.00    0.51582   0.50977  140.408
 3734.00    0.47729   0.47367  155.203
 3735.00    0.46621   0.46786  158.092
 3736.00    0.47719   0.49399  148.559
 3737.00    0.52184   0.54184  166.556
 3738.00    0.58062   0.59720   -1.000
 3739.00    0.62683   0.64584   -1.000
 3740.00    0.66047   0.67636   -1.000
 3741.00    0.67854   0.68373  936.779
 3742.00    0.67387   0.67258   -1.000
 3743.00    0.65274   0.65154   -1.000
 3744.00    0.62686   0.62732   -1.000
 3745.00    0.59792   0.60152  936.779
 3746.00    0.57800   0.57236   -1.000
 3747.00    0.54688   0.53919  141.061
 3748.00    0.50749   0.50725  148.743
 3749.00    0.47678   0.48866  182.156
 3750.00    0.48627   0.49620   -1.000
 3751.00    0.53487   0.53241   -1.000
 3752.00    0.58979   0.58626   -1.000
 3753.00    0.64666   0.64055   -1.000
 3754.00    0.69224   0.68082   -1.000
 3755.00    0.72081   0.69872   -1.000
 3756.00    0.71254   0.69324   -1.000
 3757.00    0.67868   0.67270   -1.000
 3758.00    0.64927   0.65193  936.779
 3759.00    0.64481   0.64246   -1.000
 3760.00    0.66070   0.64611   -1.000
 3761.00    0.68538   0.65686   -1.000
 3762.00    0.69607   0.66690   -1.000
 3763.00    0.69567   0.67109   -1.000
 3764.00    0.69082   0.66775   -1.000
 3765.00    0.67937   0.65703   -1.000
 3766.00    0.65968   0.63925   -1.000
 3767.00    0.63334   0.61469   -1.000
 3768.00    0.61276   0.58594   -1.000
 3769.00    0.59114   0.56029   -1.000
 3770.00    0.57823   0.54936   -1.000
 3771.00    0.58806   0.56135   -1.000
 3772.00    0.62297   0.59323   -1.000
 3773.00    0.65877   0.63127   -1.000
 3774.00    0.67877   0.66272   -1.000
 3775.00    0.69983   0.68451   -1.000
 3776.00    0.72353   0.70228   -1.000
 3777.00    0.73608   0.72212   -1.000
 3778.00    0.75251   0.74485   -1.000
 3779.00    0.77459   0.76706   -1.000
 3780.00    0.79103   0.78429   -1.000
 3781.00    0.80205   0.79377   -1.000
 3782.00    0.80017   0.79531  869.588
 3783.00    0.79929   0.79020   -1.000
 3784.00    0.79962   0.77855   -1.000
 3785.00    0.78832   0.76066   -1.000
 3786.00    0.76115   0.73921   -1.000
 3787.00    0.73835   0.71986   -1.000
 3788.00    0.72308   0.70790   -1.000
 3789.00    0.72000   0.70414   -1.000
 3790.00    0.71026   0.70377   -1.000
 3791.00    0.70123   0.69966   -1.000
 3792.00    0.69548   0.68616   -1.000
 3793.00    0.67310   0.66121   -1.000
 3794.00    0.63517   0.62649   -1.000
 3795.00    0.60395   0.58628   -1.000
 3796.00    0.57116   0.54640   -1.000
 3797.00    0.53007   0.51681   -1.000
 3798.00    0.51158   0.51099  936.779
 3799.00    0.53440   0.53740   -1.000
 3800.00    0.58734   0.58897  936.779
 3801.00    0.64954   0.64749  936.779
 3802.00    0.69298   0.69585   -1.000
 3803.00    0.72379   0.72695   -1.000
 3804.00    0.74358   0.74142  936.779
 3805.00    0.75113   0.74481   -1.000
 3806.00    0.74691   0.74565  936.779
 3807.00    0.74346   0.75227   -1.000
 3808.00    0.76170   0.76684   -1.000
 3809.00    0.78144   0.78358  936.779
 3810.00    0.79292   0.79236  936.779
 3811.00    0.79274   0.78526   -1.000
 3812.00    0.78063   0.76334   -1.000
 3813.00    0.75215   0.73654   -1.000
 3814.00    0.72917   0.71757   -1.000
 3815.00    0.72474   0.71341   -1.000
 3816.00    0.71937   0.72112  936.779
 3817.00    0.73060   0.72953  936.779
 3818.00    0.74164   0.72779   -1.000
 3819.00    0.72128   0.71555   -1.000
 3820.00    0.69092   0.70301   -1.000
 3821.00    0.69039   0.69912   -1.000
 3822.00    0.70653   0.70017   -1.000
 3823.00    0.71592   0.69452   -1.000
 3824.00    0.68588   0.67788   -1.000
 3825.00    0.65542   0.65766  144.677
 3826.00    0.64562   0.64234  146.844
 3827.00    0.63812   0.63325  145.263
 3828.00    0.63170   0.62683  142.882
 3829.00    0.62037   0.61827  141.381
 3830.00    0.61009   0.60243  144.178
 3831.00    0.57804   0.57544  151.872
 3832.00    0.54065   0.53779  162.690
 3833.00    0.50605   0.49763  165.780
 3834.00    0.47368   0.46779  161.605
 3835.00    0.47004   0.45757  155.616
 3836.00    0.48335   0.46761   -1.000
 3837.00    0.49635   0.49212  157.170
 3838.00    0.51826   0.52376  159.596
 3839.00    0.54115   0.55825  155.241
 3840.00    0.57811   0.59539  180.786
 3841.00    0.63029   0.63512   -1.000
 3842.00    0.67771   0.67472   -1.000
 3843.00    0.70558   0.70903  936.779
 3844.00    0.72881   0.73428  936.779
 3845.00    0.73930   0.75102   -1.000
 3846.00    0.74408   0.76232   -1.000
 3847.00    0.75791   0.76889   -1.000
 3848.00    0.76212   0.76989   -1.000
 3849.00    0.75300   0.76787   -1.000
 3850.00    0.74454   0.76942   -1.000
 3851.00    0.74542   0.77826   -1.000
 3852.00    0.75971   0.79011   -1.000
 3853.00    0.77658   0.79663   -1.000
 3854.00    0.76899   0.79355   -1.000
 3855.00    0.75473   0.78310   -1.000
 3856.00    0.74773   0.77006   -1.000
 3857.00    0.73152   0.75760   -1.000
 3858.00    0.71876   0.74846   -1.000
 3859.00    0.70460   0.74688   -1.000
 3860.00    0.70370   0.75604   -1.000
 3861.00    0.73136   0.77314   -1.000
 3862.00    0.76755   0.78995   -1.000
 3863.00    0.78842   0.79936   -1.000
 3864.00    0.80411   0.80081  936.779
 3865.00    0.80202   0.79913  936.779
 3866.00    0.78559   0.79908   -1.000
 3867.00    0.78907   0.80106   -1.000
 3868.00    0.78136   0.80096   -1.000
 3869.00    0.76061   0.79395   -1.000
 3870.00    0.73969   0.77920   -1.000
 3871.00    0.71340   0.76125   -1.000
 3872.00    0.70837   0.74830   -1.000
 3873.00    0.73194   0.74664   -1.000
 3874.00    0.75727   0.75411   -1.000
 3875.00    0.76968   0.75964   -1.000
 3876.00    0.75893   0.75362   -1.000
 3877.00    0.73095   0.73808   -1.000
 3878.00    0.70086   0.72375   -1.000
 3879.00    0.69691   0.71801   -1.000
 3880.00    0.69616   0.71808   -1.000
 3881.00    0.68141   0.71618   -1.000
 3882.00    0.66709   0.70802   -1.000
 3883.00    0.67409   0.69262   -1.000
 3884.00    0.67459   0.66738   -1.000
 3885.00    0.64792   0.62989   -1.000
 3886.00    0.61401   0.58415   -1.000
 3887.00    0.58086   0.54251   -1.000
 3888.00    0.55019   0.52015   -1.000
 3889.00    0.54973   0.52695   -1.000
 3890.00    0.59155   0.56137   -1.000
 3891.00    0.64672   0.60993   -1.000
 3892.00    0.68729   0.65442   -1.000
 3893.00    0.70742   0.68441   -1.000
 3894.00    0.71954   0.70230   -1.000
 3895.00    0.73078   0.71627   -1.000
 3896.00    0.76383   0.73073   -1.000
 3897.00    0.77590   0.74400   -1.000
 3898.00    0.77981   0.75291   -1.000
 3899.00    0.78937   0.75863   -1.000
 3900.00    0.79051   0.76527   -1.000
 3901.00    0.80331   0.77324   -1.000
 3902.00    0.81957   0.77848   -1.000
 3903.00    0.80945   0.77820   -1.000
 3904.00    0.80247   0.77490   -1.000
 3905.00    0.78781   0.77502   -1.000
 3906.00    0.78776   0.78488  936.779
 3907.00    0.80374   0.80566  921.347
 3908.00    0.83193   0.83152  867.632
 3909.00    0.85569   0.85350  850.523
 3910.00    0.87481   0.86627   -1.000
 3911.00    0.88514   0.86952   -1.000
 3912.00    0.88065   0.86515   -1.000
 3913.00    0.87763   0.85602   -1.000
 3914.00    0.85777   0.84672  863.962
 3915.00    0.84869   0.84085  882.421
 3916.00    0.83993   0.83738  893.525
 3917.00    0.84878   0.83226   -1.000
 3918.00    0.83741   0.82347   -1.000
 3919.00    0.81332   0.81301  936.779
 3920.00    0.80207   0.80469   -1.000
 3921.00    0.79908   0.80115   -1.000
 3922.00    0.79429   0.80205   -1.000
 3923.00    0.79793   0.80382   -1.000
 3924.00    0.79926   0.80085  936.779
 3925.00    0.78342   0.78760   -1.000
 3926.00    0.74789   0.76145   -1.000
 3927.00    0.70731   0.72357   -1.000
 3928.00    0.65275   0.67679  157.353
 3929.00    0.60209   0.62194  184.447
 3930.00    0.54627   0.55711  216.239
 3931.00    0.47748   0.48406  255.436
 3932.00    0.40888   0.41645   -1.000
 3933.00    0.36815   0.37726   -1.000
 3934.00    0.38047   0.38363   -1.000
 3935.00    0.43014   0.43345   -1.000
 3936.00    0.49236   0.50778  206.993
 3937.00    0.55802   0.58603  170.913
 3938.00    0.61420   0.65484   -1.000
 3939.00    0.66487   0.70794   -1.000
 3940.00    0.70606   0.74383   -1.000
 3941.00    0.73237   0.76422   -1.000
 3942.00    0.74291   0.77386   -1.000
 3943.00    0.75313   0.78005  115.625
 3944.00    0.76053   0.78867   -1.000
 3945.00    0.78956   0.80081   99.369
 3946.00    0.81944   0.81296   94.673
 3947.00    0.82363   0.82082   93.795
 3948.00    0.81801   0.82365   92.507
 3949.00    0.82156   0.82386   89.131
 3950.00    0.83929   0.82344   86.930
 3951.00    0.84779   0.82350   87.580
 3952.00    0.84701   0.82565   88.275
 3953.00    0.85610   0.82953   86.513
 3954.00    0.86453   0.83092   84.990
 3955.00    0.85402   0.82611   86.441
 3956.00    0.82249   0.81680   89.298
 3957.00    0.80975   0.80787   90.053
 3958.00    0.81838   0.79963   89.176
 3959.00    0.81823   0.78538   92.820
 3960.00    0.78698   0.75960  103.372
 3961.00    0.72796   0.72452  116.406
 3962.00    0.68110   0.68617  127.383
 3963.00    0.64430   0.64579   48.490
 3964.00    0.59784   0.59684   14.812
 3965.00    0.53092   0.53197   17.559
 3966.00    0.44596   0.45325   21.653
 3967.00    0.36161   0.37641   25.980
 3968.00    0.30515   0.32488   27.625
 3969.00    0.29901   0.31653   24.886
 3970.00    0.34187   0.35316   20.470
 3971.00    0.40862   0.42118   16.890
 3972.00    0.48079   0.50067   18.082
 3973.00    0.56224   0.57615  123.546
 3974.00    0.63529   0.64090  109.622
 3975.00    0.69118   0.69438   99.302
 3976.00    0.74105   0.73835   91.980
 3977.00    0.77889   0.77495   86.725
 3978.00    0.81187   0.80487   82.155
 3979.00    0.84351   0.82660   78.472
 3980.00    0.86407   0.83867   77.920
 3981.00    0.87167   0.84337   78.704
 3982.00    0.87351   0.84683   79.801
 3983.00    0.87599   0.85465   78.938
 3984.00    0.88749   0.86760   77.285
 3985.00    0.90249   0.88199   75.822
 3986.00    0.91309   0.89455   74.551
 3987.00    0.92419   0.90473   73.269
 3988.00    0.93071   0.91267   72.792
 3989.00    0.93442   0.91881   72.924
 3990.00    0.93883   0.92518   72.170
 3991.00    0.95162   0.93358   70.444
 3992.00    0.96417   0.94258   69.281
 3993.00    0.96921   0.94758   70.360
 3994.00    0.95692   0.94419   72.070
 3995.00    0.94483   0.93286   73.670
 3996.00    0.93563   0.92036   74.905
 3997.00    0.92294   0.91527   75.001
 3998.00    0.91879   0.92118   72.852
 3999.00    0.94018   0.93448   69.649
 4000.00    0.95931   0.94814   67.584
 4001.00    0.98243   0.95635   66.557
 4002.00    0.99744   0.95594   66.096
 4003.00    0.99695   0.94655   68.132
 4004.00    0.97000   0.93248   72.652
 4005.00    0.93008   0.92310   75.434
 4006.00    0.92745   0.92654   73.875
 4007.00    0.95656   0.94199   69.802
 4008.00    0.98083   0.96068   67.478
 4009.00    0.98589   0.97442   66.667
 4010.00    0.99666   0.98107   66.058
 4011.00    1.00058   0.98278   66.002
 4012.00    0.99275   0.98283   66.471
 4013.00    0.99248   0.98408   66.640
 4014.00    1.01034   0.98752   66.019
 4015.00    1.00986   0.99211   65.394
 4016.00    0.99994   0.99669   66.054
 4017.00    0.99860   1.00142   66.631
 4018.00    0.99995   1.00671   66.122
 4019.00    1.00294   1.01120   65.334
 4020.00    1.00511   1.01211   65.697
 4021.00    0.99460   1.00798   66.561
 4022.00    0.99427   1.00014   66.947
 4023.00    0.99682   0.99201   67.406
 4024.00    0.99046   0.98818   67.442
 4025.00    0.98862   0.99237   65.544
 4026.00    1.00301   1.00281   63.405
 4027.00    1.02181   1.01086   62.552
 4028.00    1.02572   1.00737   63.600
 4029.00    1.01708   0.99062   66.663
 4030.00    0.97555   0.96769   70.932
 4031.00    0.94781   0.94899   73.409
 4032.00    0.94391   0.94145   73.833
 4033.00    0.94804   0.94656   72.514
 4034.00    0.96854   0.96276   69.821
 4035.00    0.98227   0.98686   66.330
 4036.00    1.01911   1.01317   63.267
 4037.00    1.04254   1.03395   61.501
 4038.00    1.05262   1.04326   61.653
 4039.00    1.03915   1.04141   63.047
 4040.00    1.02586   1.03368   64.383
 4041.00    1.02531   1.02339   64.977
 4042.00    1.02050   1.00766   65.886
 4043.00    0.99790   0.98273   69.840
 4044.00    0.95312   0.95366   76.518
 4045.00    0.91271   0.93512   80.344
 4046.00    0.91752   0.93936   75.744
 4047.00    0.96338   0.96424   68.899
 4048.00    1.00805   0.99516   65.272
 4049.00    1.02952   1.01815   63.703
 4050.00    1.03092   1.02824   63.252
 4051.00    1.02968   1.02730   64.004
 4052.00    1.02170   1.01939   65.787
 4053.00    1.01597   1.00916   67.342
 4054.00    1.00071   1.00058   68.258
 4055.00    0.99730   0.99516   68.771
 4056.00    1.00000   0.99297   69.291
 4057.00    0.99786   0.99512   69.680
 4058.00    0.99738   1.00231   68.424
 4059.00    1.01880   1.01010   66.142
 4060.00    1.03292   1.00937   65.395
 4061.00    1.01863   0.99482   67.367
 4062.00    0.98733   0.97139   72.391
 4063.00    0.94995   0.95068   76.034
 4064.00    0.94644   0.94168   74.097
 4065.00    0.96677   0.94541   70.784
 4066.00    0.98386   0.95653   69.061
 4067.00    0.99230   0.96807   67.100
 4068.00    1.01239   0.97448   65.214
 4069.00    1.02562   0.97205   65.154
 4070.00    1.01457   0.96133   67.927
 4071.00    0.99301   0.94977   70.259
 4072.00    0.97944   0.94606   69.180
 4073.00    0.98954   0.94975   67.054
 4074.00    0.99976   0.95059   67.529
 4075.00    0.97890   0.94009   71.455
 4076.00    0.95003   0.92197   76.810
 4077.00    0.92126   0.90985   77.913
 4078.00    0.91892   0.91526   74.557
 4079.00    0.95113   0.93746   69.349
 4080.00    0.98680   0.96378   65.173
 4081.00    1.01226   0.98020   63.936
 4082.00    1.00834   0.98161   65.347
 4083.00    0.99386   0.97336   67.358
 4084.00    0.97505   0.96542   67.895
 4085.00    0.96695   0.96528   66.532
 4086.00    0.98632   0.97408   64.171
 4087.00    1.01808   0.98689   61.782
 4088.00    1.04148   0.99665   60.307
 4089.00    1.03734   0.99872   60.858
 4090.00    1.01728   0.99335   62.125
 4091.00    0.99707   0.98348   63.183
 4092.00    0.98740   0.97078   63.736
 4093.00    0.98355   0.95476   64.023
 4094.00    0.96797   0.93451   65.625
 4095.00    0.94385   0.90983   68.532
 4096.00    0.91972   0.88124   70.403
 4097.00    0.89803   0.84795   71.005
 4098.00    0.86196   0.80655   72.787
 4099.00    0.81279   0.75572   -1.000
 4100.00    0.73443   0.70424   84.430
 4101.00    0.67248   0.67157   88.526
 4102.00    0.67412   0.67527   85.136
 4103.00    0.72834   0.71616   77.934
 4104.00    0.80703   0.77640   72.307
 4105.00    0.85837   0.83340   68.845
 4106.00    0.89884   0.87420   67.180
 4107.00    0.92531   0.89804   67.113
 4108.00    0.92799   0.91041   67.934
 4109.00    0.93277   0.91799   69.217
 4110.00    0.93913   0.92627   69.804
 4111.00    0.94705   0.93822   68.717
 4112.00    0.96231   0.95395   67.224
 4113.00    0.98085   0.97132   66.107
 4114.00    0.99309   0.98678   65.177
 4115.00    1.00610   0.99620   64.767
 4116.00    1.01037   0.99697   65.352
 4117.00    1.00096   0.99037   66.966
 4118.00    0.98957   0.98146   68.937
 4119.00    0.98652   0.97595   69.319
 4120.00    0.99814   0.97625   68.437
 4121.00    0.99571   0.98064   67.908
 4122.00    0.99899   0.98680   67.818
 4123.00    1.00127   0.99416   66.954
 4124.00    1.01276   1.00165   65.966
 4125.00    1.02347   1.00596   66.021
 4126.00    1.01709   1.00438   67.069
 4127.00    1.00436   0.99829   68.339
 4128.00    0.98950   0.99141   68.828
 4129.00    0.98707   0.98505   69.287
 4130.00    0.97841   0.97748   70.472
 4131.00    0.97185   0.96891   72.749
 4132.00    0.95049   0.96453   74.575
 4133.00    0.94833   0.97022   74.093
 4134.00    0.96343   0.98628   71.266
 4135.00    0.99134   1.00737   67.915
 4136.00    1.02703   1.02758   65.993
 4137.00    1.04171   1.04374   64.965
 4138.00    1.04202   1.05427   64.122
 4139.00    1.05582   1.05638   64.243
 4140.00    1.04874   1.04649   66.068
 4141.00    1.02617   1.02502   70.089
 4142.00    0.98245   0.99994   75.634
 4143.00    0.95733   0.98382   -1.000
 4144.00    0.95308   0.98492   -1.000
 4145.00    0.97972   1.00010   70.351
 4146.00    1.00990   1.01763   68.203
 4147.00    1.00988   1.02771   67.998
 4148.00    1.00424   1.02944   -1.000
 4149.00    0.99385   1.02779   -1.000
 4150.00    0.98590   1.02646   -1.000
 4151.00    0.99713   1.02495   -1.000
 4152.00    1.00211   1.02119   71.057
 4153.00    0.98728   1.01551   -1.000
 4154.00    0.98420   1.01109   -1.000
 4155.00    0.98943   1.01148   70.752
 4156.00    0.99276   1.01784   70.535
 4157.00    1.08440   1.02848   70.554
 4158.00    1.20709   1.04006   -1.000
 4159.00    1.02903   1.04944   68.729
 4160.00    0.84994   1.05541   -1.000
 4161.00    0.98732   1.05918   -1.000
 4162.00    1.05434   1.06248   65.607
 4163.00    1.03575   1.06547   -1.000
 4164.00    1.03060   1.06644   -1.000
 4165.00    1.03293   1.06374   -1.000
 4166.00    1.02147   1.05826   -1.000
 4167.00    1.01018   1.05302   -1.000
 4168.00    1.00506   1.04869   -1.000
 4169.00    1.00810   1.04114   -1.000
 4170.00    0.99894   1.02524   -1.000
 4171.00    0.97518   1.00237   -1.000
 4172.00    0.94088   0.98231   -1.000
 4173.00    0.93280   0.97533   -1.000
 4174.00    0.94403   0.98288   -1.000
 4175.00    0.95770   0.99649   -1.000
 4176.00    0.96042   1.00651   -1.000
 4177.00    0.96658   1.01119   -1.000
 4178.00    0.97241   1.01519   -1.000
 4179.00    0.98881   1.02161   -1.000
 4180.00    1.00003   1.02808   -1.000
 4181.00    0.99401   1.03155   -1.000
 4182.00    0.99180   1.03367   -1.000
 4183.00    0.99437   1.03708   -1.000
 4184.00    1.01233   1.03994   -1.000
 4185.00    1.01590   1.03814   68.432
 4186.00    0.99650   1.03159   -1.000
 4187.00    0.97458   1.02564   -1.000
 4188.00    0.97581   1.02519   -1.000
 4189.00    0.99490   1.02957   -1.000
 4190.00    1.00029   1.03532   -1.000
 4191.00    1.00610   1.04093   -1.000
 4192.00    1.01786   1.04622   -1.000
 4193.00    1.02448   1.04866   66.641
 4194.00    1.02355   1.04364   69.047
 4195.00    1.00927   1.02962   72.455
 4196.00    0.98336   1.01084   -1.000
 4197.00    0.96263   0.99365   -1.000
 4198.00    0.95574   0.98232   -1.000
 4199.00    0.94728   0.97805   -1.000
 4200.00    0.95507   0.97935   -1.000
 4201.00    0.96899   0.98374   73.286
 4202.00    0.97744   0.99078   72.640
 4203.00    0.97646   1.00139   -1.000
 4204.00    0.97647   1.01471   -1.000
 4205.00    0.98667   1.02834   -1.000
 4206.00    1.00115   1.04045   -1.000
 4207.00    1.01588   1.04943   -1.000
 4208.00    1.02889   1.05408   66.512
 4209.00    1.02789   1.05560   -1.000
 4210.00    1.02113   1.05694   -1.000
 4211.00    1.02237   1.05894   -1.000
 4212.00    1.02289   1.05784   -1.000
 4213.00    1.02120   1.04907   -1.000
 4214.00    1.00461   1.03445   -1.000
 4215.00    0.97063   1.02285   -1.000
 4216.00    0.96710   1.02299   -1.000
 4217.00    0.99685   1.03572   -1.000
 4218.00    1.03421   1.05349   63.309
 4219.00    1.04793   1.06743   61.836
 4220.00    1.05529   1.07237   61.490
 4221.00    1.05091   1.06550   62.544
 4222.00    1.03387   1.04467   65.617
 4223.00    1.00002   1.00998   70.732
 4224.00    0.96672   0.96762   78.384
 4225.00    0.90347   0.93111   -1.000
 4226.00    0.86062   0.91652   -1.000
 4227.00    0.86863   0.93295   -1.000
 4228.00    0.92224   0.97376   -1.000
 4229.00    0.98783   1.01839   -1.000
 4230.00    1.02860   1.04679   64.088
 4231.00    1.03415   1.05283   64.137
 4232.00    1.02933   1.04365   65.718
 4233.00    1.01356   1.03022   67.207
 4234.00    1.01104   1.02064   68.042
 4235.00    0.99493   1.01757   69.602
 4236.00    0.98686   1.01981   -1.000
 4237.00    0.98363   1.02611   -1.000
 4238.00    0.99379   1.03595   -1.000
 4239.00    1.00154   1.04822   -1.000
 4240.00    1.01314   1.06122   -1.000
 4241.00    1.02509   1.07300   -1.000
 4242.00    1.03582   1.08189   -1.000
 4243.00    1.04186   1.08635   -1.000
 4244.00    1.04711   1.08428   -1.000
 4245.00    1.04926   1.07362   63.774
 4246.00    1.02564   1.05557   66.712
 4247.00    0.99796   1.03609   -1.000
 4248.00    0.98715   1.02193   -1.000
 4249.00    0.98199   1.01646   -1.000
 4250.00    0.97348   1.01946   -1.000
 4251.00    0.98618   1.02768   -1.000
 4252.00    1.00653   1.03557   -1.000
 4253.00    1.00882   1.03984   -1.000
 4254.00    0.99676   1.04277   -1.000
 4255.00    1.00094   1.04800   -1.000
 4256.00    1.02131   1.05346   65.275
 4257.00    1.03557   1.05203   65.529
 4258.00    1.01787   1.04096   68.444
 4259.00    0.99252   1.02772   -1.000
 4260.00    0.97222   1.02424   -1.000
 4261.00    0.98001   1.03647   -1.000
 4262.00    1.01142   1.05984   -1.000
 4263.00    1.03918   1.08334   -1.000
 4264.00    1.05922   1.09762   -1.000
 4265.00    1.06150   1.10016   -1.000
 4266.00    1.05812   1.09316   62.744
 4267.00    1.04592   1.07859   64.842
 4268.00    1.02973   1.05700   66.927
 4269.00    1.00625   1.02993   69.957
 4270.00    0.97265   1.00214   -1.000
 4271.00    0.93633   0.98130   -1.000
 4272.00    0.92491   0.97376   -1.000
 4273.00    0.93490   0.98064   -1.000
 4274.00    0.94209   0.99877   -1.000
 4275.00    0.96479   1.02393   -1.000
 4276.00    1.00216   1.05067   -1.000
 4277.00    1.03610   1.07098   63.754
 4278.00    1.04013   1.07826   -1.000
 4279.00    1.02231   1.07303   -1.000
 4280.00    0.99894   1.06258   -1.000
 4281.00    0.99503   1.05459   -1.000
 4282.00    1.00446   1.05123   -1.000
 4283.00    1.00680   1.04979   -1.000
 4284.00    1.00142   1.04659   -1.000
 4285.00    0.98749   1.03883   -1.000
 4286.00    0.96773   1.02498   -1.000
 4287.00    0.95423   1.00538   -1.000
 4288.00    0.93373   0.98362   -1.000
 4289.00    0.90649   0.96757   -1.000
 4290.00    0.90544   0.96527   -1.000
 4291.00    0.92948   0.97673   -1.000
 4292.00    0.95882   0.99212   70.755
 4293.00    0.98026   1.00065   70.016
 4294.00    0.98157   0.99963   70.868
 4295.00    0.97361   0.99198   72.169
 4296.00    0.95866   0.97818   74.310
 4297.00    0.93040   0.95641   78.792
 4298.00    0.89018   0.92835   -1.000
 4299.00    0.84989   0.90111   -1.000
 4300.00    0.83584   0.88296   -1.000
 4301.00    0.83779   0.87779   -1.000
 4302.00    0.84808   0.88350   -1.000
 4303.00    0.86448   0.89433   85.556
 4304.00    0.87665   0.90302   84.869
 4305.00    0.87915   0.90327   85.903
 4306.00    0.86299   0.89450   89.404
 4307.00    0.84236   0.88357   -1.000
 4308.00    0.82707   0.88002   -1.000
 4309.00    0.82991   0.88864   -1.000
 4310.00    0.84964   0.90645   -1.000
 4311.00    0.87518   0.92669   -1.000
 4312.00    0.90061   0.94615   -1.000
 4313.00    0.91761   0.96843   -1.000
 4314.00    0.94365   0.99907   -1.000
 4315.00    0.99435   1.03787   -1.000
 4316.00    1.04989   1.07624   59.071
 4317.00    1.08453   1.10279   57.589
 4318.00    1.08752   1.11206   57.888
 4319.00    1.07658   1.10662   58.934
 4320.00    1.06497   1.09144   60.451
 4321.00    1.04021   1.06895   62.758
 4322.00    1.01247   1.03945   66.267
 4323.00    0.98030   1.00586   71.510
 4324.00    0.93675   0.97806   -1.000
 4325.00    0.91070   0.96964   -1.000
 4326.00    0.92460   0.98630   -1.000
 4327.00    0.97689   1.01833   -1.000
 4328.00    1.02945   1.04801   61.017
 4329.00    1.04611   1.06399   60.333
 4330.00    1.03902   1.06761   60.510
 4331.00    1.02977   1.06627   59.962
 4332.00    1.02987   1.06351   58.981
 4333.00    1.02964   1.05621   58.517
 4334.00    1.02436   1.03796   58.686
 4335.00    1.00648   1.00284   60.402
 4336.00    0.96072   0.94838   64.911
 4337.00    0.89290   0.87952   71.293
 4338.00    0.81445   0.81074   77.738
 4339.00    0.74744   0.76175   83.050
 4340.00    0.71180   0.74887   -1.000
 4341.00    0.72976   0.77683   -1.000
 4342.00    0.79943   0.83418   -1.000
 4343.00    0.88090   0.89922   65.297
 4344.00    0.93322   0.95496   63.393
 4345.00    0.96623   0.99732   61.839
 4346.00    0.98891   1.02927   -1.000
 4347.00    1.00422   1.05175   -1.000
 4348.00    1.02118   1.06115   59.477
 4349.00    1.03490   1.05422   60.444
 4350.00    1.01551   1.03532   64.264
 4351.00    0.96725   1.01766   -1.000
 4352.00    0.95800   1.01487   -1.000
 4353.00    0.98644   1.03061   -1.000
 4354.00    1.02224   1.05660   62.263
 4355.00    1.04338   1.08060   60.545
 4356.00    1.05508   1.09529   -1.000
 4357.00    1.05856   1.10063   -1.000
 4358.00    1.06528   1.10155   61.271
 4359.00    1.05880   1.10437   -1.000
 4360.00    1.06156   1.11251   -1.000
 4361.00    1.07833   1.12445   -1.000
 4362.00    1.08893   1.13623   -1.000
 4363.00    1.09170   1.14452   -1.000
 4364.00    1.10006   1.14692   -1.000
 4365.00    1.10123   1.14163   -1.000
 4366.00    1.08325   1.12933   -1.000
 4367.00    1.06649   1.11472   -1.000
 4368.00    1.05815   1.10358   -1.000
 4369.00    1.05874   1.09765   -1.000
 4370.00    1.06916   1.09377   60.737
 4371.00    1.07754   1.08679   60.863
 4372.00    1.05964   1.07357   61.962
 4373.00    1.03565   1.05639   64.596
 4374.00    1.00767   1.04382   -1.000
 4375.00    1.00956   1.04536   -1.000
 4376.00    1.03619   1.06240   62.728
 4377.00    1.06876   1.08545   60.058
 4378.00    1.07914   1.10119   59.447
 4379.00    1.08355   1.10098   60.046
 4380.00    1.08642   1.08240   61.584
 4381.00    1.06499   1.04789   65.512
 4382.00    1.00524   1.00694   73.090
 4383.00    0.94718   0.97610   -1.000
 4384.00    0.92196   0.96959   -1.000
 4385.00    0.94904   0.98816   -1.000
 4386.00    0.99995   1.01855   64.690
 4387.00    1.02898   1.04486   63.315
 4388.00    1.04653   1.05992   63.617
 4389.00    1.05306   1.06616   64.222
 4390.00    1.05382   1.06931   64.032
 4391.00    1.05882   1.07235   62.663
 4392.00    1.06823   1.07365   61.696
 4393.00    1.07106   1.07122   62.450
 4394.00    1.05757   1.06857   63.489
 4395.00    1.04748   1.07236   62.469
 4396.00    1.06937   1.08290   59.735
 4397.00    1.09461   1.09179   58.693
 4398.00    1.09053   1.09143   59.986
 4399.00    1.06786   1.08355   62.182
 4400.00    1.04179   1.07585   -1.000
 4401.00    1.04654   1.07185   62.371
 4402.00    1.06661   1.06784   62.035
 4403.00    1.05871   1.06017   64.766
 4404.00    1.03662   1.05197   67.845
 4405.00    1.02396   1.04996   -1.000
 4406.00    1.02948   1.05644   65.399
 4407.00    1.03919   1.06831   64.614
 4408.00    1.03927   1.08318   -1.000
 4409.00    1.05027   1.10129   -1.000
 4410.00    1.08422   1.12020   -1.000
 4411.00    1.11072   1.13227   56.832
 4412.00    1.11913   1.13017   56.772
 4413.00    1.10878   1.11331   58.858
 4414.00    1.08116   1.08963   62.062
 4415.00    1.05107   1.07192   63.570
 4416.00    1.04383   1.07028   62.589
 4417.00    1.05735   1.08554   60.197
 4418.00    1.07801   1.10937   57.880
 4419.00    1.10130   1.13005   56.781
 4420.00    1.11252   1.13947   57.509
 4421.00    1.10179   1.13791   -1.000
 4422.00    1.08779   1.13228   -1.000
 4423.00    1.08512   1.12863   -1.000
 4424.00    1.07788   1.12754   -1.000
 4425.00    1.07743   1.12706   -1.000
 4426.00    1.07633   1.12711   -1.000
 4427.00    1.06708   1.12889   -1.000
 4428.00    1.06949   1.13227   -1.000
 4429.00    1.07677   1.13564   -1.000
 4430.00    1.07669   1.13754   -1.000
 4431.00    1.08011   1.13654   -1.000
 4432.00    1.09313   1.13066   -1.000
 4433.00    1.08372   1.11981   -1.000
 4434.00    1.05919   1.10962   -1.000
 4435.00    1.04758   1.10966   -1.000
 4436.00    1.05826   1.12486   -1.000
 4437.00    1.09709   1.14889   -1.000
 4438.00    1.12999   1.16786   -1.000
 4439.00    1.14066   1.17051   55.654
 4440.00    1.12743   1.15563   57.757
 4441.00    1.09651   1.13227   -1.000
 4442.00    1.06649   1.11412   -1.000
 4443.00    1.05162   1.11165   -1.000
 4444.00    1.06932   1.12581   -1.000
 4445.00    1.10183   1.14775   -1.000
 4446.00    1.12055   1.16602   -1.000
 4447.00    1.12477   1.17518   -1.000
 4448.00    1.12950   1.17693   -1.000
 4449.00    1.12524   1.17500   -1.000
 4450.00    1.11905   1.17149   -1.000
 4451.00    1.11576   1.16592   -1.000
 4452.00    1.11729   1.15579   -1.000
 4453.00    1.10546   1.13988   -1.000
 4454.00    1.07637   1.12249   -1.000
 4455.00    1.05676   1.11153   -1.000
 4456.00    1.06363   1.11079   -1.000
 4457.00    1.08416   1.11618   -1.000
 4458.00    1.08990   1.12098   -1.000
 4459.00    1.08322   1.12250   -1.000
 4460.00    1.07689   1.12316   -1.000
 4461.00    1.07252   1.12696   -1.000
 4462.00    1.08634   1.13553   -1.000
 4463.00    1.10855   1.14627   -1.000
 4464.00    1.11645   1.15432   -1.000
 4465.00    1.12104   1.15603   -1.000
 4466.00    1.11910   1.15091   58.363
 4467.00    1.11016   1.14207   -1.000
 4468.00    1.09595   1.13543   -1.000
 4469.00    1.08909   1.13699   -1.000
 4470.00    1.09058   1.14902   -1.000
 4471.00    1.11319   1.16832   -1.000
 4472.00    1.14130   1.18833   -1.000
 4473.00    1.17233   1.20356   53.941
 4474.00    1.18191   1.21251   53.678
 4475.00    1.18376   1.21704   53.660
 4476.00    1.18070   1.21864   -1.000
 4477.00    1.18860   1.21513   53.095
 4478.00    1.18472   1.20236   53.989
 4479.00    1.16844   1.18069   56.197
 4480.00    1.14057   1.15888   58.541
 4481.00    1.11325   1.14910   -1.000
 4482.00    1.11303   1.15770   -1.000
 4483.00    1.13030   1.18038   -1.000
 4484.00    1.16170   1.20551   -1.000
 4485.00    1.18337   1.22153   53.134
 4486.00    1.18781   1.22279   53.561
 4487.00    1.18251   1.21131   55.058
 4488.00    1.16032   1.19550   -1.000
 4489.00    1.13934   1.18536   -1.000
 4490.00    1.13968   1.18564   -1.000
 4491.00    1.15511   1.19231   -1.000
 4492.00    1.16480   1.19666   54.988
 4493.00    1.16587   1.19418   56.123
 4494.00    1.15286   1.18861   -1.000
 4495.00    1.13188   1.18681   -1.000
 4496.00    1.13109   1.19146   -1.000
 4497.00    1.15076   1.19931   -1.000
 4498.00    1.17448   1.20457   54.163
 4499.00    1.17829   1.20423   53.967
 4500.00    1.16148   1.20163   -1.000
 4501.00    1.14654   1.20426   -1.000
 4502.00    1.16502   1.21623   -1.000
 4503.00    1.20054   1.23375   51.180
 4504.00    1.22412   1.24831   50.641
 4505.00    1.22511   1.25391   51.225
 4506.00    1.21535   1.25091   52.177
 4507.00    1.20897   1.24471   52.537
 4508.00    1.20538   1.24106   52.440
 4509.00    1.20594   1.24157   52.024
 4510.00    1.21604   1.24313   51.869
 4511.00    1.22064   1.24154   52.503
 4512.00    1.20591   1.23560   53.552
 4513.00    1.18941   1.22751   -1.000
 4514.00    1.18156   1.22043   -1.000
 4515.00    1.17902   1.21602   -1.000
 4516.00    1.17742   1.21366   54.404
 4517.00    1.17501   1.21181   -1.000
 4518.00    1.17431   1.21030   54.994
 4519.00    1.17658   1.21029   53.956
 4520.00    1.18857   1.21127   53.197
 4521.00    1.19109   1.21030   53.702
 4522.00    1.17476   1.20534   54.991
 4523.00    1.16043   1.19767   -1.000
 4524.00    1.15177   1.18926   -1.000
 4525.00    1.14992   1.17955   57.668
 4526.00    1.13608   1.16700   59.448
 4527.00    1.11778   1.15294   -1.000
 4528.00    1.09838   1.14216   -1.000
 4529.00    1.10346   1.13902   -1.000
 4530.00    1.11440   1.14270   59.474
 4531.00    1.12632   1.14676   58.591
 4532.00    1.12497   1.14484   58.830
 4533.00    1.11327   1.13776   60.675
 4534.00    1.09828   1.13417   -1.000
 4535.00    1.09655   1.14303   -1.000
 4536.00    1.12718   1.16525   -1.000
 4537.00    1.16987   1.19247   53.857
 4538.00    1.20045   1.21355   52.994
 4539.00    1.20221   1.22253   53.798
 4540.00    1.18993   1.22172   54.791
 4541.00    1.18896   1.21788   54.575
 4542.00    1.18884   1.21555   54.211
 4543.00    1.18260   1.21434   -1.000
 4544.00    1.17441   1.21196   51.572
 4545.00    1.15538   1.20762   29.020
 4546.00    0.82670   1.20115   -1.000
 4547.00    0.07520   1.19129   -1.000
 4548.00   -0.00143   1.17872    0.000
 4549.00    0.30872   1.16924   -1.000
 4550.00    0.74392   1.16895   -1.000
 4551.00    0.40808   1.17578   -1.000
 4552.00    1.01977   1.18057   -1.000
 4553.00    1.16547   1.17815   57.764
 4554.00    1.12372   1.17359   -1.000
 4555.00    1.12656   1.17636   -1.000
 4556.00    1.15064   1.19051   -1.000
 4557.00    1.18398   1.21131   52.580
 4558.00    1.20840   1.23070   52.025
 4559.00    1.20913   1.24392   52.287
 4560.00    1.21435   1.24972   52.251
 4561.00    1.21656   1.24725   52.579
 4562.00    1.20223   1.23703   53.888
 4563.00    1.18259   1.22404   -1.000
 4564.00    1.16658   1.21618   -1.000
 4565.00    1.17051   1.21847   -1.000
 4566.00    1.18896   1.22917   53.313
 4567.00    1.21320   1.24132   52.126
 4568.00    1.22436   1.24732   51.924
 4569.00    1.21513   1.24342   52.738
 4570.00    1.19692   1.23204   54.129
 4571.00    1.17563   1.22103   -1.000
 4572.00    1.17075   1.21880   -1.000
 4573.00    1.19255   1.22680   52.794
 4574.00    1.21146   1.23800   52.283
 4575.00    1.21487   1.24451   52.403
 4576.00    1.21064   1.24396   52.670
 4577.00    1.20822   1.23768   53.131
 4578.00    1.19624   1.22691   54.245
 4579.00    1.17278   1.21329   -1.000
 4580.00    1.16280   1.20031   -1.000
 4581.00    1.16396   1.19132   56.186
 4582.00    1.16302   1.18719   55.462
 4583.00    1.16193   1.18731   55.219
 4584.00    1.17012   1.19119   55.457
 4585.00    1.17486   1.19823   55.524
 4586.00    1.18154   1.20736   54.522
 4587.00    1.19526   1.21701   53.130
 4588.00    1.20251   1.22493   52.285
 4589.00    1.20996   1.22898   52.470
 4590.00    1.20158   1.22854   53.333
 4591.00    1.19087   1.22482   54.324
 4592.00    1.18705   1.22060   55.042
 4593.00    1.18394   1.21881   54.917
 4594.00    1.18774   1.22048   54.436
 4595.00    1.19310   1.22458   54.083
 4596.00    1.20203   1.22933   53.959
 4597.00    1.21149   1.23278   53.845
 4598.00    1.21759   1.23337   53.877
 4599.00    1.21372   1.23091   54.383
 4600.00    1.19539   1.22687   54.785
 4601.00    1.18695   1.22365   54.731
 4602.00    1.18845   1.22292   54.108
 4603.00    1.20172   1.22469   53.679
 4604.00    1.20717   1.22818   53.754
 4605.00    1.21201   1.23321   53.525
 4606.00    1.21861   1.24041   52.795
 4607.00    1.22843   1.24991   51.706
 4608.00    1.24205   1.25996   50.724
 4609.00    1.24710   1.26715   50.361
 4610.00    1.24355   1.26885   50.744
 4611.00    1.24212   1.26564   51.431
 4612.00    1.23021   1.26090   51.934
 4613.00    1.22550   1.25784   52.106
 4614.00    1.22859   1.25721   51.767
 4615.00    1.23026   1.25746   51.362
 4616.00    1.22670   1.25687   51.311
 4617.00    1.22959   1.25526   51.690
 4618.00    1.22431   1.25396   51.963
 4619.00    1.22297   1.25487   51.776
 4620.00    1.23387   1.25906   51.174
 4621.00    1.24016   1.26525   50.552
 4622.00    1.25548   1.27032   50.611
 4623.00    1.25629   1.27176   50.737
 4624.00    1.24458   1.26965   50.931
 4625.00    1.23470   1.26585   51.329
 4626.00    1.23778   1.26209   51.397
 4627.00    1.23835   1.25910   51.458
 4628.00    1.23637   1.25722   51.750
 4629.00    1.23095   1.25740   51.753
 4630.00    1.22892   1.26006   51.387
 4631.00    1.23219   1.26345   50.990
 4632.00    1.23786   1.26445   51.392
 4633.00    1.22986   1.26185   52.122
 4634.00    1.22571   1.25746   52.525
 4635.00    1.22621   1.25360   52.572
 4636.00    1.22670   1.25073   53.094
 4637.00    1.21421   1.24837   53.685
 4638.00    1.20922   1.24723   53.805
 4639.00    1.21759   1.24909   53.494
 4640.00    1.23275   1.25461   52.439
 4641.00    1.24843   1.26184   51.283
 4642.00    1.25453   1.26691   50.844
 4643.00    1.25434   1.26637   51.285
 4644.00    1.23784   1.25905   52.405
 4645.00    1.22298   1.24675   53.904
 4646.00    1.20799   1.23424   55.066
 4647.00    1.20094   1.22764   54.920
 4648.00    1.21199   1.23042   53.809
 4649.00    1.21736   1.24065   52.673
 4650.00    1.23061   1.25268   52.140
 4651.00    1.23750   1.26111   52.073
 4652.00    1.22908   1.26318   52.153
 4653.00    1.22843   1.25930   52.964
 4654.00    1.22292   1.25261   54.064
 4655.00    1.20837   1.24797   54.368
 4656.00    1.20450   1.24994   -1.000
 4657.00    1.22122   1.26060   51.655
 4658.00    1.24783   1.27744   49.876
 4659.00    1.27158   1.29351   49.074
 4660.00    1.27881   1.30158   49.245
 4661.00    1.27050   1.29919   50.044
 4662.00    1.25286   1.28918   51.243
 4663.00    1.24284   1.27561   52.007
 4664.00    1.24006   1.26003   52.277
 4665.00    1.23402   1.24204   53.533
 4666.00    1.21298   1.22311   55.895
 4667.00    1.18356   1.20876   57.622
 4668.00    1.17607   1.20530   57.081
 4669.00    1.18140   1.21406   55.073
 4670.00    1.20922   1.23003   52.955
 4671.00    1.23391   1.24600   51.855
 4672.00    1.24976   1.25738   51.689
 4673.00    1.24574   1.26430   51.719
 4674.00    1.24679   1.26957   51.495
 4675.00    1.25170   1.27436   50.766
 4676.00    1.26636   1.27649   50.264
 4677.00    1.26425   1.27308   50.786
 4678.00    1.25049   1.26419   51.908
 4679.00    1.23124   1.25317   52.885
 4680.00    1.21815   1.24419   53.656
 4681.00    1.21665   1.24036   53.841
 4682.00    1.22440   1.24252   52.928
 4683.00    1.23583   1.24876   51.730
 4684.00    1.25603   1.25549   51.308
 4685.00    1.26479   1.25993   51.482
 4686.00    1.26130   1.26159   51.566
 4687.00    1.24942   1.26156   51.798
 4688.00    1.25099   1.26103   51.786
 4689.00    1.25272   1.26027   51.889
 4690.00    1.24764   1.25928   52.212
 4691.00    1.24379   1.25900   52.112
 4692.00    1.25338   1.26093   51.416
 4693.00    1.26654   1.26525   50.540
 4694.00    1.28128   1.27021   49.523
 4695.00    1.28303   1.27307   49.146
 4696.00    1.28337   1.27120   49.737
 4697.00    1.27298   1.26364   51.253
 4698.00    1.25217   1.25254   52.556
 4699.00    1.24310   1.24166   52.845
 4700.00    1.24024   1.23298   52.588
 4701.00    1.23566   1.22636   53.166
 4702.00    1.22686   1.22221   53.960
 4703.00    1.22373   1.22224   53.856
 4704.00    1.23126   1.22657   52.833
 4705.00    1.23624   1.23159   52.465
 4706.00    1.23478   1.23276   53.357
 4707.00    1.22353   1.22955   54.298
 4708.00    1.21340   1.22644   54.579
 4709.00    1.21483   1.22847   53.895
 4710.00    1.23044   1.23614   52.275
 4711.00    1.25655   1.24506   51.093
 4712.00    1.26563   1.25008   50.892
 4713.00    1.25553   1.25012   51.554
 4714.00    1.24820   1.24916   52.296
 4715.00    1.25157   1.25229   51.968
 4716.00    1.25667   1.26094   50.896
 4717.00    1.26893   1.27224   50.097
 4718.00    1.28055   1.28224   49.854
 4719.00    1.28511   1.28874   49.684
 4720.00    1.27841   1.29151   49.672
 4721.00    1.26649   1.29160   50.107
 4722.00    1.26397   1.29111   50.284
 4723.00    1.26747   1.29175   49.891
 4724.00    1.26639   1.29257   49.502
 4725.00    1.27419   1.29005   49.905
 4726.00    1.26658   1.28146   51.356
 4727.00    1.24318   1.26788   53.140
 4728.00    1.23177   1.25395   53.918
 4729.00    1.22684   1.24446   53.559
 4730.00    1.23366   1.24149   53.031
 4731.00    1.24215   1.24466   52.560
 4732.00    1.24650   1.25197   51.962
 4733.00    1.24840   1.25994   51.562
 4734.00    1.25422   1.26514   51.277
 4735.00    1.25950   1.26650   51.214
 4736.00    1.25426   1.26593   51.678
 4737.00    1.25288   1.26630   51.519
 4738.00    1.27000   1.26871   51.001
 4739.00    1.27413   1.27194   51.132
 4740.00    1.25819   1.27450   51.381
 4741.00    1.25202   1.27655   51.307
 4742.00    1.26049   1.27925   50.832
 4743.00    1.26759   1.28301   50.446
 4744.00    1.27356   1.28741   50.565
 4745.00    1.27881   1.29218   50.491
 4746.00    1.28053   1.29752   50.057
 4747.00    1.27847   1.30332   49.651
 4748.00    1.28102   1.30871   49.615
 4749.00    1.27886   1.31264   49.687
 4750.00    1.28469   1.31443   49.806
 4751.00    1.28861   1.31351   50.240
 4752.00    1.27646   1.30964   50.781
 4753.00    1.26981   1.30380   51.179
 4754.00    1.26764   1.29828   51.408
 4755.00    1.25947   1.29529   51.374
 4756.00    1.25613   1.29563   51.638
 4757.00    1.26026   1.29828   51.943
 4758.00    1.26135   1.30104   51.852
 4759.00    1.26353   1.30145   51.488
 4760.00    1.26084   1.29722   51.651
 4761.00    1.24671   1.28758   52.632
 4762.00    1.23193   1.27459   -1.000
 4763.00    1.22374   1.26259   -1.000
 4764.00    1.22047   1.25557   54.304
 4765.00    1.22435   1.25519   54.110
 4766.00    1.23797   1.26110   53.617
 4767.00    1.24871   1.27189   52.726
 4768.00    1.25984   1.28504   51.632
 4769.00    1.26693   1.29658   51.153
 4770.00    1.26970   1.30291   51.369
 4771.00    1.26750   1.30402   51.826
 4772.00    1.25990   1.30384   -1.000
 4773.00    1.26831   1.30654   51.208
 4774.00    1.28043   1.31255   50.289
 4775.00    1.28544   1.31880   50.083
 4776.00    1.29048   1.32227   50.168
 4777.00    1.28907   1.32190   50.369
 4778.00    1.27802   1.31814   50.771
 4779.00    1.26420   1.31261   -1.000
 4780.00    1.25949   1.30759   -1.000
 4781.00    1.25554   1.30416   -1.000
 4782.00    1.25602   1.30138   -1.000
 4783.00    1.25985   1.29817   -1.000
 4784.00    1.25759   1.29454   52.303
 4785.00    1.25605   1.29088   52.582
 4786.00    1.25291   1.28759   53.064
 4787.00    1.24449   1.28562   -1.000
 4788.00    1.24381   1.28599   -1.000
 4789.00    1.24439   1.28911   -1.000
 4790.00    1.25144   1.29531   -1.000
 4791.00    1.25992   1.30488   -1.000
 4792.00    1.27532   1.31730   50.864
 4793.00    1.29058   1.33066   49.787
 4794.00    1.30313   1.34166   49.126
 4795.00    1.31082   1.34673   49.157
 4796.00    1.30702   1.34405   49.816
 4797.00    1.29054   1.33514   50.827
 4798.00    1.28347   1.32472   51.683
 4799.00    1.26755   1.31854   -1.000
 4800.00    1.27038   1.31980   -1.000
 4801.00    1.28435   1.32674   50.341
 4802.00    1.29706   1.33346   49.847
 4803.00    1.29863   1.33406   50.116
 4804.00    1.28673   1.32763   50.807
 4805.00    1.27340   1.31874   -1.000
 4806.00    1.27010   1.31271   -1.000
 4807.00    1.27797   1.31163   51.668
 4808.00    1.28054   1.31441   51.506
 4809.00    1.27681   1.31876   -1.000
 4810.00    1.28295   1.32283   50.756
 4811.00    1.28691   1.32616   50.425
 4812.00    1.28715   1.32947   50.228
 4813.00    1.29398   1.33350   50.168
 4814.00    1.29204   1.33823   -1.000
 4815.00    1.29331   1.34321   -1.000
 4816.00    1.30319   1.34798   49.487
 4817.00    1.30716   1.35192   49.210
 4818.00    1.31441   1.35412   49.064
 4819.00    1.31840   1.35368   49.059
 4820.00    1.31102   1.34952   49.178
 4821.00    1.29945   1.34048   49.863
 4822.00    1.28469   1.32721   -1.000
 4823.00    1.27135   1.31390   -1.000
 4824.00    1.27031   1.30638   51.424
 4825.00    1.27559   1.30720   50.511
 4826.00    1.29170   1.31306   50.003
 4827.00    1.29306   1.31806   50.358
 4828.00    1.28451   1.31891   50.895
 4829.00    1.28662   1.31631   51.109
 4830.00    1.28410   1.31242   51.214
 4831.00    1.27336   1.30886   51.606
 4832.00    1.27416   1.30709   51.425
 4833.00    1.28253   1.30811   50.601
 4834.00    1.29741   1.31135   50.067
 4835.00    1.30000   1.31466   49.975
 4836.00    1.28949   1.31605   50.110
 4837.00    1.29259   1.31474   50.477
 4838.00    1.28324   1.31099   51.247
 4839.00    1.27183   1.30598   51.935
 4840.00    1.26244   1.30155   51.889
 4841.00    1.26554   1.29895   51.733
 4842.00    1.26625   1.29808   51.432
 4843.00    1.27311   1.29856   51.007
 4844.00    1.28104   1.30043   50.411
 4845.00    1.28604   1.30279   49.751
 4846.00    1.28632   1.30294   49.857
 4847.00    1.27529   1.29900   50.853
 4848.00    1.26492   1.29268   51.393
 4849.00    1.26116   1.28769   51.160
 4850.00    1.26584   1.28523   50.576
 4851.00    1.26795   1.28248   50.593
 4852.00    1.25739   1.27506   50.937
 4853.00    1.23666   1.26013   51.667
 4854.00    1.21406   1.23867   53.241
 4855.00    1.19133   1.21497   54.307
 4856.00    1.17915   1.19168   54.002
 4857.00    1.17558   1.16372   53.977
 4858.00    1.14301   1.11977   56.357
 4859.00    1.05568   1.05473   61.824
 4860.00    0.94930   0.98332   -1.000
 4861.00    0.88241   0.93692   -1.000
 4862.00    0.90709   0.94021   64.055
 4863.00    0.99969   0.99012   58.831
 4864.00    1.08251   1.06038   55.805
 4865.00    1.13725   1.12500   54.093
 4866.00    1.17441   1.17308   53.152
 4867.00    1.19995   1.20502   52.759
 4868.00    1.21271   1.22292   52.726
 4869.00    1.21073   1.22737   53.486
 4870.00    1.20107   1.22114   54.988
 4871.00    1.18260   1.21247   55.833
 4872.00    1.18099   1.21152   54.982
 4873.00    1.20277   1.22240   53.540
 4874.00    1.22058   1.24023   52.773
 4875.00    1.23059   1.25705   52.414
 4876.00    1.23436   1.26928   52.162
 4877.00    1.23543   1.27897   51.830
 4878.00    1.23886   1.28925   -1.000
 4879.00    1.25299   1.29992   50.840
 4880.00    1.26032   1.30737   51.433
 4881.00    1.24945   1.30845   -1.000
 4882.00    1.24416   1.30397   -1.000
 4883.00    1.24533   1.29758   -1.000
 4884.00    1.24392   1.29206   -1.000
 4885.00    1.23892   1.28815   -1.000
 4886.00    1.23803   1.28556   -1.000
 4887.00    1.24273   1.28311   53.238
 4888.00    1.24036   1.27835   53.404
 4889.00    1.23953   1.26989   54.334
 4890.00    1.22053   1.26123   55.132
 4891.00    1.21828   1.26088   -1.000
 4892.00    1.24216   1.27559   51.866
 4893.00    1.27791   1.30322   49.680
 4894.00    1.31524   1.33410   48.386
 4895.00    1.33439   1.35864   47.677
 4896.00    1.34694   1.37240   47.558
 4897.00    1.33770   1.37558   47.920
 4898.00    1.32358   1.37063   49.020
 4899.00    1.30448   1.36120   -1.000
 4900.00    1.29838   1.35151   -1.000
 4901.00    1.29988   1.34425   50.151
 4902.00    1.30009   1.33982   50.381
 4903.00    1.29077   1.33869   50.704
 4904.00    1.29079   1.34254   -1.000
 4905.00    1.30709   1.35092   49.062
 4906.00    1.32302   1.35869   48.926
 4907.00    1.32322   1.35954   49.601
 4908.00    1.30805   1.35147   50.891
 4909.00    1.29152   1.33829   52.155
 4910.00    1.27692   1.32678   -1.000
 4911.00    1.28000   1.32264   51.622
 4912.00    1.29054   1.32735   50.740
 4913.00    1.29987   1.33786   50.060
 4914.00    1.31208   1.34872   49.465
 4915.00    1.31875   1.35382   49.215
 4916.00    1.32009   1.34736   49.864
 4917.00    1.29716   1.32632   51.921
 4918.00    1.26237   1.29416   54.716
 4919.00    1.22124   1.26149   56.790
 4920.00    1.20438   1.24070   56.695
 4921.00    1.22060   1.23765   54.720
 4922.00    1.24720   1.24811   53.045
 4923.00    1.25997   1.26360   52.489
 4924.00    1.26068   1.27987   52.289
 4925.00    1.27136   1.29801   51.410
 4926.00    1.28964   1.31887   50.159
 4927.00    1.30884   1.33997   49.390
 4928.00    1.32626   1.35765   48.971
 4929.00    1.33734   1.36914   48.649
 4930.00    1.34529   1.37213   48.565
 4931.00    1.33814   1.36489   49.293
 4932.00    1.31283   1.34877   50.787
 4933.00    1.27898   1.33011   52.190
 4934.00    1.26880   1.31709   51.979
 4935.00    1.28185   1.31224   51.257
 4936.00    1.28651   1.31006   51.660
 4937.00    1.27324   1.30443   53.208
 4938.00    1.25502   1.29728   54.151
 4939.00    1.25186   1.29697   53.246
 4940.00    1.27112   1.30904   51.420
 4941.00    1.30267   1.33043   49.963
 4942.00    1.32467   1.35244   49.185
 4943.00    1.33543   1.36764   48.878
 4944.00    1.33483   1.37397   49.011
 4945.00    1.32955   1.37442   49.305
 4946.00    1.32141   1.37406   49.254
 4947.00    1.32343   1.37656   48.756
 4948.00    1.33652   1.38201   48.290
 4949.00    1.34041   1.38768   48.140
 4950.00    1.34561   1.39084   48.058
 4951.00    1.34731   1.39045   48.344
 4952.00    1.34154   1.38658   48.740
 4953.00    1.33852   1.37835   49.324
 4954.00    1.33077   1.36275   50.129
 4955.00    1.31346   1.33709   51.822
 4956.00    1.27878   1.30518   54.391
 4957.00    1.23682   1.27997   -1.000
 4958.00    1.23576   1.27550   -1.000
 4959.00    1.27452   1.29405   51.076
 4960.00    1.31023   1.32389   49.717
 4961.00    1.33305   1.34985   49.532
 4962.00    1.33516   1.36370   49.824
 4963.00    1.32676   1.36517   50.278
 4964.00    1.32308   1.35786   51.008
 4965.00    1.31222   1.34654   51.994
 4966.00    1.30175   1.33620   52.479
 4967.00    1.29622   1.33037   52.430
 4968.00    1.29619   1.33004   52.208
 4969.00    1.29892   1.33457   51.768
 4970.00    1.30512   1.34272   51.209
 4971.00    1.31042   1.35269   50.642
 4972.00    1.32435   1.36226   50.069
 4973.00    1.33139   1.36932   49.673
 4974.00    1.33727   1.37244   49.626
 4975.00    1.33801   1.37111   50.034
 4976.00    1.32501   1.36566   50.608
 4977.00    1.32034   1.35723   51.338
 4978.00    1.31288   1.34706   52.126
 4979.00    1.29941   1.33485   52.789
 4980.00    1.27534   1.31866   53.806
 4981.00    1.25084   1.29810   -1.000
 4982.00    1.22937   1.27768   -1.000
 4983.00    1.21986   1.26533   -1.000
 4984.00    1.23382   1.26679   55.346
 4985.00    1.25547   1.28148   53.720
 4986.00    1.27815   1.30334   52.111
 4987.00    1.29834   1.32410   51.191
 4988.00    1.30639   1.33677   51.459
 4989.00    1.30002   1.33899   52.175
 4990.00    1.28952   1.33437   52.567
 4991.00    1.29411   1.32937   52.443
 4992.00    1.29474   1.32840   52.030
 4993.00    1.29509   1.33189   51.869
 4994.00    1.30147   1.33801   51.783
 4995.00    1.30869   1.34434   51.512
 4996.00    1.31519   1.34769   51.411
 4997.00    1.31658   1.34422   51.839
 4998.00    1.30674   1.33204   52.640
 4999.00    1.28111   1.31458   53.607
 5000.00    1.27014   1.29952   54.096
 5001.00    1.27993   1.29264   53.968
 5002.00    1.28566   1.29268   53.485
 5003.00    1.28186   1.29307   53.439
 5004.00    1.27629   1.28841   54.396
 5005.00    1.26147   1.27972   55.509
 5006.00    1.25005   1.27410   55.329
 5007.00    1.26635   1.27806   53.841
 5008.00    1.29304   1.29048   52.483
 5009.00    1.31160   1.30279   52.285
 5010.00    1.30592   1.30597   53.239
 5011.00    1.28101   1.29731   54.973
 5012.00    1.25483   1.28148   56.841
 5013.00    1.23762   1.26680   57.710
 5014.00    1.22668   1.25965   57.115
 5015.00    1.24413   1.26034   55.845
 5016.00    1.26359   1.26408   54.933
 5017.00    1.26949   1.26673   54.790
 5018.00    1.26785   1.26934   54.631
 5019.00    1.27054   1.27539   54.042
 5020.00    1.28014   1.28512   53.790
 5021.00    1.28658   1.29524   54.013
 5022.00    1.28720   1.30386   54.011
 5023.00    1.29114   1.31214   53.618
 5024.00    1.29839   1.32083   53.101
 5025.00    1.30417   1.32786   52.917
 5026.00    1.30134   1.33095   53.185
 5027.00    1.29502   1.33100   53.235
 5028.00    1.30162   1.33152   52.585
 5029.00    1.31652   1.33534   51.647
 5030.00    1.32791   1.34290   50.888
 5031.00    1.33381   1.35253   50.124
 5032.00    1.33951   1.36064   49.733
 5033.00    1.33943   1.36259   50.240
 5034.00    1.32215   1.35576   52.000
 5035.00    1.29904   1.34256   53.755
 5036.00    1.27757   1.32835   -1.000
 5037.00    1.27352   1.31545   54.730
 5038.00    1.26782   1.30083   55.818
 5039.00    1.24132   1.28170   58.082
 5040.00    1.21027   1.26280   -1.000
 5041.00    1.19885   1.25524   -1.000
 5042.00    1.23099   1.26683   55.788
 5043.00    1.27561   1.29492   52.649
 5044.00    1.30920   1.32847   50.821
 5045.00    1.33690   1.35576   49.524
 5046.00    1.36588   1.36936   48.529
 5047.00    1.23824   1.36737   -1.000
 5048.00    0.53601   1.35309   -1.000
 5049.00   -0.00810   1.33368    0.000
 5050.00    0.09705   1.31746   -1.000
 5051.00    0.57890   1.31102   -1.000
 5052.00    1.20335   1.31707   -1.000
 5053.00    1.33490   1.33301   50.856
 5054.00    1.35141   1.35211   50.062
 5055.00    1.36296   1.36781   49.685
 5056.00    1.36216   1.37773   49.602
 5057.00    1.35901   1.38351   49.701
 5058.00    1.35890   1.38774   49.762
 5059.00    1.35938   1.39176   49.649
 5060.00    1.36274   1.39495   49.404
 5061.00    1.36330   1.39477   49.618
 5062.00    1.35999   1.38804   50.520
 5063.00    1.34221   1.37388   52.111
 5064.00    1.31436   1.35620   53.636
 5065.00    1.29547   1.34161   53.860
 5066.00    1.29802   1.33433   53.125
 5067.00    1.31272   1.33367   52.492
 5068.00    1.31419   1.33652   52.320
 5069.00    1.31840   1.34024   52.041
 5070.00    1.33027   1.34299   51.908
 5071.00    1.33169   1.34355   52.349
 5072.00    1.32031   1.34229   52.464
 5073.00    1.32638   1.34103   51.852
 5074.00    1.33258   1.34105   51.548
 5075.00    1.33110   1.34137   51.497
 5076.00    1.33316   1.33885   51.608
 5077.00    1.32873   1.33013   52.485
 5078.00    1.30277   1.31519   54.547
 5079.00    1.26400   1.29930   56.628
 5080.00    1.24746   1.28972   56.695
 5081.00    1.26204   1.28981   55.441
 5082.00    1.27806   1.29762   54.381
 5083.00    1.28901   1.30961   53.578
 5084.00    1.30793   1.32338   52.581
 5085.00    1.33365   1.33692   51.831
 5086.00    1.34611   1.34799   51.561
 5087.00    1.34418   1.35555   51.445
 5088.00    1.34386   1.36066   51.147
 5089.00    1.34859   1.36528   50.799
 5090.00    1.35255   1.37066   50.526
 5091.00    1.35790   1.37694   50.173
 5092.00    1.36881   1.38316   49.619
 5093.00    1.37080   1.38698   49.429
 5094.00    1.36882   1.38516   50.072
 5095.00    1.38819   1.37575   51.151
 5096.00    1.37411   1.35992   52.296
 5097.00    1.32060   1.34202   53.522
 5098.00    1.30281   1.32823   54.371
 5099.00    1.29820   1.32381   54.080
 5100.00    1.31089   1.32986   52.634
 5101.00    1.33477   1.34204   51.401
 5102.00    1.34536   1.35342   51.197
 5103.00    1.34925   1.35893   51.627
 5104.00    1.33805   1.35727   52.314
 5105.00    1.32665   1.34948   52.970
 5106.00    1.31225   1.33809   53.622
 5107.00    1.29868   1.32682   54.083
 5108.00    1.28836   1.31965   53.900
 5109.00    1.29311   1.31908   53.534
 5110.00    1.29779   1.32551   53.037
 5111.00    1.30752   1.33728   52.293
 5112.00    1.32436   1.35134   51.657
 5113.00    1.34283   1.36451   51.074
 5114.00    1.35363   1.37514   50.672
 5115.00    1.35603   1.38351   50.331
 5116.00    1.36626   1.39026   49.821
 5117.00    1.37182   1.39483   49.568
 5118.00    1.37634   1.39545   49.876
 5119.00    1.37058   1.39058   50.576
 5120.00    1.35624   1.38011   51.362
 5121.00    1.34403   1.36524   52.347
 5122.00    1.32043   1.34838   53.781
 5123.00    1.29800   1.33301   55.061
 5124.00    1.28811   1.32250   55.149
 5125.00    1.28688   1.31783   54.692
 5126.00    1.29794   1.31704   54.416
 5127.00    1.30274   1.31744   54.204
 5128.00    1.29994   1.31833   54.260
 5129.00    1.30028   1.32128   54.016
 5130.00    1.30529   1.32776   53.225
 5131.00    1.31936   1.33717   52.445
 5132.00    1.33435   1.34730   52.014
 5133.00    1.34218   1.35597   51.526
 5134.00    1.34424   1.36155   51.165
 5135.00    1.34887   1.36234   51.343
 5136.00    1.34475   1.35687   52.401
 5137.00    1.32542   1.34598   53.567
 5138.00    1.30466   1.33383   54.182
 5139.00    1.29349   1.32549   54.066
 5140.00    1.29819   1.32284   53.813
 5141.00    1.29920   1.32403   54.384
 5142.00    1.28869   1.32676   54.943
 5143.00    1.28771   1.33047   54.401
 5144.00    1.30501   1.33458   53.672
 5145.00    1.31656   1.33740   53.710
 5146.00    1.31205   1.33792   54.133
 5147.00    1.31291   1.33717   54.020
 5148.00    1.32109   1.33631   53.430
 5149.00    1.31532   1.33447   53.418
 5150.00    1.30421   1.33000   54.208
 5151.00    1.29161   1.32366   55.031
 5152.00    1.28516   1.31868   55.184
 5153.00    1.29605   1.31870   54.653
 5154.00    1.31375   1.32582   53.478
 5155.00    1.33204   1.33963   52.105
 5156.00    1.35968   1.35693   50.882
 5157.00    1.37371   1.37311   50.109
 5158.00    1.37811   1.38437   49.865
 5159.00    1.38564   1.38921   49.921
 5160.00    1.37753   1.38803   50.129
 5161.00    1.36793   1.38180   50.502
 5162.00    1.36551   1.37045   51.145
 5163.00    1.35592   1.35121   52.275
 5164.00    1.33423   1.31897   54.961
 5165.00    1.28133   1.27134   59.947
 5166.00    1.20437   1.21618   65.670
 5167.00    1.13826   1.17096   -1.000
 5168.00    1.12788   1.15039   65.936
 5169.00    1.17317   1.15253   62.891
 5170.00    1.21126   1.16053   63.518
 5171.00    1.18188   1.16162   67.901
 5172.00    1.13184   1.16141   -1.000
 5173.00    1.14349   1.17636   -1.000
 5174.00    1.21259   1.21380   58.901
 5175.00    1.28436   1.26341   54.885
 5176.00    1.33526   1.30771   53.336
 5177.00    1.36050   1.33592   52.923
 5178.00    1.36275   1.34649   53.016
 5179.00    1.35531   1.34050   53.947
 5180.00    1.33642   1.31662   56.456
 5181.00    1.28979   1.27519   61.316
 5182.00    1.20940   1.22592   67.950
 5183.00    1.13532   1.18913   -1.000
 5184.00    1.13403   1.18384   -1.000
 5185.00    1.20859   1.21185   58.563
 5186.00    1.29545   1.25643   54.524
 5187.00    1.33856   1.29650   53.287
 5188.00    1.34093   1.32069   52.936
 5189.00    1.33807   1.32846   52.954
 5190.00    1.33590   1.32381   53.878
 5191.00    1.30510   1.31216   55.581
 5192.00    1.27573   1.30091   56.533
 5193.00    1.27053   1.29645   55.859
 5194.00    1.28604   1.30039   54.915
 5195.00    1.31076   1.31016   54.113
 5196.00    1.32654   1.32266   53.234
 5197.00    1.33264   1.33631   52.197
 5198.00    1.34701   1.34988   51.453
 5199.00    1.36635   1.36096   51.160
 5200.00    1.36890   1.36624   51.260
 5201.00    1.36437   1.36287   51.845
 5202.00    1.34760   1.34953   52.881
 5203.00    1.32833   1.32749   54.235
 5204.00    1.30438   1.30154   55.957
 5205.00    1.28113   1.27845   57.233
 5206.00    1.27582   1.26327   57.401
 5207.00    1.27516   1.25719   57.727
 5208.00    1.26782   1.25988   57.725
 5209.00    1.27871   1.27223   56.515
 5210.00    1.30497   1.29461   54.496
 5211.00    1.34238   1.32331   52.302
 5212.00    1.37547   1.35003   50.545
 5213.00    1.39047   1.36617   50.008
 5214.00    1.38465   1.36870   50.819
 5215.00    1.36180   1.36250   51.882
 5216.00    1.34291   1.35717   52.171
 5217.00    1.34966   1.36029   51.482
 5218.00    1.37430   1.37267   50.437
 5219.00    1.39215   1.38901   49.800
 5220.00    1.40192   1.40240   49.488
 5221.00    1.40757   1.40754   49.542
 5222.00    1.40460   1.40127   50.477
 5223.00    1.38714   1.38211   52.221
 5224.00    1.34850   1.35155   54.493
 5225.00    1.30232   1.31686   56.763
 5226.00    1.26907   1.29106   57.450
 5227.00    1.26754   1.28610   55.494
 5228.00    1.31189   1.30359   52.567
 5229.00    1.36066   1.33228   50.819
 5230.00    1.38303   1.35597   50.211
 5231.00    1.39060   1.36451   50.490
 5232.00    1.37636   1.35957   51.532
 5233.00    1.36066   1.35166   52.137
 5234.00    1.34519   1.35152   51.647
 5235.00    1.36079   1.36288   50.398
 5236.00    1.39490   1.38144   49.383
 5237.00    1.41112   1.39939   49.009
 5238.00    1.41121   1.41138   49.048
 5239.00    1.40540   1.41672   49.140
 5240.00    1.41243   1.41775   48.980
 5241.00    1.41543   1.41734   48.788
 5242.00    1.41101   1.41737   48.830
 5243.00    1.41681   1.41783   48.726
 5244.00    1.41737   1.41638   48.961
 5245.00    1.40642   1.40989   50.163
 5246.00    1.37917   1.39795   51.647
 5247.00    1.35347   1.38409   52.509
 5248.00    1.35423   1.37269   52.579
 5249.00    1.35412   1.36588   52.749
 5250.00    1.34223   1.36384   52.925
 5251.00    1.34717   1.36577   52.497
 5252.00    1.36381   1.36998   51.808
 5253.00    1.36917   1.37460   51.462
 5254.00    1.36364   1.37951   51.382
 5255.00    1.37188   1.38716   50.739
 5256.00    1.39000   1.39940   49.455
 5257.00    1.41560   1.41356   48.381
 5258.00    1.43282   1.42307   48.260
 5259.00    1.42629   1.42138   49.011
 5260.00    1.40037   1.40563   50.618
 5261.00    1.36603   1.37813   52.885
 5262.00    1.32544   1.34474   55.219
 5263.00    1.29280   1.31270   56.865
 5264.00    1.27779   1.28839   57.696
 5265.00    1.27255   1.27492   57.451
 5266.00    1.28098   1.27003   56.387
 5267.00    1.30039   1.26630   56.042
 5268.00    1.29669   1.25817   57.687
 5269.00    1.25982   1.24982   59.074
 5270.00    1.25076   1.25238   57.128
 5271.00    1.29896   1.27203   53.887
 5272.00    1.34838   1.30200   52.159
 5273.00    1.36048   1.32925   51.877
 5274.00    1.35995   1.34728   51.884
 5275.00    1.36182   1.35991   51.487
 5276.00    1.38112   1.37450   50.215
 5277.00    1.41007   1.39256   48.697
 5278.00    1.43452   1.40797   48.189
 5279.00    1.44243   1.41340   48.800
 5280.00    1.42822   1.40652   50.051
 5281.00    1.40302   1.39173   51.244
 5282.00    1.37759   1.37747   51.955
 5283.00    1.36715   1.37237   51.778
 5284.00    1.38298   1.38102   50.499
 5285.00    1.41599   1.40110   48.915
 5286.00    1.41761   1.42451   47.726
 5287.00    1.39575   1.44312   47.609
 5288.00    1.44494   1.45387   47.813
 5289.00    1.45356   1.45830   47.708
 5290.00    1.45480   1.45914   47.468
 5291.00    1.45130   1.45786   47.492
 5292.00    1.44657   1.45468   47.843
 5293.00    1.44580   1.44886   48.359
 5294.00    1.44409   1.43850   49.211
 5295.00    1.42339   1.42194   50.752
 5296.00    1.37813   1.40103   52.562
 5297.00    1.34748   1.38228   53.410
 5298.00    1.34510   1.37295   52.672
 5299.00    1.36903   1.37529   51.395
 5300.00    1.39158   1.38555   50.650
 5301.00    1.39951   1.39885   50.267
 5302.00    1.40279   1.41304   49.402
 5303.00    1.42215   1.42765   48.161
 5304.00    1.44813   1.44080   47.530
 5305.00    1.45291   1.44932   47.623
 5306.00    1.44714   1.45216   48.103
 5307.00    1.44408   1.45201   48.294
 5308.00    1.44724   1.45279   47.881
 5309.00    1.45806   1.45596   47.429
 5310.00    1.46987   1.45960   47.243
 5311.00    1.46905   1.46089   47.375
 5312.00    1.45638   1.45831   47.634
 5313.00    1.44991   1.45177   47.879
 5314.00    1.44593   1.44225   48.273
 5315.00    1.44005   1.43188   48.744
 5316.00    1.42602   1.42418   49.047
 5317.00    1.42129   1.42229   48.923
 5318.00    1.42858   1.42604   48.588
 5319.00    1.44123   1.43176   48.508
 5320.00    1.44223   1.43448   48.757
 5321.00    1.43495   1.43075   49.178
 5322.00    1.42560   1.42023   49.856
 5323.00    1.40844   1.40560   50.623
 5324.00    1.40355   1.38950   50.919
 5325.00    1.39808   1.37085   51.297
 5326.00    1.37763   1.34724   53.353
 5327.00    1.32891   1.32213   56.398
 5328.00    1.29363   1.30721   56.844
 5329.00    1.31486   1.31372   54.059
 5330.00    1.36403   1.34016   51.236
 5331.00    1.40694   1.37337   50.007
 5332.00    1.42687   1.40071   49.549
 5333.00    1.43292   1.41774   49.042
 5334.00    1.43954   1.42680   48.575
 5335.00    1.44316   1.43080   48.545
 5336.00    1.43815   1.43024   48.887
 5337.00    1.42816   1.42449   49.268
 5338.00    1.42086   1.41361   50.035
 5339.00    1.40713   1.40029   51.228
 5340.00    1.38562   1.39043   51.695
 5341.00    1.38974   1.38974   50.893
 5342.00    1.41428   1.39824   49.609
 5343.00    1.43487   1.40991   49.019
 5344.00    1.44640   1.41787   49.163
 5345.00    1.44203   1.41912   49.499
 5346.00    1.43637   1.41536   49.793
 5347.00    1.42813   1.41015   50.096
 5348.00    1.41803   1.40686   50.460
 5349.00    1.41810   1.40860   50.280
 5350.00    1.42707   1.41661   49.330
 5351.00    1.44465   1.42909   48.328
 5352.00    1.45609   1.44266   47.895
 5353.00    1.45876   1.45473   47.696
 5354.00    1.46444   1.46495   47.232
 5355.00    1.47930   1.47361   46.692
 5356.00    1.48645   1.48017   46.477
 5357.00    1.48066   1.48367   46.550
 5358.00    1.48421   1.48334   46.652
 5359.00    1.48692   1.47892   46.944
 5360.00    1.47376   1.47071   47.591
 5361.00    1.45565   1.45980   48.373
 5362.00    1.43922   1.44809   48.962
 5363.00    1.42858   1.43748   49.267
 5364.00    1.42221   1.42937   49.554
 5365.00    1.41976   1.42413   49.714
 5366.00    1.42739   1.42041   49.580
 5367.00    1.43032   1.41497   49.745
 5368.00    1.42212   1.40411   50.506
 5369.00    1.40075   1.38745   51.897
 5370.00    1.36759   1.37099   53.054
 5371.00    1.36688   1.36476   52.462
 5372.00    1.38795   1.37538   50.266
 5373.00    1.42277   1.39973   48.266
 5374.00    1.46245   1.42758   47.404
 5375.00    1.48151   1.44888   47.249
 5376.00    1.49129   1.46021   47.379
 5377.00    1.49086   1.46389   47.411
 5378.00    1.48129   1.46316   47.566
 5379.00    1.47142   1.45960   47.914
 5380.00    1.45826   1.45366   48.400
 5381.00    1.44779   1.44662   48.802
 5382.00    1.44322   1.44107   48.941
 5383.00    1.44566   1.43940   48.831
 5384.00    1.45387   1.44245   48.496
 5385.00    1.46655   1.44845   48.089
 5386.00    1.47194   1.45379   48.119
 5387.00    1.47045   1.45501   48.432
 5388.00    1.45886   1.45057   49.002
 5389.00    1.44573   1.44167   49.708
 5390.00    1.44134   1.43131   50.147
 5391.00    1.43861   1.42209   50.288
 5392.00    1.43427   1.41504   50.342
 5393.00    1.42812   1.40917   50.574
 5394.00    1.41926   1.40201   51.055
 5395.00    1.40925   1.39199   51.861
 5396.00    1.39380   1.38169   52.620
 5397.00    1.38353   1.37747   52.077
 5398.00    1.40675   1.38348   50.451
 5399.00    1.43630   1.39743   49.370
 5400.00    1.44354   1.41190   49.267
 5401.00    1.44039   1.41898   49.472
 5402.00    1.43917   1.41409   50.227
 5403.00    1.41841   1.39775   51.867
 5404.00    1.38490   1.37629   53.278
 5405.00    1.36512   1.35953   53.585
 5406.00    1.37258   1.35483   52.744
 5407.00    1.39673   1.36090   51.805
 5408.00    1.41127   1.37091   51.685
 5409.00    1.40222   1.37976   51.973
 5410.00    1.40345   1.38855   51.311
 5411.00    1.42154   1.40035   49.934
 5412.00    1.44458   1.41424   48.992
 5413.00    1.45752   1.42654   48.691
 5414.00    1.45834   1.43525   48.751
 5415.00    1.45857   1.44176   48.647
 5416.00    1.46137   1.44798   48.273
 5417.00    1.46778   1.45328   48.131
 5418.00    1.46365   1.45585   48.452
 5419.00    1.45471   1.45515   48.891
 5420.00    1.45955   1.45214   49.014
 5421.00    1.45742   1.44800   48.784
 5422.00    1.45327   1.44314   48.868
 5423.00    1.44877   1.43855   49.540
 5424.00    1.44005   1.43704   49.659
 5425.00    1.44536   1.44006   48.965
 5426.00    1.45904   1.44415   48.429
 5427.00    1.45883   1.44265   49.022
 5428.00    1.43339   1.43231   50.529
 5429.00    1.40574   1.41814   51.677
 5430.00    1.40805   1.40798   51.335
 5431.00    1.42346   1.40415   50.637
 5432.00    1.42967   1.40271   50.916
 5433.00    1.41976   1.39947   51.648
 5434.00    1.40342   1.39666   51.981
 5435.00    1.40169   1.40028   51.466
 5436.00    1.41600   1.41355   50.260
 5437.00    1.44232   1.43399   48.957
 5438.00    1.47285   1.45530   48.065
 5439.00    1.49321   1.47255   47.501
 5440.00    1.49863   1.48360   47.223
 5441.00    1.49811   1.48832   47.188
 5442.00    1.49643   1.48601   47.348
 5443.00    1.48777   1.47479   48.124
 5444.00    1.46209   1.45401   49.684
 5445.00    1.42218   1.42773   51.664
 5446.00    1.39604   1.40540   52.669
 5447.00    1.39683   1.39668   51.715
 5448.00    1.42183   1.40411   50.041
 5449.00    1.46138   1.42154   48.959
 5450.00    1.48249   1.43830   48.704
 5451.00    1.48639   1.44620   48.869
 5452.00    1.47772   1.44213   49.543
 5453.00    1.45669   1.42792   50.837
 5454.00    1.42819   1.40987   52.207
 5455.00    1.40451   1.39786   52.703
 5456.00    1.41409   1.39955   51.463
 5457.00    1.44573   1.41484   49.737
 5458.00    1.47906   1.43491   48.755
 5459.00    1.48455   1.44930   48.822
 5460.00    1.47722   1.45265   49.562
 5461.00    1.46695   1.44663   50.436
 5462.00    1.45404   1.43760   50.967
 5463.00    1.44800   1.43200   50.924
 5464.00    1.45065   1.43286   50.241
 5465.00    1.45881   1.43884   49.775
 5466.00    1.47261   1.44658   49.461
 5467.00    1.48424   1.45307   48.994
 5468.00    1.48338   1.45685   49.030
 5469.00    1.48197   1.45751   49.555
 5470.00    1.47282   1.45509   49.963
 5471.00    1.46052   1.45016   50.140
 5472.00    1.46120   1.44301   50.488
 5473.00    1.45767   1.43332   51.088
 5474.00    1.44296   1.42066   51.947
 5475.00    1.42136   1.40673   52.992
 5476.00    1.40398   1.39652   53.371
 5477.00    1.41006   1.39579   52.414
 5478.00    1.43440   1.40461   50.933
 5479.00    1.45550   1.41656   50.448
 5480.00    1.46268   1.42517   51.007
 5481.00    1.45331   1.42925   51.415
 5482.00    1.44268   1.43308   51.000
 5483.00    1.45196   1.44041   50.004
 5484.00    1.47018   1.44971   49.163
 5485.00    1.47810   1.45651   49.069
 5486.00    1.46848   1.45747   49.684
 5487.00    1.45486   1.45392   50.276
 5488.00    1.45175   1.44985   50.444
 5489.00    1.45235   1.44872   50.316
 5490.00    1.45630   1.45103   49.932
 5491.00    1.47086   1.45486   49.627
 5492.00    1.47659   1.45776   49.552
 5493.00    1.47365   1.45836   49.654
 5494.00    1.47533   1.45636   49.655
 5495.00    1.47422   1.45215   49.766
 5496.00    1.46652   1.44698   50.156
 5497.00    1.45649   1.44331   50.302
 5498.00    1.45519   1.44245   49.887
 5499.00    1.46747   1.44246   49.613
 5500.00    1.46823   1.44056   50.216
 5501.00    1.45532   1.43641   50.818
 5502.00    1.45557   1.43257   50.682
 5503.00    1.46201   1.43078   50.332
 5504.00    1.46247   1.42920   50.508
 5505.00    1.45512   1.42610   51.194
 5506.00    1.44319   1.42299   51.363
 5507.00    1.44132   1.42345   50.703
 5508.00    1.45820   1.42848   50.059
 5509.00    1.47569   1.43404   50.068
 5510.00    1.46907   1.43513   50.648
 5511.00    1.45407   1.43037   51.643
 5512.00    1.44277   1.42292   52.352
 5513.00    1.43256   1.41812   52.432
 5514.00    1.43714   1.41917   51.633
 5515.00    1.46046   1.42640   50.752
 5516.00    1.48465   1.43783   49.933
 5517.00    1.49989   1.45080   49.015
 5518.00    1.50981   1.46242   48.436
 5519.00    1.51668   1.47066   48.430
 5520.00    1.51740   1.47467   48.521
 5521.00    1.51077   1.47559   48.643
 5522.00    1.50558   1.47457   48.790
 5523.00    1.50272   1.47132   48.934
 5524.00    1.49543   1.46400   49.366
 5525.00    1.48016   1.45091   50.217
 5526.00    1.45727   1.43401   51.460
 5527.00    1.43654   1.41910   52.463
 5528.00    1.42653   1.41322   52.206
 5529.00    1.43861   1.41907   50.893
 5530.00    1.46377   1.43234   49.758
 5531.00    1.47644   1.44514   49.408
 5532.00    1.47700   1.45154   49.679
 5533.00    1.47855   1.45134   50.098
 5534.00    1.47395   1.44852   50.187
 5535.00    1.46842   1.44771   49.907
 5536.00    1.47504   1.45062   49.574
 5537.00    1.48577   1.45640   49.444
 5538.00    1.49461   1.46327   49.131
 5539.00    1.50327   1.46975   48.660
 5540.00    1.50864   1.47441   48.416
 5541.00    1.50894   1.47591   48.626
 5542.00    1.49923   1.47400   49.161
 5543.00    1.48955   1.47029   49.534
 5544.00    1.48714   1.46735   49.546
 5545.00    1.49089   1.46696   49.398
 5546.00    1.49619   1.46966   49.225
 5547.00    1.50675   1.47517   48.839
 5548.00    1.51567   1.48215   48.367
 5549.00    1.52015   1.48823   48.065
 5550.00    1.51732   1.49134   48.096
 5551.00    1.51532   1.49059   48.434
 5552.00    1.51265   1.48699   48.912
 5553.00    1.50592   1.48231   49.378
 5554.00    1.49815   1.47861   49.487
 5555.00    1.50059   1.47674   49.364
 5556.00    1.50546   1.47664   49.227
 5557.00    1.50768   1.47743   49.157
 5558.00    1.50619   1.47834   49.099
 5559.00    1.50665   1.47871   49.098
 5560.00    1.50835   1.47765   49.265
 5561.00    1.50098   1.47464   49.611
 5562.00    1.49123   1.47035   50.085
 5563.00    1.48273   1.46607   50.353
 5564.00    1.47909   1.46271   50.467
 5565.00    1.48365   1.46003   50.552
 5566.00    1.48408   1.45758   50.548
 5567.00    1.47794   1.45526   50.429
 5568.00    1.47581   1.45328   50.408
 5569.00    1.47820   1.45204   50.514
 5570.00    1.47761   1.45098   50.474
 5571.00    1.47863   1.44951   50.532
 5572.00    1.47783   1.44858   50.571
 5573.00    1.46402   1.44958   50.216
 5574.00    1.43109   1.45342   49.693
 5575.00    1.38630   1.45923   49.183
 5576.00    1.39546   1.46533   48.404
 5577.00    1.43355   1.47071   48.126
 5578.00    1.45192   1.47496   49.360
 5579.00    1.49431   1.47763   50.754
 5580.00    1.48062   1.47822   50.826
 5581.00    1.49409   1.47681   50.167
 5582.00    1.49650   1.47356   49.769
 5583.00    1.50048   1.46805   49.826
 5584.00    1.49746   1.45823   50.413
 5585.00    1.47611   1.44298   51.657
 5586.00    1.44245   1.42453   52.927
 5587.00    1.41398   1.40813   53.843
 5588.00    1.40520   1.39977   53.842
 5589.00    1.41682   1.40151   53.016
 5590.00    1.44222   1.41116   52.108
 5591.00    1.45657   1.42298   51.585
 5592.00    1.46485   1.43265   51.593
 5593.00    1.46311   1.43922   51.655
 5594.00    1.46205   1.44471   51.154
 5595.00    1.47196   1.45014   50.488
 5596.00    1.48536   1.45309   50.393
 5597.00    1.48317   1.45094   51.077
 5598.00    1.47046   1.44408   51.886
 5599.00    1.45881   1.43500   52.211
 5600.00    1.45060   1.42685   52.242
 5601.00    1.44339   1.42266   52.556
 5602.00    1.44042   1.42527   52.428
 5603.00    1.45346   1.43623   51.283
 5604.00    1.47718   1.45381   49.915
 5605.00    1.50453   1.47274   48.978
 5606.00    1.52402   1.48824   48.594
 5607.00    1.53059   1.49792   48.584
 5608.00    1.52618   1.50278   48.678
 5609.00    1.52162   1.50491   48.729
 5610.00    1.53079   1.50541   48.633
 5611.00    1.53559   1.50281   48.600
 5612.00    1.52566   1.49405   49.121
 5613.00    1.50513   1.47785   50.432
 5614.00    1.47600   1.45765   52.058
 5615.00    1.45336   1.44230   52.662
 5616.00    1.45203   1.43804   51.819
 5617.00    1.47652   1.44490   50.695
 5618.00    1.49809   1.45674   50.239
 5619.00    1.50166   1.46754   50.127
 5620.00    1.50863   1.47452   49.878
 5621.00    1.51907   1.47713   49.783
 5622.00    1.51141   1.47481   50.294
 5623.00    1.49119   1.46870   51.337
 5624.00    1.47637   1.46215   51.883
 5625.00    1.47817   1.45973   51.341
 5626.00    1.49059   1.46354   50.468
 5627.00    1.50341   1.47150   49.802
 5628.00    1.51157   1.48054   49.306
 5629.00    1.52459   1.48796   49.035
 5630.00    1.53359   1.49283   48.894
 5631.00    1.53549   1.49501   48.773
 5632.00    1.53032   1.49449   48.958
 5633.00    1.53051   1.49185   49.359
 5634.00    1.52361   1.48761   49.694
 5635.00    1.51660   1.48241   50.021
 5636.00    1.51369   1.47719   50.386
 5637.00    1.50335   1.47299   50.611
 5638.00    1.50170   1.47025   50.567
 5639.00    1.50675   1.46842   50.587
 5640.00    1.50161   1.46696   50.731
 5641.00    1.49747   1.46625   50.666
 5642.00    1.50024   1.46723   50.433
 5643.00    1.50430   1.47009   50.250
 5644.00    1.51349   1.47394   50.091
 5645.00    1.51431   1.47767   49.785
 5646.00    1.51791   1.48038   49.670
 5647.00    1.52446   1.48190   49.558
 5648.00    1.52858   1.48246   49.556
 5649.00    1.52863   1.48290   49.652
 5650.00    1.52685   1.48417   49.502
 5651.00    1.52608   1.48607   49.164
 5652.00    1.52300   1.48736   49.168
 5653.00    1.51949   1.48615   49.453
 5654.00    1.51497   1.48119   49.894
 5655.00    1.50150   1.47171   50.541
 5656.00    1.48552   1.45813   51.757
 5657.00    1.45694   1.44384   53.156
 5658.00    1.43231   1.43424   53.387
 5659.00    1.44273   1.43273   52.346
 5660.00    1.46885   1.43825   51.498
 5661.00    1.48508   1.44613   51.480
 5662.00    1.48595   1.45416   51.355
 5663.00    1.48933   1.46227   50.667
 5664.00    1.50319   1.46972   50.115
 5665.00    1.51304   1.47450   50.120
 5666.00    1.51250   1.47494   50.437
 5667.00    1.50345   1.47234   50.657
 5668.00    1.49282   1.47023   50.632
 5669.00    1.49167   1.47102   50.419
 5670.00    1.49797   1.47528   50.037
 5671.00    1.51551   1.48182   49.569
 5672.00    1.52402   1.48894   49.073
 5673.00    1.52890   1.49495   48.768
 5674.00    1.53162   1.49914   48.876
 5675.00    1.53187   1.50161   48.939
 5676.00    1.52619   1.50282   48.781
 5677.00    1.53387   1.50270   48.826
 5678.00    1.53464   1.50057   49.088
 5679.00    1.52100   1.49599   49.310
 5680.00    1.51446   1.48905   49.710
 5681.00    1.51510   1.48072   50.322
 5682.00    1.50868   1.47294   50.753
 5683.00    1.50162   1.46812   50.681
 5684.00    1.49933   1.46707   50.377
 5685.00    1.49398   1.46813   50.321
 5686.00    1.49357   1.46902   50.724
 5687.00    1.49010   1.46911   51.206
 5688.00    1.48710   1.47001   51.073
 5689.00    1.49623   1.47384   50.308
 5690.00    1.51659   1.48068   49.506
 5691.00    1.52952   1.48888   49.136
 5692.00    1.53434   1.49588   48.909
 5693.00    1.53325   1.50021   48.891
 5694.00    1.53285   1.50168   48.955
 5695.00    1.53794   1.50083   49.025
 5696.00    1.53360   1.49803   49.294
 5697.00    1.52355   1.49330   49.844
 5698.00    1.51165   1.48693   50.381
 5699.00    1.49582   1.48005   50.845
 5700.00    1.48596   1.47404   51.295
 5701.00    1.48420   1.47044   51.284
 5702.00    1.48404   1.47015   50.793
 5703.00    1.48708   1.47194   50.394
 5704.00    1.49404   1.47289   50.470
 5705.00    1.49235   1.47028   50.980
 5706.00    1.47845   1.46292   51.816
 5707.00    1.46197   1.45262   52.749
 5708.00    1.44781   1.44230   53.375
 5709.00    1.44129   1.43559   53.486
 5710.00    1.43930   1.43493   53.176
 5711.00    1.44673   1.44113   52.399
 5712.00    1.47257   1.45280   51.194
 5713.00    1.50058   1.46700   50.079
 5714.00    1.51693   1.47996   49.564
 5715.00    1.52550   1.49000   49.460
 5716.00    1.53319   1.49681   49.336
 5717.00    1.52897   1.50155   49.146
 5718.00    1.52972   1.50555   48.869
 5719.00    1.53783   1.50959   48.577
 5720.00    1.54133   1.51388   48.398
 5721.00    1.53579   1.51782   48.305
 5722.00    1.54381   1.52069   48.239
 5723.00    1.54888   1.52146   48.243
 5724.00    1.54349   1.51941   48.477
 5725.00    1.53447   1.51440   48.951
 5726.00    1.52966   1.50833   49.432
 5727.00    1.52519   1.50357   49.581
 5728.00    1.52429   1.50185   49.241
 5729.00    1.52503   1.50259   49.100
 5730.00    1.52375   1.50430   49.317
 5731.00    1.53025   1.50641   49.423
 5732.00    1.54023   1.50931   49.088
 5733.00    1.55156   1.51347   48.644
 5734.00    1.55328   1.51750   48.479
 5735.00    1.54815   1.51975   48.559
 5736.00    1.54073   1.51988   48.645
 5737.00    1.54160   1.51855   48.764
 5738.00    1.54527   1.51732   48.812
 5739.00    1.53931   1.51663   48.916
 5740.00    1.53655   1.51646   48.997
 5741.00    1.53232   1.51643   49.033
 5742.00    1.53064   1.51688   48.918
 5743.00    1.53434   1.51821   48.770
 5744.00    1.53596   1.52002   48.411
 5745.00    1.54002   1.52086   48.348
 5746.00    1.53789   1.51990   48.740
 5747.00    1.53192   1.51766   49.138
 5748.00    1.53232   1.51636   49.125
 5749.00    1.53718   1.51606   48.841
 5750.00    1.54152   1.51495   48.898
 5751.00    1.53688   1.51080   49.408
 5752.00    1.52183   1.50388   49.989
 5753.00    1.50963   1.49853   50.298
 5754.00    1.51188   1.49863   50.015
 5755.00    1.52331   1.50533   49.217
 5756.00    1.53972   1.51523   48.398
 5757.00    1.55288   1.52341   48.113
 5758.00    1.55272   1.52595   48.464
 5759.00    1.54379   1.52191   49.072
 5760.00    1.53500   1.51369   49.732
 5761.00    1.52609   1.50528   50.264
 5762.00    1.51715   1.50140   50.191
 5763.00    1.52300   1.50434   49.453
 5764.00    1.53481   1.51303   48.642
 5765.00    1.54715   1.52284   48.233
 5766.00    1.56048   1.53034   48.156
 5767.00    1.56172   1.53379   48.100
 5768.00    1.55215   1.53410   48.078
 5769.00    1.55031   1.53241   48.216
 5770.00    1.55376   1.52980   48.418
 5771.00    1.54875   1.52670   48.709
 5772.00    1.53544   1.52345   48.950
 5773.00    1.52376   1.52029   49.032
 5774.00    1.52675   1.51753   49.032
 5775.00    1.52999   1.51581   48.863
 5776.00    1.53025   1.51460   48.675
 5777.00    1.51730   1.51226   48.720
 5778.00    1.49425   1.50705   49.084
 5779.00    1.47146   1.49829   49.992
 5780.00    1.45497   1.48781   50.991
 5781.00    1.45698   1.47837   51.339
 5782.00    1.46994   1.47258   51.146
 5783.00    1.48658   1.47083   50.950
 5784.00    1.50369   1.47249   50.768
 5785.00    1.50686   1.47690   50.446
 5786.00    1.51446   1.48373   49.810
 5787.00    1.53129   1.49137   49.240
 5788.00    1.53571   1.49826   49.040
 5789.00    1.53449   1.50277   49.189
 5790.00    1.53298   1.50552   49.319
 5791.00    1.52863   1.50861   49.099
 5792.00    1.53288   1.51367   48.690
 5793.00    1.53972   1.52064   48.381
 5794.00    1.53872   1.52692   48.181
 5795.00    1.53113   1.53026   48.284
 5796.00    1.52552   1.52992   48.608
 5797.00    1.52283   1.52848   48.727
 5798.00    1.52875   1.52911   48.308
 5799.00    1.54792   1.53298   47.645
 5800.00    1.56466   1.53866   47.180
 5801.00    1.56942   1.54281   47.295
 5802.00    1.57008   1.54334   47.723
 5803.00    1.56461   1.54024   48.093
 5804.00    1.54980   1.53613   48.427
 5805.00    1.54018   1.53338   48.511
 5806.00    1.54192   1.53331   48.348
 5807.00    1.54309   1.53531   48.176
 5808.00    1.54699   1.53803   48.086
 5809.00    1.55182   1.54049   48.080
 5810.00    1.55659   1.54206   47.980
 5811.00    1.56197   1.54226   47.801
 5812.00    1.56537   1.54066   47.749
 5813.00    1.57326   1.53703   47.971
 5814.00    1.56796   1.53246   48.334
 5815.00    1.56214   1.52885   48.371
 5816.00    1.56382   1.52861   48.054
 5817.00    1.56796   1.53226   47.744
 5818.00    1.57528   1.53806   47.499
 5819.00    1.57623   1.54359   47.293
 5820.00    1.57861   1.54693   47.224
 5821.00    1.58242   1.54804   47.353
 5822.00    1.57851   1.54755   47.438
 5823.00    1.57855   1.54683   47.334
 5824.00    1.58108   1.54651   47.263
 5825.00    1.58162   1.54722   47.187
 5826.00    1.58186   1.54870   47.167
 5827.00    1.58159   1.55066   47.213
 5828.00    1.58771   1.55265   47.249
 5829.00    1.58475   1.55408   47.174
 5830.00    1.57996   1.55447   47.172
 5831.00    1.58370   1.55372   47.154
 5832.00    1.58404   1.55177   47.344
 5833.00    1.58236   1.54926   47.595
 5834.00    1.58207   1.54685   47.564
 5835.00    1.57910   1.54568   47.411
 5836.00    1.58077   1.54581   47.413
 5837.00    1.58886   1.54711   -1.000
 5838.00    1.58179   1.54918   47.582
 5839.00    1.57791   1.55184   47.336
 5840.00    1.57845   1.55441   47.007
 5841.00    1.57588   1.55624   46.864
 5842.00    1.58228   1.55609   46.948
 5843.00    1.58278   1.55388   47.125
 5844.00    1.57424   1.54968   47.356
 5845.00    1.57389   1.54468   47.658
 5846.00    1.57289   1.53974   47.885
 5847.00    1.56963   1.53589   48.020
 5848.00    1.57056   1.53291   47.986
 5849.00    1.56995   1.52996   48.150
 5850.00    1.56587   1.52559   48.451
 5851.00    1.55915   1.51917   48.818
 5852.00    1.55022   1.51194   49.230
 5853.00    1.54180   1.50547   49.385
 5854.00    1.53872   1.50020   49.449
 5855.00    1.53872   1.49473   -1.000
 5856.00    1.53446   1.48836   -1.000
 5857.00    1.52634   1.48364   -1.000
 5858.00    1.52655   1.48330   -1.000
 5859.00    1.53863   1.48872   -1.000
 5860.00    1.55430   1.49710   -1.000
 5861.00    1.56354   1.50524   -1.000
 5862.00    1.56097   1.51086   -1.000
 5863.00    1.56103   1.51361   -1.000
 5864.00    1.56200   1.51389   -1.000
 5865.00    1.55086   1.51263   49.032
 5866.00    1.54625   1.51154   49.176
 5867.00    1.55435   1.51275   48.948
 5868.00    1.56713   1.51682   -1.000
 5869.00    1.57734   1.52222   -1.000
 5870.00    1.58183   1.52677   -1.000
 5871.00    1.58391   1.52862   -1.000
 5872.00    1.57979   1.52802   -1.000
 5873.00    1.58076   1.52587   -1.000
 5874.00    1.57735   1.52322   -1.000
 5875.00    1.57752   1.52042   -1.000
 5876.00    1.57360   1.51709   -1.000
 5877.00    1.56871   1.51269   -1.000
 5878.00    1.56610   1.50729   -1.000
 5879.00    1.56033   1.50181   -1.000
 5880.00    1.54875   1.49713   -1.000
 5881.00    1.54431   1.49358   -1.000
 5882.00    1.54711   1.49029   -1.000
 5883.00    1.54548   1.48603   -1.000
 5884.00    1.53653   1.47915   -1.000
 5885.00    1.52742   1.46628   -1.000
 5886.00    1.48617   1.44212   50.792
 5887.00    1.38221   1.40440   53.258
 5888.00    1.23396   1.35838   -1.000
 5889.00    1.13510   1.32010   -1.000
 5890.00    1.15958   1.30291   -1.000
 5891.00    1.28060   1.30886   57.338
 5892.00    1.38306   1.32530   -1.000
 5893.00    1.37031   1.33564   55.058
 5894.00    1.27856   1.33443   -1.000
 5895.00    1.20970   1.32851   -1.000
 5896.00    1.24455   1.33237   -1.000
 5897.00    1.36350   1.35120   54.429
 5898.00    1.45905   1.38064   -1.000
 5899.00    1.49959   1.41192   -1.000
 5900.00    1.51941   1.43851   -1.000
 5901.00    1.53761   1.45848   -1.000
 5902.00    1.55173   1.47240   -1.000
 5903.00    1.55734   1.48122   -1.000
 5904.00    1.55873   1.48646   -1.000
 5905.00    1.55434   1.48975   -1.000
 5906.00    1.55625   1.49236   -1.000
 5907.00    1.56173   1.49522   -1.000
 5908.00    1.56530   1.49804   -1.000
 5909.00    1.56201   1.50027   -1.000
 5910.00    1.55455   1.50062   -1.000
 5911.00    1.55372   1.49824   -1.000
 5912.00    1.54710   1.49269   -1.000
 5913.00    1.53210   1.48548   -1.000
 5914.00    1.52633   1.47893   -1.000
 5915.00    1.52372   1.47578   -1.000
 5916.00    1.51804   1.47667   50.349
 5917.00    1.51922   1.48106   50.172
 5918.00    1.53013   1.48674   49.988
 5919.00    1.53993   1.49178   -1.000
 5920.00    1.54514   1.49503   -1.000
 5921.00    1.54518   1.49660   -1.000
 5922.00    1.53734   1.49755   49.742
 5923.00    1.54149   1.49910   49.531
 5924.00    1.55230   1.50168   -1.000
 5925.00    1.55437   1.50443   -1.000
 5926.00    1.55676   1.50610   -1.000
 5927.00    1.55381   1.50536   -1.000
 5928.00    1.55341   1.50265   -1.000
 5929.00    1.55007   1.49977   -1.000
 5930.00    1.54616   1.49879   -1.000
 5931.00    1.54884   1.49985   -1.000
 5932.00    1.54937   1.50133   -1.000
 5933.00    1.55210   1.50183   -1.000
 5934.00    1.55247   1.50165   -1.000
 5935.00    1.54762   1.50229   -1.000
 5936.00    1.55044   1.50449   -1.000
 5937.00    1.55848   1.50681   -1.000
 5938.00    1.55198   1.50753   -1.000
 5939.00    1.54249   1.50543   49.654
 5940.00    1.53520   1.50172   50.112
 5941.00    1.53330   1.49835   50.241
 5942.00    1.53350   1.49733   50.082
 5943.00    1.54178   1.49923   -1.000
 5944.00    1.55150   1.50245   -1.000
 5945.00    1.54882   1.50494   -1.000
 5946.00    1.54946   1.50486   -1.000
 5947.00    1.54489   1.50268   -1.000
 5948.00    1.53914   1.50006   50.625
 5949.00    1.53902   1.49893   50.553
 5950.00    1.54372   1.49904   -1.000
 5951.00    1.54089   1.49973   50.233
 5952.00    1.53638   1.49999   50.331
 5953.00    1.53719   1.49987   50.245
 5954.00    1.53793   1.49908   50.189
 5955.00    1.53507   1.49779   50.284
 5956.00    1.53381   1.49680   50.462
 5957.00    1.53443   1.49755   50.416
 5958.00    1.54265   1.50120   50.049
 5959.00    1.55496   1.50688   -1.000
 5960.00    1.57199   1.51317   -1.000
 5961.00    1.57704   1.51787   -1.000
 5962.00    1.57480   1.52003   -1.000
 5963.00    1.56863   1.51945   -1.000
 5964.00    1.56223   1.51721   -1.000
 5965.00    1.55341   1.51480   49.615
 5966.00    1.55141   1.51394   49.690
 5967.00    1.55026   1.51508   49.442
 5968.00    1.55107   1.51771   49.136
 5969.00    1.56078   1.52084   -1.000
 5970.00    1.56692   1.52347   -1.000
 5971.00    1.56634   1.52485   -1.000
 5972.00    1.56450   1.52433   -1.000
 5973.00    1.56436   1.52165   -1.000
 5974.00    1.56089   1.51691   -1.000
 5975.00    1.54660   1.51109   50.131
 5976.00    1.53137   1.50627   50.437
 5977.00    1.52888   1.50391   50.480
 5978.00    1.54063   1.50507   50.129
 5979.00    1.55212   1.50813   -1.000
 5980.00    1.55422   1.51078   -1.000
 5981.00    1.55349   1.51054   -1.000
 5982.00    1.54955   1.50699   -1.000
 5983.00    1.53845   1.50225   50.803
 5984.00    1.53033   1.49916   50.871
 5985.00    1.53417   1.49990   50.514
 5986.00    1.54147   1.50372   50.038
 5987.00    1.54540   1.50879   49.817
 5988.00    1.54441   1.51307   49.631
 5989.00    1.54644   1.51586   49.497
 5990.00    1.54859   1.51786   49.626
 5991.00    1.54823   1.52036   49.604
 5992.00    1.55191   1.52424   49.256
 5993.00    1.55890   1.52831   48.934
 5994.00    1.56726   1.53075   -1.000
 5995.00    1.56919   1.53001   -1.000
 5996.00    1.56441   1.52684   -1.000
 5997.00    1.55441   1.52320   49.847
 5998.00    1.54785   1.52084   49.868
 5999.00    1.54817   1.51985   49.811
 6000.00    1.55246   1.51917   49.971
 6001.00    1.54940   1.51808   50.244
 6002.00    1.54967   1.51649   50.322
 6003.00    1.54900   1.51495   50.243
 6004.00    1.54163   1.51309   50.159
 6005.00    1.53904   1.51005   50.336
 6006.00    1.52958   1.50590   50.787
 6007.00    1.52318   1.50267   51.118
 6008.00    1.52235   1.50254   50.835
 6009.00    1.52813   1.50623   50.220
 6010.00    1.53850   1.51094   49.917
 6011.00    1.54408   1.51411   50.131
 6012.00    1.54399   1.51480   50.502
 6013.00    1.54635   1.51408   50.555
 6014.00    1.54641   1.51351   50.343
 6015.00    1.54565   1.51288   50.457
 6016.00    1.54354   1.51187   50.652
 6017.00    1.54661   1.51024   -1.000
 6018.00    1.54134   1.50818   50.601
 6019.00    1.53146   1.50631   50.855
 6020.00    1.52952   1.50525   50.997
 6021.00    1.53325   1.50559   50.687
 6022.00    1.53434   1.50755   50.424
 6023.00    1.53349   1.51114   50.358
 6024.00    1.54583   1.51597   50.204
 6025.00    1.55297   1.52148   49.933
 6026.00    1.55294   1.52691   49.743
 6027.00    1.55316   1.53176   49.442
 6028.00    1.55685   1.53577   49.297
 6029.00    1.56181   1.53873   49.272
 6030.00    1.56276   1.54095   49.331
 6031.00    1.56441   1.54277   49.379
 6032.00    1.56646   1.54464   49.216
 6033.00    1.56917   1.54664   49.022
 6034.00    1.56718   1.54832   48.948
 6035.00    1.56697   1.54909   48.909
 6036.00    1.57059   1.54834   48.863
 6037.00    1.57075   1.54612   49.019
 6038.00    1.56529   1.54299   49.254
 6039.00    1.56345   1.53950   49.351
 6040.00    1.56001   1.53632   49.420
 6041.00    1.55409   1.53397   49.299
 6042.00    1.55780   1.53326   49.171
 6043.00    1.56339   1.53604   48.843
 6044.00    1.56532   1.54138   48.599
 6045.00    1.56802   1.54783   48.668
 6046.00    1.57456   1.55273   48.635
 6047.00    1.57536   1.55531   48.595
 6048.00    1.57156   1.55579   48.704
 6049.00    1.57051   1.55508   48.863
 6050.00    1.56919   1.55366   48.939
 6051.00    1.57109   1.55145   48.997
 6052.00    1.57229   1.54851   49.137
 6053.00    1.56732   1.54476   49.330
 6054.00    1.56337   1.54083   49.520
 6055.00    1.56108   1.53745   49.764
 6056.00    1.55587   1.53561   49.810
 6057.00    1.55623   1.53573   49.635
 6058.00    1.56173   1.53741   49.359
 6059.00    1.56480   1.53949   49.226
 6060.00    1.56427   1.53980   49.337
 6061.00    1.56137   1.53704   49.672
 6062.00    1.55177   1.53063   50.547
 6063.00    1.51642   1.52298   50.532
 6064.00    1.51668   1.51728   57.004
 6065.00    1.43788   1.51725   33.470
 6066.00    0.85236   1.52338   -1.000
 6067.00    0.46784   1.53354   -1.000
 6068.00    1.06335   1.54388   -1.000
 6069.00    1.45447   1.55195   -1.000
 6070.00    1.54806   1.55684   47.715
 6071.00    1.44773   1.55943   -1.000
 6072.00    0.92816   1.56018   -1.000
 6073.00    0.71653   1.55981   -1.000
 6074.00    1.55208   1.55801   48.919
 6075.00    1.58537   1.55460   -1.000
 6076.00    1.56490   1.54979   49.405
 6077.00    1.56086   1.54433   49.727
 6078.00    1.55761   1.53938   50.094
 6079.00    1.55285   1.53537   50.286
 6080.00    1.53962   1.53219   50.294
 6081.00    1.53684   1.52965   50.383
 6082.00    1.53889   1.52820   50.482
 6083.00    1.53738   1.52814   50.449
 6084.00    1.54372   1.52948   50.405
 6085.00    1.54456   1.53165   50.315
 6086.00    1.54459   1.53382   50.138
 6087.00    1.55352   1.53504   50.044
 6088.00    1.55758   1.53458   50.250
 6089.00    1.54739   1.53255   50.538
 6090.00    1.54006   1.53015   50.650
 6091.00    1.53848   1.52920   50.490
 6092.00    1.54375   1.53061   50.167
 6093.00    1.54814   1.53436   49.915
 6094.00    1.55246   1.53911   49.652
 6095.00    1.55239   1.54363   49.531
 6096.00    1.55370   1.54697   49.610
 6097.00    1.55282   1.54839   49.707
 6098.00    1.55007   1.54676   49.718
 6099.00    1.54813   1.54028   49.940
 6100.00    1.53429   1.52899   50.830
 6101.00    1.51607   1.51525   51.977
 6102.00    1.50071   1.50522   52.307
 6103.00    1.50600   1.50301   51.588
 6104.00    1.52693   1.50910   50.637
 6105.00    1.54250   1.51954   50.118
 6106.00    1.54594   1.52993   50.132
 6107.00    1.53886   1.53792   50.326
 6108.00    1.53822   1.54333   50.385
 6109.00    1.54746   1.54644   50.319
 6110.00    1.54840   1.54795   50.161
 6111.00    1.54853   1.54865   50.009
 6112.00    1.54828   1.54951   49.924
 6113.00    1.54541   1.55054   49.685
 6114.00    1.54478   1.55129   49.700
 6115.00    1.54789   1.55069   49.971
 6116.00    1.54797   1.54825   50.214
 6117.00    1.54350   1.54285   50.322
 6118.00    1.53894   1.53313   50.769
 6119.00    1.52676   1.51996   51.522
 6120.00    1.50765   1.50582   52.111
 6121.00    1.49428   1.49606   52.423
 6122.00    1.49385   1.49475   52.088
 6123.00    1.50625   1.50140   51.232
 6124.00    1.52058   1.51212   50.840
 6125.00    1.52627   1.52156   50.996
 6126.00    1.52326   1.52741   51.181
 6127.00    1.51870   1.53049   51.061
 6128.00    1.52258   1.53368   50.835
 6129.00    1.53304   1.53875   50.366
 6130.00    1.54037   1.54471   50.027
 6131.00    1.54802   1.54860   50.033
 6132.00    1.54749   1.54633   50.284
 6133.00    1.53005   1.53551   51.041
 6134.00    1.50713   1.51685   52.392
 6135.00    1.47801   1.49549   53.889
 6136.00    1.45443   1.47961   54.771
 6137.00    1.45204   1.47505   54.240
 6138.00    1.46705   1.48106   52.690
 6139.00    1.49098   1.49203   51.540
 6140.00    1.50351   1.50200   51.298
 6141.00    1.50189   1.51053   51.436
 6142.00    1.50360   1.51887   51.285
 6143.00    1.51561   1.52777   50.674
 6144.00    1.52373   1.53526   50.264
 6145.00    1.53420   1.53880   50.353
 6146.00    1.53959   1.53789   50.641
 6147.00    1.52687   1.53362   50.986
 6148.00    1.51857   1.52878   51.332
 6149.00    1.51795   1.52542   51.513
 6150.00    1.51493   1.52485   51.418
 6151.00    1.52506   1.52624   51.149
 6152.00    1.53269   1.52771   50.888
 6153.00    1.53073   1.52748   51.042
 6154.00    1.53817   1.52504   51.455
 6155.00    1.53187   1.52109   51.611
 6156.00    1.52264   1.51576   51.697
 6157.00    1.51753   1.50807   52.058
 6158.00    1.51228   1.49579   52.807
 6159.00    1.49462   1.47742   54.078
 6160.00    1.46523   1.45556   55.751
 6161.00    1.43640   1.43594   56.949
 6162.00    1.42795   1.42607   56.866
 6163.00    1.43481   1.42790   55.627
 6164.00    1.45229   1.43884   54.298
 6165.00    1.46630   1.45150   53.764
 6166.00    1.47637   1.46058   53.719
 6167.00    1.47034   1.46347   54.100
 6168.00    1.45728   1.46232   54.800
 6169.00    1.44398   1.46154   54.966
 6170.00    1.45072   1.46464   54.220
 6171.00    1.47108   1.47231   53.229
 6172.00    1.48149   1.48172   52.822
 6173.00    1.48830   1.49024   52.941
 6174.00    1.50099   1.49641   52.905
 6175.00    1.50210   1.50055   52.771
 6176.00    1.49705   1.50370   52.659
 6177.00    1.50073   1.50644   52.466
 6178.00    1.50809   1.50921   52.222
 6179.00    1.50557   1.51194   52.050
 6180.00    1.50975   1.51467   51.856
 6181.00    1.51140   1.51691   51.648
 6182.00    1.51498   1.51807   51.619
 6183.00    1.51498   1.51732   51.775
 6184.00    1.51602   1.51425   52.050
 6185.00    1.51127   1.50882   52.549
 6186.00    1.50608   1.50152   53.126
 6187.00    1.50010   1.49261   53.652
 6188.00    1.48949   1.48235   54.112
 6189.00    1.47990   1.47199   54.613
 6190.00    1.46889   1.46414   55.227
 6191.00    1.45597   1.46258   55.162
 6192.00    1.46247   1.46834   54.162
 6193.00    1.48459   1.47972   52.932
 6194.00    1.50126   1.49204   52.332
 6195.00    1.50595   1.50161   52.148
 6196.00    1.50810   1.50611   52.248
 6197.00    1.50486   1.50597   52.733
 6198.00    1.49687   1.50303   53.300
 6199.00    1.48676   1.50092   53.524
 6200.00    1.47523   1.50199   53.237
 6201.00    1.47477   1.50663   52.603
 6202.00    1.49032   1.51310   52.133
 6203.00    1.50458   1.51894   52.100
 6204.00    1.51055   1.52316   52.075
 6205.00    1.51613   1.52570   52.008
 6206.00    1.52052   1.52698   52.097
 6207.00    1.52416   1.52707   52.239
 6208.00    1.52148   1.52539   52.299
 6209.00    1.51152   1.52125   52.657
 6210.00    1.50341   1.51419   53.135
 6211.00    1.49573   1.50438   53.579
 6212.00    1.48717   1.49303   54.232
 6213.00    1.47784   1.48260   54.982
 6214.00    1.47107   1.47498   55.342
 6215.00    1.47054   1.47135   55.112
 6216.00    1.47353   1.47042   54.482
 6217.00    1.48076   1.47066   54.543
 6218.00    1.48393   1.47078   54.780
 6219.00    1.47311   1.47123   54.423
 6220.00    1.47235   1.47279   54.297
 6221.00    1.48577   1.47563   56.094
 6222.00    1.49916   1.47896   58.312
 6223.00    1.44833   1.48195   55.405
 6224.00    1.32070   1.48394   -1.000
 6225.00    1.40283   1.48441   -1.000
 6226.00    1.51972   1.48217   54.072
 6227.00    1.49698   1.47592   54.577
 6228.00    1.48775   1.46603   55.427
 6229.00    1.46812   1.45511   56.278
 6230.00    1.45272   1.44805   56.601
 6231.00    1.45015   1.44803   56.045
 6232.00    1.46163   1.45569   55.097
 6233.00    1.48026   1.46733   54.091
 6234.00    1.49801   1.47843   53.472
 6235.00    1.50544   1.48469   53.517
 6236.00    1.49650   1.48520   53.999
 6237.00    1.48532   1.48084   54.558
 6238.00    1.47822   1.47456   55.122
 6239.00    1.47006   1.46852   55.576
 6240.00    1.46852   1.46382   55.672
 6241.00    1.46434   1.45984   55.797
 6242.00    1.45608   1.45583   56.238
 6243.00    1.45093   1.45203   56.440
 6244.00    1.44856   1.44985   56.241
 6245.00    1.45742   1.45130   55.779
 6246.00    1.47319   1.45709   55.149
 6247.00    1.48040   1.46549   54.482
 6248.00    1.48593   1.47319   54.125
 6249.00    1.49389   1.47646   54.331
 6250.00    1.48343   1.47368   55.075
 6251.00    1.46122   1.46621   56.011
 6252.00    1.45033   1.45759   56.542
 6253.00    1.44378   1.45072   56.818
 6254.00    1.44180   1.44671   56.888
 6255.00    1.43626   1.44468   57.057
 6256.00    1.42619   1.44374   57.628
 6257.00    1.42201   1.44471   57.840
 6258.00    1.42865   1.44864   57.282
 6259.00    1.44160   1.45636   56.371
 6260.00    1.46516   1.46657   55.564
 6261.00    1.47842   1.47720   54.775
 6262.00    1.48253   1.48565   54.135
 6263.00    1.48020   1.49083   54.187
 6264.00    1.48189   1.49303   54.649
 6265.00    1.48395   1.49367   54.764
 6266.00    1.47527   1.49402   54.406
 6267.00    1.47798   1.49403   54.227
 6268.00    1.48322   1.49364   54.506
 6269.00    1.47771   1.49275   54.649
 6270.00    1.48081   1.49197   54.501
 6271.00    1.48941   1.49109   54.330
 6272.00    1.48656   1.48900   54.312
 6273.00    1.48317   1.48425   54.575
 6274.00    1.47386   1.47634   55.009
 6275.00    1.45430   1.46629   55.621
 6276.00    1.43301   1.45566   56.753
 6277.00    1.40906   1.44683   58.082
 6278.00    1.39541   1.44099   58.827
 6279.00    1.38308   1.43978   58.913
 6280.00    1.37632   1.44344   58.371
 6281.00    1.38262   1.45181   57.362
 6282.00    1.39207   1.46319   56.412
 6283.00    1.39932   1.47546   55.624
 6284.00    1.41277   1.48657   55.051
 6285.00    1.43416   1.49553   54.594
 6286.00    1.45595   1.50169   54.134
 6287.00    1.46979   1.50497   53.871
 6288.00    1.48254   1.50485   53.936
 6289.00    1.48526   1.50216   54.321
 6290.00    1.48303   1.49768   54.773
 6291.00    1.47526   1.49319   55.060
 6292.00    1.46689   1.48906   55.123
 6293.00    1.46614   1.48522   55.197
 6294.00    1.46511   1.48078   55.424
 6295.00    1.45370   1.47577   55.859
 6296.00    1.43724   1.47112   56.110
 6297.00    1.42523   1.46794   56.107
 6298.00    1.41474   1.46648   55.953
 6299.00    1.40621   1.46619   55.700
 6300.00    1.41106   1.46652   55.726
 6301.00    1.41723   1.46839   56.326
 6302.00    1.43565   1.47255   56.550
 6303.00    1.46319   1.47912   55.819
 6304.00    1.47973   1.48693   54.987
 6305.00    1.47795   1.49458   54.410
 6306.00    1.48386   1.50125   53.949
 6307.00    1.49455   1.50626   53.606
 6308.00    1.49631   1.50919   53.677
 6309.00    1.48574   1.50967   53.986
 6310.00    1.48600   1.50803   54.302
 6311.00    1.48416   1.50491   54.501
 6312.00    1.48328   1.50098   54.663
 6313.00    1.47285   1.49652   54.871
 6314.00    1.46866   1.49193   55.303
 6315.00    1.46289   1.48775   55.380
 6316.00    1.45522   1.48462   55.321
 6317.00    1.45418   1.48373   55.318
 6318.00    1.46170   1.48598   55.299
 6319.00    1.47089   1.49129   54.893
 6320.00    1.47303   1.49849   54.241
 6321.00    1.47757   1.50616   53.848
 6322.00    1.48356   1.51309   53.675
 6323.00    1.49325   1.51890   53.452
 6324.00    1.49865   1.52322   53.200
 6325.00    1.49848   1.52584   53.096
 6326.00    1.49929   1.52704   52.986
 6327.00    1.50286   1.52746   52.819
 6328.00    1.50397   1.52791   52.893
 6329.00    1.49469   1.52860   52.926
 6330.00    1.49368   1.52945   52.876
 6331.00    1.50173   1.52934   52.704
 6332.00    1.50940   1.52664   52.715
 6333.00    1.50064   1.52073   52.872
 6334.00    1.48301   1.51262   53.416
 6335.00    1.45461   1.50597   54.334
 6336.00    1.43266   1.50368   54.135
 6337.00    1.46664   1.50657   53.609
 6338.00    1.49091   1.51297   53.042
 6339.00    1.49475   1.51964   52.577
 6340.00    1.49998   1.52423   52.346
 6341.00    1.50557   1.52547   52.198
 6342.00    1.49947   1.52386   52.427
 6343.00    1.49379   1.52102   52.783
 6344.00    1.49435   1.51942   52.739
 6345.00    1.50020   1.52040   52.527
 6346.00    1.50228   1.52447   52.201
 6347.00    1.50400   1.53049   51.892
 6348.00    1.50824   1.53686   51.788
 6349.00    1.51262   1.54186   51.766
 6350.00    1.51546   1.54423   51.702
 6351.00    1.51316   1.54332   51.831
 6352.00    1.50272   1.53963   52.072
 6353.00    1.49365   1.53418   52.447
 6354.00    1.49054   1.52850   53.025
 6355.00    1.48810   1.52310   53.304
 6356.00    1.47907   1.51794   53.346
 6357.00    1.47590   1.51252   53.687
 6358.00    1.47040   1.50702   54.190
 6359.00    1.46547   1.50205   54.218
 6360.00    1.47159   1.49844   53.987
 6361.00    1.47406   1.49689   53.866
 6362.00    1.46747   1.49785   53.773
 6363.00    1.46211   1.50167   53.511
 6364.00    1.47454   1.50771   53.150
 6365.00    1.48899   1.51499   52.834
 6366.00    1.49208   1.52191   52.534
 6367.00    1.49691   1.52753   52.188
 6368.00    1.50418   1.53111   51.920
 6369.00    1.50281   1.53337   51.867
 6370.00    1.50009   1.53504   51.834
 6371.00    1.49992   1.53726   51.631
 6372.00    1.50092   1.54017   51.554
 6373.00    1.50254   1.54279   51.680
 6374.00    1.49931   1.54422   51.738
 6375.00    1.49180   1.54371   51.886
 6376.00    1.49004   1.54127   52.111
 6377.00    1.48859   1.53755   52.416
 6378.00    1.48173   1.53358   52.721
 6379.00    1.48333   1.53020   52.847
 6380.00    1.48247   1.52833   52.897
 6381.00    1.47293   1.52801   52.962
 6382.00    1.47015   1.52899   52.890
 6383.00    1.47487   1.53078   52.886
 6384.00    1.47395   1.53299   53.115
 6385.00    1.46618   1.53541   53.162
 6386.00    1.46003   1.53752   53.184
 6387.00    1.45508   1.53869   53.365
 6388.00    1.45366   1.53801   53.638
 6389.00    1.45002   1.53465   54.094
 6390.00    1.43964   1.52841   54.588
 6391.00    1.42427   1.52067   -1.000
 6392.00    1.41020   1.51419   -1.000
 6393.00    1.39851   1.51217   -1.000
 6394.00    1.39562   1.51538   -1.000
 6395.00    1.40550   1.52105   -1.000
 6396.00    1.40762   1.52508   -1.000
 6397.00    1.40381   1.52406   -1.000
 6398.00    1.38689   1.51953   -1.000
 6399.00    1.36244   1.51543   -1.000
 6400.00    1.35092   1.51631   -1.000
 6401.00    1.35954   1.52296   -1.000
 6402.00    1.37638   1.53248   -1.000
 6403.00    1.38056   1.54047   -1.000
 6404.00    1.37650   1.54331   -1.000
 6405.00    1.36552   1.54088   -1.000
 6406.00    1.35079   1.53513   -1.000
 6407.00    1.33659   1.52914   -1.000
 6408.00    1.33354   1.52536   -1.000
 6409.00    1.32773   1.52408   -1.000
 6410.00    1.31217   1.52433   -1.000
 6411.00    1.29397   1.52540   -1.000
 6412.00    1.28142   1.52677   -1.000
 6413.00    1.28028   1.52892   -1.000
 6414.00    1.28287   1.53147   -1.000
 6415.00    1.28138   1.53363   -1.000
 6416.00    1.27731   1.53389   -1.000
 6417.00    1.26740   1.53160   -1.000
 6418.00    1.25030   1.52697   -1.000
 6419.00    1.22947   1.52223   -1.000
 6420.00    1.21130   1.52036   -1.000
 6421.00    1.20243   1.52351   -1.000
 6422.00    1.19646   1.53091   -1.000
 6423.00    1.19851   1.54034   -1.000
 6424.00    1.20542   1.54869   -1.000
 6425.00    1.19762   1.55400   -1.000
 6426.00    1.18106   1.55506   -1.000
 6427.00    1.16761   1.55127   -1.000
 6428.00    1.15770   1.54329   -1.000
