###################################################################
## OUTPUT of StarlightChains_v04.for    [Cid@UFSC - 01/Apr/2007] ##
###################################################################

## Some input info
NGC6637_a_1.cxt                          [arq_obs]
Base.BC03.S                              [arq_base]
NGC6637_a_1.msk                          [arq_masks]
StCv04.C11.config                        [arq_config]
  150                                    [N_base]
    0                                    [N_YAV_components = # of components with extra extinction!]
    0                                    [i_FitPowerLaw (1/0 = Yes/No)]
-9.99                                    [alpha_PowerLaw]
CCM                                      [red_law_option]
 1.458241                                [q_norm = A(l_norm)/A(V)]

## (Re)Sampling Parameters
 3359.00                                 [l_ini (A)]
 6428.00                                 [l_fin (A)]
    1.00                                 [dl    (A)]     (OBS: dl_cushion =    50.00 A)

## Normalization info
 4020.00                                 [l_norm (A) - for base]
 4010.00                                 [llow_norm (A) - window for f_obs]
 4060.00                                 [lupp_norm (A) - window for f_obs]
1.782031E-14                             [fobs_norm (in input units)]

## S/N
 4730.00                                 [llow_SN (A) - window for S/N]
 4780.00                                 [lupp_SN (A) - window for S/N]
  44.619                                 [S/N in S/N window]
  30.665                                 [S/N in norm. window]
  98.004                                 [S/N_err in S/N window]
  67.353                                 [S/N_err in norm. window]
  1.0000                                 [fscale_chi2]

## etc...
  2147483594                             [idum_orig]
  3067                                   [NOl_eff]
  1344                                   [Nl_eff]
  1723    NSIGMA                         [Ntot_cliped & clip_method]
  1371790                                [Nglobal_steps]
   7                                     [N_chains]
  19                                     [NEX0s_base = N_base in EX0s-fits]
 0   0   1      151   2.0   8.103E+02    [Clip-Bug, RC-Crash & Burn-In warning-flags, n_censored_weights, wei_nsig_threshold & wei_limit]
    59     58.807     58.791      0.016  [idt_all, wdt_TotTime, wdt_UsrTime & wdt_SysTime (sec)]

## Synthesis Results - Best model ##

 2.39779E+00                             [chi2/Nl_eff]
     1.54807                             [adev (%)]

   101.13188                             [sum-of-x (%)]
 4.11917E-14                             [Flux_tot (units of input spectrum!)]
 1.75179E-09                             [Mini_tot (???)]
 8.72257E-10                             [Mcor_tot (???)]

   5.98                                  [v0_min  (km/s)]
  56.54                                  [vd_min  (km/s)]
 0.6155                                  [AV_min  (mag)]
 0.0000                                  [YAV_min (mag)]

# j     x_j(%)      Mini_j(%)     Mcor_j(%)     age_j(yr)     Z_j      (L/M)_j    YAV?  Mstars   component_j        a/Fe...       SSP_chi2r SSP_adev(%)   SSP_AV   SSP_x(%)
  1      0.0000     0.0000E+00    0.0000E+00    1.000000E+06  0.00010  8.160E-03    0   1.0000   age020_m22            0.0000     7.3795E+02    23.1801   4.0000    80.1226
  2      4.2355     2.0693E-03    4.1559E-03    3.160000E+06  0.00010  4.759E-02    0   1.0000   age045_m22            0.0000     7.8125E+01     8.6035   2.6429    98.9275
  3      2.9130     3.5057E-03    6.7463E-03    5.010000E+06  0.00010  1.932E-02    0   0.9582   age055_m22            0.0000     2.5688E+02    14.9540   3.1208    79.8350
  4      0.0000     0.0000E+00    0.0000E+00    6.610000E+06  0.00010  9.973E-03    0   0.9297   age061_m22            0.0000     7.1016E+02    22.4770   4.0000    82.8104
  5      0.0000     0.0000E+00    0.0000E+00    8.710000E+06  0.00010  7.690E-03    0   0.9030   age067_m22            0.0000     6.8196E+02    22.0675   4.0000    83.4523
  6      0.0000     0.0000E+00    0.0000E+00    1.000000E+07  0.00010  6.375E-03    0   0.8902   age070_m22            0.0000     6.7757E+02    22.0012   4.0000    83.9001
  7      0.0000     0.0000E+00    0.0000E+00    1.445000E+07  0.00010  4.874E-03    0   0.8589   age078_m22            0.0000     4.3172E+02    17.9232   4.0000    86.9811
  8      0.0000     0.0000E+00    0.0000E+00    2.512000E+07  0.00010  4.103E-03    0   0.8174   age090_m22            0.0000     1.3252E+02    11.3322   4.0000    91.3814
  9      0.0000     0.0000E+00    0.0000E+00    4.000000E+07  0.00010  3.654E-03    0   0.7830   age104_m22            0.0000     1.1348E+02    10.4582   3.6919    98.2421
 10      0.0000     0.0000E+00    0.0000E+00    5.500000E+07  0.00010  3.093E-03    0   0.7597   age110_m22            0.0000     1.1795E+02    10.1868   3.5573   101.0683
 11      0.0000     0.0000E+00    0.0000E+00    1.015200E+08  0.00010  2.431E-03    0   0.7138   age116_m22            0.0000     1.4539E+02    10.6038   3.1580   106.0857
 12      0.0000     0.0000E+00    0.0000E+00    1.609000E+08  0.00010  1.319E-03    0   0.6775   age120_m22            0.0000     1.3509E+02    10.2533   2.6785   108.6274
 13      0.0000     0.0000E+00    0.0000E+00    2.861200E+08  0.00010  1.075E-03    0   0.6412   age125_m22            0.0000     2.9071E+02    13.2492   2.5986   118.1042
 14      0.0000     0.0000E+00    0.0000E+00    5.088000E+08  0.00010  7.183E-04    0   0.6083   age130_m22            0.0000     3.4982E+02    14.2976   2.3222   121.8578
 15      0.0000     0.0000E+00    0.0000E+00    9.047900E+08  0.00010  4.524E-04    0   0.5785   age135_m22            0.0000     3.5901E+02    14.3379   2.1130   123.6128
 16      0.0000     0.0000E+00    0.0000E+00    1.278050E+09  0.00010  3.018E-04    0   0.5588   age138_m22            0.0000     1.8858E+02    10.5984   1.6800   117.5753
 17      0.0000     0.0000E+00    0.0000E+00    1.434000E+09  0.00010  2.691E-04    0   0.5532   age139_m22            0.0000     1.6107E+02     9.8396   1.5425   116.1689
 18      0.0000     0.0000E+00    0.0000E+00    2.500000E+09  0.00010  1.582E-04    0   0.5296   age150_m22            0.0000     1.4642E+02     9.5337   1.4457   116.3198
 19      0.0000     0.0000E+00    0.0000E+00    4.250000E+09  0.00010  1.007E-04    0   0.5110   age158_m22            0.0000     9.6966E+01     8.0475   1.3406   112.5288
 20      0.0000     0.0000E+00    0.0000E+00    6.250000E+09  0.00010  6.869E-05    0   0.4985   age166_m22            0.0000     6.3745E+01     6.8305   1.3305   107.6059
 21      0.0000     0.0000E+00    0.0000E+00    7.500000E+09  0.00010  5.873E-05    0   0.4931   age171_m22            0.0000     6.1526E+01     6.8399   1.3291   106.6331
 22      0.0000     0.0000E+00    0.0000E+00    1.000000E+10  0.00010  4.481E-05    0   0.4854   age181_m22            0.0000     5.9503E+01     6.7331   1.2926   106.1852
 23      0.0000     0.0000E+00    0.0000E+00    1.300000E+10  0.00010  3.489E-05    0   0.4791   age193_m22            0.0000     5.4963E+01     6.4734   1.2387   105.4704
 24      0.0000     0.0000E+00    0.0000E+00    1.500000E+10  0.00010  3.035E-05    0   0.4766   age201_m22            0.0000     5.2430E+01     6.3451   1.2017   105.1743
 25      0.0000     0.0000E+00    0.0000E+00    1.800000E+10  0.00010  2.510E-05    0   0.4735   age213_m22            0.0000     4.7281E+01     6.0655   1.1405   104.2262
 26      0.0000     0.0000E+00    0.0000E+00    1.000000E+06  0.00040  8.458E-03    0   1.0000   age020_m32            0.0000     7.5279E+02    23.3006   4.0000    80.8667
 27      0.0000     0.0000E+00    0.0000E+00    3.160000E+06  0.00040  3.973E-02    0   1.0000   age045_m32            0.0000     1.3460E+02    11.8190   3.9923    89.6381
 28      0.0000     0.0000E+00    0.0000E+00    5.010000E+06  0.00040  1.935E-02    0   0.9532   age055_m32            0.0000     2.9591E+02    14.8553   4.0000    84.7092
 29      0.0000     0.0000E+00    0.0000E+00    6.610000E+06  0.00040  1.204E-02    0   0.9243   age061_m32            0.0000     5.2095E+02    19.4799   4.0000    84.8916
 30      0.0000     0.0000E+00    0.0000E+00    8.710000E+06  0.00040  9.433E-03    0   0.9001   age067_m32            0.0000     4.6696E+02    18.5724   4.0000    86.0429
 31      0.0000     0.0000E+00    0.0000E+00    1.000000E+07  0.00040  8.053E-03    0   0.8877   age070_m32            0.0000     4.2830E+02    17.8391   4.0000    86.4236
 32      0.0000     0.0000E+00    0.0000E+00    1.445000E+07  0.00040  7.027E-03    0   0.8578   age078_m32            0.0000     1.5823E+02    12.7441   3.9726    87.5598
 33      0.0000     0.0000E+00    0.0000E+00    2.512000E+07  0.00040  4.707E-03    0   0.8166   age090_m32            0.0000     1.2146E+02    11.2830   3.6223    93.4150
 34      0.0000     0.0000E+00    0.0000E+00    4.000000E+07  0.00040  3.714E-03    0   0.7827   age104_m32            0.0000     1.0977E+02    10.3675   3.3518    99.3168
 35      0.0000     0.0000E+00    0.0000E+00    5.500000E+07  0.00040  2.982E-03    0   0.7593   age110_m32            0.0000     1.1412E+02    10.2079   3.2609   101.6251
 36      0.0000     0.0000E+00    0.0000E+00    1.015200E+08  0.00040  2.188E-03    0   0.7143   age116_m32            0.0000     1.8072E+02    11.2322   2.8818   110.4580
 37      0.0000     0.0000E+00    0.0000E+00    1.609000E+08  0.00040  1.690E-03    0   0.6856   age120_m32            0.0000     2.5254E+02    12.3800   2.6077   115.9449
 38      0.0000     0.0000E+00    0.0000E+00    2.861200E+08  0.00040  1.152E-03    0   0.6509   age125_m32            0.0000     3.0719E+02    13.4302   2.3327   120.1009
 39      0.0000     0.0000E+00    0.0000E+00    5.088000E+08  0.00040  7.331E-04    0   0.6182   age130_m32            0.0000     3.3331E+02    13.8644   2.1455   121.8449
 40      0.0000     0.0000E+00    0.0000E+00    9.047900E+08  0.00040  3.960E-04    0   0.5890   age135_m32            0.0000     1.9235E+02    10.7834   1.7627   117.0953
 41      0.0000     0.0000E+00    0.0000E+00    1.278050E+09  0.00040  2.854E-04    0   0.5687   age138_m32            0.0000     1.6366E+02     9.9360   1.4945   118.0798
 42      0.0000     0.0000E+00    0.0000E+00    1.434000E+09  0.00040  2.531E-04    0   0.5632   age139_m32            0.0000     1.6103E+02     9.8260   1.4347   118.0043
 43      0.0000     0.0000E+00    0.0000E+00    2.500000E+09  0.00040  1.488E-04    0   0.5386   age150_m32            0.0000     1.2363E+02     8.6143   1.2017   115.0126
 44      0.0000     0.0000E+00    0.0000E+00    4.250000E+09  0.00040  9.082E-05    0   0.5199   age158_m32            0.0000     5.8971E+01     6.3193   1.1780   108.3252
 45      0.0000     0.0000E+00    0.0000E+00    6.250000E+09  0.00040  6.362E-05    0   0.5076   age166_m32            0.0000     3.8253E+01     5.3798   1.1989   102.2672
 46      7.6593     3.3671E+00    3.3994E+00    7.500000E+09  0.00040  5.289E-05    0   0.5027   age171_m32            0.0000     3.5396E+01     5.1676   1.1724   100.5729
 47     18.9039     1.1066E+01    1.0996E+01    1.000000E+10  0.00040  3.972E-05    0   0.4948   age181_m32            0.0000     3.2368E+01     4.9112   1.1150    99.0020
 48      0.0000     0.0000E+00    0.0000E+00    1.300000E+10  0.00040  3.283E-05    0   0.4870   age193_m32            0.0000     3.4990E+01     5.0821   1.0360   103.1590
 49      0.0000     0.0000E+00    0.0000E+00    1.500000E+10  0.00040  2.925E-05    0   0.4854   age201_m32            0.0000     4.0956E+01     5.4443   0.9965   105.6445
 50      0.0000     0.0000E+00    0.0000E+00    1.800000E+10  0.00040  2.469E-05    0   0.4819   age213_m32            0.0000     4.3181E+01     5.5356   0.9468   106.5435
 51      0.0000     0.0000E+00    0.0000E+00    1.000000E+06  0.00400  1.114E-02    0   1.0000   age020_m42            0.0000     6.6660E+02    21.9480   4.0000    81.2248
 52      0.0000     0.0000E+00    0.0000E+00    3.160000E+06  0.00400  4.073E-02    0   0.9999   age045_m42            0.0000     9.9730E+01    10.0861   3.6565    93.5886
 53      0.0000     0.0000E+00    0.0000E+00    5.010000E+06  0.00400  2.534E-02    0   0.9488   age055_m42            0.0000     1.8005E+02    12.4644   4.0000    86.4821
 54      0.0001     9.3472E-08    1.7308E-07    6.610000E+06  0.00400  2.583E-02    0   0.9220   age061_m42            0.0000     9.6998E+01    10.0080   3.4391    95.6429
 55      0.0000     0.0000E+00    0.0000E+00    8.710000E+06  0.00400  1.706E-02    0   0.8983   age067_m42            0.0000     1.2025E+02    11.3543   3.3148    91.7911
 56      0.0000     0.0000E+00    0.0000E+00    1.000000E+07  0.00400  1.271E-02    0   0.8862   age070_m42            0.0000     1.5352E+02    12.7398   3.3340    89.0633
 57      0.0000     0.0000E+00    0.0000E+00    1.445000E+07  0.00400  7.666E-03    0   0.8571   age078_m42            0.0000     1.8673E+02    13.5559   3.7739    84.5939
 58      0.0000     0.0000E+00    0.0000E+00    2.512000E+07  0.00400  5.070E-03    0   0.8174   age090_m42            0.0000     1.4004E+02    12.0974   3.1935    90.9528
 59      0.0000     0.0000E+00    0.0000E+00    4.000000E+07  0.00400  3.505E-03    0   0.7851   age104_m42            0.0000     1.0184E+02    10.2417   2.8411    95.1782
 60      0.0000     0.0000E+00    0.0000E+00    5.500000E+07  0.00400  3.059E-03    0   0.7629   age110_m42            0.0000     9.2537E+01     8.9426   2.7849   104.2573
 61      0.0000     0.0000E+00    0.0000E+00    1.015200E+08  0.00400  2.268E-03    0   0.7207   age116_m42            0.0000     2.1649E+02    11.4211   2.5388   115.9384
 62      0.0000     0.0000E+00    0.0000E+00    1.609000E+08  0.00400  1.720E-03    0   0.6930   age120_m42            0.0000     2.3713E+02    11.7518   2.3702   118.7361
 63      0.0000     0.0000E+00    0.0000E+00    2.861200E+08  0.00400  1.079E-03    0   0.6613   age125_m42            0.0000     2.2595E+02    11.6335   2.0162   119.4623
 64      0.0000     0.0000E+00    0.0000E+00    5.088000E+08  0.00400  6.261E-04    0   0.6313   age130_m42            0.0000     2.7284E+02    12.3431   1.7873   124.0829
 65      0.0000     0.0000E+00    0.0000E+00    9.047900E+08  0.00400  3.535E-04    0   0.6024   age135_m42            0.0000     1.7273E+02     9.8695   1.4375   122.0350
 66      0.0000     0.0000E+00    0.0000E+00    1.278050E+09  0.00400  2.677E-04    0   0.5837   age138_m42            0.0000     6.6568E+01     6.4899   0.8135   116.2522
 67      0.0000     0.0000E+00    0.0000E+00    1.434000E+09  0.00400  1.910E-04    0   0.5716   age139_m42            0.0000     8.6641E+01     7.1590   0.9691   117.7817
 68      0.0000     0.0000E+00    0.0000E+00    2.500000E+09  0.00400  9.818E-05    0   0.5463   age150_m42            0.0000     2.0994E+01     3.7036   0.7769   109.2845
 69      0.0001     2.6662E-05    2.8214E-05    4.250000E+09  0.00400  5.491E-05    0   0.5269   age158_m42            0.0000     6.9778E+00     2.3409   0.6849   105.0546
 70      0.0000     0.0000E+00    0.0000E+00    6.250000E+09  0.00400  3.857E-05    0   0.5151   age166_m42            0.0000     5.2479E+00     2.0568   0.5649   103.3310
 71      0.0001     8.4769E-05    8.6995E-05    7.500000E+09  0.00400  3.243E-05    0   0.5110   age171_m42            0.0000     6.1199E+00     2.1997   0.4866   102.7187
 72     22.4791     2.1562E+01    2.1773E+01    1.000000E+10  0.00400  2.424E-05    0   0.5028   age181_m42            0.0000     8.8059E+00     2.6181   0.4065   102.0665
 73     15.9264     1.9666E+01    1.9459E+01    1.300000E+10  0.00400  1.883E-05    0   0.4927   age193_m42            0.0000     1.2259E+01     3.0552   0.3663   101.7535
 74      2.9320     4.0458E+00    3.9969E+00    1.500000E+10  0.00400  1.685E-05    0   0.4919   age201_m42            0.0000     1.1046E+01     2.9110   0.3724   101.7243
 75      0.0000     0.0000E+00    0.0000E+00    1.800000E+10  0.00400  1.452E-05    0   0.4874   age213_m42            0.0000     9.3001E+00     2.6816   0.3889   101.9503
 76      0.0000     0.0000E+00    0.0000E+00    1.000000E+06  0.00800  1.286E-02    0   1.0000   age020_m52            0.0000     6.1535E+02    20.9331   4.0000    83.2678
 77      0.0000     0.0000E+00    0.0000E+00    3.160000E+06  0.00800  3.147E-02    0   0.9966   age045_m52            0.0000     5.2573E+02    19.4849   4.0000    84.5614
 78      0.0000     0.0000E+00    0.0000E+00    5.010000E+06  0.00800  2.664E-02    0   0.9443   age055_m52            0.0000     2.4790E+02    13.7268   4.0000    86.3538
 79      0.0000     0.0000E+00    0.0000E+00    6.610000E+06  0.00800  2.151E-02    0   0.9177   age061_m52            0.0000     1.2608E+02    11.0238   2.9380    90.3014
 80      0.0000     0.0000E+00    0.0000E+00    8.710000E+06  0.00800  1.628E-02    0   0.8948   age067_m52            0.0000     1.3712E+02    11.8671   3.2920    91.2610
 81      0.0000     0.0000E+00    0.0000E+00    1.000000E+07  0.00800  1.215E-02    0   0.8827   age070_m52            0.0000     1.6220E+02    12.8292   3.6499    88.7225
 82      0.0000     0.0000E+00    0.0000E+00    1.445000E+07  0.00800  8.739E-03    0   0.8552   age078_m52            0.0000     1.4337E+02    12.2113   3.6642    90.9910
 83      0.0000     0.0000E+00    0.0000E+00    2.512000E+07  0.00800  5.676E-03    0   0.8162   age090_m52            0.0000     1.2157E+02    11.2418   3.1906    98.4722
 84      0.0000     0.0000E+00    0.0000E+00    4.000000E+07  0.00800  3.939E-03    0   0.7841   age104_m52            0.0000     1.1402E+02    10.3312   2.9837   102.9206
 85      0.0000     0.0000E+00    0.0000E+00    5.500000E+07  0.00800  3.155E-03    0   0.7627   age110_m52            0.0000     1.2260E+02    10.0247   2.9120   106.4295
 86      0.0000     0.0000E+00    0.0000E+00    1.015200E+08  0.00800  2.206E-03    0   0.7226   age116_m52            0.0000     1.7002E+02    10.5135   2.6415   113.8957
 87      0.0000     0.0000E+00    0.0000E+00    1.609000E+08  0.00800  1.596E-03    0   0.6963   age120_m52            0.0000     1.9502E+02    10.9663   2.3917   117.1470
 88      0.0000     0.0000E+00    0.0000E+00    2.861200E+08  0.00800  1.002E-03    0   0.6665   age125_m52            0.0000     2.7885E+02    12.7669   2.0193   123.4332
 89      0.0000     0.0000E+00    0.0000E+00    5.088000E+08  0.00800  5.759E-04    0   0.6377   age130_m52            0.0000     2.9908E+02    13.0663   1.6416   128.9288
 90      0.0000     0.0000E+00    0.0000E+00    9.047900E+08  0.00800  2.972E-04    0   0.6086   age135_m52            0.0000     1.5862E+02     9.9100   1.1803   124.1341
 91      0.0000     0.0000E+00    0.0000E+00    1.278050E+09  0.00800  2.242E-04    0   0.5907   age138_m52            0.0000     6.2106E+01     6.3692   0.6462   118.9176
 92      0.0000     0.0000E+00    0.0000E+00    1.434000E+09  0.00800  1.645E-04    0   0.5787   age139_m52            0.0000     5.3052E+01     5.9258   0.8053   117.8778
 93      0.0000     0.0000E+00    0.0000E+00    2.500000E+09  0.00800  7.723E-05    0   0.5519   age150_m52            0.0000     2.2721E+01     3.9810   0.5112   111.7852
 94      0.0001     4.3126E-05    4.6077E-05    4.250000E+09  0.00800  4.151E-05    0   0.5320   age158_m52            0.0000     1.5311E+01     3.1869   0.4576   108.3751
 95      0.0026     2.0099E-03    2.0978E-03    6.250000E+09  0.00800  3.010E-05    0   0.5197   age166_m52            0.0000     1.8500E+01     3.5847   0.2691   106.6260
 96      0.0995     9.3820E-02    9.6831E-02    7.500000E+09  0.00800  2.467E-05    0   0.5139   age171_m52            0.0000     2.0627E+01     3.8264   0.2266   106.2216
 97     11.7469     1.4668E+01    1.4889E+01    1.000000E+10  0.00800  1.862E-05    0   0.5054   age181_m52            0.0000     3.0216E+01     4.7338   0.0892   106.0127
 98      6.2158     1.0085E+01    1.0103E+01    1.300000E+10  0.00800  1.433E-05    0   0.4988   age193_m52            0.0000     4.3920E+01     5.6991  -0.0139   106.8818
 99      6.5253     1.2196E+01    1.2090E+01    1.500000E+10  0.00800  1.244E-05    0   0.4936   age201_m52            0.0000     5.0257E+01     6.0601  -0.0458   107.4535
100      1.4922     3.2425E+00    3.1831E+00    1.800000E+10  0.00800  1.070E-05    0   0.4888   age213_m52            0.0000     5.4892E+01     6.3415  -0.0853   107.4344
101      0.0000     0.0000E+00    0.0000E+00    1.000000E+06  0.02000  1.989E-02    0   1.0000   age020_m62            0.0000     6.3325E+02    21.2143   4.0000    81.8201
102      0.0000     0.0000E+00    0.0000E+00    3.160000E+06  0.02000  3.772E-02    0   0.9858   age045_m62            0.0000     4.8143E+02    18.7579   4.0000    83.6765
103      0.0000     0.0000E+00    0.0000E+00    5.010000E+06  0.02000  3.227E-02    0   0.9342   age055_m62            0.0000     1.3385E+02    11.8548   3.9503    88.9806
104      0.0000     0.0000E+00    0.0000E+00    6.610000E+06  0.02000  2.387E-02    0   0.9090   age061_m62            0.0000     1.8120E+02    13.5733   3.7332    86.8954
105      0.0000     0.0000E+00    0.0000E+00    8.710000E+06  0.02000  1.102E-02    0   0.8861   age067_m62            0.0000     4.0987E+02    19.4112   3.4309    78.6608
106      0.0000     0.0000E+00    0.0000E+00    1.000000E+07  0.02000  1.011E-02    0   0.8751   age070_m62            0.0000     3.0351E+02    16.8194   3.4213    82.4160
107      0.0000     0.0000E+00    0.0000E+00    1.445000E+07  0.02000  7.331E-03    0   0.8472   age078_m62            0.0000     2.2904E+02    14.7280   3.4153    84.9992
108      0.0000     0.0000E+00    0.0000E+00    2.512000E+07  0.02000  4.206E-03    0   0.8099   age090_m62            0.0000     2.3686E+02    14.8406   3.3326    84.1922
109      0.0000     0.0000E+00    0.0000E+00    4.000000E+07  0.02000  3.373E-03    0   0.7799   age104_m62            0.0000     1.1167E+02    10.6375   3.0051    98.0837
110      0.0000     0.0000E+00    0.0000E+00    5.500000E+07  0.02000  2.747E-03    0   0.7595   age110_m62            0.0000     1.0883E+02    10.0152   2.8662   104.6860
111      0.0000     0.0000E+00    0.0000E+00    1.015200E+08  0.02000  1.878E-03    0   0.7221   age116_m62            0.0000     1.8100E+02    11.0780   2.6082   114.7473
112      0.0000     0.0000E+00    0.0000E+00    1.609000E+08  0.02000  1.378E-03    0   0.6978   age120_m62            0.0000     2.5167E+02    12.2755   2.3880   120.3679
113      0.0000     0.0000E+00    0.0000E+00    2.861200E+08  0.02000  8.869E-04    0   0.6700   age125_m62            0.0000     3.8227E+02    14.4181   1.9253   129.0261
114      0.0000     0.0000E+00    0.0000E+00    5.088000E+08  0.02000  4.834E-04    0   0.6430   age130_m62            0.0000     3.3127E+02    13.5584   1.4891   131.4481
115      0.0000     0.0000E+00    0.0000E+00    9.047900E+08  0.02000  2.312E-04    0   0.6152   age135_m62            0.0000     1.5511E+02     9.2617   0.9798   126.1730
116      0.0000     0.0000E+00    0.0000E+00    1.278050E+09  0.02000  1.387E-04    0   0.5927   age138_m62            0.0000     5.6163E+01     5.9308   0.6832   117.5384
117      0.0000     0.0000E+00    0.0000E+00    1.434000E+09  0.02000  1.168E-04    0   0.5865   age139_m62            0.0000     4.2402E+01     5.2391   0.6764   115.0182
118      0.0000     0.0000E+00    0.0000E+00    2.500000E+09  0.02000  5.505E-05    0   0.5610   age150_m62            0.0000     2.4907E+01     4.0517   0.3300   110.5015
119      0.0000     0.0000E+00    0.0000E+00    4.250000E+09  0.02000  3.070E-05    0   0.5407   age158_m62            0.0000     4.3403E+01     5.5501   0.0232   110.7311
120      0.0000     0.0000E+00    0.0000E+00    6.250000E+09  0.02000  2.104E-05    0   0.5277   age166_m62            0.0000     5.9731E+01     6.5671  -0.1178   111.4843
121      0.0000     0.0000E+00    0.0000E+00    7.500000E+09  0.02000  1.770E-05    0   0.5223   age171_m62            0.0000     7.0363E+01     7.1256  -0.2145   112.1513
122      0.0000     0.0000E+00    0.0000E+00    1.000000E+10  0.02000  1.297E-05    0   0.5121   age181_m62            0.0000     9.4802E+01     8.2399  -0.3874   113.1537
123      0.0000     0.0000E+00    0.0000E+00    1.300000E+10  0.02000  9.691E-06    0   0.5047   age193_m62            0.0000     1.1314E+02     8.9574  -0.4793   113.8478
124      0.0000     0.0000E+00    0.0000E+00    1.500000E+10  0.02000  8.360E-06    0   0.4999   age201_m62            0.0000     1.2992E+02     9.5877  -0.5604   114.4582
125      0.0000     0.0000E+00    0.0000E+00    1.800000E+10  0.02000  6.911E-06    0   0.4946   age213_m62            0.0000     1.5219E+02    10.3702  -0.6494   115.2534
126      0.0000     0.0000E+00    0.0000E+00    1.000000E+06  0.05000  2.651E-02    0   0.9998   age020_m72            0.0000     6.1489E+02    20.8281   4.0000    82.9001
127      0.0000     0.0000E+00    0.0000E+00    3.160000E+06  0.05000  4.817E-02    0   0.9577   age045_m72            0.0000     3.0372E+02    15.2639   4.0000    87.0199
128      0.0000     0.0000E+00    0.0000E+00    5.010000E+06  0.05000  3.101E-02    0   0.9147   age055_m72            0.0000     1.9026E+02    13.3791   4.0000    85.4750
129      0.0000     0.0000E+00    0.0000E+00    6.610000E+06  0.05000  1.472E-02    0   0.8877   age061_m72            0.0000     3.4179E+02    17.3779   3.6245    80.7571
130      0.0000     0.0000E+00    0.0000E+00    8.710000E+06  0.05000  1.050E-02    0   0.8638   age067_m72            0.0000     2.5161E+02    14.9148   4.0000    82.4823
131      0.0000     0.0000E+00    0.0000E+00    1.000000E+07  0.05000  8.954E-03    0   0.8524   age070_m72            0.0000     2.4524E+02    13.4433   4.0000    87.0008
132      0.0000     0.0000E+00    0.0000E+00    1.445000E+07  0.05000  6.392E-03    0   0.8262   age078_m72            0.0000     2.0130E+02    12.3883   4.0000    87.8403
133      0.0000     0.0000E+00    0.0000E+00    2.512000E+07  0.05000  4.207E-03    0   0.7902   age090_m72            0.0000     1.2568E+02    10.9573   3.7547    91.7149
134      0.0000     0.0000E+00    0.0000E+00    4.000000E+07  0.05000  3.198E-03    0   0.7618   age104_m72            0.0000     1.1932E+02     9.8199   3.0554   106.8395
135      0.0000     0.0000E+00    0.0000E+00    5.500000E+07  0.05000  2.593E-03    0   0.7432   age110_m72            0.0000     1.4819E+02    10.4640   2.9179   110.6138
136      0.0000     0.0000E+00    0.0000E+00    1.015200E+08  0.05000  1.716E-03    0   0.7092   age116_m72            0.0000     2.1276E+02    11.6534   2.6534   116.3434
137      0.0000     0.0000E+00    0.0000E+00    1.609000E+08  0.05000  1.218E-03    0   0.6876   age120_m72            0.0000     2.9458E+02    12.9494   2.3200   122.2711
138      0.0000     0.0000E+00    0.0000E+00    2.861200E+08  0.05000  7.047E-04    0   0.6618   age125_m72            0.0000     3.7727E+02    14.2419   1.7014   129.7446
139      0.0000     0.0000E+00    0.0000E+00    5.088000E+08  0.05000  3.590E-04    0   0.6356   age130_m72            0.0000     2.9577E+02    12.4704   1.1391   131.8315
140      0.0000     0.0000E+00    0.0000E+00    9.047900E+08  0.05000  1.484E-04    0   0.6088   age135_m72            0.0000     7.9194E+01     6.9455   0.5476   118.3150
141      0.0000     0.0000E+00    0.0000E+00    1.278050E+09  0.05000  9.435E-05    0   0.5924   age138_m72            0.0000     5.7743E+01     6.0000   0.1689   113.6870
142      0.0000     0.0000E+00    0.0000E+00    1.434000E+09  0.05000  7.827E-05    0   0.5847   age139_m72            0.0000     4.9252E+01     5.5523   0.1927   112.5938
143      0.0000     0.0000E+00    0.0000E+00    2.500000E+09  0.05000  3.759E-05    0   0.5583   age150_m72            0.0000     6.1544E+01     6.5592  -0.1275   111.3397
144      0.0000     0.0000E+00    0.0000E+00    4.250000E+09  0.05000  1.842E-05    0   0.5374   age158_m72            0.0000     8.7221E+01     7.9017  -0.4630   111.3403
145      0.0000     0.0000E+00    0.0000E+00    6.250000E+09  0.05000  1.207E-05    0   0.5242   age166_m72            0.0000     1.2221E+02     9.3848  -0.7257   111.7498
146      0.0000     0.0000E+00    0.0000E+00    7.500000E+09  0.05000  9.993E-06    0   0.5183   age171_m72            0.0000     1.2712E+02     9.5665  -0.7752   111.8633
147      0.0000     0.0000E+00    0.0000E+00    1.000000E+10  0.05000  7.291E-06    0   0.5081   age181_m72            0.0000     1.5715E+02    10.6350  -0.9256   112.6464
148      0.0000     0.0000E+00    0.0000E+00    1.300000E+10  0.05000  5.316E-06    0   0.5018   age193_m72            0.0000     2.2038E+02    11.6591  -1.0000   110.7350
149      0.0000     0.0000E+00    0.0000E+00    1.500000E+10  0.05000  4.497E-06    0   0.4972   age201_m72            0.0000     2.6819E+02    12.2153  -1.0000   109.6128
150      0.0000     0.0000E+00    0.0000E+00    1.800000E+10  0.05000  3.739E-06    0   0.4924   age213_m72            0.0000     3.4573E+02    13.1248  -1.0000   107.5154


## Synthesis Results - Average & Chains ##

# j      x_j: min, <> & last-chain-values for 1 ...  7 chains
  1      0.0000      0.1947      0.1364      0.0000      0.2960      0.2440      0.1760      0.2729      0.2109
  2      4.2355      0.5132      0.5816      1.0356      0.6181      0.3320      0.6366      0.5349      0.5133
  3      2.9130      1.2253      1.6434      1.4465      1.4202      1.1713      1.1836      1.2383      1.5011
  4      0.0000      0.0871      0.0000      0.0727      0.0000      0.2321      0.1218      0.0000      0.0000
  5      0.0000      0.0170      0.0000      0.0000      0.0000      0.0392      0.0134      0.1458      0.0000
  6      0.0000      0.0303      0.1743      0.0546      0.0053      0.0957      0.0000      0.0000      0.0000
  7      0.0000      0.0197      0.0000      0.0000      0.0000      0.0000      0.0000      0.0000      0.0460
  8      0.0000      0.0297      0.0000      0.0000      0.0000      0.0000      0.0000      0.0633      0.0000
  9      0.0000      0.0284      0.0000      0.0000      0.0000      0.0202      0.1103      0.0000      0.0000
 10      0.0000      0.0178      0.0000      0.0000      0.0000      0.0000      0.0995      0.0000      0.0000
 11      0.0000      0.0138      0.0000      0.0000      0.0000      0.0000      0.0000      0.0000      0.0000
 12      0.0000      0.0065      0.0000      0.0000      0.0000      0.0000      0.0687      0.0000      0.0000
 13      0.0000      0.0020      0.0000      0.0000      0.0000      0.0000      0.0000      0.0000      0.0000
 14      0.0000      0.0021      0.0000      0.0000      0.0000      0.0000      0.0000      0.0000      0.0000
 15      0.0000      0.0032      0.0000      0.0000      0.0000      0.0000      0.0011      0.0000      0.0000
 16      0.0000      0.0040      0.0000      0.0000      0.0000      0.0000      0.0000      0.0000      0.0000
 17      0.0000      0.0056      0.0000      0.0000      0.0000      0.0000      0.0025      0.0000      0.0000
 18      0.0000      0.0063      0.0000      0.0000      0.0000      0.0000      0.0000      0.0000      0.0000
 19      0.0000      0.0164      0.0000      0.0000      0.0000      0.0000      0.0000      0.0000      0.0000
 20      0.0000      0.0336      0.0200      0.0981      0.0000      0.0000      0.0000      0.0000      0.0000
 21      0.0000      0.0494      0.0000      0.1182      0.0000      0.0500      0.0000      0.0000      0.0000
 22      0.0000      0.0609      0.0000      0.0000      0.0000      0.0000      0.0160      0.0000      0.2618
 23      0.0000      0.0880      0.0000      0.0000      0.0377      0.0000      0.0714      0.1921      0.0000
 24      0.0000      0.0500      0.0000      0.0000      0.0000      0.0000      0.0000      0.0000      0.3792
 25      0.0000      0.1140      0.0000      0.0000      0.0000      0.3712      0.0042      0.0727      0.2186
 26      0.0000      0.1204      0.0000      0.1804      0.0000      0.1537      0.2864      0.1352      0.0990
 27      0.0000      0.0299      0.0000      0.0000      0.0038      0.0626      0.0000      0.0622      0.0000
 28      0.0000      0.0779      0.1356      0.0000      0.0000      0.1954      0.2810      0.0000      0.1479
 29      0.0000      0.0395      0.0000      0.0229      0.0000      0.0000      0.0386      0.0718      0.0000
 30      0.0000      0.0288      0.1358      0.0000      0.0000      0.0000      0.0000      0.0000      0.0000
 31      0.0000      0.0243      0.0000      0.0000      0.0000      0.0000      0.0000      0.0000      0.0000
 32      0.0000      0.0224      0.0000      0.0000      0.0000      0.0000      0.0000      0.0464      0.0218
 33      0.0000      0.0225      0.0000      0.0000      0.0000      0.0000      0.0000      0.0000      0.0000
 34      0.0000      0.0116      0.0000      0.0000      0.0000      0.0000      0.0000      0.1894      0.0000
 35      0.0000      0.0155      0.0000      0.0000      0.0517      0.0000      0.0000      0.0000      0.0000
 36      0.0000      0.0068      0.0000      0.0000      0.0066      0.0000      0.0000      0.0000      0.0000
 37      0.0000      0.0052      0.0023      0.0000      0.0000      0.0000      0.0000      0.0000      0.0000
 38      0.0000      0.0020      0.0000      0.0009      0.0000      0.0000      0.0000      0.0000      0.0000
 39      0.0000      0.0024      0.0000      0.0000      0.0000      0.0000      0.0000      0.0000      0.0037
 40      0.0000      0.0038      0.0055      0.0000      0.0000      0.0000      0.0000      0.0000      0.0000
 41      0.0000      0.0093      0.0000      0.0000      0.0000      0.0000      0.0000      0.0000      0.0000
 42      0.0000      0.0083      0.0000      0.0000      0.0000      0.0000      0.0000      0.0000      0.0000
 43      0.0000      0.0204      0.0000      0.0000      0.0078      0.0000      0.0013      0.0000      0.0000
 44      0.0000      0.0560      0.0000      0.0349      0.0000      0.1091      0.0000      0.0000      0.0000
 45      0.0000      0.7992      1.0713      0.9515      0.6318      0.9702      1.6921      0.6597      0.0247
 46      7.6593      8.5922      8.5240      9.0564      9.1368      9.1750      8.4621      8.9622      9.1772
 47     18.9039     18.6614     19.1488     18.8684     19.0470     18.9154     18.2244     18.9569     18.4606
 48      0.0000      0.1547      0.2078      0.0000      0.0000      0.0000      0.0000      0.0000      0.1883
 49      0.0000      0.0918      0.0732      0.0000      0.0000      0.0000      0.1678      0.0000      0.1794
 50      0.0000      0.0865      0.0348      0.0000      0.0000      0.0000      0.0000      0.0460      0.0251
 51      0.0000      0.0128      0.0325      0.0070      0.0000      0.0000      0.0120      0.0000      0.0000
 52      0.0000      0.0817      0.0000      0.0000      0.0000      0.0000      0.4569      0.0000      0.0000
 53      0.0000      0.1769      0.1852      0.1538      0.2497      0.0000      0.2664      0.2033      0.2955
 54      0.0001      0.0569      0.4176      0.1781      0.1474      0.0000      0.0000      0.2115      0.0000
 55      0.0000      0.0658      0.0000      0.2422      0.0000      0.0607      0.0000      0.0000      0.1612
 56      0.0000      0.0503      0.0000      0.0000      0.0000      0.0000      0.0000      0.1536      0.1651
 57      0.0000      0.0264      0.0000      0.0079      0.0636      0.0000      0.0340      0.0000      0.0000
 58      0.0000      0.0142      0.0000      0.0055      0.0000      0.0000      0.0000      0.0000      0.0000
 59      0.0000      0.0190      0.0474      0.0000      0.0000      0.0071      0.0000      0.0000      0.0000
 60      0.0000      0.0061      0.0000      0.0154      0.0000      0.0000      0.0000      0.0000      0.0069
 61      0.0000      0.0047      0.0000      0.0000      0.0000      0.0000      0.0000      0.0000      0.0000
 62      0.0000      0.0048      0.0000      0.0000      0.0000      0.0000      0.0000      0.0000      0.0283
 63      0.0000      0.0030      0.0082      0.0000      0.0379      0.0000      0.0000      0.0000      0.0000
 64      0.0000      0.0041      0.0000      0.0000      0.0000      0.0000      0.0000      0.0187      0.0000
 65      0.0000      0.0068      0.0000      0.1254      0.0000      0.0000      0.0000      0.1183      0.0000
 66      0.0000      0.0123      0.0325      0.0000      0.0000      0.0000      0.0000      0.0000      0.0000
 67      0.0000      0.0177      0.0000      0.0000      0.0000      0.0000      0.0000      0.0000      0.0000
 68      0.0000      0.0530      0.0000      0.0000      0.0000      0.0000      0.0649      0.0000      0.0000
 69      0.0001      0.1300      0.2172      0.1384      0.1959      0.0000      0.0000      0.0000      0.0936
 70      0.0000      0.2702      0.0000      0.2517      0.8808      0.3319      0.0000      0.0000      0.0000
 71      0.0001      0.3586      0.3764      0.5152      0.2357      1.3742      0.6976      0.0000      0.0000
 72     22.4791     19.7377     20.5645     20.0848     19.3312     19.9837     19.7669     20.1445     19.7085
 73     15.9264     14.6296     14.3662     14.6095     14.8276     13.7267     14.4890     14.2566     13.6888
 74      2.9320      9.6440      9.5004      9.3897      9.0364      9.2037      8.1878      8.9529      9.8134
 75      0.0000      0.1875      0.0000      0.0000      0.1520      0.0673      0.0000      0.0000      0.0109
 76      0.0000      0.0391      0.0020      0.0484      0.0000      0.0774      0.0258      0.1744      0.0000
 77      0.0000      0.0320      0.0976      0.0000      0.0650      0.0000      0.0000      0.0000      0.0000
 78      0.0000      0.0470      0.0000      0.0528      0.0000      0.0000      0.0000      0.0000      0.0000
 79      0.0000      0.0197      0.0878      0.0000      0.0000      0.0000      0.0000      0.0010      0.0000
 80      0.0000      0.0237      0.0000      0.0087      0.0000      0.0000      0.0000      0.0000      0.0000
 81      0.0000      0.0193      0.0113      0.0000      0.0000      0.0451      0.0000      0.0973      0.0000
 82      0.0000      0.0180      0.0000      0.0000      0.0000      0.0000      0.0000      0.0000      0.0000
 83      0.0000      0.0169      0.0000      0.0000      0.0000      0.0723      0.0000      0.0000      0.0000
 84      0.0000      0.0117      0.0029      0.0000      0.0000      0.0000      0.0000      0.0048      0.0000
 85      0.0000      0.0063      0.0000      0.0000      0.0179      0.0000      0.0000      0.0000      0.0000
 86      0.0000      0.0068      0.0000      0.0000      0.0000      0.0015      0.0000      0.0000      0.0000
 87      0.0000      0.0033      0.0000      0.0000      0.0203      0.0000      0.0000      0.0000      0.0007
 88      0.0000      0.0027      0.0000      0.0000      0.0000      0.0000      0.0000      0.0000      0.0000
 89      0.0000      0.0031      0.0000      0.0000      0.0000      0.0000      0.0000      0.0000      0.0000
 90      0.0000      0.0053      0.0000      0.0000      0.0000      0.0000      0.0000      0.0000      0.0000
 91      0.0000      0.0138      0.0000      0.0000      0.0000      0.0000      0.0000      0.0000      0.0000
 92      0.0000      0.0148      0.0000      0.0000      0.0000      0.0000      0.0000      0.0000      0.0000
 93      0.0000      0.0521      0.0000      0.0000      0.1036      0.0715      0.1189      0.0034      0.0000
 94      0.0001      0.2532      0.2359      0.0000      0.9415      0.1818      0.3063      0.4851      0.0000
 95      0.0026      1.1535      1.2844      1.4145      1.4131      1.0912      2.0010      1.7131      1.3814
 96      0.0995      1.1554      1.6561      0.8920      1.3725      0.9781      1.4418      0.8143      1.6846
 97     11.7469      7.4938      7.3968      8.1286      7.4092      7.6642      7.9859      8.3328      9.0725
 98      6.2158      4.0891      4.1096      4.3405      4.1793      5.0585      4.4160      4.6540      4.5515
 99      6.5253      5.5379      6.0538      5.4525      5.6542      6.3461      6.3399      5.7344      6.4285
100      1.4922      1.5392      1.9080      1.8073      2.0308      1.5151      2.2032      1.7324      1.1939
101      0.0000      0.0234      0.0342      0.0584      0.0000      0.0000      0.1322      0.0000      0.0000
102      0.0000      0.0525      0.0000      0.0000      0.0449      0.0242      0.0226      0.0000      0.1533
103      0.0000      0.0561      0.0362      0.0162      0.0505      0.0000      0.0000      0.0439      0.2563
104      0.0000      0.0290      0.0000      0.0000      0.0000      0.0000      0.0000      0.0000      0.0000
105      0.0000      0.0195      0.1305      0.0000      0.0000      0.0000      0.0000      0.0000      0.0000
106      0.0000      0.0402      0.0000      0.0000      0.5736      0.0000      0.0000      0.0000      0.0000
107      0.0000      0.0147      0.0365      0.0000      0.0000      0.0457      0.0000      0.2674      0.0000
108      0.0000      0.0116      0.0000      0.0176      0.0000      0.0000      0.0000      0.0000      0.0000
109      0.0000      0.0046      0.0000      0.0000      0.0000      0.0000      0.0000      0.0000      0.0000
110      0.0000      0.0037      0.0000      0.0000      0.0000      0.0000      0.0000      0.0000      0.0000
111      0.0000      0.0024      0.0000      0.0000      0.0000      0.0000      0.0000      0.0000      0.0000
112      0.0000      0.0029      0.0000      0.0000      0.0000      0.0000      0.0074      0.0000      0.0000
113      0.0000      0.0019      0.0000      0.0000      0.0000      0.0000      0.0036      0.0000      0.0000
114      0.0000      0.0045      0.0000      0.0000      0.0000      0.0000      0.0000      0.0000      0.0000
115      0.0000      0.0057      0.0000      0.0000      0.0000      0.0000      0.0000      0.0000      0.0000
116      0.0000      0.0131      0.1193      0.0000      0.0000      0.0000      0.0000      0.0000      0.0000
117      0.0000      0.0115      0.0000      0.0000      0.0000      0.0000      0.0000      0.0000      0.0000
118      0.0000      0.0356      0.0099      0.0000      0.0000      0.0000      0.0000      0.0000      0.0051
119      0.0000      0.0649      0.0000      0.0551      0.0769      0.0000      0.0000      0.0000      0.0000
120      0.0000      0.1018      0.0000      0.0000      0.0042      0.2488      0.0217      0.0000      0.0000
121      0.0000      0.1072      0.0000      0.0000      0.0000      0.1100      0.0000      0.0618      0.0000
122      0.0000      0.1584      0.0069      0.2416      0.0000      0.0091      0.0000      0.0206      0.0372
123      0.0000      0.1660      0.0000      0.0000      0.1093      0.0000      0.0000      0.0335      0.0000
124      0.0000      0.1039      0.0000      0.1164      0.0609      0.2494      0.1673      0.0000      0.0000
125      0.0000      0.5688      0.2941      0.5880      0.0000      0.1160      0.3906      0.9894      0.4774
126      0.0000      0.0433      0.0000      0.1973      0.0000      0.0022      0.0000      0.0000      0.0000
127      0.0000      0.0429      0.0000      0.0000      0.0000      0.1458      0.0000      0.0000      0.2261
128      0.0000      0.0538      0.0000      0.0999      0.2684      0.0416      0.0000      0.0715      0.0000
129      0.0000      0.0185      0.0000      0.0000      0.0000      0.0565      0.0000      0.0000      0.1408
130      0.0000      0.0214      0.0000      0.0426      0.0211      0.1649      0.0000      0.0000      0.0000
131      0.0000      0.0118      0.0000      0.0000      0.0000      0.0000      0.0000      0.0226      0.0000
132      0.0000      0.0055      0.0000      0.0000      0.0000      0.0000      0.0000      0.0000      0.0000
133      0.0000      0.0070      0.0059      0.0000      0.0000      0.0000      0.0000      0.0000      0.0000
134      0.0000      0.0030      0.0000      0.0000      0.0000      0.0000      0.0000      0.0000      0.0000
135      0.0000      0.0025      0.0000      0.0000      0.0000      0.0000      0.0000      0.0000      0.0000
136      0.0000      0.0031      0.0000      0.0000      0.0000      0.0000      0.0000      0.0000      0.0000
137      0.0000      0.0026      0.0000      0.0000      0.0000      0.0000      0.0000      0.0000      0.0000
138      0.0000      0.0016      0.0000      0.0046      0.0000      0.0000      0.0000      0.0000      0.0000
139      0.0000      0.0025      0.0000      0.0000      0.0000      0.0000      0.0000      0.0006      0.0000
140      0.0000      0.0145      0.0000      0.0000      0.0000      0.0000      0.0000      0.0000      0.1138
141      0.0000      0.0288      0.0000      0.0000      0.0000      0.0000      0.0000      0.0182      0.0000
142      0.0000      0.0439      0.0000      0.0000      0.0000      0.0000      0.0072      0.0446      0.0000
143      0.0000      0.1409      0.0000      0.0000      0.0000      0.0000      0.0000      0.0000      0.0000
144      0.0000      0.0699      0.0000      0.0000      0.0000      0.0000      0.0000      0.2527      0.0000
145      0.0000      0.2299      0.0000      0.0000      0.2077      0.0000      0.0000      0.0000      0.0000
146      0.0000      0.0928      0.0000      0.0316      0.0277      0.0000      0.0380      0.0000      0.0954
147      0.0000      0.0608      0.0000      0.0289      0.1466      0.0000      0.0000      0.0000      0.0000
148      0.0000      0.0450      0.0000      0.0000      0.0014      0.0000      0.0000      0.0000      0.0000
149      0.0000      0.1318      0.0000      0.0091      0.0000      0.0000      0.0559      0.0000      0.0000
150      0.0000      0.0205      0.0000      0.0000      0.0000      0.0000      0.0000      0.0000      0.0000

# j      m_j: min, <> & last-chain-values for 1 ...  7 chains
  1  0.0000E+00  1.0742E-03  7.6876E-04  0.0000E+00  1.6743E-03  1.3655E-03  9.7902E-04  1.5101E-03  1.1715E-03
  2  4.1559E-03  4.8545E-04  5.6215E-04  9.9158E-04  5.9957E-04  3.1858E-04  6.0703E-04  5.0747E-04  4.8893E-04
  3  6.7463E-03  2.7359E-03  3.7488E-03  3.2689E-03  3.2514E-03  2.6528E-03  2.6641E-03  2.7729E-03  3.3752E-03
  4  0.0000E+00  3.6537E-04  0.0000E+00  3.0869E-04  0.0000E+00  9.8818E-04  5.1541E-04  0.0000E+00  0.0000E+00
  5  0.0000E+00  8.9943E-05  0.0000E+00  0.0000E+00  0.0000E+00  2.1031E-04  7.1345E-05  7.7282E-04  0.0000E+00
  6  0.0000E+00  1.9039E-04  1.1197E-03  3.4752E-04  3.3938E-05  6.1030E-04  0.0000E+00  0.0000E+00  0.0000E+00
  7  0.0000E+00  1.5638E-04  0.0000E+00  0.0000E+00  0.0000E+00  0.0000E+00  0.0000E+00  0.0000E+00  3.6711E-04
  8  0.0000E+00  2.6648E-04  0.0000E+00  0.0000E+00  0.0000E+00  0.0000E+00  0.0000E+00  5.6952E-04  0.0000E+00
  9  0.0000E+00  2.7401E-04  0.0000E+00  0.0000E+00  0.0000E+00  1.9759E-04  1.0729E-03  0.0000E+00  0.0000E+00
 10  0.0000E+00  1.9656E-04  0.0000E+00  0.0000E+00  0.0000E+00  0.0000E+00  1.1095E-03  0.0000E+00  0.0000E+00
 11  0.0000E+00  1.8298E-04  0.0000E+00  0.0000E+00  0.0000E+00  0.0000E+00  0.0000E+00  0.0000E+00  0.0000E+00
 12  0.0000E+00  1.4962E-04  0.0000E+00  0.0000E+00  0.0000E+00  0.0000E+00  1.6006E-03  0.0000E+00  0.0000E+00
 13  0.0000E+00  5.3414E-05  0.0000E+00  0.0000E+00  0.0000E+00  0.0000E+00  0.0000E+00  0.0000E+00  0.0000E+00
 14  0.0000E+00  7.8415E-05  0.0000E+00  0.0000E+00  0.0000E+00  0.0000E+00  0.0000E+00  0.0000E+00  0.0000E+00
 15  0.0000E+00  1.8406E-04  0.0000E+00  0.0000E+00  0.0000E+00  0.0000E+00  6.1774E-05  0.0000E+00  0.0000E+00
 16  0.0000E+00  3.3751E-04  0.0000E+00  0.0000E+00  0.0000E+00  0.0000E+00  0.0000E+00  0.0000E+00  0.0000E+00
 17  0.0000E+00  5.1803E-04  0.0000E+00  0.0000E+00  0.0000E+00  0.0000E+00  2.3321E-04  0.0000E+00  0.0000E+00
 18  0.0000E+00  9.4516E-04  0.0000E+00  0.0000E+00  0.0000E+00  0.0000E+00  0.0000E+00  0.0000E+00  0.0000E+00
 19  0.0000E+00  3.7364E-03  0.0000E+00  0.0000E+00  0.0000E+00  0.0000E+00  0.0000E+00  0.0000E+00  0.0000E+00
 20  0.0000E+00  1.0965E-02  6.6684E-03  3.2447E-02  0.0000E+00  0.0000E+00  0.0000E+00  0.0000E+00  0.0000E+00
 21  0.0000E+00  1.8690E-02  0.0000E+00  4.5202E-02  0.0000E+00  1.9182E-02  0.0000E+00  0.0000E+00  0.0000E+00
 22  0.0000E+00  2.9706E-02  0.0000E+00  0.0000E+00  0.0000E+00  0.0000E+00  7.8705E-03  0.0000E+00  1.2855E-01
 23  0.0000E+00  5.4403E-02  0.0000E+00  0.0000E+00  2.3888E-02  0.0000E+00  4.4519E-02  1.1908E-01  0.0000E+00
 24  0.0000E+00  3.5332E-02  0.0000E+00  0.0000E+00  0.0000E+00  0.0000E+00  0.0000E+00  0.0000E+00  2.6995E-01
 25  0.0000E+00  9.6858E-02  0.0000E+00  0.0000E+00  0.0000E+00  3.1974E-01  3.6330E-03  6.1914E-02  1.8691E-01
 26  0.0000E+00  6.4084E-04  0.0000E+00  9.7160E-04  0.0000E+00  8.2981E-04  1.5364E-03  7.2162E-04  5.3046E-04
 27  0.0000E+00  3.3891E-05  0.0000E+00  0.0000E+00  4.3617E-06  7.1912E-05  0.0000E+00  7.0687E-05  0.0000E+00
 28  0.0000E+00  1.7268E-04  3.0726E-04  0.0000E+00  0.0000E+00  4.3960E-04  6.2828E-04  0.0000E+00  3.3026E-04
 29  0.0000E+00  1.3663E-04  0.0000E+00  8.0260E-05  0.0000E+00  0.0000E+00  1.3464E-04  2.4898E-04  0.0000E+00
 30  0.0000E+00  1.2362E-04  5.9617E-04  0.0000E+00  0.0000E+00  0.0000E+00  0.0000E+00  0.0000E+00  0.0000E+00
 31  0.0000E+00  1.2072E-04  0.0000E+00  0.0000E+00  0.0000E+00  0.0000E+00  0.0000E+00  0.0000E+00  0.0000E+00
 32  0.0000E+00  1.2337E-04  0.0000E+00  0.0000E+00  0.0000E+00  0.0000E+00  0.0000E+00  2.5575E-04  1.2050E-04
 33  0.0000E+00  1.7558E-04  0.0000E+00  0.0000E+00  0.0000E+00  0.0000E+00  0.0000E+00  0.0000E+00  0.0000E+00
 34  0.0000E+00  1.0961E-04  0.0000E+00  0.0000E+00  0.0000E+00  0.0000E+00  0.0000E+00  1.8021E-03  0.0000E+00
 35  0.0000E+00  1.7739E-04  0.0000E+00  0.0000E+00  6.0791E-04  0.0000E+00  0.0000E+00  0.0000E+00  0.0000E+00
 36  0.0000E+00  1.0015E-04  0.0000E+00  0.0000E+00  9.9116E-05  0.0000E+00  0.0000E+00  0.0000E+00  0.0000E+00
 37  0.0000E+00  9.4491E-05  4.2030E-05  0.0000E+00  0.0000E+00  0.0000E+00  0.0000E+00  0.0000E+00  0.0000E+00
 38  0.0000E+00  5.1256E-05  0.0000E+00  2.3779E-05  0.0000E+00  0.0000E+00  0.0000E+00  0.0000E+00  0.0000E+00
 39  0.0000E+00  9.2524E-05  0.0000E+00  0.0000E+00  0.0000E+00  0.0000E+00  0.0000E+00  0.0000E+00  1.4035E-04
 40  0.0000E+00  2.5574E-04  3.7786E-04  0.0000E+00  0.0000E+00  0.0000E+00  0.0000E+00  0.0000E+00  0.0000E+00
 41  0.0000E+00  8.3313E-04  0.0000E+00  0.0000E+00  0.0000E+00  0.0000E+00  0.0000E+00  0.0000E+00  0.0000E+00
 42  0.0000E+00  8.2669E-04  0.0000E+00  0.0000E+00  0.0000E+00  0.0000E+00  0.0000E+00  0.0000E+00  0.0000E+00
 43  0.0000E+00  3.3253E-03  0.0000E+00  0.0000E+00  1.3016E-03  0.0000E+00  2.1249E-04  0.0000E+00  0.0000E+00
 44  0.0000E+00  1.4430E-02  0.0000E+00  9.1041E-03  0.0000E+00  2.8524E-02  0.0000E+00  0.0000E+00  0.0000E+00
 45  0.0000E+00  2.8709E-01  3.9314E-01  3.4593E-01  2.3271E-01  3.5349E-01  6.1270E-01  2.3765E-01  8.9359E-03
 46  3.3994E+00  3.6767E+00  3.7264E+00  3.9221E+00  4.0088E+00  3.9823E+00  3.6500E+00  3.8459E+00  3.9543E+00
 47  1.0996E+01  1.0466E+01  1.0972E+01  1.0710E+01  1.0953E+01  1.0761E+01  1.0303E+01  1.0662E+01  1.0425E+01
 48  0.0000E+00  1.0332E-01  1.4181E-01  0.0000E+00  0.0000E+00  0.0000E+00  0.0000E+00  0.0000E+00  1.2661E-01
 49  0.0000E+00  6.8551E-02  5.5895E-02  0.0000E+00  0.0000E+00  0.0000E+00  1.2637E-01  0.0000E+00  1.3493E-01
 50  0.0000E+00  7.5989E-02  3.1216E-02  0.0000E+00  0.0000E+00  0.0000E+00  0.0000E+00  4.0567E-02  2.2174E-02
 51  0.0000E+00  5.1931E-05  1.3424E-04  2.8551E-05  0.0000E+00  0.0000E+00  4.8900E-05  0.0000E+00  0.0000E+00
 52  0.0000E+00  9.0247E-05  0.0000E+00  0.0000E+00  0.0000E+00  0.0000E+00  5.0899E-04  0.0000E+00  0.0000E+00
 53  0.0000E+00  2.9815E-04  3.1899E-04  2.6247E-04  4.3153E-04  0.0000E+00  4.5260E-04  3.4364E-04  5.0154E-04
 54  1.7308E-07  9.1507E-05  6.8553E-04  2.8975E-04  2.4285E-04  0.0000E+00  0.0000E+00  3.4081E-04  0.0000E+00
 55  0.0000E+00  1.5592E-04  0.0000E+00  5.8119E-04  0.0000E+00  1.4603E-04  0.0000E+00  0.0000E+00  3.8478E-04
 56  0.0000E+00  1.5781E-04  0.0000E+00  0.0000E+00  0.0000E+00  0.0000E+00  0.0000E+00  4.8343E-04  5.2190E-04
 57  0.0000E+00  1.3281E-04  0.0000E+00  4.0026E-05  3.2804E-04  0.0000E+00  1.7273E-04  0.0000E+00  0.0000E+00
 58  0.0000E+00  1.0342E-04  0.0000E+00  4.0404E-05  0.0000E+00  0.0000E+00  0.0000E+00  0.0000E+00  0.0000E+00
 59  0.0000E+00  1.9121E-04  4.8874E-04  0.0000E+00  0.0000E+00  7.2727E-05  0.0000E+00  0.0000E+00  0.0000E+00
 60  0.0000E+00  6.8429E-05  0.0000E+00  1.7528E-04  0.0000E+00  0.0000E+00  0.0000E+00  0.0000E+00  7.8309E-05
 61  0.0000E+00  6.6804E-05  0.0000E+00  0.0000E+00  0.0000E+00  0.0000E+00  0.0000E+00  0.0000E+00  0.0000E+00
 62  0.0000E+00  8.6993E-05  0.0000E+00  0.0000E+00  0.0000E+00  0.0000E+00  0.0000E+00  0.0000E+00  5.1755E-04
 63  0.0000E+00  8.3336E-05  2.3091E-04  0.0000E+00  1.0726E-03  0.0000E+00  0.0000E+00  0.0000E+00  0.0000E+00
 64  0.0000E+00  1.8476E-04  0.0000E+00  0.0000E+00  0.0000E+00  0.0000E+00  0.0000E+00  8.5073E-04  0.0000E+00
 65  0.0000E+00  5.1901E-04  0.0000E+00  9.7337E-03  0.0000E+00  0.0000E+00  0.0000E+00  9.1000E-03  0.0000E+00
 66  0.0000E+00  1.2061E-03  3.2610E-03  0.0000E+00  0.0000E+00  0.0000E+00  0.0000E+00  0.0000E+00  0.0000E+00
 67  0.0000E+00  2.3801E-03  0.0000E+00  0.0000E+00  0.0000E+00  0.0000E+00  0.0000E+00  0.0000E+00  0.0000E+00
 68  0.0000E+00  1.3274E-02  0.0000E+00  0.0000E+00  0.0000E+00  0.0000E+00  1.6390E-02  0.0000E+00  0.0000E+00
 69  2.8214E-05  5.6175E-02  9.5854E-02  6.0508E-02  8.6785E-02  0.0000E+00  0.0000E+00  0.0000E+00  4.0700E-02
 70  0.0000E+00  1.6245E-01  0.0000E+00  1.5318E-01  5.4303E-01  2.0243E-01  0.0000E+00  0.0000E+00  0.0000E+00
 71  8.6995E-05  2.5439E-01  2.7277E-01  3.6988E-01  1.7143E-01  9.8882E-01  4.9886E-01  0.0000E+00  0.0000E+00
 72  2.1773E+01  1.8432E+01  1.9620E+01  1.8983E+01  1.8510E+01  1.8929E+01  1.8607E+01  1.8865E+01  1.8533E+01
 73  1.9459E+01  1.7234E+01  1.7290E+01  1.7418E+01  1.7910E+01  1.6402E+01  1.7205E+01  1.6842E+01  1.6238E+01
 74  3.9969E+00  1.2675E+01  1.2756E+01  1.2490E+01  1.2178E+01  1.2270E+01  1.0847E+01  1.1800E+01  1.2987E+01
 75  0.0000E+00  2.8336E-01  0.0000E+00  0.0000E+00  2.3551E-01  1.0310E-01  0.0000E+00  0.0000E+00  1.6613E-02
 76  0.0000E+00  1.3672E-04  7.0152E-06  1.7143E-04  0.0000E+00  2.7480E-04  9.1014E-05  6.1225E-04  0.0000E+00
 77  0.0000E+00  4.5617E-05  1.4219E-04  0.0000E+00  9.4951E-05  0.0000E+00  0.0000E+00  0.0000E+00  0.0000E+00
 78  0.0000E+00  7.5069E-05  0.0000E+00  8.5239E-05  0.0000E+00  0.0000E+00  0.0000E+00  0.0000E+00  0.0000E+00
 79  0.0000E+00  3.7905E-05  1.7230E-04  0.0000E+00  0.0000E+00  0.0000E+00  0.0000E+00  2.0043E-06  0.0000E+00
 80  0.0000E+00  5.8706E-05  0.0000E+00  2.1848E-05  0.0000E+00  0.0000E+00  0.0000E+00  0.0000E+00  0.0000E+00
 81  0.0000E+00  6.3256E-05  3.7842E-05  0.0000E+00  0.0000E+00  1.4968E-04  0.0000E+00  3.1905E-04  0.0000E+00
 82  0.0000E+00  7.9400E-05  0.0000E+00  0.0000E+00  0.0000E+00  0.0000E+00  0.0000E+00  0.0000E+00  0.0000E+00
 83  0.0000E+00  1.0954E-04  0.0000E+00  0.0000E+00  0.0000E+00  4.7467E-04  0.0000E+00  0.0000E+00  0.0000E+00
 84  0.0000E+00  1.0520E-04  2.6879E-05  0.0000E+00  0.0000E+00  0.0000E+00  0.0000E+00  4.3323E-05  0.0000E+00
 85  0.0000E+00  6.8978E-05  0.0000E+00  0.0000E+00  1.9990E-04  0.0000E+00  0.0000E+00  0.0000E+00  0.0000E+00
 86  0.0000E+00  1.0073E-04  0.0000E+00  0.0000E+00  0.0000E+00  2.2835E-05  0.0000E+00  0.0000E+00  0.0000E+00
 87  0.0000E+00  6.5029E-05  0.0000E+00  0.0000E+00  4.0958E-04  0.0000E+00  0.0000E+00  0.0000E+00  1.4375E-05
 88  0.0000E+00  8.1170E-05  0.0000E+00  0.0000E+00  0.0000E+00  0.0000E+00  0.0000E+00  0.0000E+00  0.0000E+00
 89  0.0000E+00  1.5422E-04  0.0000E+00  0.0000E+00  0.0000E+00  0.0000E+00  0.0000E+00  0.0000E+00  0.0000E+00
 90  0.0000E+00  4.9156E-04  0.0000E+00  0.0000E+00  0.0000E+00  0.0000E+00  0.0000E+00  0.0000E+00  0.0000E+00
 91  0.0000E+00  1.6354E-03  0.0000E+00  0.0000E+00  0.0000E+00  0.0000E+00  0.0000E+00  0.0000E+00  0.0000E+00
 92  0.0000E+00  2.3425E-03  0.0000E+00  0.0000E+00  0.0000E+00  0.0000E+00  0.0000E+00  0.0000E+00  0.0000E+00
 93  0.0000E+00  1.6757E-02  0.0000E+00  0.0000E+00  3.4169E-02  2.3333E-02  3.8565E-02  1.1049E-03  0.0000E+00
 94  4.6077E-05  1.4608E-01  1.3906E-01  0.0000E+00  5.5704E-01  1.0638E-01  1.7814E-01  2.8070E-01  0.0000E+00
 95  2.0978E-03  8.9663E-01  1.0200E+00  1.1128E+00  1.1263E+00  8.6034E-01  1.5679E+00  1.3354E+00  1.0813E+00
 96  9.6831E-02  1.0836E+00  1.5868E+00  8.4662E-01  1.3198E+00  9.3041E-01  1.3630E+00  7.6589E-01  1.5909E+00
 97  1.4889E+01  9.1574E+00  9.2344E+00  1.0053E+01  9.2836E+00  9.4998E+00  9.8370E+00  1.0212E+01  1.1164E+01
 98  1.0103E+01  6.4081E+00  6.5794E+00  6.8842E+00  6.7154E+00  8.0409E+00  6.9757E+00  7.3140E+00  7.1823E+00
 99  1.2090E+01  9.8926E+00  1.1048E+01  9.8578E+00  1.0357E+01  1.1499E+01  1.1416E+01  1.0273E+01  1.1563E+01
100  3.1831E+00  3.1657E+00  4.0089E+00  3.7620E+00  4.2826E+00  3.1608E+00  4.5675E+00  3.5732E+00  2.4726E+00
101  0.0000E+00  5.3031E-05  7.9075E-05  1.3385E-04  0.0000E+00  0.0000E+00  3.0168E-04  0.0000E+00  0.0000E+00
102  0.0000E+00  6.1737E-05  0.0000E+00  0.0000E+00  5.4142E-05  2.8844E-05  2.6791E-05  0.0000E+00  1.8158E-04
103  0.0000E+00  7.3110E-05  4.8249E-05  2.1312E-05  6.7491E-05  0.0000E+00  0.0000E+00  5.7413E-05  3.3642E-04
104  0.0000E+00  4.9738E-05  0.0000E+00  0.0000E+00  0.0000E+00  0.0000E+00  0.0000E+00  0.0000E+00  0.0000E+00
105  0.0000E+00  7.0443E-05  4.8254E-04  0.0000E+00  0.0000E+00  0.0000E+00  0.0000E+00  0.0000E+00  0.0000E+00
106  0.0000E+00  1.5683E-04  0.0000E+00  0.0000E+00  2.2920E-03  0.0000E+00  0.0000E+00  0.0000E+00  0.0000E+00
107  0.0000E+00  7.6643E-05  1.9403E-04  0.0000E+00  0.0000E+00  2.4122E-04  0.0000E+00  1.3950E-03  0.0000E+00
108  0.0000E+00  1.0086E-04  0.0000E+00  1.5449E-04  0.0000E+00  0.0000E+00  0.0000E+00  0.0000E+00  0.0000E+00
109  0.0000E+00  4.7722E-05  0.0000E+00  0.0000E+00  0.0000E+00  0.0000E+00  0.0000E+00  0.0000E+00  0.0000E+00
110  0.0000E+00  4.6064E-05  0.0000E+00  0.0000E+00  0.0000E+00  0.0000E+00  0.0000E+00  0.0000E+00  0.0000E+00
111  0.0000E+00  4.1139E-05  0.0000E+00  0.0000E+00  0.0000E+00  0.0000E+00  0.0000E+00  0.0000E+00  0.0000E+00
112  0.0000E+00  6.5778E-05  0.0000E+00  0.0000E+00  0.0000E+00  0.0000E+00  1.6996E-04  0.0000E+00  0.0000E+00
113  0.0000E+00  6.4532E-05  0.0000E+00  0.0000E+00  0.0000E+00  0.0000E+00  1.2300E-04  0.0000E+00  0.0000E+00
114  0.0000E+00  2.6931E-04  0.0000E+00  0.0000E+00  0.0000E+00  0.0000E+00  0.0000E+00  0.0000E+00  0.0000E+00
115  0.0000E+00  6.7992E-04  0.0000E+00  0.0000E+00  0.0000E+00  0.0000E+00  0.0000E+00  0.0000E+00  0.0000E+00
116  0.0000E+00  2.5227E-03  2.3442E-02  0.0000E+00  0.0000E+00  0.0000E+00  0.0000E+00  0.0000E+00  0.0000E+00
117  0.0000E+00  2.5933E-03  0.0000E+00  0.0000E+00  0.0000E+00  0.0000E+00  0.0000E+00  0.0000E+00  0.0000E+00
118  0.0000E+00  1.6344E-02  4.6323E-03  0.0000E+00  0.0000E+00  0.0000E+00  0.0000E+00  0.0000E+00  2.3610E-03
119  0.0000E+00  5.1457E-02  0.0000E+00  4.4186E-02  6.2518E-02  0.0000E+00  0.0000E+00  0.0000E+00  0.0000E+00
120  0.0000E+00  1.1498E-01  0.0000E+00  0.0000E+00  4.8118E-03  2.8494E-01  2.4714E-02  0.0000E+00  0.0000E+00
121  0.0000E+00  1.4236E-01  0.0000E+00  0.0000E+00  0.0000E+00  1.4823E-01  0.0000E+00  8.2270E-02  0.0000E+00
122  0.0000E+00  2.8155E-01  1.2544E-02  4.3471E-01  0.0000E+00  1.6471E-02  0.0000E+00  3.6639E-02  6.6501E-02
123  0.0000E+00  3.8915E-01  0.0000E+00  0.0000E+00  2.6282E-01  0.0000E+00  0.0000E+00  7.8772E-02  0.0000E+00
124  0.0000E+00  2.7967E-01  0.0000E+00  3.1707E-01  1.6800E-01  6.8107E-01  4.5392E-01  0.0000E+00  0.0000E+00
125  0.0000E+00  1.8328E+00  9.6802E-01  1.9176E+00  0.0000E+00  3.7924E-01  1.2686E+00  3.1971E+00  1.5489E+00
126  0.0000E+00  7.3589E-05  0.0000E+00  3.3898E-04  0.0000E+00  3.7791E-06  0.0000E+00  0.0000E+00  0.0000E+00
127  0.0000E+00  3.8379E-05  0.0000E+00  0.0000E+00  0.0000E+00  1.3241E-04  0.0000E+00  0.0000E+00  2.0382E-04
128  0.0000E+00  7.1448E-05  0.0000E+00  1.3421E-04  3.6552E-04  5.6064E-05  0.0000E+00  9.5213E-05  0.0000E+00
129  0.0000E+00  5.0093E-05  0.0000E+00  0.0000E+00  0.0000E+00  1.5547E-04  0.0000E+00  0.0000E+00  3.8506E-04
130  0.0000E+00  7.9326E-05  0.0000E+00  1.5951E-04  8.0152E-05  6.1934E-04  0.0000E+00  0.0000E+00  0.0000E+00
131  0.0000E+00  5.0747E-05  0.0000E+00  0.0000E+00  0.0000E+00  0.0000E+00  0.0000E+00  9.7182E-05  0.0000E+00
132  0.0000E+00  3.1828E-05  0.0000E+00  0.0000E+00  0.0000E+00  0.0000E+00  0.0000E+00  0.0000E+00  0.0000E+00
133  0.0000E+00  5.9155E-05  5.0758E-05  0.0000E+00  0.0000E+00  0.0000E+00  0.0000E+00  0.0000E+00  0.0000E+00
134  0.0000E+00  3.2077E-05  0.0000E+00  0.0000E+00  0.0000E+00  0.0000E+00  0.0000E+00  0.0000E+00  0.0000E+00
135  0.0000E+00  3.2587E-05  0.0000E+00  0.0000E+00  0.0000E+00  0.0000E+00  0.0000E+00  0.0000E+00  0.0000E+00
136  0.0000E+00  5.6920E-05  0.0000E+00  0.0000E+00  0.0000E+00  0.0000E+00  0.0000E+00  0.0000E+00  0.0000E+00
137  0.0000E+00  6.5255E-05  0.0000E+00  0.0000E+00  0.0000E+00  0.0000E+00  0.0000E+00  0.0000E+00  0.0000E+00
138  0.0000E+00  6.8027E-05  0.0000E+00  1.9882E-04  0.0000E+00  0.0000E+00  0.0000E+00  0.0000E+00  0.0000E+00
139  0.0000E+00  2.0064E-04  0.0000E+00  0.0000E+00  0.0000E+00  0.0000E+00  0.0000E+00  4.5790E-05  0.0000E+00
140  0.0000E+00  2.6842E-03  0.0000E+00  0.0000E+00  0.0000E+00  0.0000E+00  0.0000E+00  0.0000E+00  2.1172E-02
141  0.0000E+00  8.1313E-03  0.0000E+00  0.0000E+00  0.0000E+00  0.0000E+00  0.0000E+00  5.1674E-03  0.0000E+00
142  0.0000E+00  1.4765E-02  0.0000E+00  0.0000E+00  0.0000E+00  0.0000E+00  2.4449E-03  1.5049E-02  0.0000E+00
143  0.0000E+00  9.4223E-02  0.0000E+00  0.0000E+00  0.0000E+00  0.0000E+00  0.0000E+00  0.0000E+00  0.0000E+00
144  0.0000E+00  9.1840E-02  0.0000E+00  0.0000E+00  0.0000E+00  0.0000E+00  0.0000E+00  3.3284E-01  0.0000E+00
145  0.0000E+00  4.4961E-01  0.0000E+00  0.0000E+00  4.1635E-01  0.0000E+00  0.0000E+00  0.0000E+00  0.0000E+00
146  0.0000E+00  2.1663E-01  0.0000E+00  7.4731E-02  6.6364E-02  0.0000E+00  8.9434E-02  0.0000E+00  2.2429E-01
147  0.0000E+00  1.9082E-01  0.0000E+00  9.1695E-02  4.7158E-01  0.0000E+00  0.0000E+00  0.0000E+00  0.0000E+00
148  0.0000E+00  1.9139E-01  0.0000E+00  0.0000E+00  5.9302E-03  0.0000E+00  0.0000E+00  0.0000E+00  0.0000E+00
149  0.0000E+00  6.5581E-01  0.0000E+00  4.5767E-02  0.0000E+00  0.0000E+00  2.8056E-01  0.0000E+00  0.0000E+00
150  0.0000E+00  1.2176E-01  0.0000E+00  0.0000E+00  0.0000E+00  0.0000E+00  0.0000E+00  0.0000E+00  0.0000E+00

# AV, chi2 & Mass for <> & i_chain = 1 ...  7 solutions
AV       0.6155      0.5858      0.6021      0.5939      0.5992      0.5927      0.5923      0.5914      0.5938
chi2 2.3978E+00  2.5246E+00  2.4584E+00  2.4802E+00  2.4743E+00  2.4768E+00  2.4789E+00  2.4902E+00  2.4750E+00
Mass 8.7226E-10  8.6934E-10  8.6981E-10  8.6836E-10  8.6328E-10  8.6510E-10  8.6997E-10  8.7341E-10  8.7273E-10
   5.98                                  [v0_min (km/s) before EX0s...]
  56.54                                  [vd_min (km/s) before EX0s...]


## Synthetic spectrum (Best Model) ##l_obs f_obs f_syn wei
 3070    [Nl_obs]
 3359.00    0.00000   0.42665   -2.000
 3360.00    0.22523   0.39057   -1.000
 3361.00    0.22510   0.38626   -1.000
 3362.00    0.24452   0.41335   -1.000
 3363.00    0.27387   0.45614   -1.000
 3364.00    0.30388   0.49091   -1.000
 3365.00    0.30649   0.50225   -1.000
 3366.00    0.31021   0.49130   -1.000
 3367.00    0.31151   0.46774   -1.000
 3368.00    0.31185   0.44390   -1.000
 3369.00    0.29816   0.42621   -1.000
 3370.00    0.28736   0.41093   -1.000
 3371.00    0.27431   0.40062   -1.000
 3372.00    0.29888   0.40254   -1.000
 3373.00    0.30974   0.42222   -1.000
 3374.00    0.30838   0.45642   -1.000
 3375.00    0.33263   0.49536   -1.000
 3376.00    0.35501   0.52163   -1.000
 3377.00    0.35583   0.52196   -1.000
 3378.00    0.36028   0.50035   -1.000
 3379.00    0.35151   0.47371   -1.000
 3380.00    0.35123   0.45782   -1.000
 3381.00    0.34465   0.45899   -1.000
 3382.00    0.34890   0.47376   -1.000
 3383.00    0.36488   0.49035   -1.000
 3384.00    0.36084   0.50308   -1.000
 3385.00    0.37055   0.51420   -1.000
 3386.00    0.37690   0.51893   -1.000
 3387.00    0.38928   0.51545   -1.000
 3388.00    0.38965   0.51121   -1.000
 3389.00    0.39721   0.51194   -1.000
 3390.00    0.40585   0.51376   -1.000
 3391.00    0.41242   0.50906   -1.000
 3392.00    0.41435   0.49399   -1.000
 3393.00    0.39959   0.48195   -1.000
 3394.00    0.42088   0.48770   -1.000
 3395.00    0.42484   0.50933   -1.000
 3396.00    0.44152   0.53636   -1.000
 3397.00    0.45469   0.56048   -1.000
 3398.00    0.47793   0.57750   -1.000
 3399.00    0.49257   0.58349   -1.000
 3400.00    0.48874   0.57851   -1.000
 3401.00    0.50638   0.56554   -1.000
 3402.00    0.48937   0.54632   -1.000
 3403.00    0.47122   0.52919   -1.000
 3404.00    0.45787   0.51935   -1.000
 3405.00    0.45839   0.51555   -1.000
 3406.00    0.45224   0.51104   -1.000
 3407.00    0.43751   0.50418   -1.000
 3408.00    0.44140   0.49956   -1.000
 3409.00    0.43073   0.50336   -1.000
 3410.00    0.43405   0.51310   -1.000
 3411.00    0.44399   0.51477   -1.000
 3412.00    0.46020   0.50327   -1.000
 3413.00    0.43640   0.48562   -1.000
 3414.00    0.43399   0.47589   -1.000
 3415.00    0.43080   0.48255   -1.000
 3416.00    0.43135   0.50040   -1.000
 3417.00    0.45214   0.52146   -1.000
 3418.00    0.48131   0.54205   -1.000
 3419.00    0.49563   0.56061   -1.000
 3420.00    0.49429   0.57249   -1.000
 3421.00    0.49879   0.57115   -1.000
 3422.00    0.49482   0.55671   -1.000
 3423.00    0.50544   0.54000   -1.000
 3424.00    0.49480   0.53270   -1.000
 3425.00    0.48971   0.53516   -1.000
 3426.00    0.49329   0.54146   -1.000
 3427.00    0.48659   0.55244   -1.000
 3428.00    0.51077   0.57281   -1.000
 3429.00    0.52209   0.59483   -1.000
 3430.00    0.53329   0.60255   -1.000
 3431.00    0.53941   0.58789   -1.000
 3432.00    0.51688   0.56259   -1.000
 3433.00    0.51506   0.54502   -1.000
 3434.00    0.50701   0.54625   -1.000
 3435.00    0.52422   0.55881   -1.000
 3436.00    0.52776   0.56348   -1.000
 3437.00    0.52410   0.55296   -1.000
 3438.00    0.49089   0.52929   -1.000
 3439.00    0.46869   0.49642   -1.000
 3440.00    0.44465   0.45990  215.909
 3441.00    0.41371   0.43191   -1.000
 3442.00    0.41131   0.42257  224.953
 3443.00    0.43057   0.43004  223.991
 3444.00    0.43584   0.44593  215.070
 3445.00    0.44762   0.46472  203.277
 3446.00    0.47921   0.48936  192.020
 3447.00    0.50981   0.52050  185.353
 3448.00    0.52629   0.55065   -1.000
 3449.00    0.53726   0.57093   -1.000
 3450.00    0.54306   0.57341   -1.000
 3451.00    0.54903   0.55812   -1.000
 3452.00    0.53011   0.53761   -1.000
 3453.00    0.52705   0.52863  810.257
 3454.00    0.54430   0.53498   -1.000
 3455.00    0.54526   0.54695  810.257
 3456.00    0.55698   0.55048   -1.000
 3457.00    0.55196   0.53944   -1.000
 3458.00    0.53810   0.52109   -1.000
 3459.00    0.52279   0.50347   -1.000
 3460.00    0.51112   0.48912   -1.000
 3461.00    0.51429   0.48630   -1.000
 3462.00    0.51610   0.50216   -1.000
 3463.00    0.53543   0.52495   -1.000
 3464.00    0.55639   0.53712   -1.000
 3465.00    0.55168   0.53502   -1.000
 3466.00    0.54774   0.53124   -1.000
 3467.00    0.55377   0.53881   -1.000
 3468.00    0.56191   0.55684   -1.000
 3469.00    0.57409   0.57550  810.257
 3470.00    0.59231   0.58306   -1.000
 3471.00    0.59372   0.57469   -1.000
 3472.00    0.58316   0.55348   -1.000
 3473.00    0.54734   0.52391   -1.000
 3474.00    0.52510   0.49262   -1.000
 3475.00    0.50017   0.47067   -1.000
 3476.00    0.48580   0.46886   -1.000
 3477.00    0.48389   0.48839  184.836
 3478.00    0.51828   0.51699  810.257
 3479.00    0.55094   0.54222   -1.000
 3480.00    0.57048   0.55786   -1.000
 3481.00    0.58390   0.56127   -1.000
 3482.00    0.57784   0.55428   -1.000
 3483.00    0.58455   0.54398   -1.000
 3484.00    0.57289   0.53999   -1.000
 3485.00    0.58345   0.55033   -1.000
 3486.00    0.59426   0.57010   -1.000
 3487.00    0.61167   0.58008   -1.000
 3488.00    0.60095   0.56862   -1.000
 3489.00    0.58992   0.54114   -1.000
 3490.00    0.55116   0.51583   -1.000
 3491.00    0.52293   0.50763   -1.000
 3492.00    0.53264   0.51433   -1.000
 3493.00    0.54053   0.52430   -1.000
 3494.00    0.55027   0.52807   -1.000
 3495.00    0.54382   0.52223   -1.000
 3496.00    0.52804   0.51306   -1.000
 3497.00    0.53169   0.51514   -1.000
 3498.00    0.55638   0.53324   -1.000
 3499.00    0.58159   0.55626   -1.000
 3500.00    0.61296   0.57115   -1.000
 3501.00    0.62533   0.57916   -1.000
 3502.00    0.63660   0.58742   -1.000
 3503.00    0.62649   0.59428   -1.000
 3504.00    0.62564   0.59226   -1.000
 3505.00    0.62053   0.58074   -1.000
 3506.00    0.60931   0.56838   -1.000
 3507.00    0.59378   0.56258   -1.000
 3508.00    0.60609   0.56090   -1.000
 3509.00    0.60444   0.55644   -1.000
 3510.00    0.59651   0.54734   -1.000
 3511.00    0.58780   0.53726   -1.000
 3512.00    0.57777   0.52610   -1.000
 3513.00    0.56086   0.51264   -1.000
 3514.00    0.55938   0.50835   -1.000
 3515.00    0.56036   0.52510   -1.000
 3516.00    0.58256   0.56035   -1.000
 3517.00    0.61895   0.59447   -1.000
 3518.00    0.62522   0.60661   -1.000
 3519.00    0.61713   0.59260   -1.000
 3520.00    0.59390   0.56429   -1.000
 3521.00    0.56376   0.53684   -1.000
 3522.00    0.54338   0.51531   -1.000
 3523.00    0.52993   0.49440   -1.000
 3524.00    0.51640   0.47432   -1.000
 3525.00    0.49122   0.46408   -1.000
 3526.00    0.49348   0.47420   -1.000
 3527.00    0.51643   0.50371   -1.000
 3528.00    0.54788   0.54060   -1.000
 3529.00    0.57652   0.56962   -1.000
 3530.00    0.59885   0.58345   -1.000
 3531.00    0.59894   0.58402   -1.000
 3532.00    0.58689   0.57879   -1.000
 3533.00    0.59119   0.57654   -1.000
 3534.00    0.60347   0.58075   -1.000
 3535.00    0.61316   0.58820   -1.000
 3536.00    0.62250   0.59724   -1.000
 3537.00    0.62109   0.60891   -1.000
 3538.00    0.61087   0.62267   -1.000
 3539.00    0.63115   0.63246   -1.000
 3540.00    0.63420   0.63041  810.257
 3541.00    0.61827   0.62148   -1.000
 3542.00    0.61618   0.61864   -1.000
 3543.00    0.62185   0.62501   -1.000
 3544.00    0.62066   0.63412   -1.000
 3545.00    0.62432   0.63670   -1.000
 3546.00    0.61949   0.63078   -1.000
 3547.00    0.60782   0.62219   -1.000
 3548.00    0.60152   0.61779   -1.000
 3549.00    0.61267   0.61970   -1.000
 3550.00    0.60795   0.62385   -1.000
 3551.00    0.59417   0.62338   -1.000
 3552.00    0.60312   0.61273   -1.000
 3553.00    0.58568   0.59683   -1.000
 3554.00    0.57101   0.58638   -1.000
 3555.00    0.56837   0.58722   -1.000
 3556.00    0.58038   0.59442   -1.000
 3557.00    0.58443   0.59872   -1.000
 3558.00    0.58301   0.59730   -1.000
 3559.00    0.59305   0.59528   -1.000
 3560.00    0.58807   0.59978   -1.000
 3561.00    0.57362   0.61174   -1.000
 3562.00    0.59062   0.62019   -1.000
 3563.00    0.59399   0.60846   -1.000
 3564.00    0.55843   0.57002   -1.000
 3565.00    0.51690   0.52660  184.174
 3566.00    0.49283   0.50389  189.842
 3567.00    0.49545   0.50173  187.645
 3568.00    0.49899   0.50190  186.603
 3569.00    0.50068   0.49017  193.008
 3570.00    0.47355   0.47567  196.559
 3571.00    0.47107   0.47599  190.380
 3572.00    0.49625   0.49094  181.845
 3573.00    0.51415   0.50876   -1.000
 3574.00    0.53122   0.52094   -1.000
 3575.00    0.53337   0.52797   -1.000
 3576.00    0.52842   0.53325   -1.000
 3577.00    0.53921   0.53321   -1.000
 3578.00    0.52739   0.52218   -1.000
 3579.00    0.51212   0.49810  190.360
 3580.00    0.47789   0.46889  203.487
 3581.00    0.43954   0.44679  214.650
 3582.00    0.44120   0.44143  216.031
 3583.00    0.45315   0.44889  216.921
 3584.00    0.44324   0.44988  222.427
 3585.00    0.43010   0.43808  229.788
 3586.00    0.41434   0.42539  233.026
 3587.00    0.42096   0.42593  221.213
 3588.00    0.44072   0.44679  209.409
 3589.00    0.47258   0.48231  199.291
 3590.00    0.50767   0.52104  181.417
 3591.00    0.54364   0.55050   -1.000
 3592.00    0.57349   0.56288   -1.000
 3593.00    0.57324   0.56440   -1.000
 3594.00    0.57115   0.57000  810.257
 3595.00    0.58300   0.58760   -1.000
 3596.00    0.60193   0.60963   -1.000
 3597.00    0.61285   0.62647   -1.000
 3598.00    0.63100   0.63781   -1.000
 3599.00    0.64277   0.64468   -1.000
 3600.00    0.64032   0.64183   -1.000
 3601.00    0.62417   0.62260  810.257
 3602.00    0.60169   0.59283   -1.000
 3603.00    0.57922   0.56557   -1.000
 3604.00    0.56274   0.55111   -1.000
 3605.00    0.56365   0.54874   -1.000
 3606.00    0.56101   0.54761   -1.000
 3607.00    0.54758   0.53881   -1.000
 3608.00    0.53173   0.52351   -1.000
 3609.00    0.52001   0.51376   -1.000
 3610.00    0.52095   0.52030  810.257
 3611.00    0.53642   0.53800  810.257
 3612.00    0.55224   0.55563   -1.000
 3613.00    0.56615   0.57042   -1.000
 3614.00    0.57690   0.58609   -1.000
 3615.00    0.59227   0.60059   -1.000
 3616.00    0.59025   0.59630   -1.000
 3617.00    0.56244   0.56299  810.257
 3618.00    0.52506   0.52192  810.257
 3619.00    0.50701   0.50458  181.453
 3620.00    0.52096   0.52175  810.257
 3621.00    0.56028   0.55819  810.257
 3622.00    0.59989   0.59189  146.544
 3623.00    0.61071   0.61322  141.718
 3624.00    0.62887   0.63019  139.979
 3625.00    0.64005   0.65506  134.762
 3626.00    0.66093   0.68492   -1.000
 3627.00    0.67836   0.70629   -1.000
 3628.00    0.66433   0.70074   -1.000
 3629.00    0.63960   0.65968   -1.000
 3630.00    0.59336   0.59932  154.173
 3631.00    0.54211   0.55232  167.064
 3632.00    0.52897   0.53960  168.989
 3633.00    0.53870   0.55429  163.711
 3634.00    0.55014   0.57532   -1.000
 3635.00    0.57053   0.59001   -1.000
 3636.00    0.59351   0.60117  148.461
 3637.00    0.61456   0.61920  141.438
 3638.00    0.64132   0.64403  135.064
 3639.00    0.65466   0.66685  130.542
 3640.00    0.66676   0.67706  130.413
 3641.00    0.65713   0.66942  133.733
 3642.00    0.63227   0.64781  138.269
 3643.00    0.61087   0.62187  145.837
 3644.00    0.59197   0.60029  150.082
 3645.00    0.57604   0.58483  152.638
 3646.00    0.57216   0.57119  154.967
 3647.00    0.55819   0.56071  157.829
 3648.00    0.55797   0.55901  157.939
 3649.00    0.56519   0.56763  153.603
 3650.00    0.58970   0.58625  147.370
 3651.00    0.61192   0.61291  140.205
 3652.00    0.63943   0.64159  134.322
 3653.00    0.65911   0.66466  131.035
 3654.00    0.66869   0.67971  129.221
 3655.00    0.66677   0.69046   -1.000
 3656.00    0.68246   0.70232   -1.000
 3657.00    0.69695   0.71409  125.979
 3658.00    0.69413   0.72129   -1.000
 3659.00    0.70437   0.72440   -1.000
 3660.00    0.68979   0.72327   -1.000
 3661.00    0.68357   0.71474   -1.000
 3662.00    0.68906   0.70018  126.692
 3663.00    0.67181   0.68617  128.883
 3664.00    0.66334   0.68016   -1.000
 3665.00    0.67665   0.68224  128.245
 3666.00    0.68786   0.68475  128.344
 3667.00    0.67710   0.68008  131.096
 3668.00    0.65228   0.66674  132.521
 3669.00    0.64186   0.65515  135.841
 3670.00    0.64351   0.65727  134.927
 3671.00    0.67424   0.67325  129.797
 3672.00    0.68536   0.69144  127.210
 3673.00    0.69344   0.70140  126.781
 3674.00    0.68538   0.70081  126.755
 3675.00    0.68707   0.68964  127.051
 3676.00    0.67459   0.66916  131.047
 3677.00    0.64815   0.64440  135.131
 3678.00    0.63639   0.62215  139.230
 3679.00    0.62855   0.60953  142.772
 3680.00    0.60491   0.60880  142.342
 3681.00    0.62584   0.61838  138.573
 3682.00    0.65136   0.63297  134.555
 3683.00    0.65838   0.64337  133.331
 3684.00    0.65672   0.64030  136.638
 3685.00    0.63390   0.62030  142.298
 3686.00    0.60167   0.59583  148.160
 3687.00    0.58866   0.58533  150.789
 3688.00    0.61742   0.59844  146.478
 3689.00    0.63887   0.63091  136.702
 3690.00    0.66847   0.66792  127.635
 3691.00    0.70263   0.69224  123.812
 3692.00    0.70449   0.69582  124.804
 3693.00    0.68626   0.68603  128.316
 3694.00    0.67889   0.67582  130.052
 3695.00    0.68980   0.67187  129.456
 3696.00    0.68747   0.67410  128.294
 3697.00    0.69093   0.68384  126.718
 3698.00    0.70773   0.70335  122.517
 3699.00    0.73171   0.72603  119.417
 3700.00    0.74096   0.73943  117.836
 3701.00    0.73411   0.73039  120.141
 3702.00    0.70062   0.69299  125.723
 3703.00    0.66664   0.63833   -1.000
 3704.00    0.62120   0.58612   -1.000
 3705.00    0.56752   0.55331  159.094
 3706.00    0.56086   0.54523  157.475
 3707.00    0.57310   0.55251   -1.000
 3708.00    0.57940   0.56495  151.716
 3709.00    0.59656   0.57947  146.770
 3710.00    0.62555   0.59758   -1.000
 3711.00    0.65592   0.62238   -1.000
 3712.00    0.68539   0.65554   -1.000
 3713.00    0.71659   0.69088  120.088
 3714.00    0.74602   0.71812  117.153
 3715.00    0.75604   0.72878  116.807
 3716.00    0.74306   0.71958  119.950
 3717.00    0.71727   0.69040   -1.000
 3718.00    0.66858   0.63991   -1.000
 3719.00    0.58578   0.57069  157.955
 3720.00    0.52766   0.50620   -1.000
 3721.00    0.51237   0.47619   18.517
 3722.00    0.53300   0.49093   -1.000
 3723.00    0.58094   0.53966   -1.000
 3724.00    0.64404   0.59961   -1.000
 3725.00    0.68632   0.64111   -1.000
 3726.00    0.68782   0.65184   -1.000
 3727.00    0.66034   0.64764  135.751
 3728.00    0.64692   0.64693  136.851
 3729.00    0.66708   0.65074  134.540
 3730.00    0.65523   0.64627  135.975
 3731.00    0.63921   0.61790   -1.000
 3732.00    0.59033   0.56322   -1.000
 3733.00    0.53324   0.49903   18.176
 3734.00    0.46714   0.44508   20.158
 3735.00    0.45079   0.41961   20.918
 3736.00    0.46231   0.43201   19.873
 3737.00    0.49814   0.47721   17.999
 3738.00    0.55114   0.54161  145.993
 3739.00    0.60826   0.60662  143.057
 3740.00    0.65838   0.65083  134.777
 3741.00    0.67432   0.66285  134.058
 3742.00    0.66247   0.64500  139.408
 3743.00    0.62779   0.60972  148.331
 3744.00    0.58970   0.57289  157.192
 3745.00    0.55630   0.54433  166.292
 3746.00    0.53477   0.52104  174.431
 3747.00    0.52428   0.49446   18.440
 3748.00    0.48181   0.46510   19.428
 3749.00    0.46524   0.45031   19.640
 3750.00    0.50245   0.46779   -1.000
 3751.00    0.57084   0.51715   -1.000
 3752.00    0.63236   0.58159   -1.000
 3753.00    0.67583   0.64571   -1.000
 3754.00    0.72081   0.69374   -1.000
 3755.00    0.73973   0.71072   -1.000
 3756.00    0.72127   0.69026   -1.000
 3757.00    0.66047   0.64319  143.645
 3758.00    0.58793   0.59586  159.966
 3759.00    0.57934   0.57523  159.215
 3760.00    0.59983   0.58424  148.940
 3761.00    0.63603   0.60410   -1.000
 3762.00    0.64697   0.61865   -1.000
 3763.00    0.65325   0.62541   -1.000
 3764.00    0.65462   0.62716   -1.000
 3765.00    0.65852   0.62364   -1.000
 3766.00    0.64448   0.61488   -1.000
 3767.00    0.64749   0.60506   -1.000
 3768.00    0.65237   0.59595   -1.000
 3769.00    0.64290   0.58747   -1.000
 3770.00    0.64125   0.58337   -1.000
 3771.00    0.65686   0.59500   -1.000
 3772.00    0.69508   0.62506   -1.000
 3773.00    0.71203   0.65914   -1.000
 3774.00    0.71973   0.68204   -1.000
 3775.00    0.72177   0.69299   -1.000
 3776.00    0.71501   0.69992  124.329
 3777.00    0.72468   0.71066  123.985
 3778.00    0.74082   0.72773  122.233
 3779.00    0.75404   0.74763  118.081
 3780.00    0.77223   0.76583  115.341
 3781.00    0.78303   0.77752  114.584
 3782.00    0.78367   0.78216  113.888
 3783.00    0.77891   0.78060  113.962
 3784.00    0.76651   0.76768  116.637
 3785.00    0.74979   0.73871  122.930
 3786.00    0.71095   0.70121  132.269
 3787.00    0.66743   0.66690  138.841
 3788.00    0.64996   0.64591  141.369
 3789.00    0.64834   0.64195  141.239
 3790.00    0.65047   0.64898  138.680
 3791.00    0.65638   0.65564  137.271
 3792.00    0.65874   0.65100  139.436
 3793.00    0.64645   0.63228  144.772
 3794.00    0.62761   0.60579   -1.000
 3795.00    0.60872   0.57805   -1.000
 3796.00    0.58465   0.54905   -1.000
 3797.00    0.55945   0.51764   -1.000
 3798.00    0.54643   0.50068   -1.000
 3799.00    0.57467   0.51965   -1.000
 3800.00    0.61775   0.57163   -1.000
 3801.00    0.65314   0.63499  136.207
 3802.00    0.69831   0.68819  130.289
 3803.00    0.73108   0.71937  127.434
 3804.00    0.74190   0.72889  126.733
 3805.00    0.71930   0.71972  128.725
 3806.00    0.69437   0.70163  133.698
 3807.00    0.68431   0.69413  136.279
 3808.00    0.68962   0.70677  132.632
 3809.00    0.71089   0.73056  127.427
 3810.00    0.73460   0.74697  126.048
 3811.00    0.73688   0.74137  128.579
 3812.00    0.70501   0.71255  135.635
 3813.00    0.65849   0.67062  144.108
 3814.00    0.62716   0.63066  152.754
 3815.00    0.59643   0.60939  159.689
 3816.00    0.59374   0.61291   -1.000
 3817.00    0.62779   0.62590  150.742
 3818.00    0.62385   0.62580  153.421
 3819.00    0.59041   0.60375  164.409
 3820.00    0.55312   0.57808   -1.000
 3821.00    0.55665   0.57287   -1.000
 3822.00    0.58346   0.58496  161.066
 3823.00    0.58912   0.58940  162.797
 3824.00    0.56150   0.57146  177.255
 3825.00    0.52137   0.54293   19.065
 3826.00    0.51063   0.52190   19.265
 3827.00    0.50962   0.51383   19.093
 3828.00    0.51403   0.51534   18.782
 3829.00    0.52937   0.51852   18.472
 3830.00    0.53139   0.51548   18.710
 3831.00    0.49917   0.50017   19.576
 3832.00    0.46298   0.47335   21.165
 3833.00    0.43580   0.44228   21.800
 3834.00    0.45028   0.42127   21.357
 3835.00    0.46301   0.41801   20.483
 3836.00    0.47228   0.42709   20.040
 3837.00    0.46742   0.43785   20.481
 3838.00    0.45720   0.44625   20.979
 3839.00    0.46371   0.45905   20.594
 3840.00    0.48990   0.48648   19.403
 3841.00    0.53118   0.53138  160.587
 3842.00    0.58288   0.58496  159.010
 3843.00    0.62876   0.63326  148.970
 3844.00    0.64749   0.66396  146.279
 3845.00    0.65864   0.67851   -1.000
 3846.00    0.65567   0.68771   -1.000
 3847.00    0.66349   0.69488   -1.000
 3848.00    0.65536   0.69330   -1.000
 3849.00    0.63219   0.68386   -1.000
 3850.00    0.61855   0.67740   -1.000
 3851.00    0.63021   0.68303   -1.000
 3852.00    0.65433   0.69731   -1.000
 3853.00    0.65701   0.70578   -1.000
 3854.00    0.64508   0.69816   -1.000
 3855.00    0.62396   0.67914   -1.000
 3856.00    0.60724   0.65706   -1.000
 3857.00    0.58885   0.63290   -1.000
 3858.00    0.56094   0.60743   18.057
 3859.00    0.52441   0.59072   18.997
 3860.00    0.52429   0.59694   18.557
 3861.00    0.56665   0.62839   -1.000
 3862.00    0.63995   0.67179   -1.000
 3863.00    0.67912   0.70212   -1.000
 3864.00    0.67651   0.70870   -1.000
 3865.00    0.67154   0.70328   -1.000
 3866.00    0.66433   0.69810   -1.000
 3867.00    0.65179   0.69689   -1.000
 3868.00    0.63611   0.69540   -1.000
 3869.00    0.61690   0.68517   -1.000
 3870.00    0.58753   0.66285   -1.000
 3871.00    0.55685   0.63580   18.291
 3872.00    0.54810   0.61805   -1.000
 3873.00    0.58000   0.62256   -1.000
 3874.00    0.62741   0.64927   -1.000
 3875.00    0.66163   0.67539  139.176
 3876.00    0.65688   0.67637  143.694
 3877.00    0.61678   0.65344   -1.000
 3878.00    0.58264   0.63004   -1.000
 3879.00    0.58246   0.62282   -1.000
 3880.00    0.59767   0.62877   -1.000
 3881.00    0.58451   0.63609   -1.000
 3882.00    0.57518   0.63808   -1.000
 3883.00    0.60221   0.63708   -1.000
 3884.00    0.63258   0.62871  143.286
 3885.00    0.62684   0.60307   -1.000
 3886.00    0.60535   0.56276   -1.000
 3887.00    0.58116   0.52527   -1.000
 3888.00    0.57569   0.50770   -1.000
 3889.00    0.58903   0.52007   -1.000
 3890.00    0.62568   0.56068   -1.000
 3891.00    0.68235   0.61565   -1.000
 3892.00    0.72496   0.65958   -1.000
 3893.00    0.73134   0.67680   -1.000
 3894.00    0.71794   0.67702   -1.000
 3895.00    0.71469   0.67933   -1.000
 3896.00    0.72870   0.69142   -1.000
 3897.00    0.74659   0.70490   -1.000
 3898.00    0.74464   0.71033   -1.000
 3899.00    0.72974   0.70968  121.100
 3900.00    0.72899   0.71173  119.309
 3901.00    0.74066   0.71731  118.218
 3902.00    0.74438   0.71821   -1.000
 3903.00    0.72571   0.70895  124.635
 3904.00    0.70205   0.69289  127.615
 3905.00    0.67934   0.68184  131.520
 3906.00    0.67110   0.68714  130.346
 3907.00    0.71216   0.71205  122.584
 3908.00    0.75326   0.74806  114.279
 3909.00    0.77702   0.77845  111.630
 3910.00    0.79600   0.79629  110.650
 3911.00    0.81093   0.80664  109.590
 3912.00    0.80951   0.81109  108.948
 3913.00    0.79831   0.80731  110.272
 3914.00    0.77705   0.79670  112.588
 3915.00    0.75903   0.78452   -1.000
 3916.00    0.75490   0.77427  116.693
 3917.00    0.74900   0.76282  118.256
 3918.00    0.73383   0.74482  121.761
 3919.00    0.70438   0.72028  127.205
 3920.00    0.67318   0.69533   -1.000
 3921.00    0.65088   0.68019   -1.000
 3922.00    0.65874   0.68028   -1.000
 3923.00    0.66663   0.68903  132.195
 3924.00    0.67287   0.69198  133.298
 3925.00    0.63874   0.67902   -1.000
 3926.00    0.59536   0.64677   -1.000
 3927.00    0.52774   0.59769   -1.000
 3928.00    0.45429   0.53905   20.190
 3929.00    0.39128   0.47766   23.379
 3930.00    0.33332   0.41315   27.350
 3931.00    0.28381   0.34660   32.374
 3932.00    0.24676   0.28580   37.868
 3933.00    0.22223   0.24541   41.360
 3934.00    0.22366   0.24125   39.613
 3935.00    0.25699   0.27693   34.361
 3936.00    0.30698   0.33943   28.404
 3937.00    0.36768   0.41369   23.321
 3938.00    0.43237   0.48823   19.604
 3939.00    0.49588   0.55211   -1.000
 3940.00    0.54149   0.60027   -1.000
 3941.00    0.57638   0.62961   -1.000
 3942.00    0.59302   0.64208   -1.000
 3943.00    0.59757   0.64712   -1.000
 3944.00    0.61161   0.65766   -1.000
 3945.00    0.65627   0.68086   -1.000
 3946.00    0.70398   0.70838  124.344
 3947.00    0.71716   0.72746  123.051
 3948.00    0.71268   0.73807   -1.000
 3949.00    0.73218   0.74868  117.619
 3950.00    0.75596   0.75983  113.773
 3951.00    0.76005   0.76488  114.346
 3952.00    0.75730   0.76612  116.057
 3953.00    0.76219   0.77198  113.956
 3954.00    0.78193   0.77970  111.079
 3955.00    0.78879   0.77830  112.344
 3956.00    0.76218   0.76717  116.526
 3957.00    0.74601   0.75720  118.396
 3958.00    0.75104   0.75294  116.242
 3959.00    0.74703   0.74091  119.017
 3960.00    0.70562   0.70528  131.931
 3961.00    0.63346   0.65240  149.159
 3962.00    0.56649   0.60250   -1.000
 3963.00    0.52087   0.56404   -1.000
 3964.00    0.47316   0.52650   18.996
 3965.00    0.41838   0.47244   22.031
 3966.00    0.35553   0.39750   27.195
 3967.00    0.29126   0.32052   33.271
 3968.00    0.25364   0.26951   36.745
 3969.00    0.25469   0.26154   34.102
 3970.00    0.30177   0.29711   28.097
 3971.00    0.36784   0.36324   23.081
 3972.00    0.44013   0.44052   19.309
 3973.00    0.51147   0.51611  152.413
 3974.00    0.57410   0.58559  147.106
 3975.00    0.64856   0.64616  132.544
 3976.00    0.70482   0.69891  122.166
 3977.00    0.74179   0.74489  114.994
 3978.00    0.78922   0.78602  108.969
 3979.00    0.83306   0.81900  103.087
 3980.00    0.85266   0.83595  101.910
 3981.00    0.84585   0.83698  102.652
 3982.00    0.82629   0.83149  104.674
 3983.00    0.82502   0.83144  103.876
 3984.00    0.85097   0.84253  101.682
 3985.00    0.87644   0.85879   99.676
 3986.00    0.88501   0.87456   98.071
 3987.00    0.89478   0.88955   96.180
 3988.00    0.90630   0.90146   95.269
 3989.00    0.90708   0.90796   95.645
 3990.00    0.91638   0.91241   95.022
 3991.00    0.92187   0.92070   92.782
 3992.00    0.94002   0.93277   90.519
 3993.00    0.95774   0.94065   91.671
 3994.00    0.94264   0.93614   93.918
 3995.00    0.91516   0.91906   96.081
 3996.00    0.89285   0.89865   97.920
 3997.00    0.88359   0.88834   98.725
 3998.00    0.89261   0.89513   96.443
 3999.00    0.92439   0.91537   91.948
 4000.00    0.96359   0.94046   88.850
 4001.00    0.98401   0.96097   87.459
 4002.00    0.99790   0.96810   86.210
 4003.00    0.99384   0.95524   87.972
 4004.00    0.93845   0.92295   94.091
 4005.00    0.88457   0.88824   98.941
 4006.00    0.88788   0.87890   98.075
 4007.00    0.92574   0.90126   92.282
 4008.00    0.96662   0.93672   88.658
 4009.00    0.98845   0.96489   87.534
 4010.00    0.99430   0.97967   86.590
 4011.00    1.00661   0.98498   86.313
 4012.00    0.99165   0.98620   86.955
 4013.00    0.99749   0.98790   87.426
 4014.00    1.00762   0.99121   86.750
 4015.00    1.00823   0.99381   85.497
 4016.00    1.00336   0.99317   86.278
 4017.00    0.99887   0.99158   87.359
 4018.00    0.99797   0.99495   86.910
 4019.00    1.00741   1.00209   85.535
 4020.00    1.02213   1.00760   85.771
 4021.00    1.00337   1.00770   87.061
 4022.00    1.00239   1.00396   87.557
 4023.00    0.99327   0.99806   88.132
 4024.00    0.98370   0.99208   88.827
 4025.00    0.99946   0.99418   86.563
 4026.00    1.02810   1.00988   83.441
 4027.00    1.05842   1.03047   81.775
 4028.00    1.06020   1.03386   82.564
 4029.00    1.02548   1.00806   86.047
 4030.00    0.97379   0.96366   92.038
 4031.00    0.91424   0.92171   95.876
 4032.00    0.91243   0.89844   96.975
 4033.00    0.91593   0.89822   95.695
 4034.00    0.94450   0.91865   92.520
 4035.00    0.97582   0.95497   87.897
 4036.00    1.02415   1.00053   83.556
 4037.00    1.05727   1.04286   80.636
 4038.00    1.07316   1.06451   80.379
 4039.00    1.06677   1.06053   82.139
 4040.00    1.02925   1.04505   84.115
 4041.00    1.03177   1.03152   85.010
 4042.00    1.03458   1.01555   85.410
 4043.00    0.99972   0.97921   89.633
 4044.00    0.91332   0.91919   98.562
 4045.00    0.84455   0.86900   -1.000
 4046.00    0.85846   0.86383  101.609
 4047.00    0.92688   0.90565   91.581
 4048.00    1.00000   0.96678   86.076
 4049.00    1.03706   1.01661   83.665
 4050.00    1.04173   1.04166   82.724
 4051.00    1.04068   1.04522   83.327
 4052.00    1.02862   1.03409   85.669
 4053.00    1.00762   1.01524   87.891
 4054.00    0.98227   0.99833   89.239
 4055.00    0.97958   0.98661   89.936
 4056.00    0.97304   0.97699   90.542
 4057.00    0.96599   0.97158   91.503
 4058.00    0.96844   0.97800   90.381
 4059.00    0.98913   0.99708   87.038
 4060.00    1.02325   1.01254   85.339
 4061.00    1.02445   1.00068   86.876
 4062.00    0.96791   0.95863   93.403
 4063.00    0.89756   0.91249   99.901
 4064.00    0.89600   0.89157   98.188
 4065.00    0.92191   0.90008   93.251
 4066.00    0.96120   0.92410   91.026
 4067.00    0.97835   0.95130   88.555
 4068.00    1.00611   0.97465   85.677
 4069.00    1.04521   0.98358   -1.000
 4070.00    1.01757   0.96933   -1.000
 4071.00    0.96226   0.94340   92.149
 4072.00    0.95864   0.93225   91.394
 4073.00    0.97897   0.94391   87.950
 4074.00    0.99684   0.95634   -1.000
 4075.00    0.96621   0.94625   91.905
 4076.00    0.90472   0.91582   99.891
 4077.00    0.84224   0.88959   -1.000
 4078.00    0.85296   0.89096   -1.000
 4079.00    0.92118   0.92467   92.370
 4080.00    0.98888   0.97331   85.990
 4081.00    1.03441   1.00773   83.441
 4082.00    1.03009   1.01269   84.940
 4083.00    1.00319   0.99613   87.909
 4084.00    0.97820   0.97997   89.223
 4085.00    0.97899   0.98247   87.837
 4086.00    1.00665   1.00589   84.819
 4087.00    1.06339   1.03875   81.540
 4088.00    1.09082   1.06428   78.922
 4089.00    1.10664   1.07184   79.343
 4090.00    1.09008   1.06311   81.026
 4091.00    1.06704   1.04960   82.540
 4092.00    1.05794   1.03993   83.459
 4093.00    1.05746   1.03075   83.513
 4094.00    1.04435   1.01497   85.090
 4095.00    1.01000   0.98942   89.085
 4096.00    0.97878   0.96020   92.049
 4097.00    0.95968   0.93365   92.662
 4098.00    0.94422   0.90432   94.194
 4099.00    0.90910   0.86025   -1.000
 4100.00    0.84652   0.80093   -1.000
 4101.00    0.78610   0.75194  116.461
 4102.00    0.77292   0.74272  113.846
 4103.00    0.83086   0.78163   -1.000
 4104.00    0.90338   0.84916   -1.000
 4105.00    0.97439   0.91303   -1.000
 4106.00    0.99540   0.95495   -1.000
 4107.00    1.00383   0.97670   87.716
 4108.00    0.99858   0.98336   88.586
 4109.00    0.98830   0.98157   90.351
 4110.00    0.97492   0.98109   91.682
 4111.00    0.97641   0.98722   90.484
 4112.00    0.99865   1.00008   88.407
 4113.00    1.02078   1.01731   86.898
 4114.00    1.03854   1.03563   85.565
 4115.00    1.06205   1.04898   84.739
 4116.00    1.05717   1.05063   85.188
 4117.00    1.04814   1.03944   87.047
 4118.00    1.01191   1.02223   90.039
 4119.00    0.99686   1.00890   91.050
 4120.00    1.00147   1.00680   89.856
 4121.00    1.00431   1.01302   88.928
 4122.00    1.00558   1.02015   89.045
 4123.00    1.00529   1.02699   88.062
 4124.00    1.02199   1.03511   86.475
 4125.00    1.04132   1.04192   86.212
 4126.00    1.03928   1.04116   87.415
 4127.00    1.02404   1.03232   89.333
 4128.00    1.00582   1.02289   90.044
 4129.00    0.99378   1.01659   -1.000
 4130.00    0.98675   1.00507   91.652
 4131.00    0.97177   0.98285   94.604
 4132.00    0.94788   0.95990   97.603
 4133.00    0.92746   0.95289   -1.000
 4134.00    0.94465   0.96993   -1.000
 4135.00    0.98822   1.00312   89.655
 4136.00    1.03464   1.03892   86.771
 4137.00    1.05475   1.06760   85.404
 4138.00    1.06169   1.08693   84.068
 4139.00    1.06925   1.09447   83.758
 4140.00    1.06624   1.08179   85.533
 4141.00    1.02873   1.04470   90.135
 4142.00    0.95874   0.99496   -1.000
 4143.00    0.91298   0.95660   -1.000
 4144.00    0.91360   0.95279   -1.000
 4145.00    0.96980   0.98246   92.984
 4146.00    1.01367   1.02023   89.560
 4147.00    1.02755   1.04206   88.684
 4148.00    1.01695   1.04429   -1.000
 4149.00    1.00148   1.03966   -1.000
 4150.00    0.98866   1.03865   -1.000
 4151.00    0.98190   1.03957   -1.000
 4152.00    0.99362   1.03525   -1.000
 4153.00    0.98853   1.02310   -1.000
 4154.00    0.96997   1.01020   -1.000
 4155.00    0.96255   1.00645   -1.000
 4156.00    1.01336   1.01489   92.115
 4157.00    1.21566   1.03147   -1.000
 4158.00    1.08955   1.05155   89.169
 4159.00    0.84257   1.07049   -1.000
 4160.00    0.93949   1.08493   -1.000
 4161.00    1.06478   1.09485   -1.000
 4162.00    1.06057   1.10233   -1.000
 4163.00    1.06497   1.10764   -1.000
 4164.00    1.05882   1.10711   -1.000
 4165.00    1.04144   1.09650   -1.000
 4166.00    1.02678   1.07817   -1.000
 4167.00    1.00351   1.06311   -1.000
 4168.00    1.00732   1.05895   -1.000
 4169.00    1.02265   1.05912   -1.000
 4170.00    1.01609   1.04789   -1.000
 4171.00    0.97793   1.01813   -1.000
 4172.00    0.92664   0.98269   -1.000
 4173.00    0.89991   0.96518   -1.000
 4174.00    0.91259   0.97476   -1.000
 4175.00    0.95277   0.99816   -1.000
 4176.00    0.97024   1.01625   -1.000
 4177.00    0.96602   1.02667   -1.000
 4178.00    0.96765   1.03754   -1.000
 4179.00    0.99682   1.04986   -1.000
 4180.00    1.01139   1.05532   -1.000
 4181.00    0.99228   1.04964   -1.000
 4182.00    0.99111   1.04315   -1.000
 4183.00    1.00346   1.04782   -1.000
 4184.00    1.01698   1.05788   -1.000
 4185.00    1.02626   1.05782   -1.000
 4186.00    0.99963   1.04285   -1.000
 4187.00    0.96482   1.02501   -1.000
 4188.00    0.96429   1.01990   -1.000
 4189.00    0.99075   1.02861   -1.000
 4190.00    1.00009   1.04152   -1.000
 4191.00    1.00726   1.05472   -1.000
 4192.00    1.02654   1.06877   -1.000
 4193.00    1.05495   1.07915   -1.000
 4194.00    1.03981   1.07587   -1.000
 4195.00    1.00564   1.05367   -1.000
 4196.00    0.97020   1.02125   -1.000
 4197.00    0.94603   0.99293   -1.000
 4198.00    0.93516   0.97550   -1.000
 4199.00    0.93854   0.96753   -1.000
 4200.00    0.95224   0.96740   96.352
 4201.00    0.95790   0.97280   96.134
 4202.00    0.96157   0.98198   -1.000
 4203.00    0.97113   0.99819   -1.000
 4204.00    0.98442   1.02204   -1.000
 4205.00    0.99637   1.04722   -1.000
 4206.00    1.02470   1.06933   -1.000
 4207.00    1.03529   1.08620   -1.000
 4208.00    1.04858   1.09425   -1.000
 4209.00    1.04748   1.09360   -1.000
 4210.00    1.05247   1.09111   -1.000
 4211.00    1.05354   1.09387   -1.000
 4212.00    1.05118   1.09776   -1.000
 4213.00    1.04220   1.08849   -1.000
 4214.00    1.00509   1.06322   -1.000
 4215.00    0.96119   1.03774   -1.000
 4216.00    0.96061   1.02941   -1.000
 4217.00    1.00272   1.04620   -1.000
 4218.00    1.06103   1.07817   83.484
 4219.00    1.09451   1.10689   81.202
 4220.00    1.10702   1.12123   80.371
 4221.00    1.11976   1.11607   81.152
 4222.00    1.07748   1.08687   84.605
 4223.00    1.01991   1.03120   90.659
 4224.00    0.95616   0.95542   99.765
 4225.00    0.84329   0.87924   -1.000
 4226.00    0.75575   0.83321   -1.000
 4227.00    0.77892   0.84506   -1.000
 4228.00    0.88493   0.91349   98.591
 4229.00    1.00357   0.99797   88.595
 4230.00    1.06308   1.05588   84.105
 4231.00    1.08031   1.07493   83.568
 4232.00    1.05757   1.06816   85.549
 4233.00    1.04336   1.05148   87.820
 4234.00    1.03084   1.03397   88.633
 4235.00    1.01020   1.02073   90.775
 4236.00    0.98739   1.01387   -1.000
 4237.00    0.97977   1.01585   -1.000
 4238.00    0.99680   1.02869   -1.000
 4239.00    1.01310   1.04793   -1.000
 4240.00    1.03052   1.06746   -1.000
 4241.00    1.05561   1.08388   85.322
 4242.00    1.06654   1.09694   -1.000
 4243.00    1.07422   1.10893   -1.000
 4244.00    1.08839   1.11913   81.692
 4245.00    1.09561   1.11806   82.648
 4246.00    1.06937   1.09604   86.611
 4247.00    1.02062   1.05947   -1.000
 4248.00    0.99584   1.02609   -1.000
 4249.00    0.98352   1.00914   -1.000
 4250.00    0.98802   1.01206   -1.000
 4251.00    1.00432   1.02777   90.002
 4252.00    1.05046   1.04137   87.463
 4253.00    1.05065   1.04045   88.078
 4254.00    1.00846   1.03101   90.581
 4255.00    0.99917   1.03337   -1.000
 4256.00    1.04841   1.05313   85.667
 4257.00    1.07154   1.06875   85.070
 4258.00    1.05001   1.05698   88.515
 4259.00    0.99942   1.02366   -1.000
 4260.00    0.96007   1.00018   -1.000
 4261.00    0.97187   1.01122   -1.000
 4262.00    1.02857   1.05274   86.184
 4263.00    1.08444   1.09940   82.150
 4264.00    1.11406   1.12999   80.302
 4265.00    1.12546   1.13852   80.169
 4266.00    1.12327   1.13121   81.546
 4267.00    1.08884   1.11322   84.327
 4268.00    1.05630   1.08343   -1.000
 4269.00    1.03254   1.04097   90.261
 4270.00    0.97512   0.99184   96.355
 4271.00    0.91858   0.94913   -1.000
 4272.00    0.90537   0.92649   -1.000
 4273.00    0.91121   0.92929  100.741
 4274.00    0.92777   0.95190   98.198
 4275.00    0.95876   0.98829   93.715
 4276.00    1.01402   1.03550   87.533
 4277.00    1.07139   1.07960   83.521
 4278.00    1.09354   1.09942   83.615
 4279.00    1.05876   1.08986   -1.000
 4280.00    1.01621   1.06774   -1.000
 4281.00    1.01007   1.05485   -1.000
 4282.00    1.01890   1.05700   -1.000
 4283.00    1.03766   1.06055   88.539
 4284.00    1.02886   1.05414   89.765
 4285.00    0.99075   1.03965   -1.000
 4286.00    0.96021   1.02205   -1.000
 4287.00    0.94214   1.00191   -1.000
 4288.00    0.92661   0.97475   -1.000
 4289.00    0.89069   0.94405   -1.000
 4290.00    0.87349   0.92974   -1.000
 4291.00    0.90737   0.94532   -1.000
 4292.00    0.96078   0.97917   93.109
 4293.00    0.99901   1.00650   91.504
 4294.00    1.00790   1.01156   92.456
 4295.00    0.98103   0.99820   94.015
 4296.00    0.95140   0.97301   96.194
 4297.00    0.91668   0.93535  101.198
 4298.00    0.85455   0.88701   -1.000
 4299.00    0.78131   0.84071   -1.000
 4300.00    0.75401   0.81177   -1.000
 4301.00    0.77031   0.80504   -1.000
 4302.00    0.78511   0.81342   -1.000
 4303.00    0.80227   0.82785   -1.000
 4304.00    0.81105   0.84088   -1.000
 4305.00    0.82232   0.84282  111.598
 4306.00    0.81583   0.82727  115.638
 4307.00    0.77490   0.80069   -1.000
 4308.00    0.74396   0.77958   -1.000
 4309.00    0.74340   0.78059   -1.000
 4310.00    0.77120   0.80653   -1.000
 4311.00    0.81485   0.84717   -1.000
 4312.00    0.86486   0.89381   -1.000
 4313.00    0.90752   0.94819   -1.000
 4314.00    0.96239   1.01423   -1.000
 4315.00    1.04516   1.08977   -1.000
 4316.00    1.13898   1.16195   78.053
 4317.00    1.20436   1.21206   75.430
 4318.00    1.21303   1.23043   75.535
 4319.00    1.19632   1.22336   76.774
 4320.00    1.17772   1.20070   78.545
 4321.00    1.14473   1.16274   81.259
 4322.00    1.09051   1.10581   85.336
 4323.00    1.02093   1.03556   91.769
 4324.00    0.94052   0.97306   -1.000
 4325.00    0.88811   0.94701   -1.000
 4326.00    0.92314   0.97403   -1.000
 4327.00    1.02680   1.04234   86.370
 4328.00    1.11705   1.11490   80.294
 4329.00    1.15729   1.16058   78.938
 4330.00    1.15505   1.17664   79.362
 4331.00    1.16131   1.18059   78.880
 4332.00    1.16640   1.18712   77.445
 4333.00    1.17001   1.19485   76.684
 4334.00    1.17700   1.19331   76.547
 4335.00    1.17301   1.17025   77.939
 4336.00    1.12940   1.11647   83.169
 4337.00    1.04858   1.03343   91.436
 4338.00    0.94688   0.94147   99.918
 4339.00    0.86904   0.87123  108.149
 4340.00    0.82968   0.84701   -1.000
 4341.00    0.87217   0.87794  101.872
 4342.00    0.96310   0.94977   91.679
 4343.00    1.03739   1.02720   86.197
 4344.00    1.09065   1.08541   83.595
 4345.00    1.13098   1.12400   81.334
 4346.00    1.14482   1.15167   79.996
 4347.00    1.14927   1.17518   79.179
 4348.00    1.16756   1.19138   77.846
 4349.00    1.17997   1.18610   78.142
 4350.00    1.13602   1.15124   82.719
 4351.00    1.06397   1.10315   -1.000
 4352.00    1.01470   1.07351   -1.000
 4353.00    1.05298   1.08136   -1.000
 4354.00    1.09963   1.11740   82.180
 4355.00    1.13320   1.15530   79.710
 4356.00    1.16101   1.17863   78.088
 4357.00    1.18348   1.18656   78.208
 4358.00    1.16402   1.18381   80.014
 4359.00    1.12904   1.17978   -1.000
 4360.00    1.14790   1.18593   -1.000
 4361.00    1.17029   1.20364   -1.000
 4362.00    1.19041   1.22384   76.021
 4363.00    1.20108   1.23943   -1.000
 4364.00    1.21139   1.24871   -1.000
 4365.00    1.23022   1.24709   74.828
 4366.00    1.20602   1.22981   77.288
 4367.00    1.15885   1.20433   -1.000
 4368.00    1.13313   1.18397   -1.000
 4369.00    1.13680   1.17271   -1.000
 4370.00    1.15647   1.16599   79.568
 4371.00    1.15555   1.15690   79.520
 4372.00    1.14234   1.13961   80.364
 4373.00    1.11023   1.11331   83.808
 4374.00    1.06955   1.08694   87.142
 4375.00    1.04708   1.07890   -1.000
 4376.00    1.08713   1.09979   83.230
 4377.00    1.13950   1.13752   79.004
 4378.00    1.17475   1.16821   77.744
 4379.00    1.17790   1.17536   78.303
 4380.00    1.15971   1.15350   79.757
 4381.00    1.14105   1.10062   83.675
 4382.00    1.04897   1.02475   93.315
 4383.00    0.94490   0.95515   -1.000
 4384.00    0.89487   0.93130   -1.000
 4385.00    0.95243   0.96621   94.336
 4386.00    1.05088   1.03058   85.413
 4387.00    1.11369   1.08179   82.908
 4388.00    1.11692   1.10300   83.098
 4389.00    1.10008   1.10602   84.053
 4390.00    1.09690   1.10818   84.283
 4391.00    1.11148   1.11806   82.542
 4392.00    1.13829   1.13255   80.667
 4393.00    1.14336   1.14078   81.350
 4394.00    1.12712   1.14030   83.240
 4395.00    1.11824   1.14485   -1.000
 4396.00    1.15638   1.16386   78.812
 4397.00    1.19708   1.18490   76.601
 4398.00    1.19434   1.18888   77.865
 4399.00    1.16295   1.17391   80.865
 4400.00    1.12796   1.15566   -1.000
 4401.00    1.13169   1.14590   82.067
 4402.00    1.15533   1.13758   80.555
 4403.00    1.14502   1.11661   83.654
 4404.00    1.07585   1.08551   88.697
 4405.00    1.04666   1.06604   -1.000
 4406.00    1.07957   1.07227   85.965
 4407.00    1.10026   1.09520   84.816
 4408.00    1.09876   1.12222   84.083
 4409.00    1.13065   1.15635   80.715
 4410.00    1.18397   1.20005   77.233
 4411.00    1.23544   1.23727   74.651
 4412.00    1.26051   1.24715   73.863
 4413.00    1.24124   1.22489   76.035
 4414.00    1.17871   1.18262   80.588
 4415.00    1.12099   1.14415   -1.000
 4416.00    1.11574   1.13617   -1.000
 4417.00    1.15068   1.16426   79.694
 4418.00    1.19431   1.20942   76.350
 4419.00    1.23453   1.24789   74.254
 4420.00    1.25140   1.26267   74.834
 4421.00    1.22171   1.25297   -1.000
 4422.00    1.18448   1.23455   -1.000
 4423.00    1.17404   1.22290   -1.000
 4424.00    1.17925   1.22010   -1.000
 4425.00    1.18699   1.21866   -1.000
 4426.00    1.18125   1.21539   -1.000
 4427.00    1.17485   1.21597   -1.000
 4428.00    1.17981   1.22150   -1.000
 4429.00    1.18207   1.22764   -1.000
 4430.00    1.17360   1.23220   -1.000
 4431.00    1.18290   1.23502   -1.000
 4432.00    1.20604   1.23141   76.648
 4433.00    1.18936   1.21282   79.394
 4434.00    1.13428   1.18294   -1.000
 4435.00    1.10176   1.16438   -1.000
 4436.00    1.14208   1.17919   -1.000
 4437.00    1.21541   1.22414   75.459
 4438.00    1.27185   1.27137   72.370
 4439.00    1.29087   1.29340   72.324
 4440.00    1.26650   1.28031   74.774
 4441.00    1.21325   1.24355   -1.000
 4442.00    1.16747   1.20863   -1.000
 4443.00    1.14818   1.19919   -1.000
 4444.00    1.16699   1.22112   -1.000
 4445.00    1.21490   1.25886   -1.000
 4446.00    1.25728   1.28985   73.897
 4447.00    1.25963   1.30330   -1.000
 4448.00    1.25730   1.30495   -1.000
 4449.00    1.26525   1.30340   -1.000
 4450.00    1.24703   1.29948   -1.000
 4451.00    1.24562   1.29074   -1.000
 4452.00    1.24769   1.27342   75.680
 4453.00    1.23333   1.24153   78.624
 4454.00    1.17592   1.19934   82.312
 4455.00    1.12763   1.16630   -1.000
 4456.00    1.13756   1.15756   82.301
 4457.00    1.16507   1.16818   80.836
 4458.00    1.16588   1.18168   80.973
 4459.00    1.16320   1.18802   81.412
 4460.00    1.15071   1.18966   -1.000
 4461.00    1.14086   1.19411   -1.000
 4462.00    1.15686   1.20748   -1.000
 4463.00    1.20037   1.23033   -1.000
 4464.00    1.23642   1.25397   76.183
 4465.00    1.24604   1.26762   76.166
 4466.00    1.23341   1.26772   -1.000
 4467.00    1.22485   1.25845   -1.000
 4468.00    1.20864   1.24754   -1.000
 4469.00    1.19278   1.24368   -1.000
 4470.00    1.19504   1.25456   -1.000
 4471.00    1.23335   1.28154   -1.000
 4472.00    1.28310   1.31559   -1.000
 4473.00    1.32108   1.34376   70.797
 4474.00    1.33959   1.35862   70.270
 4475.00    1.33920   1.36381   70.441
 4476.00    1.34306   1.36726   69.777
 4477.00    1.35605   1.36907   69.383
 4478.00    1.35532   1.36004   70.070
 4479.00    1.31843   1.33281   72.793
 4480.00    1.26081   1.29423   -1.000
 4481.00    1.22044   1.26506   -1.000
 4482.00    1.22186   1.26235   -1.000
 4483.00    1.26480   1.28798   73.785
 4484.00    1.31514   1.32892   71.018
 4485.00    1.34256   1.36437   69.562
 4486.00    1.36458   1.37809   69.753
 4487.00    1.34938   1.36679   71.433
 4488.00    1.29404   1.34058   -1.000
 4489.00    1.24843   1.31637   -1.000
 4490.00    1.24780   1.30937   -1.000
 4491.00    1.29034   1.32103   -1.000
 4492.00    1.31915   1.33549   71.746
 4493.00    1.31187   1.33446   72.950
 4494.00    1.28261   1.31739   -1.000
 4495.00    1.25138   1.30199   -1.000
 4496.00    1.25001   1.30309   -1.000
 4497.00    1.27722   1.31971   -1.000
 4498.00    1.31342   1.34033   71.121
 4499.00    1.34804   1.35394   70.470
 4500.00    1.32958   1.35723   71.394
 4501.00    1.31216   1.35962   -1.000
 4502.00    1.33701   1.37300   -1.000
 4503.00    1.38365   1.39678   67.335
 4504.00    1.41939   1.42064   66.210
 4505.00    1.42206   1.43350   66.747
 4506.00    1.40822   1.43228   68.174
 4507.00    1.39282   1.42321   -1.000
 4508.00    1.37833   1.41598   -1.000
 4509.00    1.37773   1.41507   -1.000
 4510.00    1.39646   1.41673   67.788
 4511.00    1.39149   1.41343   68.425
 4512.00    1.36215   1.40180   -1.000
 4513.00    1.33787   1.38665   -1.000
 4514.00    1.32937   1.37425   -1.000
 4515.00    1.33686   1.36733   -1.000
 4516.00    1.34110   1.36472   71.035
 4517.00    1.32557   1.36190   -1.000
 4518.00    1.31853   1.35845   -1.000
 4519.00    1.33213   1.36066   -1.000
 4520.00    1.35490   1.36929   69.618
 4521.00    1.36733   1.37545   69.918
 4522.00    1.33625   1.37072   -1.000
 4523.00    1.31009   1.35543   -1.000
 4524.00    1.30064   1.33639   -1.000
 4525.00    1.28242   1.31606   -1.000
 4526.00    1.24767   1.29082   -1.000
 4527.00    1.21515   1.26055   -1.000
 4528.00    1.19771   1.23482   -1.000
 4529.00    1.20666   1.22626   79.713
 4530.00    1.21833   1.23563   78.267
 4531.00    1.24260   1.25193   76.834
 4532.00    1.25093   1.25952   76.512
 4533.00    1.22814   1.25056   78.802
 4534.00    1.18390   1.23477   -1.000
 4535.00    1.17072   1.23277   -1.000
 4536.00    1.21727   1.25943   -1.000
 4537.00    1.31592   1.30796   71.030
 4538.00    1.36494   1.35454   69.234
 4539.00    1.36768   1.37840   70.035
 4540.00    1.35284   1.37931   -1.000
 4541.00    1.33203   1.37233   -1.000
 4542.00    1.34065   1.36931   -1.000
 4543.00    1.34494   1.36922   70.820
 4544.00    1.34905   1.36438   -1.000
 4545.00    1.21057   1.35354   -1.000
 4546.00    0.16854   1.34227   -1.000
 4547.00   -0.04083   1.33132    0.000
 4548.00    0.09611   1.31696   -1.000
 4549.00    1.04435   1.30287   -1.000
 4550.00    0.29714   1.29991   -1.000
 4551.00    1.04144   1.31108   -1.000
 4552.00    1.35045   1.32287   74.283
 4553.00    1.26187   1.32266   -1.000
 4554.00    1.24777   1.31500   -1.000
 4555.00    1.25860   1.31371   -1.000
 4556.00    1.30175   1.32987   -1.000
 4557.00    1.35645   1.36121   69.179
 4558.00    1.39592   1.39297   68.041
 4559.00    1.39815   1.41429   68.496
 4560.00    1.39605   1.42413   68.430
 4561.00    1.39944   1.42392   68.462
 4562.00    1.38150   1.41351   -1.000
 4563.00    1.34999   1.39411   -1.000
 4564.00    1.31597   1.37355   -1.000
 4565.00    1.31067   1.36426   -1.000
 4566.00    1.34462   1.37340   -1.000
 4567.00    1.39162   1.39544   68.449
 4568.00    1.41321   1.41441   67.816
 4569.00    1.41087   1.41727   68.633
 4570.00    1.37846   1.40297   70.430
 4571.00    1.32537   1.38227   -1.000
 4572.00    1.31718   1.37133   -1.000
 4573.00    1.36571   1.37990   69.403
 4574.00    1.39894   1.40012   68.468
 4575.00    1.39446   1.41569   68.554
 4576.00    1.38548   1.41966   -1.000
 4577.00    1.37725   1.41326   -1.000
 4578.00    1.36619   1.39712   -1.000
 4579.00    1.34262   1.37248   -1.000
 4580.00    1.30879   1.34678   -1.000
 4581.00    1.30577   1.33014   -1.000
 4582.00    1.32004   1.32750   72.782
 4583.00    1.32484   1.33420   72.268
 4584.00    1.32194   1.34108   72.519
 4585.00    1.31197   1.34433   -1.000
 4586.00    1.31892   1.34961   -1.000
 4587.00    1.34396   1.36405   69.977
 4588.00    1.38323   1.38560   68.506
 4589.00    1.40275   1.40300   68.466
 4590.00    1.38549   1.40685   69.523
 4591.00    1.35617   1.39640   -1.000
 4592.00    1.33427   1.37902   -1.000
 4593.00    1.32734   1.36656   -1.000
 4594.00    1.33366   1.36477   -1.000
 4595.00    1.35087   1.36920   70.885
 4596.00    1.35809   1.37541   70.713
 4597.00    1.35798   1.38199   70.566
 4598.00    1.36557   1.38599   70.406
 4599.00    1.37110   1.38422   71.065
 4600.00    1.35108   1.37735   71.704
 4601.00    1.33371   1.37003   -1.000
 4602.00    1.33989   1.36754   71.078
 4603.00    1.36288   1.37083   70.277
 4604.00    1.36025   1.37710   70.436
 4605.00    1.37086   1.38428   70.306
 4606.00    1.36908   1.39365   69.511
 4607.00    1.38650   1.40799   68.106
 4608.00    1.42765   1.42670   66.641
 4609.00    1.45294   1.44452   65.885
 4610.00    1.45901   1.45264   66.228
 4611.00    1.44646   1.44683   67.172
 4612.00    1.41548   1.43468   67.909
 4613.00    1.41521   1.42546   68.336
 4614.00    1.41501   1.42362   67.962
 4615.00    1.42140   1.42746   67.343
 4616.00    1.42052   1.43100   67.089
 4617.00    1.42680   1.43068   67.573
 4618.00    1.41723   1.42765   68.077
 4619.00    1.41267   1.42614   67.986
 4620.00    1.42342   1.43067   67.309
 4621.00    1.44784   1.44102   66.216
 4622.00    1.44717   1.45014   66.245
 4623.00    1.44629   1.45149   66.420
 4624.00    1.44116   1.44663   66.549
 4625.00    1.44076   1.44124   67.187
 4626.00    1.43597   1.43761   67.329
 4627.00    1.43473   1.43665   67.284
 4628.00    1.42759   1.43796   67.744
 4629.00    1.40693   1.43963   -1.000
 4630.00    1.41404   1.44172   67.511
 4631.00    1.44658   1.44509   66.708
 4632.00    1.44329   1.44641   67.058
 4633.00    1.41017   1.44138   68.075
 4634.00    1.40260   1.43228   68.814
 4635.00    1.41012   1.42410   68.713
 4636.00    1.39852   1.41680   69.302
 4637.00    1.38441   1.40837   70.242
 4638.00    1.37330   1.40068   70.499
 4639.00    1.37397   1.39826   70.382
 4640.00    1.38705   1.40534   69.134
 4641.00    1.41179   1.42099   67.412
 4642.00    1.43878   1.43723   66.522
 4643.00    1.44053   1.44336   66.849
 4644.00    1.43128   1.43409   68.145
 4645.00    1.40047   1.41251   70.104
 4646.00    1.35664   1.38584   -1.000
 4647.00    1.34731   1.36624   72.274
 4648.00    1.36309   1.36508   70.919
 4649.00    1.38966   1.38186   69.239
 4650.00    1.40880   1.40546   68.322
 4651.00    1.41789   1.42286   68.241
 4652.00    1.42629   1.42770   68.097
 4653.00    1.41461   1.42152   68.956
 4654.00    1.39266   1.40877   70.602
 4655.00    1.36030   1.39729   -1.000
 4656.00    1.35618   1.39728   -1.000
 4657.00    1.39045   1.41484   68.363
 4658.00    1.44361   1.44653   65.716
 4659.00    1.49042   1.47918   64.291
 4660.00    1.50323   1.49705   64.290
 4661.00    1.48699   1.49418   65.133
 4662.00    1.45610   1.47693   66.778
 4663.00    1.43021   1.45511   68.079
 4664.00    1.43356   1.43293   68.180
 4665.00    1.42716   1.40706   69.353
 4666.00    1.37426   1.37427   72.441
 4667.00    1.30726   1.34170   -1.000
 4668.00    1.28085   1.32607   -1.000
 4669.00    1.31556   1.33810   72.962
 4670.00    1.36539   1.36952   69.862
 4671.00    1.41068   1.40171   68.022
 4672.00    1.43265   1.42177   67.687
 4673.00    1.43091   1.42979   67.760
 4674.00    1.42285   1.43433   67.682
 4675.00    1.43804   1.44267   66.760
 4676.00    1.46290   1.45218   65.746
 4677.00    1.46910   1.45190   66.143
 4678.00    1.44528   1.43714   67.641
 4679.00    1.41903   1.41462   68.972
 4680.00    1.39501   1.39457   70.102
 4681.00    1.37958   1.38417   70.757
 4682.00    1.38321   1.38589   69.799
 4683.00    1.40891   1.39804   67.989
 4684.00    1.43944   1.41370   67.139
 4685.00    1.44707   1.42492   67.423
 4686.00    1.43572   1.42890   67.437
 4687.00    1.43026   1.42798   67.843
 4688.00    1.43395   1.42543   67.827
 4689.00    1.43699   1.42321   67.834
 4690.00    1.42003   1.42172   68.350
 4691.00    1.41506   1.42093   68.473
 4692.00    1.42982   1.42358   67.613
 4693.00    1.44597   1.43196   66.596
 4694.00    1.46919   1.44292   65.083
 4695.00    1.49581   1.45130   64.284
 4696.00    1.50140   1.45297   64.658
 4697.00    1.48200   1.44374   66.609
 4698.00    1.44162   1.42434   68.629
 4699.00    1.41487   1.40298   69.366
 4700.00    1.41176   1.38615   68.742
 4701.00    1.41248   1.37299   69.313
 4702.00    1.39678   1.36143   70.581
 4703.00    1.37776   1.35621   70.903
 4704.00    1.39415   1.36309   69.473
 4705.00    1.42340   1.37692   68.464
 4706.00    1.42859   1.38422   69.520
 4707.00    1.40471   1.37891   70.941
 4708.00    1.37319   1.36929   71.588
 4709.00    1.36663   1.36845   71.161
 4710.00    1.39382   1.38078   68.978
 4711.00    1.43529   1.40030   67.094
 4712.00    1.46320   1.41689   66.487
 4713.00    1.46133   1.42137   67.189
 4714.00    1.43463   1.41617   68.498
 4715.00    1.42409   1.41467   68.435
 4716.00    1.44042   1.42545   67.008
 4717.00    1.47202   1.44542   65.722
 4718.00    1.48775   1.46498   65.359
 4719.00    1.49315   1.47766   65.134
 4720.00    1.49539   1.48233   64.911
 4721.00    1.49425   1.48068   65.506
 4722.00    1.47327   1.47646   65.966
 4723.00    1.47754   1.47501   65.537
 4724.00    1.50228   1.47734   64.809
 4725.00    1.51036   1.47641   64.950
 4726.00    1.48741   1.46371   66.607
 4727.00    1.43914   1.43786   69.198
 4728.00    1.40415   1.40914   70.694
 4729.00    1.39967   1.39226   70.345
 4730.00    1.42057   1.39138   69.604
 4731.00    1.42207   1.40013   69.065
 4732.00    1.43002   1.41286   68.216
 4733.00    1.43722   1.42599   67.636
 4734.00    1.45532   1.43484   67.262
 4735.00    1.46165   1.43674   66.887
 4736.00    1.45189   1.43393   67.664
 4737.00    1.44038   1.43151   67.717
 4738.00    1.44738   1.43435   66.791
 4739.00    1.47088   1.44210   66.867
 4740.00    1.47174   1.44829   67.274
 4741.00    1.44865   1.45027   67.347
 4742.00    1.45642   1.45288   66.776
 4743.00    1.47277   1.45823   66.036
 4744.00    1.48388   1.46386   66.213
 4745.00    1.48808   1.46867   66.266
 4746.00    1.48557   1.47373   65.743
 4747.00    1.49686   1.48101   65.068
 4748.00    1.49728   1.48971   64.957
 4749.00    1.49747   1.49634   65.068
 4750.00    1.50698   1.49958   65.108
 4751.00    1.50674   1.49864   65.605
 4752.00    1.49676   1.49140   66.364
 4753.00    1.48410   1.47815   66.911
 4754.00    1.46904   1.46425   67.365
 4755.00    1.45522   1.45617   67.218
 4756.00    1.45259   1.45594   67.500
 4757.00    1.43851   1.46143   68.014
 4758.00    1.43236   1.46956   -1.000
 4759.00    1.46062   1.47730   67.471
 4760.00    1.46515   1.47959   67.370
 4761.00    1.43414   1.47096   68.483
 4762.00    1.39907   1.45094   -1.000
 4763.00    1.37787   1.42710   -1.000
 4764.00    1.38223   1.40976   71.166
 4765.00    1.38898   1.40201   71.007
 4766.00    1.39153   1.40271   70.491
 4767.00    1.41036   1.41314   69.491
 4768.00    1.44027   1.43397   67.880
 4769.00    1.45573   1.45879   66.967
 4770.00    1.45750   1.47613   67.129
 4771.00    1.44603   1.48008   67.721
 4772.00    1.42982   1.47710   -1.000
 4773.00    1.44102   1.47866   67.466
 4774.00    1.47654   1.48926   65.988
 4775.00    1.49062   1.50234   65.583
 4776.00    1.50028   1.50982   65.657
 4777.00    1.48096   1.51050   65.857
 4778.00    1.47628   1.50678   66.299
 4779.00    1.46973   1.50006   67.063
 4780.00    1.45554   1.49178   67.441
 4781.00    1.45612   1.48386   67.600
 4782.00    1.45196   1.47613   67.939
 4783.00    1.44272   1.46836   68.499
 4784.00    1.43358   1.46193   68.443
 4785.00    1.44336   1.45684   68.687
 4786.00    1.43040   1.45148   69.396
 4787.00    1.41683   1.44641   69.781
 4788.00    1.41783   1.44479   69.690
 4789.00    1.42573   1.44831   69.334
 4790.00    1.42903   1.45714   68.903
 4791.00    1.44060   1.47130   68.169
 4792.00    1.44731   1.48971   -1.000
 4793.00    1.48485   1.51041   65.515
 4794.00    1.51806   1.53082   64.407
 4795.00    1.52745   1.54570   64.210
 4796.00    1.52004   1.54887   64.898
 4797.00    1.50009   1.53874   66.243
 4798.00    1.47138   1.51963   -1.000
 4799.00    1.44957   1.50094   -1.000
 4800.00    1.44848   1.49352   -1.000
 4801.00    1.47195   1.50161   66.194
 4802.00    1.49890   1.51851   65.262
 4803.00    1.50460   1.53103   65.405
 4804.00    1.48608   1.53054   -1.000
 4805.00    1.45184   1.51997   -1.000
 4806.00    1.44327   1.50807   -1.000
 4807.00    1.44998   1.50030   -1.000
 4808.00    1.45799   1.49817   -1.000
 4809.00    1.46932   1.50198   67.233
 4810.00    1.47010   1.50984   -1.000
 4811.00    1.47062   1.51782   -1.000
 4812.00    1.47515   1.52322   -1.000
 4813.00    1.49010   1.52644   65.752
 4814.00    1.49157   1.53006   65.587
 4815.00    1.48700   1.53692   -1.000
 4816.00    1.50683   1.54729   64.927
 4817.00    1.51419   1.55767   -1.000
 4818.00    1.51852   1.56395   -1.000
 4819.00    1.51845   1.56553   -1.000
 4820.00    1.52206   1.56366   64.260
 4821.00    1.51432   1.55553   64.852
 4822.00    1.49881   1.53697   66.624
 4823.00    1.46505   1.51177   -1.000
 4824.00    1.44661   1.49305   -1.000
 4825.00    1.46741   1.49211   66.440
 4826.00    1.49706   1.50533   65.419
 4827.00    1.50435   1.51842   65.747
 4828.00    1.49359   1.52193   66.550
 4829.00    1.48228   1.51737   66.947
 4830.00    1.48174   1.51016   66.911
 4831.00    1.46330   1.50145   -1.000
 4832.00    1.46127   1.49304   67.654
 4833.00    1.46989   1.49116   66.517
 4834.00    1.50329   1.49869   65.643
 4835.00    1.50873   1.51096   65.426
 4836.00    1.51517   1.51967   65.548
 4837.00    1.51417   1.52031   65.871
 4838.00    1.48512   1.51345   66.800
 4839.00    1.46274   1.50123   -1.000
 4840.00    1.44649   1.48826   -1.000
 4841.00    1.45141   1.48001   67.852
 4842.00    1.46868   1.47815   67.503
 4843.00    1.47304   1.48090   66.991
 4844.00    1.48424   1.48817   66.314
 4845.00    1.50343   1.50085   65.255
 4846.00    1.52476   1.51353   64.947
 4847.00    1.50993   1.51611   66.339
 4848.00    1.47476   1.50779   67.315
 4849.00    1.47043   1.49980   67.269
 4850.00    1.48394   1.49994   66.286
 4851.00    1.48593   1.50413   66.163
 4852.00    1.48735   1.50401   66.562
 4853.00    1.49379   1.49364   67.137
 4854.00    1.45771   1.47022   69.209
 4855.00    1.41615   1.43933   71.171
 4856.00    1.40811   1.41359   70.930
 4857.00    1.41490   1.39694   70.186
 4858.00    1.39985   1.37278   72.215
 4859.00    1.32439   1.31413   78.633
 4860.00    1.18394   1.22105   -1.000
 4861.00    1.08436   1.13581   -1.000
 4862.00    1.12009   1.10881   86.131
 4863.00    1.22346   1.15539   -1.000
 4864.00    1.32201   1.24242   -1.000
 4865.00    1.37729   1.32524   -1.000
 4866.00    1.40649   1.38371   69.793
 4867.00    1.42936   1.41992   69.185
 4868.00    1.43665   1.43929   68.898
 4869.00    1.43147   1.44107   69.529
 4870.00    1.40835   1.42258   71.549
 4871.00    1.36236   1.39070   73.296
 4872.00    1.35297   1.36745   72.591
 4873.00    1.38401   1.37373   70.465
 4874.00    1.42096   1.40506   69.269
 4875.00    1.43369   1.43814   68.754
 4876.00    1.44076   1.45755   68.383
 4877.00    1.44570   1.46704   68.160
 4878.00    1.45482   1.47840   67.137
 4879.00    1.47737   1.49498   66.431
 4880.00    1.48689   1.50915   67.065
 4881.00    1.45855   1.51177   -1.000
 4882.00    1.43903   1.50323   -1.000
 4883.00    1.45518   1.49261   -1.000
 4884.00    1.44757   1.48281   -1.000
 4885.00    1.43388   1.47028   -1.000
 4886.00    1.42424   1.45671   -1.000
 4887.00    1.43020   1.44775   69.758
 4888.00    1.44593   1.44262   69.671
 4889.00    1.43513   1.43267   70.740
 4890.00    1.39165   1.41405   72.336
 4891.00    1.39105   1.39968   71.796
 4892.00    1.42697   1.41105   68.842
 4893.00    1.48687   1.45559   65.615
 4894.00    1.54623   1.51604   63.710
 4895.00    1.58051   1.56655   62.532
 4896.00    1.59610   1.59458   62.254
 4897.00    1.59181   1.60168   62.401
 4898.00    1.57452   1.59406   63.795
 4899.00    1.52958   1.57821   -1.000
 4900.00    1.51164   1.56160   -1.000
 4901.00    1.51853   1.54938   65.664
 4902.00    1.51685   1.53988   65.767
 4903.00    1.50300   1.53011   66.606
 4904.00    1.50054   1.52562   65.840
 4905.00    1.53351   1.53543   64.403
 4906.00    1.56990   1.55419   63.925
 4907.00    1.56282   1.56386   64.546
 4908.00    1.52720   1.55409   66.138
 4909.00    1.49779   1.52932   68.070
 4910.00    1.46412   1.50301   -1.000
 4911.00    1.46098   1.48899   67.957
 4912.00    1.49796   1.49348   66.713
 4913.00    1.51845   1.51121   65.806
 4914.00    1.54281   1.53179   64.950
 4915.00    1.56438   1.54737   64.381
 4916.00    1.57085   1.54921   64.708
 4917.00    1.54443   1.52612   67.029
 4918.00    1.46484   1.47539   70.758
 4919.00    1.38440   1.41149   -1.000
 4920.00    1.34687   1.36199   74.931
 4921.00    1.37580   1.35010   72.419
 4922.00    1.42899   1.37487   -1.000
 4923.00    1.46206   1.41289   -1.000
 4924.00    1.46710   1.44293   68.727
 4925.00    1.47352   1.46483   67.833
 4926.00    1.50875   1.48926   66.031
 4927.00    1.54205   1.51884   64.862
 4928.00    1.55765   1.54717   64.264
 4929.00    1.57827   1.56847   63.827
 4930.00    1.58950   1.58000   63.443
 4931.00    1.59211   1.57789   64.091
 4932.00    1.55713   1.55821   65.871
 4933.00    1.49142   1.52589   68.296
 4934.00    1.46020   1.49769   -1.000
 4935.00    1.48320   1.48699   67.155
 4936.00    1.50472   1.48732   67.134
 4937.00    1.48323   1.47924   69.168
 4938.00    1.44264   1.45758   71.082
 4939.00    1.42406   1.44158   70.415
 4940.00    1.45777   1.45179   67.969
 4941.00    1.52168   1.48856   65.787
 4942.00    1.55490   1.53267   64.589
 4943.00    1.56347   1.56328   64.010
 4944.00    1.57762   1.57384   64.069
 4945.00    1.57903   1.57046   64.538
 4946.00    1.56325   1.56443   64.671
 4947.00    1.56801   1.56557   64.072
 4948.00    1.58405   1.57659   63.306
 4949.00    1.59251   1.59122   63.127
 4950.00    1.59731   1.60022   62.858
 4951.00    1.59532   1.60019   63.199
 4952.00    1.59311   1.59391   63.637
 4953.00    1.58245   1.58447   64.382
 4954.00    1.55985   1.57035   65.187
 4955.00    1.53411   1.54250   66.953
 4956.00    1.47344   1.49228   70.463
 4957.00    1.39718   1.43349   -1.000
 4958.00    1.39288   1.40263   71.749
 4959.00    1.46150   1.42247   67.572
 4960.00    1.53064   1.47783   -1.000
 4961.00    1.55823   1.53223   64.796
 4962.00    1.54840   1.56181   65.115
 4963.00    1.54578   1.56660   65.640
 4964.00    1.53385   1.55548   66.424
 4965.00    1.49698   1.53586   67.853
 4966.00    1.47883   1.51579   68.725
 4967.00    1.48566   1.50287   68.726
 4968.00    1.48594   1.49862   68.521
 4969.00    1.49359   1.50101   68.008
 4970.00    1.50007   1.50943   67.275
 4971.00    1.51181   1.52332   66.553
 4972.00    1.52959   1.54037   65.755
 4973.00    1.53219   1.55697   65.137
 4974.00    1.55228   1.56842   64.877
 4975.00    1.55492   1.57120   65.343
 4976.00    1.55254   1.56517   66.038
 4977.00    1.52496   1.55187   66.941
 4978.00    1.50662   1.53438   68.039
 4979.00    1.48643   1.51586   68.873
 4980.00    1.47342   1.49436   69.851
 4981.00    1.42825   1.46359   72.185
 4982.00    1.37575   1.42316   -1.000
 4983.00    1.36155   1.38726   74.499
 4984.00    1.38333   1.37566   73.073
 4985.00    1.41706   1.39501   71.006
 4986.00    1.46604   1.43403   68.743
 4987.00    1.50230   1.47543   67.044
 4988.00    1.51391   1.50490   67.130
 4989.00    1.50541   1.51383   68.140
 4990.00    1.48205   1.50585   68.838
 4991.00    1.47533   1.49496   68.858
 4992.00    1.48987   1.49252   68.231
 4993.00    1.50088   1.49851   67.948
 4994.00    1.50303   1.50684   67.921
 4995.00    1.51303   1.51479   67.564
 4996.00    1.52071   1.52216   67.227
 4997.00    1.51145   1.52487   67.648
 4998.00    1.50140   1.51596   68.566
 4999.00    1.47390   1.49341   69.965
 5000.00    1.44424   1.46541   70.835
 5001.00    1.44456   1.44541   70.872
 5002.00    1.45579   1.44026   70.186
 5003.00    1.47287   1.44414   69.725
 5004.00    1.46596   1.44369   70.751
 5005.00    1.43130   1.43006   72.579
 5006.00    1.40901   1.41036   72.966
 5007.00    1.41521   1.40479   71.141
 5008.00    1.45663   1.42388   68.958
 5009.00    1.49856   1.45463   -1.000
 5010.00    1.50919   1.47370   69.165
 5011.00    1.46766   1.46657   71.270
 5012.00    1.42157   1.43709   73.964
 5013.00    1.38447   1.40261   75.675
 5014.00    1.36588   1.38104   75.278
 5015.00    1.38265   1.37908   73.586
 5016.00    1.42280   1.39016   72.044
 5017.00    1.42302   1.40305   71.760
 5018.00    1.42917   1.41316   71.782
 5019.00    1.44286   1.42455   70.949
 5020.00    1.46270   1.43808   70.371
 5021.00    1.46102   1.44763   70.700
 5022.00    1.44712   1.45062   70.854
 5023.00    1.45763   1.45342   70.439
 5024.00    1.47301   1.46390   69.685
 5025.00    1.48346   1.47837   69.221
 5026.00    1.48364   1.48480   69.566
 5027.00    1.47431   1.48104   69.901
 5028.00    1.47647   1.47757   69.245
 5029.00    1.51298   1.48344   67.924
 5030.00    1.53622   1.49930   66.961
 5031.00    1.54738   1.52037   65.868
 5032.00    1.57182   1.54009   65.114
 5033.00    1.58196   1.55068   65.236
 5034.00    1.55279   1.54360   67.373
 5035.00    1.49401   1.51751   70.072
 5036.00    1.45473   1.48541   71.206
 5037.00    1.44821   1.46251   71.440
 5038.00    1.44004   1.44736   72.337
 5039.00    1.40214   1.42386   75.230
 5040.00    1.35049   1.38655   -1.000
 5041.00    1.32937   1.35606   78.288
 5042.00    1.36869   1.35996   74.428
 5043.00    1.44742   1.40369   -1.000
 5044.00    1.51084   1.46637   -1.000
 5045.00    1.54708   1.52125   65.591
 5046.00    1.65320   1.55347   -1.000
 5047.00    1.10987   1.55860   -1.000
 5048.00    0.20929   1.53860   -1.000
 5049.00   -0.03904   1.50415    0.000
 5050.00    0.48429   1.47224   -1.000
 5051.00    1.49158   1.45661   70.288
 5052.00    1.48597   1.46255   68.705
 5053.00    1.53686   1.48692   -1.000
 5054.00    1.57043   1.51869   -1.000
 5055.00    1.58825   1.54436   -1.000
 5056.00    1.59723   1.55924   64.936
 5057.00    1.59767   1.56681   65.063
 5058.00    1.60028   1.57131   65.184
 5059.00    1.59004   1.57544   65.155
 5060.00    1.58852   1.58002   64.700
 5061.00    1.60080   1.58351   64.747
 5062.00    1.60019   1.58012   65.641
 5063.00    1.56690   1.56149   67.585
 5064.00    1.51032   1.52835   70.015
 5065.00    1.47490   1.49608   70.784
 5066.00    1.49062   1.48011   69.885
 5067.00    1.51545   1.48108   68.819
 5068.00    1.52412   1.48868   68.620
 5069.00    1.53203   1.49615   68.291
 5070.00    1.54247   1.50279   -1.000
 5071.00    1.54974   1.50597   -1.000
 5072.00    1.52854   1.50244   68.954
 5073.00    1.53354   1.49672   68.069
 5074.00    1.54568   1.49681   -1.000
 5075.00    1.54915   1.50315   -1.000
 5076.00    1.55234   1.50810   -1.000
 5077.00    1.55010   1.50278   -1.000
 5078.00    1.51883   1.48150   70.515
 5079.00    1.45183   1.44731   73.914
 5080.00    1.40771   1.41709   74.704
 5081.00    1.42932   1.40781   73.068
 5082.00    1.46283   1.41852   -1.000
 5083.00    1.48012   1.43754   -1.000
 5084.00    1.50061   1.45905   -1.000
 5085.00    1.53829   1.48328   -1.000
 5086.00    1.56272   1.50685   -1.000
 5087.00    1.56065   1.52324   67.478
 5088.00    1.56018   1.53130   67.131
 5089.00    1.56755   1.53583   66.641
 5090.00    1.58063   1.54111   66.276
 5091.00    1.58490   1.54862   65.933
 5092.00    1.58810   1.55878   65.159
 5093.00    1.60327   1.56963   64.578
 5094.00    1.64904   1.57438   -1.000
 5095.00    1.65964   1.56455   -1.000
 5096.00    1.57002   1.53786   68.031
 5097.00    1.53686   1.50236   69.689
 5098.00    1.48901   1.47092   71.145
 5099.00    1.48267   1.45521   71.337
 5100.00    1.51407   1.46178   -1.000
 5101.00    1.54907   1.48602   -1.000
 5102.00    1.58098   1.51178   -1.000
 5103.00    1.57097   1.52430   -1.000
 5104.00    1.56745   1.52187   -1.000
 5105.00    1.55226   1.51029   -1.000
 5106.00    1.51123   1.49359   69.983
 5107.00    1.49625   1.47515   70.864
 5108.00    1.48903   1.46078   70.727
 5109.00    1.49026   1.45561   70.263
 5110.00    1.49321   1.46201   69.756
 5111.00    1.50904   1.47938   68.736
 5112.00    1.53726   1.50277   67.899
 5113.00    1.55363   1.52466   67.071
 5114.00    1.57274   1.54149   66.472
 5115.00    1.58856   1.55467   66.123
 5116.00    1.59725   1.56599   65.413
 5117.00    1.61898   1.57486   -1.000
 5118.00    1.63419   1.57886   -1.000
 5119.00    1.61713   1.57509   -1.000
 5120.00    1.58420   1.56191   66.959
 5121.00    1.56360   1.54082   68.069
 5122.00    1.53045   1.51493   69.847
 5123.00    1.49045   1.48748   71.970
 5124.00    1.46199   1.46376   72.418
 5125.00    1.46980   1.45053   71.737
 5126.00    1.48724   1.44902   71.396
 5127.00    1.49331   1.45313   -1.000
 5128.00    1.49186   1.45674   71.087
 5129.00    1.48613   1.45981   71.017
 5130.00    1.49739   1.46602   70.061
 5131.00    1.52528   1.47777   -1.000
 5132.00    1.54444   1.49335   -1.000
 5133.00    1.55600   1.50841   -1.000
 5134.00    1.56963   1.51970   -1.000
 5135.00    1.58196   1.52531   -1.000
 5136.00    1.58439   1.52189   -1.000
 5137.00    1.55959   1.50652   -1.000
 5138.00    1.51495   1.48348   70.937
 5139.00    1.49190   1.46382   70.999
 5140.00    1.50557   1.45550   -1.000
 5141.00    1.50051   1.45598   -1.000
 5142.00    1.48993   1.45800   72.082
 5143.00    1.47785   1.46050   71.607
 5144.00    1.49560   1.46668   70.370
 5145.00    1.52492   1.47384   -1.000
 5146.00    1.51298   1.47447   -1.000
 5147.00    1.50026   1.46900   71.008
 5148.00    1.50696   1.46723   70.097
 5149.00    1.52206   1.47253   -1.000
 5150.00    1.51193   1.47545   70.631
 5151.00    1.47864   1.46889   71.941
 5152.00    1.46679   1.45756   72.384
 5153.00    1.46896   1.45043   71.987
 5154.00    1.49462   1.45346   -1.000
 5155.00    1.52796   1.46944   -1.000
 5156.00    1.58006   1.49656   -1.000
 5157.00    1.61697   1.52646   -1.000
 5158.00    1.62183   1.54986   -1.000
 5159.00    1.61548   1.56265   -1.000
 5160.00    1.62576   1.56538   -1.000
 5161.00    1.60998   1.55935   -1.000
 5162.00    1.59579   1.54515   -1.000
 5163.00    1.57175   1.52248   -1.000
 5164.00    1.53382   1.48633   -1.000
 5165.00    1.45716   1.42605   76.350
 5166.00    1.31973   1.33945   84.430
 5167.00    1.21031   1.25100   -1.000
 5168.00    1.20100   1.20189   87.895
 5169.00    1.27435   1.20944   -1.000
 5170.00    1.32977   1.23870   -1.000
 5171.00    1.27782   1.23796   -1.000
 5172.00    1.18419   1.20379   93.260
 5173.00    1.17266   1.18488   89.048
 5174.00    1.28321   1.22542   -1.000
 5175.00    1.43809   1.31595   -1.000
 5176.00    1.52274   1.40821   -1.000
 5177.00    1.55327   1.46835   -1.000
 5178.00    1.56775   1.49425   -1.000
 5179.00    1.54746   1.49518   -1.000
 5180.00    1.51174   1.47069   -1.000
 5181.00    1.43994   1.41127   -1.000
 5182.00    1.31021   1.31957   87.104
 5183.00    1.17875   1.22702   -1.000
 5184.00    1.16557   1.18417   89.013
 5185.00    1.27985   1.22020   -1.000
 5186.00    1.43176   1.31205   -1.000
 5187.00    1.51358   1.40538   -1.000
 5188.00    1.54244   1.46362   -1.000
 5189.00    1.54633   1.48728   -1.000
 5190.00    1.53890   1.48816   -1.000
 5191.00    1.49860   1.47046   72.227
 5192.00    1.45880   1.44301   74.212
 5193.00    1.45341   1.42441   73.538
 5194.00    1.48409   1.42532   -1.000
 5195.00    1.49775   1.44063   -1.000
 5196.00    1.51584   1.46130   -1.000
 5197.00    1.54224   1.48467   -1.000
 5198.00    1.56691   1.51045   -1.000
 5199.00    1.58301   1.53396   -1.000
 5200.00    1.60095   1.54858   -1.000
 5201.00    1.58973   1.54996   -1.000
 5202.00    1.57844   1.53548   -1.000
 5203.00    1.53710   1.50485   70.401
 5204.00    1.48203   1.46243   72.651
 5205.00    1.44395   1.41823   74.887
 5206.00    1.43500   1.38402   -1.000
 5207.00    1.42921   1.36553   -1.000
 5208.00    1.42315   1.36041   -1.000
 5209.00    1.43473   1.36820   -1.000
 5210.00    1.47152   1.39489   -1.000
 5211.00    1.52721   1.44188   -1.000
 5212.00    1.58869   1.49730   -1.000
 5213.00    1.62476   1.54083   -1.000
 5214.00    1.62196   1.55693   -1.000
 5215.00    1.59210   1.54614   -1.000
 5216.00    1.56737   1.52586   68.503
 5217.00    1.56438   1.51785   67.869
 5218.00    1.58963   1.53182   -1.000
 5219.00    1.62370   1.56042   -1.000
 5220.00    1.64685   1.58900   -1.000
 5221.00    1.66249   1.60686   -1.000
 5222.00    1.65331   1.60827   65.536
 5223.00    1.61677   1.59006   67.600
 5224.00    1.55519   1.55081   70.433
 5225.00    1.49038   1.49386   73.761
 5226.00    1.43324   1.43643   75.736
 5227.00    1.43523   1.40650   73.952
 5228.00    1.50347   1.42108   -1.000
 5229.00    1.58252   1.47022   -1.000
 5230.00    1.63085   1.52223   -1.000
 5231.00    1.64814   1.54872   -1.000
 5232.00    1.61971   1.54410   -1.000
 5233.00    1.58739   1.52420   -1.000
 5234.00    1.57614   1.51332   -1.000
 5235.00    1.59643   1.52607   -1.000
 5236.00    1.63338   1.55796   -1.000
 5237.00    1.66982   1.59301   -1.000
 5238.00    1.67284   1.61714   -1.000
 5239.00    1.66119   1.62679   64.398
 5240.00    1.66333   1.62721   64.266
 5241.00    1.66357   1.62404   63.872
 5242.00    1.66802   1.62060   63.996
 5243.00    1.66750   1.62020   -1.000
 5244.00    1.67864   1.62293   -1.000
 5245.00    1.66782   1.62082   -1.000
 5246.00    1.62344   1.60499   67.194
 5247.00    1.58502   1.57857   68.728
 5248.00    1.57314   1.55462   68.829
 5249.00    1.57661   1.54115   68.958
 5250.00    1.56704   1.53617   69.420
 5251.00    1.55799   1.53685   69.048
 5252.00    1.58307   1.54284   68.056
 5253.00    1.60374   1.55079   -1.000
 5254.00    1.59513   1.55639   67.445
 5255.00    1.60309   1.56294   66.931
 5256.00    1.63874   1.57900   -1.000
 5257.00    1.68638   1.60547   -1.000
 5258.00    1.71088   1.63070   -1.000
 5259.00    1.70692   1.63944   -1.000
 5260.00    1.67375   1.62323   -1.000
 5261.00    1.60538   1.58298   68.333
 5262.00    1.54038   1.52716   71.611
 5263.00    1.49938   1.46821   74.040
 5264.00    1.46600   1.41854   75.513
 5265.00    1.43703   1.38872   75.650
 5266.00    1.45292   1.38265   -1.000
 5267.00    1.49843   1.38915   -1.000
 5268.00    1.49898   1.38642   -1.000
 5269.00    1.43051   1.36583   -1.000
 5270.00    1.39706   1.34836   -1.000
 5271.00    1.46592   1.36489   -1.000
 5272.00    1.56089   1.41643   -1.000
 5273.00    1.59919   1.47153   -1.000
 5274.00    1.59975   1.50555   -1.000
 5275.00    1.60121   1.52273   -1.000
 5276.00    1.62246   1.54183   -1.000
 5277.00    1.67094   1.57311   -1.000
 5278.00    1.71099   1.60811   -1.000
 5279.00    1.72203   1.62776   -1.000
 5280.00    1.69153   1.62041   -1.000
 5281.00    1.65360   1.59240   -1.000
 5282.00    1.61177   1.56030   -1.000
 5283.00    1.59630   1.53930   -1.000
 5284.00    1.61471   1.54089   -1.000
 5285.00    1.66093   1.56859   -1.000
 5286.00    1.73258   1.61126   -1.000
 5287.00    1.75466   1.64912   -1.000
 5288.00    1.74058   1.67067   -1.000
 5289.00    1.73113   1.67926   -1.000
 5290.00    1.73955   1.68220   -1.000
 5291.00    1.75320   1.68150   -1.000
 5292.00    1.73956   1.67722   -1.000
 5293.00    1.72281   1.67041   -1.000
 5294.00    1.72076   1.65905   -1.000
 5295.00    1.68712   1.63680   -1.000
 5296.00    1.62512   1.59988   68.312
 5297.00    1.57078   1.55666   70.098
 5298.00    1.55386   1.52722   69.531
 5299.00    1.58932   1.52556   -1.000
 5300.00    1.63675   1.54515   -1.000
 5301.00    1.65553   1.56896   -1.000
 5302.00    1.66639   1.58961   -1.000
 5303.00    1.69588   1.61230   -1.000
 5304.00    1.73749   1.63945   -1.000
 5305.00    1.75862   1.66184   -1.000
 5306.00    1.74794   1.67001   -1.000
 5307.00    1.72720   1.66654   -1.000
 5308.00    1.72697   1.66324   -1.000
 5309.00    1.74919   1.66900   -1.000
 5310.00    1.76321   1.68111   -1.000
 5311.00    1.76126   1.69006   -1.000
 5312.00    1.75341   1.69017   -1.000
 5313.00    1.75608   1.68237   -1.000
 5314.00    1.75216   1.66979   -1.000
 5315.00    1.72880   1.65450   -1.000
 5316.00    1.71160   1.63955   -1.000
 5317.00    1.70408   1.63139   -1.000
 5318.00    1.71248   1.63447   -1.000
 5319.00    1.72650   1.64439   -1.000
 5320.00    1.72387   1.65072   -1.000
 5321.00    1.72922   1.64622   -1.000
 5322.00    1.71323   1.63005   -1.000
 5323.00    1.68706   1.60577   -1.000
 5324.00    1.66281   1.58069   -1.000
 5325.00    1.66722   1.55859   -1.000
 5326.00    1.65396   1.53111   -1.000
 5327.00    1.56002   1.48796   -1.000
 5328.00    1.47494   1.44115   75.383
 5329.00    1.48907   1.42483   -1.000
 5330.00    1.58439   1.45803   -1.000
 5331.00    1.66732   1.52014   -1.000
 5332.00    1.69167   1.57443   -1.000
 5333.00    1.68835   1.60589   -1.000
 5334.00    1.72161   1.62400   -1.000
 5335.00    1.73911   1.63773   -1.000
 5336.00    1.73807   1.64533   -1.000
 5337.00    1.72516   1.64249   -1.000
 5338.00    1.71131   1.62782   -1.000
 5339.00    1.68144   1.60233   -1.000
 5340.00    1.63531   1.57356   -1.000
 5341.00    1.62612   1.55772   -1.000
 5342.00    1.66781   1.56647   -1.000
 5343.00    1.71119   1.59214   -1.000
 5344.00    1.72272   1.61415   -1.000
 5345.00    1.70991   1.62000   -1.000
 5346.00    1.70207   1.61256   -1.000
 5347.00    1.69920   1.60062   -1.000
 5348.00    1.68515   1.59074   -1.000
 5349.00    1.67232   1.58753   -1.000
 5350.00    1.68099   1.59576   -1.000
 5351.00    1.71395   1.61571   -1.000
 5352.00    1.74680   1.63976   -1.000
 5353.00    1.76178   1.65912   -1.000
 5354.00    1.76195   1.67292   -1.000
 5355.00    1.78754   1.68639   -1.000
 5356.00    1.80444   1.70055   -1.000
 5357.00    1.80072   1.71091   -1.000
 5358.00    1.80150   1.71424   -1.000
 5359.00    1.79856   1.71093   -1.000
 5360.00    1.77998   1.70179   -1.000
 5361.00    1.75488   1.68694   -1.000
 5362.00    1.72934   1.66845   -1.000
 5363.00    1.72301   1.64950   -1.000
 5364.00    1.70203   1.63229   -1.000
 5365.00    1.69951   1.61932   -1.000
 5366.00    1.69493   1.61289   -1.000
 5367.00    1.69908   1.61061   -1.000
 5368.00    1.70096   1.60318   -1.000
 5369.00    1.67649   1.58109   -1.000
 5370.00    1.62390   1.54631   -1.000
 5371.00    1.59570   1.51682   -1.000
 5372.00    1.62704   1.51546   -1.000
 5373.00    1.69822   1.54957   -1.000
 5374.00    1.75850   1.60309   -1.000
 5375.00    1.78487   1.65029   -1.000
 5376.00    1.78084   1.67658   -1.000
 5377.00    1.77477   1.68448   -1.000
 5378.00    1.77219   1.68344   -1.000
 5379.00    1.76209   1.67925   -1.000
 5380.00    1.74720   1.67213   -1.000
 5381.00    1.73784   1.66118   -1.000
 5382.00    1.73179   1.64845   -1.000
 5383.00    1.72043   1.63950   -1.000
 5384.00    1.72759   1.64012   -1.000
 5385.00    1.75419   1.65102   -1.000
 5386.00    1.76734   1.66552   -1.000
 5387.00    1.76499   1.67397   -1.000
 5388.00    1.75072   1.67095   -1.000
 5389.00    1.72210   1.65752   -1.000
 5390.00    1.70046   1.63912   -1.000
 5391.00    1.69425   1.62195   -1.000
 5392.00    1.69142   1.60885   -1.000
 5393.00    1.68955   1.59968   -1.000
 5394.00    1.68574   1.59235   -1.000
 5395.00    1.66983   1.58132   -1.000
 5396.00    1.63491   1.56318   -1.000
 5397.00    1.60503   1.54585   -1.000
 5398.00    1.63470   1.54432   -1.000
 5399.00    1.69549   1.56457   -1.000
 5400.00    1.72924   1.59514   -1.000
 5401.00    1.73198   1.61824   -1.000
 5402.00    1.73023   1.62267   -1.000
 5403.00    1.69924   1.60398   -1.000
 5404.00    1.63093   1.56587   -1.000
 5405.00    1.59234   1.52580   -1.000
 5406.00    1.59928   1.50643   -1.000
 5407.00    1.63626   1.51516   -1.000
 5408.00    1.65187   1.53690   -1.000
 5409.00    1.63486   1.55158   -1.000
 5410.00    1.63012   1.55739   -1.000
 5411.00    1.66963   1.56930   -1.000
 5412.00    1.71956   1.59426   -1.000
 5413.00    1.75518   1.62131   -1.000
 5414.00    1.74236   1.63798   -1.000
 5415.00    1.74279   1.64564   -1.000
 5416.00    1.74895   1.65436   -1.000
 5417.00    1.75869   1.66638   -1.000
 5418.00    1.76760   1.67475   -1.000
 5419.00    1.75591   1.67504   -1.000
 5420.00    1.74420   1.66987   -1.000
 5421.00    1.75327   1.66355   -1.000
 5422.00    1.74773   1.65626   -1.000
 5423.00    1.73414   1.64582   -1.000
 5424.00    1.71953   1.63623   -1.000
 5425.00    1.70496   1.63752   -1.000
 5426.00    1.73961   1.65183   -1.000
 5427.00    1.77404   1.66327   -1.000
 5428.00    1.73616   1.65179   -1.000
 5429.00    1.66847   1.61924   -1.000
 5430.00    1.64795   1.58949   -1.000
 5431.00    1.68299   1.58114   -1.000
 5432.00    1.70817   1.58764   -1.000
 5433.00    1.68262   1.58909   -1.000
 5434.00    1.64898   1.57934   -1.000
 5435.00    1.65105   1.57197   -1.000
 5436.00    1.67534   1.58287   -1.000
 5437.00    1.71502   1.61466   -1.000
 5438.00    1.75931   1.65512   -1.000
 5439.00    1.79220   1.68885   -1.000
 5440.00    1.80997   1.70938   -1.000
 5441.00    1.81180   1.71966   -1.000
 5442.00    1.80509   1.72266   -1.000
 5443.00    1.79059   1.71497   -1.000
 5444.00    1.75510   1.69006   -1.000
 5445.00    1.70021   1.64735   -1.000
 5446.00    1.64072   1.60009   69.175
 5447.00    1.61175   1.57097   68.447
 5448.00    1.65014   1.57523   -1.000
 5449.00    1.71540   1.60735   -1.000
 5450.00    1.75050   1.64550   -1.000
 5451.00    1.74942   1.66988   -1.000
 5452.00    1.75014   1.67303   -1.000
 5453.00    1.73264   1.65550   -1.000
 5454.00    1.69016   1.62229   -1.000
 5455.00    1.64142   1.58719   -1.000
 5456.00    1.64629   1.57220   -1.000
 5457.00    1.69334   1.59076   -1.000
 5458.00    1.74909   1.63090   -1.000
 5459.00    1.76940   1.66519   -1.000
 5460.00    1.75534   1.67555   -1.000
 5461.00    1.73054   1.66280   -1.000
 5462.00    1.69309   1.63961   -1.000
 5463.00    1.67814   1.62141   -1.000
 5464.00    1.69523   1.61859   -1.000
 5465.00    1.71651   1.63056   -1.000
 5466.00    1.71272   1.64811   -1.000
 5467.00    1.72706   1.66287   -1.000
 5468.00    1.74119   1.67221   -1.000
 5469.00    1.74187   1.67572   -1.000
 5470.00    1.73285   1.67290   -1.000
 5471.00    1.72178   1.66527   -1.000
 5472.00    1.71158   1.65555   -1.000
 5473.00    1.70286   1.64402   -1.000
 5474.00    1.68632   1.62781   -1.000
 5475.00    1.65948   1.60434   -1.000
 5476.00    1.63249   1.57843   -1.000
 5477.00    1.61918   1.56440   -1.000
 5478.00    1.65632   1.57361   -1.000
 5479.00    1.70877   1.59903   -1.000
 5480.00    1.71099   1.61986   -1.000
 5481.00    1.68048   1.62460   -1.000
 5482.00    1.67198   1.62253   -1.000
 5483.00    1.68814   1.62933   -1.000
 5484.00    1.72536   1.64831   -1.000
 5485.00    1.75359   1.66791   -1.000
 5486.00    1.74540   1.67468   -1.000
 5487.00    1.72264   1.66685   -1.000
 5488.00    1.70385   1.65443   -1.000
 5489.00    1.70440   1.64862   -1.000
 5490.00    1.71073   1.65267   -1.000
 5491.00    1.71665   1.66153   -1.000
 5492.00    1.73248   1.66879   -1.000
 5493.00    1.73719   1.67198   -1.000
 5494.00    1.73243   1.67219   -1.000
 5495.00    1.74249   1.66977   -1.000
 5496.00    1.72749   1.66314   -1.000
 5497.00    1.70580   1.65403   -1.000
 5498.00    1.71671   1.64903   -1.000
 5499.00    1.73435   1.65057   -1.000
 5500.00    1.73594   1.65102   -1.000
 5501.00    1.70659   1.64283   -1.000
 5502.00    1.70574   1.63075   -1.000
 5503.00    1.70303   1.62527   -1.000
 5504.00    1.70521   1.62647   -1.000
 5505.00    1.70471   1.62501   -1.000
 5506.00    1.67426   1.61727   -1.000
 5507.00    1.67272   1.61139   -1.000
 5508.00    1.70504   1.61689   -1.000
 5509.00    1.72588   1.63083   -1.000
 5510.00    1.72769   1.63957   -1.000
 5511.00    1.69560   1.63333   -1.000
 5512.00    1.66340   1.61501   -1.000
 5513.00    1.64733   1.59705   -1.000
 5514.00    1.65759   1.59144   -1.000
 5515.00    1.69501   1.60138   -1.000
 5516.00    1.72207   1.62171   -1.000
 5517.00    1.74707   1.64552   -1.000
 5518.00    1.77396   1.66784   -1.000
 5519.00    1.78636   1.68490   -1.000
 5520.00    1.78886   1.69398   -1.000
 5521.00    1.78621   1.69571   -1.000
 5522.00    1.78127   1.69426   -1.000
 5523.00    1.77612   1.69257   -1.000
 5524.00    1.77453   1.68805   -1.000
 5525.00    1.75625   1.67475   -1.000
 5526.00    1.72244   1.64982   -1.000
 5527.00    1.67948   1.61881   -1.000
 5528.00    1.65205   1.59574   -1.000
 5529.00    1.67655   1.59463   -1.000
 5530.00    1.71430   1.61695   -1.000
 5531.00    1.74290   1.64764   -1.000
 5532.00    1.74864   1.66781   -1.000
 5533.00    1.73675   1.67112   -1.000
 5534.00    1.72280   1.66426   -1.000
 5535.00    1.73284   1.65709   -1.000
 5536.00    1.74589   1.65589   -1.000
 5537.00    1.75572   1.66105   -1.000
 5538.00    1.76613   1.66898   -1.000
 5539.00    1.77113   1.67748   -1.000
 5540.00    1.78894   1.68672   -1.000
 5541.00    1.79773   1.69388   -1.000
 5542.00    1.78953   1.69352   -1.000
 5543.00    1.77366   1.68564   -1.000
 5544.00    1.76136   1.67707   -1.000
 5545.00    1.76643   1.67420   -1.000
 5546.00    1.76495   1.67776   -1.000
 5547.00    1.77595   1.68559   -1.000
 5548.00    1.79365   1.69674   -1.000
 5549.00    1.81373   1.70899   -1.000
 5550.00    1.81131   1.71743   -1.000
 5551.00    1.81234   1.71888   -1.000
 5552.00    1.79943   1.71346   -1.000
 5553.00    1.78036   1.70351   -1.000
 5554.00    1.76680   1.69382   -1.000
 5555.00    1.76596   1.68922   -1.000
 5556.00    1.77960   1.69017   -1.000
 5557.00    1.78883   1.69326   -1.000
 5558.00    1.78479   1.69615   -1.000
 5559.00    1.78505   1.69887   -1.000
 5560.00    1.78038   1.70020   -1.000
 5561.00    1.77208   1.69663   -1.000
 5562.00    1.76261   1.68715   -1.000
 5563.00    1.75048   1.67569   -1.000
 5564.00    1.74045   1.66679   -1.000
 5565.00    1.73393   1.66135   -1.000
 5566.00    1.73727   1.65776   -1.000
 5567.00    1.74272   1.65482   -1.000
 5568.00    1.74206   1.65270   -1.000
 5569.00    1.73144   1.65163   -1.000
 5570.00    1.73514   1.65097   -1.000
 5571.00    1.74517   1.64928   -1.000
 5572.00    1.72594   1.64631   -1.000
 5573.00    1.67948   1.64499   66.001
 5574.00    1.54847   1.64911   -1.000
 5575.00    1.16177   1.65835   -1.000
 5576.00    0.66050   1.66811   -1.000
 5577.00    0.57013   1.67616   -1.000
 5578.00    1.01665   1.68400   -1.000
 5579.00    1.34733   1.69124   -1.000
 5580.00    1.75303   1.69510   -1.000
 5581.00    1.77049   1.69466   -1.000
 5582.00    1.76763   1.69165   -1.000
 5583.00    1.77448   1.68762   -1.000
 5584.00    1.76713   1.68049   -1.000
 5585.00    1.74680   1.66381   -1.000
 5586.00    1.70710   1.63314   -1.000
 5587.00    1.65456   1.59529   -1.000
 5588.00    1.64079   1.56643   -1.000
 5589.00    1.64649   1.55847   -1.000
 5590.00    1.67723   1.57142   -1.000
 5591.00    1.71318   1.59530   -1.000
 5592.00    1.72154   1.61677   -1.000
 5593.00    1.71725   1.62852   -1.000
 5594.00    1.71188   1.63428   -1.000
 5595.00    1.73127   1.64261   -1.000
 5596.00    1.75468   1.65420   -1.000
 5597.00    1.73382   1.65957   -1.000
 5598.00    1.69919   1.65181   -1.000
 5599.00    1.68760   1.63593   -1.000
 5600.00    1.67674   1.62062   -1.000
 5601.00    1.66921   1.60871   -1.000
 5602.00    1.66746   1.60313   -1.000
 5603.00    1.67830   1.61173   -1.000
 5604.00    1.72092   1.63834   -1.000
 5605.00    1.76328   1.67544   -1.000
 5606.00    1.78577   1.70919   -1.000
 5607.00    1.79161   1.73016   -1.000
 5608.00    1.78463   1.73864   -1.000
 5609.00    1.79103   1.74046   -1.000
 5610.00    1.79806   1.74115   -1.000
 5611.00    1.78954   1.74186   -1.000
 5612.00    1.78563   1.73706   -1.000
 5613.00    1.77147   1.71764   -1.000
 5614.00    1.72969   1.68071   -1.000
 5615.00    1.67916   1.63841   69.195
 5616.00    1.66529   1.61314   -1.000
 5617.00    1.70030   1.61794   -1.000
 5618.00    1.74506   1.64289   -1.000
 5619.00    1.75568   1.66825   -1.000
 5620.00    1.75997   1.68503   -1.000
 5621.00    1.76304   1.69432   -1.000
 5622.00    1.75847   1.69581   -1.000
 5623.00    1.74923   1.68654   -1.000
 5624.00    1.71783   1.66944   -1.000
 5625.00    1.70928   1.65611   -1.000
 5626.00    1.71515   1.65721   -1.000
 5627.00    1.74685   1.67246   -1.000
 5628.00    1.76363   1.69280   -1.000
 5629.00    1.78458   1.71043   -1.000
 5630.00    1.79132   1.72258   -1.000
 5631.00    1.78758   1.72855   -1.000
 5632.00    1.78606   1.72802   -1.000
 5633.00    1.77542   1.72238   -1.000
 5634.00    1.76804   1.71377   -1.000
 5635.00    1.77248   1.70315   -1.000
 5636.00    1.74799   1.69183   -1.000
 5637.00    1.72606   1.68261   -1.000
 5638.00    1.73327   1.67813   -1.000
 5639.00    1.73116   1.67810   -1.000
 5640.00    1.72946   1.67876   -1.000
 5641.00    1.73098   1.67748   -1.000
 5642.00    1.74551   1.67655   -1.000
 5643.00    1.74228   1.67920   -1.000
 5644.00    1.73958   1.68470   -1.000
 5645.00    1.75527   1.69060   -1.000
 5646.00    1.76446   1.69574   -1.000
 5647.00    1.76422   1.69897   -1.000
 5648.00    1.76713   1.69904   -1.000
 5649.00    1.77154   1.69681   -1.000
 5650.00    1.78001   1.69570   -1.000
 5651.00    1.78439   1.69841   -1.000
 5652.00    1.78322   1.70306   -1.000
 5653.00    1.79555   1.70449   -1.000
 5654.00    1.78740   1.69965   -1.000
 5655.00    1.76328   1.68873   -1.000
 5656.00    1.75043   1.67152   -1.000
 5657.00    1.71241   1.64778   -1.000
 5658.00    1.67443   1.62392   -1.000
 5659.00    1.67886   1.61247   -1.000
 5660.00    1.71116   1.61877   -1.000
 5661.00    1.72479   1.63395   -1.000
 5662.00    1.70738   1.64680   -1.000
 5663.00    1.70787   1.65702   -1.000
 5664.00    1.73599   1.67009   -1.000
 5665.00    1.75729   1.68431   -1.000
 5666.00    1.75580   1.69166   -1.000
 5667.00    1.74538   1.68934   -1.000
 5668.00    1.72598   1.68348   66.376
 5669.00    1.72800   1.68140   -1.000
 5670.00    1.73674   1.68547   -1.000
 5671.00    1.75449   1.69412   -1.000
 5672.00    1.77616   1.70498   -1.000
 5673.00    1.79867   1.71545   -1.000
 5674.00    1.79852   1.72264   -1.000
 5675.00    1.78491   1.72547   -1.000
 5676.00    1.78766   1.72571   -1.000
 5677.00    1.79485   1.72556   -1.000
 5678.00    1.80052   1.72445   -1.000
 5679.00    1.78913   1.72009   -1.000
 5680.00    1.78500   1.71113   -1.000
 5681.00    1.77903   1.69766   -1.000
 5682.00    1.76338   1.68147   -1.000
 5683.00    1.75249   1.66766   -1.000
 5684.00    1.76331   1.66226   -1.000
 5685.00    1.76250   1.66541   -1.000
 5686.00    1.75883   1.66990   -1.000
 5687.00    1.73906   1.66942   -1.000
 5688.00    1.72914   1.66603   -1.000
 5689.00    1.74323   1.66707   -1.000
 5690.00    1.76706   1.67680   -1.000
 5691.00    1.79035   1.69267   -1.000
 5692.00    1.81029   1.70804   -1.000
 5693.00    1.80819   1.71806   -1.000
 5694.00    1.80576   1.72215   -1.000
 5695.00    1.80129   1.72219   -1.000
 5696.00    1.79275   1.71958   -1.000
 5697.00    1.77846   1.71419   -1.000
 5698.00    1.76482   1.70556   -1.000
 5699.00    1.75578   1.69432   -1.000
 5700.00    1.73827   1.68279   -1.000
 5701.00    1.71937   1.67384   -1.000
 5702.00    1.72142   1.67047   -1.000
 5703.00    1.73641   1.67364   -1.000
 5704.00    1.74775   1.67920   -1.000
 5705.00    1.74652   1.68009   -1.000
 5706.00    1.73039   1.67204   -1.000
 5707.00    1.71546   1.65614   -1.000
 5708.00    1.69040   1.63663   -1.000
 5709.00    1.66675   1.61888   -1.000
 5710.00    1.67146   1.60882   -1.000
 5711.00    1.68021   1.61100   -1.000
 5712.00    1.71052   1.62650   -1.000
 5713.00    1.75222   1.65244   -1.000
 5714.00    1.77776   1.68099   -1.000
 5715.00    1.78891   1.70282   -1.000
 5716.00    1.78611   1.71511   -1.000
 5717.00    1.79470   1.72178   -1.000
 5718.00    1.79442   1.72717   -1.000
 5719.00    1.80650   1.73335   -1.000
 5720.00    1.81153   1.74083   -1.000
 5721.00    1.82546   1.74861   -1.000
 5722.00    1.82967   1.75507   -1.000
 5723.00    1.83199   1.75916   -1.000
 5724.00    1.83046   1.75992   -1.000
 5725.00    1.81337   1.75540   -1.000
 5726.00    1.78643   1.74536   -1.000
 5727.00    1.76339   1.73459   65.076
 5728.00    1.78113   1.72958   -1.000
 5729.00    1.79785   1.73105   -1.000
 5730.00    1.79921   1.73378   -1.000
 5731.00    1.79229   1.73393   -1.000
 5732.00    1.79667   1.73393   -1.000
 5733.00    1.81192   1.73858   -1.000
 5734.00    1.82981   1.74766   -1.000
 5735.00    1.82749   1.75548   -1.000
 5736.00    1.82100   1.75736   -1.000
 5737.00    1.81874   1.75446   -1.000
 5738.00    1.81260   1.75085   -1.000
 5739.00    1.81078   1.74908   -1.000
 5740.00    1.81390   1.74884   -1.000
 5741.00    1.82516   1.74815   -1.000
 5742.00    1.81825   1.74670   -1.000
 5743.00    1.81259   1.74676   -1.000
 5744.00    1.81454   1.75019   -1.000
 5745.00    1.83025   1.75482   -1.000
 5746.00    1.82464   1.75557   -1.000
 5747.00    1.80225   1.75079   -1.000
 5748.00    1.80671   1.74577   -1.000
 5749.00    1.80738   1.74610   -1.000
 5750.00    1.80747   1.74917   -1.000
 5751.00    1.81142   1.74603   -1.000
 5752.00    1.78476   1.73234   -1.000
 5753.00    1.76300   1.71458   -1.000
 5754.00    1.75897   1.70534   -1.000
 5755.00    1.77129   1.71235   -1.000
 5756.00    1.80789   1.73197   -1.000
 5757.00    1.83471   1.75264   -1.000
 5758.00    1.85032   1.76421   -1.000
 5759.00    1.83464   1.76305   -1.000
 5760.00    1.81168   1.75136   -1.000
 5761.00    1.78668   1.73439   -1.000
 5762.00    1.76571   1.71953   -1.000
 5763.00    1.75997   1.71519   -1.000
 5764.00    1.77856   1.72564   -1.000
 5765.00    1.80553   1.74558   -1.000
 5766.00    1.82203   1.76403   -1.000
 5767.00    1.82555   1.77402   -1.000
 5768.00    1.82828   1.77642   -1.000
 5769.00    1.83140   1.77494   -1.000
 5770.00    1.81526   1.77179   -1.000
 5771.00    1.80720   1.76720   -1.000
 5772.00    1.79692   1.76085   64.069
 5773.00    1.79204   1.75360   64.197
 5774.00    1.79388   1.74787   -1.000
 5775.00    1.79121   1.74586   -1.000
 5776.00    1.79543   1.74757   -1.000
 5777.00    1.79901   1.74975   -1.000
 5778.00    1.76488   1.74638   63.971
 5779.00    1.73791   1.73329   64.995
 5780.00    1.70736   1.71234   66.526
 5781.00    1.70812   1.69077   67.304
 5782.00    1.72872   1.67653   -1.000
 5783.00    1.74956   1.67251   -1.000
 5784.00    1.74725   1.67532   -1.000
 5785.00    1.75128   1.68099   -1.000
 5786.00    1.76867   1.69039   -1.000
 5787.00    1.78433   1.70517   -1.000
 5788.00    1.80874   1.72106   -1.000
 5789.00    1.81632   1.73080   -1.000
 5790.00    1.80451   1.73230   -1.000
 5791.00    1.79242   1.73045   -1.000
 5792.00    1.79247   1.73281   -1.000
 5793.00    1.79897   1.74257   -1.000
 5794.00    1.81834   1.75581   -1.000
 5795.00    1.81970   1.76583   -1.000
 5796.00    1.81124   1.76804   -1.000
 5797.00    1.80433   1.76324   -1.000
 5798.00    1.80268   1.75841   -1.000
 5799.00    1.81977   1.76096   -1.000
 5800.00    1.84796   1.77084   -1.000
 5801.00    1.86478   1.78113   -1.000
 5802.00    1.86083   1.78505   -1.000
 5803.00    1.85048   1.78042   -1.000
 5804.00    1.84042   1.77032   -1.000
 5805.00    1.81844   1.76112   -1.000
 5806.00    1.80388   1.75786   -1.000
 5807.00    1.82083   1.76062   -1.000
 5808.00    1.82648   1.76590   -1.000
 5809.00    1.83024   1.77079   -1.000
 5810.00    1.84793   1.77472   -1.000
 5811.00    1.84530   1.77753   -1.000
 5812.00    1.84758   1.77802   -1.000
 5813.00    1.84038   1.77497   -1.000
 5814.00    1.83544   1.76809   -1.000
 5815.00    1.82316   1.75898   -1.000
 5816.00    1.81891   1.75249   -1.000
 5817.00    1.81682   1.75428   -1.000
 5818.00    1.82736   1.76460   -1.000
 5819.00    1.84377   1.77673   -1.000
 5820.00    1.84457   1.78417   -1.000
 5821.00    1.84670   1.78595   -1.000
 5822.00    1.84675   1.78464   -1.000
 5823.00    1.85339   1.78272   -1.000
 5824.00    1.84928   1.78128   -1.000
 5825.00    1.85292   1.78094   -1.000
 5826.00    1.85892   1.78225   -1.000
 5827.00    1.86964   1.78496   -1.000
 5828.00    1.86571   1.78796   -1.000
 5829.00    1.86573   1.79003   -1.000
 5830.00    1.86924   1.79053   -1.000
 5831.00    1.86712   1.78960   -1.000
 5832.00    1.87036   1.78758   -1.000
 5833.00    1.86333   1.78437   -1.000
 5834.00    1.86206   1.78035   -1.000
 5835.00    1.86238   1.77756   -1.000
 5836.00    1.85496   1.77789   -1.000
 5837.00    1.86976   1.78032   -1.000
 5838.00    1.86322   1.78257   -1.000
 5839.00    1.84980   1.78467   -1.000
 5840.00    1.85375   1.78795   -1.000
 5841.00    1.87057   1.79165   -1.000
 5842.00    1.87381   1.79347   -1.000
 5843.00    1.87874   1.79214   -1.000
 5844.00    1.86864   1.78796   -1.000
 5845.00    1.85885   1.78160   -1.000
 5846.00    1.84564   1.77384   -1.000
 5847.00    1.81788   1.76671   -1.000
 5848.00    1.81481   1.76284   -1.000
 5849.00    1.82572   1.76219   -1.000
 5850.00    1.82174   1.76068   -1.000
 5851.00    1.81199   1.75397   -1.000
 5852.00    1.79874   1.74229   -1.000
 5853.00    1.76726   1.73043   64.651
 5854.00    1.76484   1.72234   -1.000
 5855.00    1.77794   1.71576   -1.000
 5856.00    1.76115   1.70462   -1.000
 5857.00    1.74057   1.68857   -1.000
 5858.00    1.73674   1.67765   -1.000
 5859.00    1.75750   1.68194   -1.000
 5860.00    1.78351   1.69886   -1.000
 5861.00    1.80160   1.71741   -1.000
 5862.00    1.79852   1.73029   -1.000
 5863.00    1.79211   1.73758   -1.000
 5864.00    1.79983   1.74125   -1.000
 5865.00    1.79187   1.74077   -1.000
 5866.00    1.78505   1.73608   -1.000
 5867.00    1.78369   1.73208   -1.000
 5868.00    1.78724   1.73481   -1.000
 5869.00    1.79925   1.74485   -1.000
 5870.00    1.82153   1.75661   -1.000
 5871.00    1.82384   1.76380   -1.000
 5872.00    1.82441   1.76474   -1.000
 5873.00    1.81597   1.76205   -1.000
 5874.00    1.81444   1.75908   -1.000
 5875.00    1.82694   1.75684   -1.000
 5876.00    1.83114   1.75427   -1.000
 5877.00    1.81710   1.74974   -1.000
 5878.00    1.80485   1.74251   -1.000
 5879.00    1.78258   1.73349   -1.000
 5880.00    1.75974   1.72492   64.454
 5881.00    1.76034   1.71851   -1.000
 5882.00    1.74630   1.71356   64.283
 5883.00    1.70809   1.70792   64.590
 5884.00    1.71510   1.70081   64.618
 5885.00    1.72090   1.69185   64.868
 5886.00    1.66995   1.67438   65.724
 5887.00    1.53805   1.63372   -1.000
 5888.00    1.30630   1.56107   -1.000
 5889.00    1.09362   1.47289   -1.000
 5890.00    1.11146   1.40936   -1.000
 5891.00    1.32205   1.40139   -1.000
 5892.00    1.51497   1.43767   -1.000
 5893.00    1.52327   1.47538   -1.000
 5894.00    1.38899   1.48285   -1.000
 5895.00    1.28497   1.46299   -1.000
 5896.00    1.32161   1.44547   -1.000
 5897.00    1.47575   1.45908   72.186
 5898.00    1.62747   1.50569   -1.000
 5899.00    1.70880   1.56305   -1.000
 5900.00    1.74071   1.61207   -1.000
 5901.00    1.75999   1.64956   -1.000
 5902.00    1.77438   1.67703   -1.000
 5903.00    1.78928   1.69468   -1.000
 5904.00    1.78478   1.70427   -1.000
 5905.00    1.77716   1.70939   -1.000
 5906.00    1.77912   1.71342   -1.000
 5907.00    1.77945   1.71813   -1.000
 5908.00    1.78634   1.72329   -1.000
 5909.00    1.79554   1.72796   -1.000
 5910.00    1.79506   1.73125   -1.000
 5911.00    1.78319   1.73157   -1.000
 5912.00    1.77753   1.72643   -1.000
 5913.00    1.76029   1.71507   -1.000
 5914.00    1.73145   1.70128   66.639
 5915.00    1.72987   1.69194   -1.000
 5916.00    1.74004   1.69140   -1.000
 5917.00    1.74944   1.69892   -1.000
 5918.00    1.75657   1.71058   -1.000
 5919.00    1.75744   1.72156   -1.000
 5920.00    1.76562   1.72828   -1.000
 5921.00    1.77284   1.73039   -1.000
 5922.00    1.77435   1.73025   -1.000
 5923.00    1.77982   1.73072   -1.000
 5924.00    1.78240   1.73354   -1.000
 5925.00    1.79552   1.73820   -1.000
 5926.00    1.79772   1.74231   -1.000
 5927.00    1.79231   1.74236   -1.000
 5928.00    1.77056   1.73633   -1.000
 5929.00    1.75307   1.72676   65.780
 5930.00    1.75800   1.72032   -1.000
 5931.00    1.76595   1.72163   -1.000
 5932.00    1.76885   1.72758   -1.000
 5933.00    1.77497   1.73091   -1.000
 5934.00    1.76951   1.72948   -1.000
 5935.00    1.76268   1.72839   65.747
 5936.00    1.76229   1.73232   65.261
 5937.00    1.78328   1.73977   -1.000
 5938.00    1.78619   1.74528   -1.000
 5939.00    1.78459   1.74463   -1.000
 5940.00    1.76419   1.73789   65.529
 5941.00    1.73691   1.72915   65.831
 5942.00    1.75210   1.72392   65.736
 5943.00    1.76748   1.72532   -1.000
 5944.00    1.77607   1.73171   -1.000
 5945.00    1.77101   1.73828   64.693
 5946.00    1.77861   1.74038   -1.000
 5947.00    1.77328   1.73633   -1.000
 5948.00    1.75511   1.72899   66.279
 5949.00    1.74527   1.72415   66.340
 5950.00    1.75285   1.72443   65.944
 5951.00    1.76067   1.72613   -1.000
 5952.00    1.75122   1.72497   65.952
 5953.00    1.73837   1.72228   65.852
 5954.00    1.74775   1.72183   65.727
 5955.00    1.75594   1.72280   65.762
 5956.00    1.75475   1.72197   66.071
 5957.00    1.73702   1.72057   66.131
 5958.00    1.74540   1.72316   65.827
 5959.00    1.77635   1.73148   -1.000
 5960.00    1.78948   1.74254   -1.000
 5961.00    1.79784   1.75187   -1.000
 5962.00    1.79967   1.75698   -1.000
 5963.00    1.79982   1.75762   -1.000
 5964.00    1.79157   1.75452   -1.000
 5965.00    1.76893   1.74945   64.903
 5966.00    1.76793   1.74551   65.148
 5967.00    1.77131   1.74530   64.935
 5968.00    1.78752   1.74866   -1.000
 5969.00    1.80453   1.75349   -1.000
 5970.00    1.79791   1.75829   -1.000
 5971.00    1.79934   1.76209   -1.000
 5972.00    1.80593   1.76344   -1.000
 5973.00    1.79450   1.76115   -1.000
 5974.00    1.77968   1.75439   65.015
 5975.00    1.76389   1.74329   65.506
 5976.00    1.74131   1.73100   65.969
 5977.00    1.74523   1.72319   66.239
 5978.00    1.76007   1.72390   -1.000
 5979.00    1.76662   1.73208   -1.000
 5980.00    1.77382   1.74209   65.069
 5981.00    1.77367   1.74688   65.278
 5982.00    1.77281   1.74217   65.863
 5983.00    1.75926   1.72983   66.441
 5984.00    1.74378   1.71750   66.730
 5985.00    1.74425   1.71307   66.411
 5986.00    1.76865   1.71831   -1.000
 5987.00    1.78214   1.72849   -1.000
 5988.00    1.79194   1.73811   -1.000
 5989.00    1.79043   1.74459   -1.000
 5990.00    1.78974   1.74761   -1.000
 5991.00    1.80052   1.74893   -1.000
 5992.00    1.79110   1.75231   -1.000
 5993.00    1.80381   1.75953   -1.000
 5994.00    1.81004   1.76657   -1.000
 5995.00    1.79849   1.76752   64.550
 5996.00    1.79610   1.76159   64.984
 5997.00    1.78551   1.75346   65.247
 5998.00    1.78445   1.74840   65.364
 5999.00    1.78920   1.74819   -1.000
 6000.00    1.78744   1.75002   -1.000
 6001.00    1.78380   1.74957   -1.000
 6002.00    1.77885   1.74541   65.926
 6003.00    1.76967   1.74049   65.873
 6004.00    1.76938   1.73818   65.673
 6005.00    1.77167   1.73689   -1.000
 6006.00    1.76813   1.73132   -1.000
 6007.00    1.74159   1.72100   66.981
 6008.00    1.72931   1.71353   66.867
 6009.00    1.74309   1.71663   66.002
 6010.00    1.76897   1.72853   -1.000
 6011.00    1.77141   1.73918   -1.000
 6012.00    1.77185   1.74150   66.039
 6013.00    1.76888   1.73780   66.351
 6014.00    1.75455   1.73389   65.924
 6015.00    1.76035   1.73199   65.982
 6016.00    1.76180   1.73103   66.306
 6017.00    1.75167   1.72968   66.406
 6018.00    1.75646   1.72732   66.192
 6019.00    1.74720   1.72299   66.460
 6020.00    1.74167   1.71724   66.908
 6021.00    1.74369   1.71351   66.545
 6022.00    1.75327   1.71462   -1.000
 6023.00    1.74719   1.71975   65.986
 6024.00    1.75054   1.72720   65.902
 6025.00    1.76143   1.73673   65.457
 6026.00    1.77407   1.74708   65.303
 6027.00    1.77310   1.75593   64.847
 6028.00    1.78044   1.76309   64.592
 6029.00    1.78819   1.76958   64.527
 6030.00    1.78646   1.77475   64.556
 6031.00    1.78754   1.77815   64.727
 6032.00    1.79219   1.78094   64.565
 6033.00    1.80155   1.78391   64.258
 6034.00    1.79856   1.78656   64.117
 6035.00    1.79896   1.78809   64.105
 6036.00    1.80269   1.78803   63.968
 6037.00    1.80069   1.78604   64.071
 6038.00    1.79535   1.78210   64.479
 6039.00    1.78979   1.77688   64.565
 6040.00    1.78698   1.77218   64.790
 6041.00    1.77554   1.76979   64.595
 6042.00    1.78292   1.77022   64.526
 6043.00    1.79197   1.77348   64.153
 6044.00    1.79020   1.77947   63.621
 6045.00    1.80475   1.78641   63.743
 6046.00    1.80667   1.79187   63.740
 6047.00    1.80452   1.79551   63.620
 6048.00    1.80263   1.79819   63.711
 6049.00    1.80093   1.79982   63.955
 6050.00    1.80782   1.79981   64.082
 6051.00    1.80637   1.79794   64.130
 6052.00    1.80961   1.79408   64.265
 6053.00    1.79525   1.78814   64.548
 6054.00    1.77818   1.78058   64.731
 6055.00    1.77791   1.77303   65.120
 6056.00    1.78028   1.76812   65.287
 6057.00    1.78601   1.76797   65.136
 6058.00    1.77877   1.77230   64.761
 6059.00    1.78566   1.77846   64.436
 6060.00    1.79174   1.78320   64.571
 6061.00    1.79021   1.78361   64.718
 6062.00    1.77903   1.77726   65.765
 6063.00    1.73803   1.76371   67.088
 6064.00    1.72362   1.74700   64.363
 6065.00    1.68000   1.73580   -1.000
 6066.00    1.19130   1.73797   -1.000
 6067.00    0.89420   1.75316   -1.000
 6068.00    1.67107   1.77286   -1.000
 6069.00    1.81934   1.78871   -1.000
 6070.00    1.82940   1.79802   -1.000
 6071.00    1.82972   1.80192   62.056
 6072.00    1.89065   1.80226   -1.000
 6073.00    1.81194   1.80129   63.955
 6074.00    1.79864   1.80083   63.994
 6075.00    1.80140   1.79938   64.236
 6076.00    1.78790   1.79357   64.583
 6077.00    1.77431   1.78353   64.955
 6078.00    1.76663   1.77317   65.481
 6079.00    1.76559   1.76594   65.862
 6080.00    1.76193   1.76164   65.851
 6081.00    1.76922   1.75795   65.922
 6082.00    1.74718   1.75445   66.128
 6083.00    1.74405   1.75252   66.094
 6084.00    1.74183   1.75259   66.044
 6085.00    1.74162   1.75435   65.971
 6086.00    1.75296   1.75797   65.763
 6087.00    1.76451   1.76259   65.489
 6088.00    1.76184   1.76523   65.673
 6089.00    1.75360   1.76348   66.102
 6090.00    1.74546   1.75858   66.361
 6091.00    1.72391   1.75447   66.289
 6092.00    1.73379   1.75446   65.815
 6093.00    1.75427   1.75921   65.507
 6094.00    1.77198   1.76681   65.126
 6095.00    1.77833   1.77428   64.857
 6096.00    1.77431   1.77974   64.919
 6097.00    1.76797   1.78330   65.095
 6098.00    1.76821   1.78489   65.119
 6099.00    1.75954   1.78145   65.121
 6100.00    1.76251   1.76753   66.006
 6101.00    1.73535   1.74148   67.730
 6102.00    1.69437   1.71227   68.727
 6103.00    1.67661   1.69626   68.039
 6104.00    1.70818   1.70256   66.659
 6105.00    1.74825   1.72396   65.700
 6106.00    1.75582   1.74605   65.565
 6107.00    1.74910   1.76108   65.865
 6108.00    1.74219   1.77013   66.008
 6109.00    1.74729   1.77625   65.959
 6110.00    1.75361   1.77999   65.804
 6111.00    1.75458   1.78125   65.496
 6112.00    1.75918   1.78210   65.522
 6113.00    1.75634   1.78462   65.123
 6114.00    1.75597   1.78791   64.998
 6115.00    1.75677   1.78946   65.298
 6116.00    1.75352   1.78840   65.749
 6117.00    1.75366   1.78524   65.793
 6118.00    1.75133   1.77813   66.150
 6119.00    1.73970   1.76324   67.192
 6120.00    1.71349   1.73990   68.039
 6121.00    1.67639   1.71381   68.661
 6122.00    1.66083   1.69570   68.644
 6123.00    1.68631   1.69431   67.391
 6124.00    1.71774   1.70792   66.573
 6125.00    1.72646   1.72624   66.651
 6126.00    1.72259   1.74054   67.080
 6127.00    1.71609   1.74896   66.928
 6128.00    1.71710   1.75484   66.784
 6129.00    1.72259   1.76234   66.185
 6130.00    1.73586   1.77258   65.556
 6131.00    1.74550   1.78290   65.483
 6132.00    1.74282   1.78882   65.633
 6133.00    1.74331   1.78491   66.318
 6134.00    1.70970   1.76554   -1.000
 6135.00    1.66060   1.73011   -1.000
 6136.00    1.62102   1.69015   -1.000
 6137.00    1.60079   1.66584   -1.000
 6138.00    1.62271   1.66918   69.704
 6139.00    1.66908   1.69175   67.730
 6140.00    1.69546   1.71437   67.128
 6141.00    1.69016   1.72752   67.335
 6142.00    1.67614   1.73685   -1.000
 6143.00    1.69009   1.74986   -1.000
 6144.00    1.72056   1.76486   65.848
 6145.00    1.73281   1.77507   65.838
 6146.00    1.72889   1.77742   66.181
 6147.00    1.71442   1.77373   -1.000
 6148.00    1.71033   1.76706   -1.000
 6149.00    1.70304   1.75995   -1.000
 6150.00    1.69052   1.75475   -1.000
 6151.00    1.69460   1.75354   -1.000
 6152.00    1.72263   1.75593   66.667
 6153.00    1.72212   1.75792   66.640
 6154.00    1.71318   1.75565   67.286
 6155.00    1.70310   1.75012   67.590
 6156.00    1.69839   1.74523   67.605
 6157.00    1.69663   1.74171   67.924
 6158.00    1.68135   1.73452   68.700
 6159.00    1.66626   1.71530   70.085
 6160.00    1.62431   1.67949   -1.000
 6161.00    1.57461   1.63452   -1.000
 6162.00    1.53728   1.59881   -1.000
 6163.00    1.54122   1.58823   73.601
 6164.00    1.57597   1.60320   71.468
 6165.00    1.60601   1.63031   70.504
 6166.00    1.62668   1.65390   70.284
 6167.00    1.62606   1.66415   70.521
 6168.00    1.60288   1.65978   71.537
 6169.00    1.59616   1.64989   72.218
 6170.00    1.59087   1.64873   -1.000
 6171.00    1.61889   1.66235   70.043
 6172.00    1.64039   1.68371   69.131
 6173.00    1.64219   1.70288   69.327
 6174.00    1.64357   1.71586   -1.000
 6175.00    1.63947   1.72337   -1.000
 6176.00    1.64482   1.72758   -1.000
 6177.00    1.65055   1.73111   -1.000
 6178.00    1.65865   1.73522   -1.000
 6179.00    1.67472   1.73945   -1.000
 6180.00    1.67952   1.74393   -1.000
 6181.00    1.67788   1.74974   -1.000
 6182.00    1.68561   1.75592   -1.000
 6183.00    1.68879   1.75934   -1.000
 6184.00    1.67872   1.75776   -1.000
 6185.00    1.66740   1.75113   -1.000
 6186.00    1.63639   1.74089   -1.000
 6187.00    1.62706   1.72923   -1.000
 6188.00    1.62740   1.71696   -1.000
 6189.00    1.61428   1.70216   -1.000
 6190.00    1.60635   1.68470   -1.000
 6191.00    1.58064   1.67182   -1.000
 6192.00    1.58795   1.67329   -1.000
 6193.00    1.60894   1.68991   -1.000
 6194.00    1.63830   1.71224   -1.000
 6195.00    1.65956   1.73067   -1.000
 6196.00    1.66246   1.74116   -1.000
 6197.00    1.65798   1.74296   -1.000
 6198.00    1.64484   1.73694   -1.000
 6199.00    1.62196   1.72746   -1.000
 6200.00    1.61147   1.72195   -1.000
 6201.00    1.61988   1.72515   -1.000
 6202.00    1.62755   1.73512   -1.000
 6203.00    1.64625   1.74642   -1.000
 6204.00    1.65071   1.75514   -1.000
 6205.00    1.66175   1.76061   -1.000
 6206.00    1.67948   1.76407   -1.000
 6207.00    1.67634   1.76640   -1.000
 6208.00    1.67394   1.76682   -1.000
 6209.00    1.67821   1.76360   -1.000
 6210.00    1.66526   1.75530   -1.000
 6211.00    1.64060   1.74117   -1.000
 6212.00    1.62375   1.72200   -1.000
 6213.00    1.60345   1.70186   -1.000
 6214.00    1.59455   1.68710   -1.000
 6215.00    1.59922   1.68137   -1.000
 6216.00    1.60498   1.68248   -1.000
 6217.00    1.61303   1.68455   -1.000
 6218.00    1.61879   1.68334   -1.000
 6219.00    1.61430   1.68021   -1.000
 6220.00    1.60820   1.68030   -1.000
 6221.00    1.62081   1.68637   -1.000
 6222.00    1.63460   1.69553   -1.000
 6223.00    1.62918   1.70320   -1.000
 6224.00    1.62598   1.70787   -1.000
 6225.00    1.63181   1.71025   -1.000
 6226.00    1.64027   1.70995   -1.000
 6227.00    1.63785   1.70419   -1.000
 6228.00    1.62747   1.68977   -1.000
 6229.00    1.60241   1.66793   -1.000
 6230.00    1.57201   1.64704   -1.000
 6231.00    1.56659   1.63793   -1.000
 6232.00    1.56879   1.64541   -1.000
 6233.00    1.59541   1.66528   -1.000
 6234.00    1.61461   1.68814   -1.000
 6235.00    1.62036   1.70505   -1.000
 6236.00    1.62490   1.71133   -1.000
 6237.00    1.62024   1.70765   -1.000
 6238.00    1.60526   1.69841   -1.000
 6239.00    1.59670   1.68836   -1.000
 6240.00    1.58165   1.68020   -1.000
 6241.00    1.57622   1.67365   -1.000
 6242.00    1.57574   1.66653   -1.000
 6243.00    1.57413   1.65790   -1.000
 6244.00    1.56118   1.64986   -1.000
 6245.00    1.56690   1.64633   -1.000
 6246.00    1.57910   1.65110   -1.000
 6247.00    1.59313   1.66511   -1.000
 6248.00    1.60790   1.68340   -1.000
 6249.00    1.62342   1.69677   -1.000
 6250.00    1.61924   1.69755   -1.000
 6251.00    1.59312   1.68482   -1.000
 6252.00    1.56632   1.66530   -1.000
 6253.00    1.55463   1.64842   -1.000
 6254.00    1.54652   1.63921   -1.000
 6255.00    1.54980   1.63581   -1.000
 6256.00    1.54135   1.63377   -1.000
 6257.00    1.52028   1.63190   -1.000
 6258.00    1.52019   1.63347   -1.000
 6259.00    1.54499   1.64209   -1.000
 6260.00    1.56378   1.65760   -1.000
 6261.00    1.58930   1.67637   -1.000
 6262.00    1.61195   1.69355   -1.000
 6263.00    1.61688   1.70479   -1.000
 6264.00    1.62427   1.70902   -1.000
 6265.00    1.60836   1.71006   -1.000
 6266.00    1.60716   1.71256   -1.000
 6267.00    1.61605   1.71664   -1.000
 6268.00    1.61398   1.71875   -1.000
 6269.00    1.60681   1.71746   -1.000
 6270.00    1.61050   1.71564   -1.000
 6271.00    1.62181   1.71633   -1.000
 6272.00    1.62079   1.71863   -1.000
 6273.00    1.61123   1.71824   -1.000
 6274.00    1.60446   1.71159   -1.000
 6275.00    1.57958   1.69876   -1.000
 6276.00    1.55990   1.68262   -1.000
 6277.00    1.54468   1.66650   -1.000
 6278.00    1.52008   1.65289   -1.000
 6279.00    1.51294   1.64394   -1.000
 6280.00    1.49806   1.64244   -1.000
 6281.00    1.48702   1.65037   -1.000
 6282.00    1.50263   1.66641   -1.000
 6283.00    1.51847   1.68610   -1.000
 6284.00    1.54265   1.70440   -1.000
 6285.00    1.56963   1.71837   -1.000
 6286.00    1.58908   1.72773   -1.000
 6287.00    1.61062   1.73312   -1.000
 6288.00    1.63157   1.73427   -1.000
 6289.00    1.63278   1.73068   -1.000
 6290.00    1.62778   1.72387   -1.000
 6291.00    1.62052   1.71707   -1.000
 6292.00    1.61697   1.71261   -1.000
 6293.00    1.61219   1.71041   -1.000
 6294.00    1.61157   1.70818   -1.000
 6295.00    1.60901   1.70301   -1.000
 6296.00    1.59353   1.69435   -1.000
 6297.00    1.57063   1.68544   -1.000
 6298.00    1.57035   1.67991   -1.000
 6299.00    1.57942   1.67727   -1.000
 6300.00    1.59405   1.67409   -1.000
 6301.00    1.58818   1.67029   -1.000
 6302.00    1.59006   1.67107   -1.000
 6303.00    1.60680   1.68066   -1.000
 6304.00    1.62616   1.69678   -1.000
 6305.00    1.63823   1.71362   -1.000
 6306.00    1.64264   1.72718   -1.000
 6307.00    1.64737   1.73616   -1.000
 6308.00    1.66411   1.74021   -1.000
 6309.00    1.66315   1.74002   -1.000
 6310.00    1.65041   1.73735   -1.000
 6311.00    1.64107   1.73357   -1.000
 6312.00    1.64012   1.72865   -1.000
 6313.00    1.64176   1.72148   -1.000
 6314.00    1.63137   1.71200   -1.000
 6315.00    1.62239   1.70246   -1.000
 6316.00    1.61672   1.69513   -1.000
 6317.00    1.61371   1.69086   -1.000
 6318.00    1.60097   1.69122   -1.000
 6319.00    1.61607   1.69826   -1.000
 6320.00    1.63900   1.71036   -1.000
 6321.00    1.65190   1.72258   -1.000
 6322.00    1.64928   1.73254   -1.000
 6323.00    1.65468   1.74169   -1.000
 6324.00    1.67488   1.75069   -1.000
 6325.00    1.68702   1.75761   -1.000
 6326.00    1.68565   1.76085   -1.000
 6327.00    1.68073   1.76115   -1.000
 6328.00    1.68107   1.76052   -1.000
 6329.00    1.68020   1.76047   -1.000
 6330.00    1.68883   1.76188   -1.000
 6331.00    1.69340   1.76454   -1.000
 6332.00    1.70098   1.76531   -1.000
 6333.00    1.68989   1.75930   -1.000
 6334.00    1.67262   1.74510   -1.000
 6335.00    1.70654   1.72800   71.148
 6336.00    1.65543   1.71669   -1.000
 6337.00    1.65419   1.71636   -1.000
 6338.00    1.68065   1.72568   69.749
 6339.00    1.68643   1.73963   68.974
 6340.00    1.70138   1.75289   68.683
 6341.00    1.71209   1.76080   68.340
 6342.00    1.70163   1.76122   -1.000
 6343.00    1.68647   1.75669   -1.000
 6344.00    1.69138   1.75301   -1.000
 6345.00    1.69212   1.75451   -1.000
 6346.00    1.69215   1.76137   -1.000
 6347.00    1.71010   1.77113   -1.000
 6348.00    1.71500   1.78106   -1.000
 6349.00    1.71185   1.78884   -1.000
 6350.00    1.71713   1.79286   -1.000
 6351.00    1.71601   1.79239   -1.000
 6352.00    1.70287   1.78714   -1.000
 6353.00    1.69543   1.77765   -1.000
 6354.00    1.67861   1.76649   -1.000
 6355.00    1.66738   1.75711   -1.000
 6356.00    1.66630   1.75029   -1.000
 6357.00    1.66002   1.74357   -1.000
 6358.00    1.64400   1.73574   -1.000
 6359.00    1.62983   1.72855   -1.000
 6360.00    1.63111   1.72331   -1.000
 6361.00    1.64651   1.71955   -1.000
 6362.00    1.64209   1.71764   -1.000
 6363.00    1.64641   1.71922   -1.000
 6364.00    1.65464   1.72503   -1.000
 6365.00    1.66544   1.73412   -1.000
 6366.00    1.67934   1.74469   -1.000
 6367.00    1.69062   1.75462   -1.000
 6368.00    1.70217   1.76178   68.061
 6369.00    1.70644   1.76553   67.912
 6370.00    1.70700   1.76778   67.980
 6371.00    1.71927   1.77125   67.721
 6372.00    1.72769   1.77658   67.452
 6373.00    1.72158   1.78193   67.674
 6374.00    1.71610   1.78486   -1.000
 6375.00    1.71915   1.78432   -1.000
 6376.00    1.71528   1.78079   -1.000
 6377.00    1.71071   1.77557   -1.000
 6378.00    1.69371   1.76989   -1.000
 6379.00    1.67548   1.76443   -1.000
 6380.00    1.67842   1.75957   -1.000
 6381.00    1.68657   1.75605   -1.000
 6382.00    1.68378   1.75448   -1.000
 6383.00    1.67965   1.75476   -1.000
 6384.00    1.67466   1.75673   -1.000
 6385.00    1.66638   1.76031   -1.000
 6386.00    1.66255   1.76447   -1.000
 6387.00    1.66299   1.76737   -1.000
 6388.00    1.66180   1.76804   -1.000
 6389.00    1.65402   1.76616   -1.000
 6390.00    1.64287   1.76038   -1.000
 6391.00    1.62814   1.74928   -1.000
 6392.00    1.60452   1.73539   -1.000
 6393.00    1.58160   1.72621   -1.000
 6394.00    1.57924   1.72841   -1.000
 6395.00    1.59609   1.74061   -1.000
 6396.00    1.61062   1.75338   -1.000
 6397.00    1.60307   1.75646   -1.000
 6398.00    1.57795   1.74654   -1.000
 6399.00    1.54928   1.73070   -1.000
 6400.00    1.53570   1.72209   -1.000
 6401.00    1.53307   1.72893   -1.000
 6402.00    1.55312   1.74775   -1.000
 6403.00    1.58069   1.76796   -1.000
 6404.00    1.57786   1.78044   -1.000
 6405.00    1.56423   1.78176   -1.000
 6406.00    1.55693   1.77424   -1.000
 6407.00    1.53786   1.76443   -1.000
 6408.00    1.51315   1.75843   -1.000
 6409.00    1.50992   1.75697   -1.000
 6410.00    1.50845   1.75639   -1.000
 6411.00    1.49875   1.75517   -1.000
 6412.00    1.47804   1.75568   -1.000
 6413.00    1.46102   1.75938   -1.000
 6414.00    1.46267   1.76456   -1.000
 6415.00    1.45521   1.76884   -1.000
 6416.00    1.44644   1.77067   -1.000
 6417.00    1.43503   1.76848   -1.000
 6418.00    1.41941   1.76078   -1.000
 6419.00    1.39449   1.74880   -1.000
 6420.00    1.36102   1.73833   -1.000
 6421.00    1.35002   1.73681   -1.000
 6422.00    1.35201   1.74709   -1.000
 6423.00    1.35684   1.76423   -1.000
 6424.00    1.36752   1.78047   -1.000
 6425.00    1.35429   1.79193   -1.000
 6426.00    1.33915   1.79806   -1.000
 6427.00    1.33352   1.79748   -1.000
 6428.00    1.31473   1.78811   -1.000
