###################################################################
## OUTPUT of StarlightChains_v04.for    [Cid@UFSC - 01/Apr/2007] ##
###################################################################

## Some input info
NGC6342_a_2.cxt                          [arq_obs]
Base.BC03.S                              [arq_base]
NGC6342_a_2.msk                          [arq_masks]
StCv04.C11.config                        [arq_config]
  150                                    [N_base]
    0                                    [N_YAV_components = # of components with extra extinction!]
    0                                    [i_FitPowerLaw (1/0 = Yes/No)]
-9.99                                    [alpha_PowerLaw]
CCM                                      [red_law_option]
 1.458241                                [q_norm = A(l_norm)/A(V)]

## (Re)Sampling Parameters
 3359.00                                 [l_ini (A)]
 6428.00                                 [l_fin (A)]
    1.00                                 [dl    (A)]     (OBS: dl_cushion =    50.00 A)

## Normalization info
 4020.00                                 [l_norm (A) - for base]
 4010.00                                 [llow_norm (A) - window for f_obs]
 4060.00                                 [lupp_norm (A) - window for f_obs]
3.704827E-15                             [fobs_norm (in input units)]

## S/N
 4730.00                                 [llow_SN (A) - window for S/N]
 4780.00                                 [lupp_SN (A) - window for S/N]
  43.866                                 [S/N in S/N window]
  28.421                                 [S/N in norm. window]
 215.944                                 [S/N_err in S/N window]
 139.911                                 [S/N_err in norm. window]
  1.0000                                 [fscale_chi2]

## etc...
  2147483614                             [idum_orig]
  3067                                   [NOl_eff]
   708                                   [Nl_eff]
  2359    NSIGMA                         [Ntot_cliped & clip_method]
  1845900                                [Nglobal_steps]
   7                                     [N_chains]
  26                                     [NEX0s_base = N_base in EX0s-fits]
 0   0   1      177   2.0   3.168E+02    [Clip-Bug, RC-Crash & Burn-In warning-flags, n_censored_weights, wei_nsig_threshold & wei_limit]
    78     78.038     78.030      0.008  [idt_all, wdt_TotTime, wdt_UsrTime & wdt_SysTime (sec)]

## Synthesis Results - Best model ##

 2.64390E+00                             [chi2/Nl_eff]
     1.48381                             [adev (%)]

    97.95914                             [sum-of-x (%)]
 1.65187E-14                             [Flux_tot (units of input spectrum!)]
 8.71124E-10                             [Mini_tot (???)]
 4.34884E-10                             [Mcor_tot (???)]

 -15.96                                  [v0_min  (km/s)]
  48.93                                  [vd_min  (km/s)]
 1.1284                                  [AV_min  (mag)]
 0.0000                                  [YAV_min (mag)]

# j     x_j(%)      Mini_j(%)     Mcor_j(%)     age_j(yr)     Z_j      (L/M)_j    YAV?  Mstars   component_j        a/Fe...       SSP_chi2r SSP_adev(%)   SSP_AV   SSP_x(%)
  1      0.0000     0.0000E+00    0.0000E+00    1.000000E+06  0.00010  8.160E-03    0   1.0000   age020_m22            0.0000     3.4919E+03    39.9154   4.0000   100.4173
  2      0.0000     0.0000E+00    0.0000E+00    3.160000E+06  0.00010  4.759E-02    0   1.0000   age045_m22            0.0000     1.5114E+02     8.3101   3.1237    95.6322
  3      2.7250     2.7303E-03    5.2405E-03    5.010000E+06  0.00010  1.932E-02    0   0.9582   age055_m22            0.0000     5.1798E+02    16.2621   3.3637    83.0988
  4      0.0000     0.0000E+00    0.0000E+00    6.610000E+06  0.00010  9.973E-03    0   0.9297   age061_m22            0.0000     3.3064E+03    38.9490   4.0000   103.2866
  5      0.0000     0.0000E+00    0.0000E+00    8.710000E+06  0.00010  7.690E-03    0   0.9030   age067_m22            0.0000     3.2327E+03    38.5181   4.0000   103.7546
  6      0.0000     0.0000E+00    0.0000E+00    1.000000E+07  0.00010  6.375E-03    0   0.8902   age070_m22            0.0000     3.2781E+03    38.5871   4.0000   104.2529
  7      0.0000     0.0000E+00    0.0000E+00    1.445000E+07  0.00010  4.874E-03    0   0.8589   age078_m22            0.0000     2.2715E+03    32.9838   4.0000   104.6678
  8      0.0000     0.0000E+00    0.0000E+00    2.512000E+07  0.00010  4.103E-03    0   0.8174   age090_m22            0.0000     7.8757E+02    20.8710   4.0000   103.0265
  9      0.0000     0.0000E+00    0.0000E+00    4.000000E+07  0.00010  3.654E-03    0   0.7830   age104_m22            0.0000     3.3029E+02    12.7607   4.0000   100.2154
 10      0.0000     0.0000E+00    0.0000E+00    5.500000E+07  0.00010  3.093E-03    0   0.7597   age110_m22            0.0000     2.7622E+02    10.7911   4.0000    98.8783
 11      0.0000     0.0000E+00    0.0000E+00    1.015200E+08  0.00010  2.431E-03    0   0.7138   age116_m22            0.0000     2.9402E+02     9.9858   3.7798    97.9268
 12      0.0000     0.0000E+00    0.0000E+00    1.609000E+08  0.00010  1.319E-03    0   0.6775   age120_m22            0.0000     2.8492E+02     9.3908   3.3075    99.8542
 13      0.0000     0.0000E+00    0.0000E+00    2.861200E+08  0.00010  1.075E-03    0   0.6412   age125_m22            0.0000     5.4449E+02    13.0086   3.4272   102.1576
 14      0.0000     0.0000E+00    0.0000E+00    5.088000E+08  0.00010  7.183E-04    0   0.6083   age130_m22            0.0000     6.3982E+02    14.0576   3.2180   103.2780
 15      0.0000     0.0000E+00    0.0000E+00    9.047900E+08  0.00010  4.524E-04    0   0.5785   age135_m22            0.0000     6.4817E+02    14.1523   3.0185   104.4389
 16      0.0000     0.0000E+00    0.0000E+00    1.278050E+09  0.00010  3.018E-04    0   0.5588   age138_m22            0.0000     3.6332E+02    10.3980   2.4479   103.8059
 17      0.0000     0.0000E+00    0.0000E+00    1.434000E+09  0.00010  2.691E-04    0   0.5532   age139_m22            0.0000     3.1316E+02     9.6464   2.2852   103.4306
 18      0.0000     0.0000E+00    0.0000E+00    2.500000E+09  0.00010  1.582E-04    0   0.5296   age150_m22            0.0000     2.8961E+02     9.3327   2.1559   104.4933
 19      0.0000     0.0000E+00    0.0000E+00    4.250000E+09  0.00010  1.007E-04    0   0.5110   age158_m22            0.0000     1.9834E+02     7.5385   1.9933   102.9472
 20      0.0000     0.0000E+00    0.0000E+00    6.250000E+09  0.00010  6.869E-05    0   0.4985   age166_m22            0.0000     1.3359E+02     6.0724   1.9253   100.2716
 21      0.1813     5.9767E-02    5.9034E-02    7.500000E+09  0.00010  5.873E-05    0   0.4931   age171_m22            0.0000     1.3081E+02     6.0424   1.9070    99.8562
 22      0.0000     0.0000E+00    0.0000E+00    1.000000E+10  0.00010  4.481E-05    0   0.4854   age181_m22            0.0000     1.2686E+02     5.9495   1.8700    99.4702
 23      0.0000     0.0000E+00    0.0000E+00    1.300000E+10  0.00010  3.489E-05    0   0.4791   age193_m22            0.0000     1.1776E+02     5.7247   1.8147    98.8957
 24      0.0069     4.3919E-03    4.1929E-03    1.500000E+10  0.00010  3.035E-05    0   0.4766   age201_m22            0.0000     1.1271E+02     5.6101   1.7754    98.7117
 25      0.0207     1.5951E-02    1.5129E-02    1.800000E+10  0.00010  2.510E-05    0   0.4735   age213_m22            0.0000     1.0198E+02     5.3728   1.7051    98.1442
 26      0.0000     0.0000E+00    0.0000E+00    1.000000E+06  0.00040  8.458E-03    0   1.0000   age020_m32            0.0000     3.5727E+03    40.1732   4.0000   101.4846
 27      0.0000     0.0000E+00    0.0000E+00    3.160000E+06  0.00040  3.973E-02    0   1.0000   age045_m32            0.0000     5.8509E+02    18.4944   4.0000   100.0877
 28      0.0000     0.0000E+00    0.0000E+00    5.010000E+06  0.00040  1.935E-02    0   0.9532   age055_m32            0.0000     1.2798E+03    26.4765   4.0000    98.7556
 29      0.0000     0.0000E+00    0.0000E+00    6.610000E+06  0.00040  1.204E-02    0   0.9243   age061_m32            0.0000     2.5075E+03    34.7379   4.0000   103.3474
 30      0.0000     0.0000E+00    0.0000E+00    8.710000E+06  0.00040  9.433E-03    0   0.9001   age067_m32            0.0000     2.3324E+03    33.6060   4.0000   103.9912
 31      0.0000     0.0000E+00    0.0000E+00    1.000000E+07  0.00040  8.053E-03    0   0.8877   age070_m32            0.0000     2.1611E+03    32.5456   4.0000   103.8407
 32      0.0000     0.0000E+00    0.0000E+00    1.445000E+07  0.00040  7.027E-03    0   0.8578   age078_m32            0.0000     5.5364E+02    18.4100   4.0000    97.1802
 33      0.0000     0.0000E+00    0.0000E+00    2.512000E+07  0.00040  4.707E-03    0   0.8166   age090_m32            0.0000     2.6015E+02    11.9268   4.0000    92.9365
 34      0.0000     0.0000E+00    0.0000E+00    4.000000E+07  0.00040  3.714E-03    0   0.7827   age104_m32            0.0000     2.3588E+02    10.0699   3.8529    95.0526
 35      0.0000     0.0000E+00    0.0000E+00    5.500000E+07  0.00040  2.982E-03    0   0.7593   age110_m32            0.0000     2.4415E+02     9.7492   3.8004    96.1294
 36      0.0000     0.0000E+00    0.0000E+00    1.015200E+08  0.00040  2.188E-03    0   0.7143   age116_m32            0.0000     3.5715E+02    10.6298   3.5743    99.7435
 37      0.0000     0.0000E+00    0.0000E+00    1.609000E+08  0.00040  1.690E-03    0   0.6856   age120_m32            0.0000     4.6549E+02    12.1332   3.3783   102.2035
 38      0.0000     0.0000E+00    0.0000E+00    2.861200E+08  0.00040  1.152E-03    0   0.6509   age125_m32            0.0000     5.6601E+02    13.2178   3.1888   103.0299
 39      0.0000     0.0000E+00    0.0000E+00    5.088000E+08  0.00040  7.331E-04    0   0.6182   age130_m32            0.0000     6.0617E+02    13.6365   3.0386   103.4176
 40      0.0000     0.0000E+00    0.0000E+00    9.047900E+08  0.00040  3.960E-04    0   0.5890   age135_m32            0.0000     3.7469E+02    10.6337   2.5579   102.6074
 41      0.0000     0.0000E+00    0.0000E+00    1.278050E+09  0.00040  2.854E-04    0   0.5687   age138_m32            0.0000     3.2047E+02     9.8227   2.2364   105.0795
 42      0.0000     0.0000E+00    0.0000E+00    1.434000E+09  0.00040  2.531E-04    0   0.5632   age139_m32            0.0000     3.1282E+02     9.7222   2.1715   105.1616
 43      0.0000     0.0000E+00    0.0000E+00    2.500000E+09  0.00040  1.488E-04    0   0.5386   age150_m32            0.0000     2.3784E+02     8.4656   1.9106   103.5118
 44      0.0000     0.0000E+00    0.0000E+00    4.250000E+09  0.00040  9.082E-05    0   0.5199   age158_m32            0.0000     1.1938E+02     5.6879   1.7946   100.4617
 45     10.6088     3.2279E+00    3.2821E+00    6.250000E+09  0.00040  6.362E-05    0   0.5076   age166_m32            0.0000     7.9639E+01     4.7748   1.7339    97.3156
 46     19.6920     7.2072E+00    7.2574E+00    7.500000E+09  0.00040  5.289E-05    0   0.5027   age171_m32            0.0000     7.1792E+01     4.6227   1.6986    96.0129
 47     14.3934     7.0147E+00    6.9525E+00    1.000000E+10  0.00040  3.972E-05    0   0.4948   age181_m32            0.0000     6.3652E+01     4.4384   1.6407    94.5822
 48      7.5330     4.4417E+00    4.3330E+00    1.300000E+10  0.00040  3.283E-05    0   0.4870   age193_m32            0.0000     7.1099E+01     4.4790   1.6032    97.2754
 49      0.0000     0.0000E+00    0.0000E+00    1.500000E+10  0.00040  2.925E-05    0   0.4854   age201_m32            0.0000     8.3243E+01     4.7631   1.5882    98.8533
 50      1.0664     8.3608E-01    8.0707E-01    1.800000E+10  0.00040  2.469E-05    0   0.4819   age213_m32            0.0000     8.7364E+01     4.8760   1.5493    99.3895
 51      0.0000     0.0000E+00    0.0000E+00    1.000000E+06  0.00400  1.114E-02    0   1.0000   age020_m42            0.0000     3.1717E+03    38.1978   4.0000   100.9044
 52      0.0000     0.0000E+00    0.0000E+00    3.160000E+06  0.00400  4.073E-02    0   0.9999   age045_m42            0.0000     2.1305E+02    11.2380   4.0000    94.5319
 53      0.0000     0.0000E+00    0.0000E+00    5.010000E+06  0.00400  2.534E-02    0   0.9488   age055_m42            0.0000     8.4767E+02    22.0195   4.0000    98.6376
 54      0.0000     0.0000E+00    0.0000E+00    6.610000E+06  0.00400  2.583E-02    0   0.9220   age061_m42            0.0000     1.9288E+02     9.8072   3.9164    92.4703
 55      0.0000     0.0000E+00    0.0000E+00    8.710000E+06  0.00400  1.706E-02    0   0.8983   age067_m42            0.0000     2.4980E+02    11.9598   3.7036    91.2636
 56      0.0000     0.0000E+00    0.0000E+00    1.000000E+07  0.00400  1.271E-02    0   0.8862   age070_m42            0.0000     3.3815E+02    14.0357   3.6689    90.0801
 57      0.0000     0.0000E+00    0.0000E+00    1.445000E+07  0.00400  7.666E-03    0   0.8571   age078_m42            0.0000     3.9921E+02    15.7949   4.0000    88.5948
 58      0.0000     0.0000E+00    0.0000E+00    2.512000E+07  0.00400  5.070E-03    0   0.8174   age090_m42            0.0000     3.0537E+02    13.4131   3.5432    91.6264
 59      0.0000     0.0000E+00    0.0000E+00    4.000000E+07  0.00400  3.505E-03    0   0.7851   age104_m42            0.0000     2.1495E+02    11.3176   3.2431    94.4319
 60      0.0000     0.0000E+00    0.0000E+00    5.500000E+07  0.00400  3.059E-03    0   0.7629   age110_m42            0.0000     1.8900E+02     8.6285   3.3386    98.5926
 61      0.0000     0.0000E+00    0.0000E+00    1.015200E+08  0.00400  2.268E-03    0   0.7207   age116_m42            0.0000     3.9382E+02    10.9994   3.2993   102.8457
 62      0.0000     0.0000E+00    0.0000E+00    1.609000E+08  0.00400  1.720E-03    0   0.6930   age120_m42            0.0000     4.2941E+02    11.4630   3.1763   103.8689
 63      0.0000     0.0000E+00    0.0000E+00    2.861200E+08  0.00400  1.079E-03    0   0.6613   age125_m42            0.0000     4.2117E+02    11.1496   2.8211   104.2544
 64      0.0000     0.0000E+00    0.0000E+00    5.088000E+08  0.00400  6.261E-04    0   0.6313   age130_m42            0.0000     4.8477E+02    12.0392   2.6260   107.1599
 65      0.0000     0.0000E+00    0.0000E+00    9.047900E+08  0.00400  3.535E-04    0   0.6024   age135_m42            0.0000     3.1011E+02     9.4463   2.2121   107.7895
 66      0.0000     0.0000E+00    0.0000E+00    1.278050E+09  0.00400  2.677E-04    0   0.5837   age138_m42            0.0000     1.0291E+02     5.7569   1.5357   105.1407
 67      0.0000     0.0000E+00    0.0000E+00    1.434000E+09  0.00400  1.910E-04    0   0.5716   age139_m42            0.0000     1.4341E+02     6.3654   1.7079   105.8726
 68      0.0000     0.0000E+00    0.0000E+00    2.500000E+09  0.00400  9.818E-05    0   0.5463   age150_m42            0.0000     3.6174E+01     3.3225   1.4411   100.7947
 69      1.4309     5.0445E-01    5.3242E-01    4.250000E+09  0.00400  5.491E-05    0   0.5269   age158_m42            0.0000     1.3916E+01     2.3666   1.3090    98.1414
 70      0.0000     0.0000E+00    0.0000E+00    6.250000E+09  0.00400  3.857E-05    0   0.5151   age166_m42            0.0000     1.5085E+01     2.5728   1.1916    96.6093
 71      0.0559     3.3342E-02    3.4129E-02    7.500000E+09  0.00400  3.243E-05    0   0.5110   age171_m42            0.0000     1.9923E+01     2.8901   1.1190    95.9514
 72      1.5998     1.2775E+00    1.2867E+00    1.000000E+10  0.00400  2.424E-05    0   0.5028   age181_m42            0.0000     2.9209E+01     3.4191   1.0459    95.1985
 73      2.5754     2.6475E+00    2.6129E+00    1.300000E+10  0.00400  1.883E-05    0   0.4927   age193_m42            0.0000     3.8598E+01     3.9328   1.0075    94.8615
 74      1.7313     1.9890E+00    1.9598E+00    1.500000E+10  0.00400  1.685E-05    0   0.4919   age201_m42            0.0000     3.6506E+01     3.8027   1.0095    94.9469
 75      0.7832     1.0441E+00    1.0194E+00    1.800000E+10  0.00400  1.452E-05    0   0.4874   age213_m42            0.0000     3.2954E+01     3.5925   1.0199    95.3278
 76      0.0000     0.0000E+00    0.0000E+00    1.000000E+06  0.00800  1.286E-02    0   1.0000   age020_m52            0.0000     3.0062E+03    37.1584   4.0000   102.8010
 77      0.0000     0.0000E+00    0.0000E+00    3.160000E+06  0.00800  3.147E-02    0   0.9966   age045_m52            0.0000     2.5634E+03    34.9695   4.0000   103.1575
 78      0.0000     0.0000E+00    0.0000E+00    5.010000E+06  0.00800  2.664E-02    0   0.9443   age055_m52            0.0000     1.2087E+03    25.6326   4.0000   100.2871
 79      0.0000     0.0000E+00    0.0000E+00    6.610000E+06  0.00800  2.151E-02    0   0.9177   age061_m52            0.0000     2.6162E+02    12.4108   3.2860    91.1617
 80      0.0000     0.0000E+00    0.0000E+00    8.710000E+06  0.00800  1.628E-02    0   0.8948   age067_m52            0.0000     2.8765E+02    12.9299   3.6517    91.6966
 81      0.0000     0.0000E+00    0.0000E+00    1.000000E+07  0.00800  1.215E-02    0   0.8827   age070_m52            0.0000     3.3101E+02    13.9044   3.9904    89.6663
 82      0.0000     0.0000E+00    0.0000E+00    1.445000E+07  0.00800  8.739E-03    0   0.8552   age078_m52            0.0000     2.9628E+02    13.3024   4.0000    92.1196
 83      0.0000     0.0000E+00    0.0000E+00    2.512000E+07  0.00800  5.676E-03    0   0.8162   age090_m52            0.0000     2.6184E+02    11.2648   3.6404    96.1950
 84      0.0000     0.0000E+00    0.0000E+00    4.000000E+07  0.00800  3.939E-03    0   0.7841   age104_m52            0.0000     2.4008E+02     9.8387   3.5026    98.3403
 85      0.0000     0.0000E+00    0.0000E+00    5.500000E+07  0.00800  3.155E-03    0   0.7627   age110_m52            0.0000     2.5555E+02     9.3002   3.4930    99.6990
 86      0.0000     0.0000E+00    0.0000E+00    1.015200E+08  0.00800  2.206E-03    0   0.7226   age116_m52            0.0000     3.2988E+02     9.8250   3.3422   102.9272
 87      0.0000     0.0000E+00    0.0000E+00    1.609000E+08  0.00800  1.596E-03    0   0.6963   age120_m52            0.0000     3.7199E+02    10.4712   3.1409   104.2436
 88      0.0000     0.0000E+00    0.0000E+00    2.861200E+08  0.00800  1.002E-03    0   0.6665   age125_m52            0.0000     4.9444E+02    12.2673   2.8854   106.0971
 89      0.0000     0.0000E+00    0.0000E+00    5.088000E+08  0.00800  5.759E-04    0   0.6377   age130_m52            0.0000     5.1207E+02    12.4674   2.5616   109.4135
 90      0.0000     0.0000E+00    0.0000E+00    9.047900E+08  0.00800  2.972E-04    0   0.6086   age135_m52            0.0000     2.9336E+02     9.2258   2.0340   107.9152
 91      0.0000     0.0000E+00    0.0000E+00    1.278050E+09  0.00800  2.242E-04    0   0.5907   age138_m52            0.0000     9.1166E+01     5.4569   1.3917   107.3498
 92      0.0000     0.0000E+00    0.0000E+00    1.434000E+09  0.00800  1.645E-04    0   0.5787   age139_m52            0.0000     7.9757E+01     5.0191   1.5338   106.8073
 93      0.0000     0.0000E+00    0.0000E+00    2.500000E+09  0.00800  7.723E-05    0   0.5519   age150_m52            0.0000     3.3175E+01     3.6753   1.2017   102.7326
 94      0.0000     0.0000E+00    0.0000E+00    4.250000E+09  0.00800  4.151E-05    0   0.5320   age158_m52            0.0000     2.6828E+01     3.5467   1.1318   100.1277
 95      0.0000     0.0000E+00    0.0000E+00    6.250000E+09  0.00800  3.010E-05    0   0.5197   age166_m52            0.0000     3.9001E+01     4.2197   0.9510    98.4718
 96      0.0000     0.0000E+00    0.0000E+00    7.500000E+09  0.00800  2.467E-05    0   0.5139   age171_m52            0.0000     4.4360E+01     4.4642   0.9135    98.0081
 97      0.0007     7.7280E-04    7.8237E-04    1.000000E+10  0.00800  1.862E-05    0   0.5054   age181_m52            0.0000     6.6257E+01     5.3528   0.7966    97.4039
 98      0.0000     0.0000E+00    0.0000E+00    1.300000E+10  0.00800  1.433E-05    0   0.4988   age193_m52            0.0000     9.1781E+01     6.2951   0.7111    97.8448
 99      0.2330     3.6260E-01    3.5852E-01    1.500000E+10  0.00800  1.244E-05    0   0.4936   age201_m52            0.0000     1.0211E+02     6.6361   0.6848    98.2589
100      4.9997     9.0451E+00    8.8563E+00    1.800000E+10  0.00800  1.070E-05    0   0.4888   age213_m52            0.0000     1.1105E+02     6.8946   0.6523    98.1057
101      0.0000     0.0000E+00    0.0000E+00    1.000000E+06  0.02000  1.989E-02    0   1.0000   age020_m62            0.0000     2.9816E+03    37.0045   4.0000   101.1839
102      0.0000     0.0000E+00    0.0000E+00    3.160000E+06  0.02000  3.772E-02    0   0.9858   age045_m62            0.0000     2.2790E+03    33.4723   4.0000   101.4206
103      0.0000     0.0000E+00    0.0000E+00    5.010000E+06  0.02000  3.227E-02    0   0.9342   age055_m62            0.0000     5.1883E+02    17.8640   4.0000    98.3014
104      0.0000     0.0000E+00    0.0000E+00    6.610000E+06  0.02000  2.387E-02    0   0.9090   age061_m62            0.0000     3.9292E+02    15.3904   4.0000    89.9146
105      0.0000     0.0000E+00    0.0000E+00    8.710000E+06  0.02000  1.102E-02    0   0.8861   age067_m62            0.0000     1.0498E+03    22.6050   3.6113    84.2830
106      0.0000     0.0000E+00    0.0000E+00    1.000000E+07  0.02000  1.011E-02    0   0.8751   age070_m62            0.0000     7.2359E+02    19.3950   3.6536    86.6605
107      0.0000     0.0000E+00    0.0000E+00    1.445000E+07  0.02000  7.331E-03    0   0.8472   age078_m62            0.0000     5.0067E+02    16.6700   3.6949    87.8371
108      0.0000     0.0000E+00    0.0000E+00    2.512000E+07  0.02000  4.206E-03    0   0.8099   age090_m62            0.0000     5.1908E+02    17.0210   3.6031    87.2872
109      0.0000     0.0000E+00    0.0000E+00    4.000000E+07  0.02000  3.373E-03    0   0.7799   age104_m62            0.0000     2.3635E+02    11.1335   3.4487    96.0201
110      0.0000     0.0000E+00    0.0000E+00    5.500000E+07  0.02000  2.747E-03    0   0.7595   age110_m62            0.0000     2.3138E+02     9.5226   3.4043    99.4031
111      0.0000     0.0000E+00    0.0000E+00    1.015200E+08  0.02000  1.878E-03    0   0.7221   age116_m62            0.0000     3.5080E+02    10.2200   3.3030   103.7838
112      0.0000     0.0000E+00    0.0000E+00    1.609000E+08  0.02000  1.378E-03    0   0.6978   age120_m62            0.0000     4.6042E+02    11.7114   3.1734   105.8400
113      0.0000     0.0000E+00    0.0000E+00    2.861200E+08  0.02000  8.869E-04    0   0.6700   age125_m62            0.0000     6.3865E+02    13.7870   2.8366   109.4046
114      0.0000     0.0000E+00    0.0000E+00    5.088000E+08  0.02000  4.834E-04    0   0.6430   age130_m62            0.0000     5.5217E+02    12.7486   2.4301   110.9108
115      0.0000     0.0000E+00    0.0000E+00    9.047900E+08  0.02000  2.312E-04    0   0.6152   age135_m62            0.0000     2.5150E+02     8.3568   1.8147   110.5830
116      0.0000     0.0000E+00    0.0000E+00    1.278050E+09  0.02000  1.387E-04    0   0.5927   age138_m62            0.0000     8.7767E+01     4.9830   1.4233   106.3178
117      0.0000     0.0000E+00    0.0000E+00    1.434000E+09  0.02000  1.168E-04    0   0.5865   age139_m62            0.0000     6.7845E+01     4.4840   1.3999   104.5800
118      0.0000     0.0000E+00    0.0000E+00    2.500000E+09  0.02000  5.505E-05    0   0.5610   age150_m62            0.0000     4.6545E+01     4.3394   1.0391   101.4110
119      0.0000     0.0000E+00    0.0000E+00    4.250000E+09  0.02000  3.070E-05    0   0.5407   age158_m62            0.0000     8.9852E+01     6.0741   0.7706   100.8749
120      0.0000     0.0000E+00    0.0000E+00    6.250000E+09  0.02000  2.104E-05    0   0.5277   age166_m62            0.0000     1.1974E+02     7.0197   0.6484   101.1383
121      0.0000     0.0000E+00    0.0000E+00    7.500000E+09  0.02000  1.770E-05    0   0.5223   age171_m62            0.0000     1.4122E+02     7.5515   0.5666   101.4171
122      4.6849     6.9922E+00    7.1726E+00    1.000000E+10  0.02000  1.297E-05    0   0.5121   age181_m62            0.0000     1.8964E+02     8.6296   0.4194   101.7484
123      9.8678     1.9711E+01    1.9927E+01    1.300000E+10  0.02000  9.691E-06    0   0.5047   age193_m62            0.0000     2.2511E+02     9.2991   0.3416   102.0527
124     10.2669     2.3773E+01    2.3805E+01    1.500000E+10  0.02000  8.360E-06    0   0.4999   age201_m62            0.0000     2.5937E+02     9.9217   0.2779   102.1854
125      3.5020     9.8089E+00    9.7181E+00    1.800000E+10  0.02000  6.911E-06    0   0.4946   age213_m62            0.0000     3.0525E+02    10.7184   0.2137   102.2881
126      0.0000     0.0000E+00    0.0000E+00    1.000000E+06  0.05000  2.651E-02    0   0.9998   age020_m72            0.0000     2.9639E+03    36.6861   4.0000   102.3563
127      0.0000     0.0000E+00    0.0000E+00    3.160000E+06  0.05000  4.817E-02    0   0.9577   age045_m72            0.0000     1.5833E+03    28.4200   4.0000   102.4564
128      0.0000     0.0000E+00    0.0000E+00    5.010000E+06  0.05000  3.101E-02    0   0.9147   age055_m72            0.0000     6.3733E+02    19.7196   4.0000    96.2965
129      0.0000     0.0000E+00    0.0000E+00    6.610000E+06  0.05000  1.472E-02    0   0.8877   age061_m72            0.0000     7.9343E+02    19.6025   3.8374    85.2406
130      0.0000     0.0000E+00    0.0000E+00    8.710000E+06  0.05000  1.050E-02    0   0.8638   age067_m72            0.0000     6.9610E+02    20.2010   4.0000    92.9354
131      0.0000     0.0000E+00    0.0000E+00    1.000000E+07  0.05000  8.954E-03    0   0.8524   age070_m72            0.0000     1.1885E+03    25.0905   4.0000   100.8782
132      0.0000     0.0000E+00    0.0000E+00    1.445000E+07  0.05000  6.392E-03    0   0.8262   age078_m72            0.0000     1.0061E+03    23.2952   4.0000   100.8990
133      0.0000     0.0000E+00    0.0000E+00    2.512000E+07  0.05000  4.207E-03    0   0.7902   age090_m72            0.0000     2.9952E+02    13.4573   4.0000    95.5084
134      0.0000     0.0000E+00    0.0000E+00    4.000000E+07  0.05000  3.198E-03    0   0.7618   age104_m72            0.0000     2.5445E+02     8.9786   3.6748    99.1485
135      0.0000     0.0000E+00    0.0000E+00    5.500000E+07  0.05000  2.593E-03    0   0.7432   age110_m72            0.0000     3.0458E+02     9.5600   3.5816   101.2789
136      0.0000     0.0000E+00    0.0000E+00    1.015200E+08  0.05000  1.716E-03    0   0.7092   age116_m72            0.0000     4.0757E+02    10.9503   3.3961   103.8060
137      0.0000     0.0000E+00    0.0000E+00    1.609000E+08  0.05000  1.218E-03    0   0.6876   age120_m72            0.0000     5.2214E+02    12.4369   3.1551   106.1047
138      0.0000     0.0000E+00    0.0000E+00    2.861200E+08  0.05000  7.047E-04    0   0.6618   age125_m72            0.0000     6.1032E+02    13.4791   2.6461   109.4951
139      0.0000     0.0000E+00    0.0000E+00    5.088000E+08  0.05000  3.590E-04    0   0.6356   age130_m72            0.0000     4.6200E+02    11.6152   2.0902   111.6908
140      0.0000     0.0000E+00    0.0000E+00    9.047900E+08  0.05000  1.484E-04    0   0.6088   age135_m72            0.0000     1.3161E+02     6.2232   1.3547   105.1334
141      0.0000     0.0000E+00    0.0000E+00    1.278050E+09  0.05000  9.435E-05    0   0.5924   age138_m72            0.0000     1.1140E+02     6.2849   0.9719   101.7552
142      0.0000     9.1298E-07    1.0693E-06    1.434000E+09  0.05000  7.827E-05    0   0.5847   age139_m72            0.0000     9.7354E+01     6.0313   0.9793   101.1956
143      0.0000     0.0000E+00    0.0000E+00    2.500000E+09  0.05000  3.759E-05    0   0.5583   age150_m72            0.0000     1.2885E+02     7.1444   0.6640   100.2260
144      0.0000     0.0000E+00    0.0000E+00    4.250000E+09  0.05000  1.842E-05    0   0.5374   age158_m72            0.0000     2.0271E+02     8.4860   0.3500    99.8826
145      0.0000     0.0000E+00    0.0000E+00    6.250000E+09  0.05000  1.207E-05    0   0.5242   age166_m72            0.0000     2.8857E+02     9.9190   0.1286    99.4131
146      0.0000     5.7908E-05    6.0121E-05    7.500000E+09  0.05000  9.993E-06    0   0.5183   age171_m72            0.0000     3.0495E+02    10.1071   0.0864    99.3690
147      0.0000     6.2558E-05    6.3670E-05    1.000000E+10  0.05000  7.291E-06    0   0.5081   age181_m72            0.0000     3.7618E+02    11.1466  -0.0216    99.1113
148      0.0000     0.0000E+00    0.0000E+00    1.300000E+10  0.05000  5.316E-06    0   0.5018   age193_m72            0.0000     5.0339E+02    12.7999  -0.1858    98.7683
149      0.0000     0.0000E+00    0.0000E+00    1.500000E+10  0.05000  4.497E-06    0   0.4972   age201_m72            0.0000     5.7148E+02    13.6568  -0.2480    98.8588
150      0.0000     1.1933E-04    1.1770E-04    1.800000E+10  0.05000  3.739E-06    0   0.4924   age213_m72            0.0000     6.6591E+02    14.8106  -0.3367    98.6965


## Synthesis Results - Average & Chains ##

# j      x_j: min, <> & last-chain-values for 1 ...  7 chains
  1      0.0000      0.0132      0.0000      0.0000      0.0000      0.0000      0.0000      0.0000      0.0000
  2      0.0000      0.0514      0.0548      0.0404      0.0000      0.0000      0.0000      0.0153      0.0000
  3      2.7250      2.3313      2.2982      2.4139      2.3765      2.5685      2.4045      2.5214      2.2639
  4      0.0000      0.0176      0.0000      0.0000      0.0000      0.0304      0.0000      0.0000      0.0000
  5      0.0000      0.0096      0.0277      0.0000      0.0000      0.0000      0.0000      0.0000      0.0000
  6      0.0000      0.0232      0.0205      0.0000      0.1219      0.0667      0.0000      0.0837      0.0000
  7      0.0000      0.0200      0.0000      0.0378      0.0399      0.0000      0.0918      0.0000      0.0000
  8      0.0000      0.0252      0.0484      0.0000      0.0000      0.0000      0.0000      0.0653      0.0576
  9      0.0000      0.0361      0.1479      0.0000      0.0000      0.0000      0.0000      0.0349      0.0206
 10      0.0000      0.0134      0.0000      0.0000      0.0575      0.0000      0.0000      0.0000      0.0000
 11      0.0000      0.0140      0.0000      0.0263      0.0000      0.0000      0.0000      0.0341      0.0000
 12      0.0000      0.0079      0.0000      0.0000      0.0000      0.0000      0.0000      0.0041      0.0000
 13      0.0000      0.0049      0.0000      0.0000      0.0000      0.0000      0.0000      0.0000      0.0044
 14      0.0000      0.0055      0.0000      0.0000      0.0000      0.0000      0.0000      0.0000      0.0000
 15      0.0000      0.0061      0.0000      0.0000      0.0000      0.0000      0.0000      0.1397      0.0000
 16      0.0000      0.0114      0.0000      0.0000      0.0000      0.0000      0.0122      0.0000      0.0000
 17      0.0000      0.0203      0.0000      0.0000      0.0000      0.1350      0.0000      0.0766      0.0010
 18      0.0000      0.0217      0.0000      0.0000      0.0000      0.0000      0.0000      0.0000      0.0000
 19      0.0000      0.0333      0.0066      0.0136      0.1871      0.0194      0.0000      0.0000      0.0000
 20      0.0000      0.0283      0.0873      0.0897      0.0054      0.0000      0.0609      0.1242      0.0000
 21      0.1813      0.2157      0.1706      0.1859      0.0346      0.0000      0.0980      0.4465      0.3953
 22      0.0000      0.1007      0.1195      0.1699      0.1713      0.1092      0.0000      0.0041      0.0895
 23      0.0000      0.0944      0.0000      0.0681      0.3592      0.1682      0.0000      0.0000      0.0000
 24      0.0069      0.2889      0.3651      0.3429      0.6463      0.4959      0.2124      0.3346      0.0000
 25      0.0207      0.2962      0.2523      0.5332      0.0000      0.0887      0.3962      0.2224      0.1846
 26      0.0000      0.0157      0.1632      0.0000      0.0030      0.0000      0.0000      0.0000      0.0000
 27      0.0000      0.0225      0.0000      0.0000      0.0000      0.0000      0.0000      0.0000      0.0070
 28      0.0000      0.0108      0.0000      0.0000      0.0000      0.1132      0.0000      0.0000      0.0000
 29      0.0000      0.0149      0.0000      0.0000      0.0181      0.1141      0.0000      0.0000      0.0000
 30      0.0000      0.0082      0.0682      0.0000      0.0000      0.0000      0.0316      0.0257      0.0000
 31      0.0000      0.0196      0.0000      0.0000      0.0888      0.0000      0.0000      0.1070      0.0000
 32      0.0000      0.0195      0.0000      0.0000      0.0194      0.0000      0.0000      0.0000      0.0000
 33      0.0000      0.0056      0.0000      0.0000      0.0000      0.0000      0.0000      0.0000      0.0000
 34      0.0000      0.0143      0.0000      0.0004      0.1200      0.0000      0.0079      0.0000      0.0828
 35      0.0000      0.0056      0.0000      0.0000      0.0000      0.0000      0.0000      0.0000      0.0034
 36      0.0000      0.0185      0.0000      0.0046      0.0000      0.0000      0.0000      0.0037      0.0000
 37      0.0000      0.0088      0.0000      0.0000      0.0000      0.0000      0.0000      0.0000      0.0000
 38      0.0000      0.0100      0.0000      0.0000      0.0000      0.0000      0.0000      0.0000      0.0000
 39      0.0000      0.0118      0.0000      0.0000      0.0000      0.0000      0.0000      0.0000      0.0000
 40      0.0000      0.0193      0.0675      0.0000      0.0000      0.0000      0.0159      0.0000      0.0000
 41      0.0000      0.0223      0.0055      0.0000      0.0000      0.0000      0.2087      0.0000      0.0000
 42      0.0000      0.0284      0.0000      0.0000      0.0962      0.0000      0.1100      0.0727      0.0000
 43      0.0000      0.0388      0.0000      0.0000      0.0000      0.1732      0.0000      0.0000      0.0000
 44      0.0000      0.1371      0.4976      0.0000      0.4450      0.0343      0.0000      0.1182      0.1140
 45     10.6088      9.4728      9.9005      9.6080      9.6140      9.7423      9.5319      9.5795      9.7314
 46     19.6920     17.8797     17.7359     18.0384     17.6739     18.2182     17.9150     17.9798     17.8564
 47     14.3934     13.8239     13.9481     14.5692     13.9068     13.9138     13.8196     13.8166     14.3076
 48      7.5330      7.6513      7.8346      7.7329      7.6673      7.2972      8.3096      8.0564      7.6630
 49      0.0000      0.3866      0.0000      0.1752      0.3995      0.1280      0.1857      0.2485      0.6272
 50      1.0664      1.6506      1.6900      1.6613      1.6582      1.8939      1.7251      1.5094      1.7674
 51      0.0000      0.0217      0.0519      0.0000      0.0158      0.0000      0.0617      0.1623      0.0000
 52      0.0000      0.0169      0.0000      0.0000      0.0000      0.0000      0.0371      0.0000      0.0000
 53      0.0000      0.0069      0.0000      0.0000      0.0000      0.0000      0.0000      0.0000      0.0000
 54      0.0000      0.0123      0.0000      0.0111      0.0000      0.0000      0.0000      0.0000      0.0000
 55      0.0000      0.0250      0.0000      0.0202      0.0368      0.0000      0.0000      0.0000      0.0000
 56      0.0000      0.0107      0.0000      0.0000      0.0141      0.0000      0.0090      0.0000      0.0315
 57      0.0000      0.0293      0.0000      0.0000      0.0026      0.0000      0.1133      0.0000      0.0000
 58      0.0000      0.0147      0.0000      0.0000      0.0000      0.0000      0.0635      0.0000      0.0971
 59      0.0000      0.0107      0.0000      0.0000      0.0000      0.0000      0.0000      0.0000      0.0000
 60      0.0000      0.0108      0.0000      0.0000      0.0000      0.0000      0.0000      0.0000      0.0000
 61      0.0000      0.0103      0.0000      0.0000      0.0000      0.0000      0.0000      0.0000      0.0000
 62      0.0000      0.0062      0.0000      0.0000      0.0000      0.0000      0.0092      0.0139      0.0000
 63      0.0000      0.0072      0.0490      0.0000      0.0000      0.0000      0.0000      0.0000      0.0000
 64      0.0000      0.0107      0.0072      0.1148      0.0000      0.0000      0.0996      0.0000      0.0000
 65      0.0000      0.0110      0.0000      0.0000      0.0000      0.1126      0.0493      0.0000      0.0000
 66      0.0000      0.0577      0.4582      0.0000      0.3573      0.0022      0.0000      0.0000      0.2127
 67      0.0000      0.0305      0.0000      0.0000      0.0000      0.0000      0.0000      0.0000      0.0000
 68      0.0000      0.0999      0.0961      0.1350      0.0819      0.0000      0.6072      0.1251      0.0000
 69      1.4309      0.3872      0.1871      0.3759      0.0000      0.4039      0.2223      1.0203      0.7455
 70      0.0000      0.3041      0.0948      0.0293      0.3912      0.7019      0.1029      0.3469      0.0360
 71      0.0559      0.3582      1.2138      0.8688      0.4566      0.0000      0.2023      0.5299      0.1498
 72      1.5998      2.1349      2.3096      1.7374      2.2884      1.2209      2.1205      2.1289      2.0754
 73      2.5754      1.0106      0.8623      1.1109      0.8500      1.3208      1.2735      0.8696      0.7792
 74      1.7313      0.9294      0.8786      1.5312      0.6983      1.0230      0.7297      0.2869      1.1735
 75      0.7832      0.5691      0.3148      0.5352      0.7732      1.2558      1.0116      1.1134      1.3669
 76      0.0000      0.0116      0.0000      0.0596      0.0000      0.0000      0.0000      0.0018      0.0365
 77      0.0000      0.0088      0.0000      0.0000      0.0000      0.0000      0.0000      0.0000      0.0000
 78      0.0000      0.0243      0.0012      0.0000      0.0000      0.0000      0.1149      0.0000      0.0000
 79      0.0000      0.0170      0.0000      0.0000      0.0000      0.0000      0.0000      0.0000      0.0000
 80      0.0000      0.0122      0.0209      0.0544      0.0000      0.0826      0.1307      0.0030      0.1037
 81      0.0000      0.0145      0.0470      0.0000      0.1254      0.0000      0.0000      0.0000      0.0000
 82      0.0000      0.0158      0.0000      0.0000      0.0000      0.0383      0.0000      0.0000      0.0075
 83      0.0000      0.0117      0.0000      0.0000      0.0000      0.0000      0.0000      0.0000      0.0000
 84      0.0000      0.0180      0.0884      0.0000      0.0000      0.0000      0.0132      0.0114      0.0532
 85      0.0000      0.0098      0.0057      0.0000      0.0000      0.0000      0.0000      0.0000      0.0000
 86      0.0000      0.0057      0.0000      0.0000      0.0000      0.0000      0.0000      0.0000      0.0000
 87      0.0000      0.0050      0.0000      0.0000      0.0000      0.0000      0.0000      0.0000      0.0000
 88      0.0000      0.0042      0.0000      0.0000      0.0000      0.0000      0.0000      0.0000      0.0000
 89      0.0000      0.0105      0.0000      0.0000      0.0000      0.1098      0.0000      0.0592      0.0000
 90      0.0000      0.0078      0.0000      0.0000      0.0000      0.0000      0.0000      0.0000      0.0010
 91      0.0000      0.0260      0.0000      0.0000      0.0000      0.0487      0.0000      0.0251      0.0000
 92      0.0000      0.0184      0.0000      0.0094      0.0559      0.0353      0.0000      0.0469      0.0000
 93      0.0000      0.0921      0.0000      0.0000      0.0000      0.5303      0.0524      0.0000      0.0000
 94      0.0000      0.0843      0.0000      0.0705      0.0000      0.0000      0.0000      0.0265      0.0000
 95      0.0000      0.1571      0.0000      0.0000      0.2158      0.0507      0.0543      0.0000      0.0000
 96      0.0000      0.1736      0.0256      0.0594      0.0000      0.0000      0.3845      0.0772      0.0000
 97      0.0007      0.4492      0.0156      0.6754      0.4269      0.2697      0.0000      0.4653      0.0609
 98      0.0000      0.6510      0.6300      0.0891      0.6631      0.6820      0.7252      0.6541      0.8390
 99      0.2330      1.0092      1.1618      1.4619      1.0007      1.0964      1.2721      0.3596      0.9390
100      4.9997      6.0487      5.8303      5.7923      6.1098      5.7329      6.1084      5.9727      6.0225
101      0.0000      0.0145      0.0000      0.1220      0.0000      0.0000      0.0000      0.0000      0.0000
102      0.0000      0.0103      0.0000      0.0000      0.0000      0.0000      0.0000      0.0000      0.0000
103      0.0000      0.0146      0.0000      0.0000      0.0000      0.0025      0.0000      0.0000      0.0000
104      0.0000      0.0106      0.0000      0.0000      0.0000      0.0000      0.0000      0.0000      0.0000
105      0.0000      0.0076      0.0986      0.0000      0.0000      0.0000      0.0000      0.0000      0.0000
106      0.0000      0.0149      0.0000      0.0000      0.0118      0.0000      0.0000      0.0000      0.0000
107      0.0000      0.0074      0.0318      0.0000      0.0280      0.0540      0.0000      0.0000      0.0000
108      0.0000      0.0160      0.0000      0.0539      0.0000      0.0390      0.0000      0.0000      0.0000
109      0.0000      0.0117      0.0000      0.0000      0.0000      0.0000      0.0000      0.0000      0.0000
110      0.0000      0.0105      0.0000      0.0000      0.0000      0.0000      0.0000      0.0000      0.0000
111      0.0000      0.0106      0.0000      0.0000      0.0000      0.0000      0.0000      0.0047      0.0000
112      0.0000      0.0100      0.0000      0.0000      0.0000      0.0000      0.0000      0.0000      0.0661
113      0.0000      0.0071      0.0000      0.0000      0.0000      0.0000      0.0000      0.0731      0.0000
114      0.0000      0.0087      0.0000      0.0000      0.0000      0.0000      0.0000      0.0000      0.0000
115      0.0000      0.0165      0.0000      0.0000      0.0135      0.0312      0.0000      0.0000      0.0129
116      0.0000      0.0332      0.0074      0.0000      0.0000      0.0000      0.0000      0.0000      0.0000
117      0.0000      0.0216      0.0000      0.0000      0.0000      0.0000      0.0000      0.0000      0.0166
118      0.0000      0.0577      0.0000      0.0000      0.0075      0.0000      0.0000      0.0000      0.0000
119      0.0000      0.0921      0.0628      0.0000      0.0000      0.0000      0.0000      0.0000      0.1536
120      0.0000      0.0886      0.3174      0.0345      0.0000      0.0000      0.1218      0.1246      0.0000
121      0.0000      0.0851      0.0055      0.0000      0.0000      0.2800      0.0000      0.0000      0.0891
122      4.6849      4.7430      4.9202      4.6149      4.8905      4.7734      4.7067      4.7263      4.6458
123      9.8678      9.0060      9.0443      8.9064      9.4504      9.2384      8.9692      9.3849      9.1948
124     10.2669      9.6198      9.9876      9.3943      9.7278      9.7171      9.6109      9.9421      9.7989
125      3.5020      3.2592      3.2071      3.3170      3.3193      3.2516      3.3577      3.2097      3.3388
126      0.0000      0.0091      0.0000      0.0000      0.0000      0.0083      0.0094      0.0000      0.0090
127      0.0000      0.0109      0.0000      0.0000      0.0000      0.0000      0.0000      0.0000      0.0667
128      0.0000      0.0203      0.0000      0.0703      0.0000      0.0000      0.0000      0.0000      0.1276
129      0.0000      0.0128      0.0000      0.0000      0.0000      0.0000      0.0000      0.0000      0.0000
130      0.0000      0.0086      0.0000      0.0111      0.0000      0.0000      0.0000      0.0000      0.0000
131      0.0000      0.0279      0.0000      0.0000      0.0000      0.0000      0.0000      0.0000      0.0225
132      0.0000      0.0150      0.0000      0.0000      0.0359      0.0000      0.0000      0.0000      0.0000
133      0.0000      0.0096      0.0000      0.0000      0.0000      0.0000      0.0000      0.0000      0.1215
134      0.0000      0.0056      0.0000      0.0164      0.0000      0.0236      0.0000      0.0000      0.0000
135      0.0000      0.0036      0.0000      0.0000      0.0000      0.0000      0.0000      0.0000      0.0000
136      0.0000      0.0057      0.0000      0.0000      0.0000      0.0000      0.0000      0.0000      0.0714
137      0.0000      0.0084      0.0000      0.0000      0.0000      0.0000      0.0000      0.0000      0.0000
138      0.0000      0.0058      0.0370      0.0000      0.0000      0.0000      0.0000      0.0000      0.0000
139      0.0000      0.0104      0.0000      0.0000      0.0000      0.0000      0.0000      0.0000      0.0000
140      0.0000      0.0289      0.0092      0.0000      0.0000      0.2181      0.0000      0.0000      0.0000
141      0.0000      0.0453      0.0000      0.0450      0.0000      0.0000      0.0000      0.0967      0.0000
142      0.0000      0.0534      0.0000      0.2324      0.0000      0.0000      0.0000      0.0000      0.0000
143      0.0000      0.0986      0.0000      0.0000      0.0686      0.0000      0.0215      0.2500      0.0504
144      0.0000      0.0364      0.0000      0.0000      0.0000      0.1355      0.0000      0.0000      0.0919
145      0.0000      0.0692      0.0000      0.0000      0.0804      0.1858      0.1893      0.0000      0.0430
146      0.0000      0.0678      0.0710      0.1802      0.1132      0.0261      0.0000      0.0147      0.0000
147      0.0000      0.1317      0.0821      0.2355      0.0901      0.1142      0.2370      0.1399      0.1246
148      0.0000      0.0254      0.0431      0.0000      0.0367      0.0000      0.0000      0.0551      0.0000
149      0.0000      0.1410      0.0885      0.1547      0.0000      0.0000      0.1535      0.0000      0.1348
150      0.0000      0.1647      0.2613      0.2008      0.0000      0.0000      0.0429      0.1846      0.0712

# j      m_j: min, <> & last-chain-values for 1 ...  7 chains
  1  0.0000E+00  6.1856E-05  0.0000E+00  0.0000E+00  0.0000E+00  0.0000E+00  0.0000E+00  0.0000E+00  0.0000E+00
  2  0.0000E+00  4.1458E-05  4.4048E-05  3.2509E-05  0.0000E+00  0.0000E+00  0.0000E+00  1.2406E-05  0.0000E+00
  3  5.2405E-03  4.4344E-03  4.3631E-03  4.5865E-03  4.5268E-03  4.9247E-03  4.5568E-03  4.8169E-03  4.2838E-03
  4  0.0000E+00  6.2968E-05  0.0000E+00  0.0000E+00  0.0000E+00  1.0972E-04  0.0000E+00  0.0000E+00  0.0000E+00
  5  0.0000E+00  4.3425E-05  1.2455E-04  0.0000E+00  0.0000E+00  0.0000E+00  0.0000E+00  0.0000E+00  0.0000E+00
  6  0.0000E+00  1.2445E-04  1.0954E-04  0.0000E+00  6.5351E-04  3.5990E-04  0.0000E+00  4.5044E-04  0.0000E+00
  7  0.0000E+00  1.3484E-04  0.0000E+00  2.5527E-04  2.7013E-04  0.0000E+00  6.1807E-04  0.0000E+00  0.0000E+00
  8  0.0000E+00  1.9277E-04  3.6944E-04  0.0000E+00  0.0000E+00  0.0000E+00  0.0000E+00  5.0073E-04  4.3788E-04
  9  0.0000E+00  2.9656E-04  1.2131E-03  0.0000E+00  0.0000E+00  0.0000E+00  0.0000E+00  2.8830E-04  1.6852E-04
 10  0.0000E+00  1.2599E-04  0.0000E+00  0.0000E+00  5.4209E-04  0.0000E+00  0.0000E+00  0.0000E+00  0.0000E+00
 11  0.0000E+00  1.5778E-04  0.0000E+00  2.9558E-04  0.0000E+00  0.0000E+00  0.0000E+00  3.8551E-04  0.0000E+00
 12  0.0000E+00  1.5491E-04  0.0000E+00  0.0000E+00  0.0000E+00  0.0000E+00  0.0000E+00  8.1261E-05  0.0000E+00
 13  0.0000E+00  1.1307E-04  0.0000E+00  0.0000E+00  0.0000E+00  0.0000E+00  0.0000E+00  0.0000E+00  1.0037E-04
 14  0.0000E+00  1.7846E-04  0.0000E+00  0.0000E+00  0.0000E+00  0.0000E+00  0.0000E+00  0.0000E+00  0.0000E+00
 15  0.0000E+00  2.9834E-04  0.0000E+00  0.0000E+00  0.0000E+00  0.0000E+00  0.0000E+00  6.8806E-03  0.0000E+00
 16  0.0000E+00  8.1104E-04  0.0000E+00  0.0000E+00  0.0000E+00  0.0000E+00  8.6105E-04  0.0000E+00  0.0000E+00
 17  0.0000E+00  1.5980E-03  0.0000E+00  0.0000E+00  0.0000E+00  1.0729E-02  0.0000E+00  6.0645E-03  8.2082E-05
 18  0.0000E+00  2.7822E-03  0.0000E+00  0.0000E+00  0.0000E+00  0.0000E+00  0.0000E+00  0.0000E+00  0.0000E+00
 19  0.0000E+00  6.4869E-03  1.2881E-03  2.6372E-03  3.6466E-02  3.8120E-03  0.0000E+00  0.0000E+00  0.0000E+00
 20  0.0000E+00  7.8813E-03  2.4256E-02  2.4939E-02  1.4982E-03  0.0000E+00  1.6884E-02  3.4723E-02  0.0000E+00
 21  5.9034E-02  6.9448E-02  5.4842E-02  5.9810E-02  1.1171E-02  0.0000E+00  3.1450E-02  1.4441E-01  1.2663E-01
 22  0.0000E+00  4.1824E-02  4.9539E-02  7.0490E-02  7.1248E-02  4.5732E-02  0.0000E+00  1.6977E-03  3.6989E-02
 23  0.0000E+00  4.9712E-02  0.0000E+00  3.5842E-02  1.8945E-01  8.9281E-02  0.0000E+00  0.0000E+00  0.0000E+00
 24  4.1929E-03  1.7400E-01  2.1944E-01  2.0629E-01  3.8983E-01  3.0106E-01  1.2744E-01  2.0239E-01  0.0000E+00
 25  1.5129E-02  2.1427E-01  1.8217E-01  3.8533E-01  0.0000E+00  6.4678E-02  2.8559E-01  1.6160E-01  1.3286E-01
 26  0.0000E+00  7.1313E-05  7.3880E-04  0.0000E+00  1.3819E-05  0.0000E+00  0.0000E+00  0.0000E+00  0.0000E+00
 27  0.0000E+00  2.1711E-05  0.0000E+00  0.0000E+00  0.0000E+00  0.0000E+00  0.0000E+00  0.0000E+00  6.7356E-06
 28  0.0000E+00  2.0484E-05  0.0000E+00  0.0000E+00  0.0000E+00  2.1550E-04  0.0000E+00  0.0000E+00  0.0000E+00
 29  0.0000E+00  4.3769E-05  0.0000E+00  0.0000E+00  5.3427E-05  3.3851E-04  0.0000E+00  0.0000E+00  0.0000E+00
 30  0.0000E+00  3.0024E-05  2.4925E-04  0.0000E+00  0.0000E+00  0.0000E+00  1.1516E-04  9.4587E-05  0.0000E+00
 31  0.0000E+00  8.2771E-05  0.0000E+00  0.0000E+00  3.7584E-04  0.0000E+00  0.0000E+00  4.5430E-04  0.0000E+00
 32  0.0000E+00  9.1491E-05  0.0000E+00  0.0000E+00  9.1034E-05  0.0000E+00  0.0000E+00  0.0000E+00  0.0000E+00
 33  0.0000E+00  3.7578E-05  0.0000E+00  0.0000E+00  0.0000E+00  0.0000E+00  0.0000E+00  0.0000E+00  0.0000E+00
 34  0.0000E+00  1.1560E-04  0.0000E+00  2.9056E-06  9.7121E-04  0.0000E+00  6.3215E-05  0.0000E+00  6.6571E-04
 35  0.0000E+00  5.4664E-05  0.0000E+00  0.0000E+00  0.0000E+00  0.0000E+00  0.0000E+00  0.0000E+00  3.3254E-05
 36  0.0000E+00  2.3189E-04  0.0000E+00  5.7357E-05  0.0000E+00  0.0000E+00  0.0000E+00  4.6487E-05  0.0000E+00
 37  0.0000E+00  1.3753E-04  0.0000E+00  0.0000E+00  0.0000E+00  0.0000E+00  0.0000E+00  0.0000E+00  0.0000E+00
 38  0.0000E+00  2.1618E-04  0.0000E+00  0.0000E+00  0.0000E+00  0.0000E+00  0.0000E+00  0.0000E+00  0.0000E+00
 39  0.0000E+00  3.8027E-04  0.0000E+00  0.0000E+00  0.0000E+00  0.0000E+00  0.0000E+00  0.0000E+00  0.0000E+00
 40  0.0000E+00  1.0981E-03  3.8406E-03  0.0000E+00  0.0000E+00  0.0000E+00  9.0121E-04  0.0000E+00  0.0000E+00
 41  0.0000E+00  1.7079E-03  4.1824E-04  0.0000E+00  0.0000E+00  0.0000E+00  1.5893E-02  0.0000E+00  0.0000E+00
 42  0.0000E+00  2.4201E-03  0.0000E+00  0.0000E+00  8.2257E-03  0.0000E+00  9.3489E-03  6.2311E-03  0.0000E+00
 43  0.0000E+00  5.3883E-03  0.0000E+00  0.0000E+00  0.0000E+00  2.4243E-02  0.0000E+00  0.0000E+00  0.0000E+00
 44  0.0000E+00  3.0092E-02  1.0904E-01  0.0000E+00  9.7827E-02  7.5871E-03  0.0000E+00  2.6065E-02  2.4904E-02
 45  3.2821E+00  2.8986E+00  3.0237E+00  2.9368E+00  2.9460E+00  3.0050E+00  2.9060E+00  2.9441E+00  2.9623E+00
 46  7.2574E+00  6.5175E+00  6.4528E+00  6.5683E+00  6.4517E+00  6.6943E+00  6.5064E+00  6.5827E+00  6.4752E+00
 47  6.9525E+00  6.6044E+00  6.6511E+00  6.9530E+00  6.6536E+00  6.7008E+00  6.5782E+00  6.6299E+00  6.8000E+00
 48  4.3330E+00  4.3529E+00  4.4487E+00  4.3946E+00  4.3682E+00  4.1848E+00  4.7100E+00  4.6034E+00  4.3369E+00
 49  0.0000E+00  2.4602E-01  0.0000E+00  1.1137E-01  2.5465E-01  8.2123E-02  1.1774E-01  1.5888E-01  3.9708E-01
 50  8.0707E-01  1.2356E+00  1.2627E+00  1.2423E+00  1.2430E+00  1.4291E+00  1.2866E+00  1.1348E+00  1.3161E+00
 51  0.0000E+00  7.4555E-05  1.7832E-04  0.0000E+00  5.4327E-05  0.0000E+00  2.1149E-04  5.6119E-04  0.0000E+00
 52  0.0000E+00  1.5917E-05  0.0000E+00  0.0000E+00  0.0000E+00  0.0000E+00  3.4824E-05  0.0000E+00  0.0000E+00
 53  0.0000E+00  9.9414E-06  0.0000E+00  0.0000E+00  0.0000E+00  0.0000E+00  0.0000E+00  0.0000E+00  0.0000E+00
 54  0.0000E+00  1.6802E-05  0.0000E+00  1.5201E-05  0.0000E+00  0.0000E+00  0.0000E+00  0.0000E+00  0.0000E+00
 55  0.0000E+00  5.0534E-05  0.0000E+00  4.0821E-05  7.4335E-05  0.0000E+00  0.0000E+00  0.0000E+00  0.0000E+00
 56  0.0000E+00  2.8505E-05  0.0000E+00  0.0000E+00  3.7827E-05  0.0000E+00  2.4012E-05  0.0000E+00  8.3906E-05
 57  0.0000E+00  1.2564E-04  0.0000E+00  0.0000E+00  1.0977E-05  0.0000E+00  4.8389E-04  0.0000E+00  0.0000E+00
 58  0.0000E+00  9.0828E-05  0.0000E+00  0.0000E+00  0.0000E+00  0.0000E+00  3.9098E-04  0.0000E+00  5.9757E-04
 59  0.0000E+00  9.1598E-05  0.0000E+00  0.0000E+00  0.0000E+00  0.0000E+00  0.0000E+00  0.0000E+00  0.0000E+00
 60  0.0000E+00  1.0369E-04  0.0000E+00  0.0000E+00  0.0000E+00  0.0000E+00  0.0000E+00  0.0000E+00  0.0000E+00
 61  0.0000E+00  1.2570E-04  0.0000E+00  0.0000E+00  0.0000E+00  0.0000E+00  0.0000E+00  0.0000E+00  0.0000E+00
 62  0.0000E+00  9.5915E-05  0.0000E+00  0.0000E+00  0.0000E+00  0.0000E+00  1.4215E-04  2.1542E-04  0.0000E+00
 63  0.0000E+00  1.6936E-04  1.1486E-03  0.0000E+00  0.0000E+00  0.0000E+00  0.0000E+00  0.0000E+00  0.0000E+00
 64  0.0000E+00  4.1311E-04  2.7615E-04  4.4335E-03  0.0000E+00  0.0000E+00  3.8382E-03  0.0000E+00  0.0000E+00
 65  0.0000E+00  7.2052E-04  0.0000E+00  0.0000E+00  0.0000E+00  7.4198E-03  3.2080E-03  0.0000E+00  0.0000E+00
 66  0.0000E+00  4.8233E-03  3.8246E-02  0.0000E+00  2.9918E-02  1.8187E-04  0.0000E+00  0.0000E+00  1.7692E-02
 67  0.0000E+00  3.4992E-03  0.0000E+00  0.0000E+00  0.0000E+00  0.0000E+00  0.0000E+00  0.0000E+00  0.0000E+00
 68  0.0000E+00  2.1324E-02  2.0471E-02  2.8778E-02  1.7495E-02  0.0000E+00  1.2909E-01  2.6819E-02  0.0000E+00
 69  5.3242E-01  1.4251E-01  6.8726E-02  1.3818E-01  0.0000E+00  1.4984E-01  8.1504E-02  3.7714E-01  2.7293E-01
 70  0.0000E+00  1.5577E-01  4.8474E-02  1.4986E-02  2.0068E-01  3.6239E-01  5.2507E-02  1.7845E-01  1.8328E-02
 71  3.4129E-02  2.1648E-01  7.3211E-01  5.2447E-01  2.7631E-01  0.0000E+00  1.2180E-01  3.2165E-01  9.0035E-02
 72  1.2867E+00  1.6984E+00  1.8338E+00  1.3806E+00  1.8231E+00  9.7902E-01  1.6807E+00  1.7010E+00  1.6425E+00
 73  2.6129E+00  1.0142E+00  8.6367E-01  1.1136E+00  8.5419E-01  1.3361E+00  1.2732E+00  8.7651E-01  7.7786E-01
 74  1.9598E+00  1.0406E+00  9.8180E-01  1.7124E+00  7.8298E-01  1.1546E+00  8.1396E-01  3.2259E-01  1.3070E+00
 75  1.0194E+00  7.3261E-01  4.0450E-01  6.8821E-01  9.9685E-01  1.6296E+00  1.2976E+00  1.4397E+00  1.7505E+00
 76  0.0000E+00  3.4665E-05  0.0000E+00  1.7765E-04  0.0000E+00  0.0000E+00  0.0000E+00  5.4655E-06  1.0830E-04
 77  0.0000E+00  1.0661E-05  0.0000E+00  0.0000E+00  0.0000E+00  0.0000E+00  0.0000E+00  0.0000E+00  0.0000E+00
 78  0.0000E+00  3.3050E-05  1.6576E-06  0.0000E+00  0.0000E+00  0.0000E+00  1.5566E-04  0.0000E+00  0.0000E+00
 79  0.0000E+00  2.7735E-05  0.0000E+00  0.0000E+00  0.0000E+00  0.0000E+00  0.0000E+00  0.0000E+00  0.0000E+00
 80  0.0000E+00  2.5670E-05  4.4048E-05  1.1451E-04  0.0000E+00  1.7558E-04  2.7456E-04  6.2482E-06  2.1756E-04
 81  0.0000E+00  4.0329E-05  1.3063E-04  0.0000E+00  3.4982E-04  0.0000E+00  0.0000E+00  0.0000E+00  0.0000E+00
 82  0.0000E+00  5.9437E-05  0.0000E+00  0.0000E+00  0.0000E+00  1.4490E-04  0.0000E+00  0.0000E+00  2.7897E-05
 83  0.0000E+00  6.4499E-05  0.0000E+00  0.0000E+00  0.0000E+00  0.0000E+00  0.0000E+00  0.0000E+00  0.0000E+00
 84  0.0000E+00  1.3774E-04  6.7396E-04  0.0000E+00  0.0000E+00  0.0000E+00  1.0007E-04  8.7700E-05  4.0435E-04
 85  0.0000E+00  9.0898E-05  5.2384E-05  0.0000E+00  0.0000E+00  0.0000E+00  0.0000E+00  0.0000E+00  0.0000E+00
 86  0.0000E+00  7.1369E-05  0.0000E+00  0.0000E+00  0.0000E+00  0.0000E+00  0.0000E+00  0.0000E+00  0.0000E+00
 87  0.0000E+00  8.3814E-05  0.0000E+00  0.0000E+00  0.0000E+00  0.0000E+00  0.0000E+00  0.0000E+00  0.0000E+00
 88  0.0000E+00  1.0732E-04  0.0000E+00  0.0000E+00  0.0000E+00  0.0000E+00  0.0000E+00  0.0000E+00  0.0000E+00
 89  0.0000E+00  4.4606E-04  0.0000E+00  0.0000E+00  0.0000E+00  4.7010E-03  0.0000E+00  2.5257E-03  0.0000E+00
 90  0.0000E+00  6.1071E-04  0.0000E+00  0.0000E+00  0.0000E+00  0.0000E+00  0.0000E+00  0.0000E+00  7.8151E-05
 91  0.0000E+00  2.6266E-03  0.0000E+00  0.0000E+00  0.0000E+00  4.9620E-03  0.0000E+00  2.5484E-03  0.0000E+00
 92  0.0000E+00  2.4861E-03  0.0000E+00  1.2657E-03  7.5559E-03  4.7952E-03  0.0000E+00  6.3594E-03  0.0000E+00
 93  0.0000E+00  2.5234E-02  0.0000E+00  0.0000E+00  0.0000E+00  1.4650E-01  1.4319E-02  0.0000E+00  0.0000E+00
 94  0.0000E+00  4.1439E-02  0.0000E+00  3.4607E-02  0.0000E+00  0.0000E+00  0.0000E+00  1.3098E-02  0.0000E+00
 95  0.0000E+00  1.0402E-01  0.0000E+00  0.0000E+00  1.4307E-01  3.3856E-02  3.5848E-02  0.0000E+00  0.0000E+00
 96  0.0000E+00  1.3870E-01  2.0429E-02  4.7375E-02  0.0000E+00  0.0000E+00  3.0604E-01  6.1964E-02  0.0000E+00
 97  7.8237E-04  4.6758E-01  1.6260E-02  7.0229E-01  4.4507E-01  2.8297E-01  0.0000E+00  4.8653E-01  6.3018E-02
 98  0.0000E+00  8.6909E-01  8.3942E-01  1.1888E-01  8.8649E-01  9.1775E-01  9.6454E-01  8.7703E-01  1.1142E+00
 99  3.5852E-01  1.5357E+00  1.7646E+00  2.2222E+00  1.5250E+00  1.6819E+00  1.9287E+00  5.4968E-01  1.4216E+00
100  8.8563E+00  1.0597E+01  1.0195E+01  1.0137E+01  1.0720E+01  1.0125E+01  1.0663E+01  1.0510E+01  1.0497E+01
101  0.0000E+00  2.8003E-05  0.0000E+00  2.3496E-04  0.0000E+00  0.0000E+00  0.0000E+00  0.0000E+00  0.0000E+00
102  0.0000E+00  1.0320E-05  0.0000E+00  0.0000E+00  0.0000E+00  0.0000E+00  0.0000E+00  0.0000E+00  0.0000E+00
103  0.0000E+00  1.6228E-05  0.0000E+00  0.0000E+00  0.0000E+00  2.7444E-06  0.0000E+00  0.0000E+00  0.0000E+00
104  0.0000E+00  1.5516E-05  0.0000E+00  0.0000E+00  0.0000E+00  0.0000E+00  0.0000E+00  0.0000E+00  0.0000E+00
105  0.0000E+00  2.3318E-05  3.0346E-04  0.0000E+00  0.0000E+00  0.0000E+00  0.0000E+00  0.0000E+00  0.0000E+00
106  0.0000E+00  4.9603E-05  0.0000E+00  0.0000E+00  3.9095E-05  0.0000E+00  0.0000E+00  0.0000E+00  0.0000E+00
107  0.0000E+00  3.2604E-05  1.4060E-04  0.0000E+00  1.2439E-04  2.4137E-04  0.0000E+00  0.0000E+00  0.0000E+00
108  0.0000E+00  1.1811E-04  0.0000E+00  3.9739E-04  0.0000E+00  2.9001E-04  0.0000E+00  0.0000E+00  0.0000E+00
109  0.0000E+00  1.0384E-04  0.0000E+00  0.0000E+00  0.0000E+00  0.0000E+00  0.0000E+00  0.0000E+00  0.0000E+00
110  0.0000E+00  1.1147E-04  0.0000E+00  0.0000E+00  0.0000E+00  0.0000E+00  0.0000E+00  0.0000E+00  0.0000E+00
111  0.0000E+00  1.5558E-04  0.0000E+00  0.0000E+00  0.0000E+00  0.0000E+00  0.0000E+00  6.9773E-05  0.0000E+00
112  0.0000E+00  1.9417E-04  0.0000E+00  0.0000E+00  0.0000E+00  0.0000E+00  0.0000E+00  0.0000E+00  1.2778E-03
113  0.0000E+00  2.0495E-04  0.0000E+00  0.0000E+00  0.0000E+00  0.0000E+00  0.0000E+00  2.1279E-03  0.0000E+00
114  0.0000E+00  4.4308E-04  0.0000E+00  0.0000E+00  0.0000E+00  0.0000E+00  0.0000E+00  0.0000E+00  0.0000E+00
115  0.0000E+00  1.6865E-03  0.0000E+00  0.0000E+00  1.3753E-03  3.2109E-03  0.0000E+00  0.0000E+00  1.3061E-03
116  0.0000E+00  5.4333E-03  1.2185E-03  0.0000E+00  0.0000E+00  0.0000E+00  0.0000E+00  0.0000E+00  0.0000E+00
117  0.0000E+00  4.1614E-03  0.0000E+00  0.0000E+00  0.0000E+00  0.0000E+00  0.0000E+00  0.0000E+00  3.1812E-03
118  0.0000E+00  2.2535E-02  0.0000E+00  0.0000E+00  2.9354E-03  0.0000E+00  0.0000E+00  0.0000E+00  0.0000E+00
119  0.0000E+00  6.2205E-02  4.2355E-02  0.0000E+00  0.0000E+00  0.0000E+00  0.0000E+00  0.0000E+00  1.0324E-01
120  0.0000E+00  8.5200E-02  3.0472E-01  3.3163E-02  0.0000E+00  0.0000E+00  1.1669E-01  1.2041E-01  0.0000E+00
121  0.0000E+00  9.6319E-02  6.2002E-03  0.0000E+00  0.0000E+00  3.1947E-01  0.0000E+00  0.0000E+00  1.0032E-01
122  7.1726E+00  7.1821E+00  7.4363E+00  6.9807E+00  7.4160E+00  7.2863E+00  7.1009E+00  7.1882E+00  6.9985E+00
123  1.9927E+01  1.7988E+01  1.8030E+01  1.7770E+01  1.8903E+01  1.8600E+01  1.7849E+01  1.8827E+01  1.8270E+01
124  2.3805E+01  2.2061E+01  2.2861E+01  2.1521E+01  2.2341E+01  2.2463E+01  2.1960E+01  2.2900E+01  2.2355E+01
125  9.7181E+00  8.9455E+00  8.7860E+00  9.0945E+00  9.1235E+00  8.9963E+00  9.1822E+00  8.8483E+00  9.1164E+00
126  0.0000E+00  1.3198E-05  0.0000E+00  0.0000E+00  0.0000E+00  1.2040E-05  1.3532E-05  0.0000E+00  1.2976E-05
127  0.0000E+00  8.3468E-06  0.0000E+00  0.0000E+00  0.0000E+00  0.0000E+00  0.0000E+00  0.0000E+00  5.0568E-05
128  0.0000E+00  2.2974E-05  0.0000E+00  7.9419E-05  0.0000E+00  0.0000E+00  0.0000E+00  0.0000E+00  1.4361E-04
129  0.0000E+00  2.9667E-05  0.0000E+00  0.0000E+00  0.0000E+00  0.0000E+00  0.0000E+00  0.0000E+00  0.0000E+00
130  0.0000E+00  2.7000E-05  0.0000E+00  3.4872E-05  0.0000E+00  0.0000E+00  0.0000E+00  0.0000E+00  0.0000E+00
131  0.0000E+00  1.0184E-04  0.0000E+00  0.0000E+00  0.0000E+00  0.0000E+00  0.0000E+00  0.0000E+00  8.1745E-05
132  0.0000E+00  7.4489E-05  0.0000E+00  0.0000E+00  1.7817E-04  0.0000E+00  0.0000E+00  0.0000E+00  0.0000E+00
133  0.0000E+00  6.9110E-05  0.0000E+00  0.0000E+00  0.0000E+00  0.0000E+00  0.0000E+00  0.0000E+00  8.7088E-04
134  0.0000E+00  5.1352E-05  0.0000E+00  1.4998E-04  0.0000E+00  2.1709E-04  0.0000E+00  0.0000E+00  0.0000E+00
135  0.0000E+00  3.9381E-05  0.0000E+00  0.0000E+00  0.0000E+00  0.0000E+00  0.0000E+00  0.0000E+00  0.0000E+00
136  0.0000E+00  9.0960E-05  0.0000E+00  0.0000E+00  0.0000E+00  0.0000E+00  0.0000E+00  0.0000E+00  1.1257E-03
137  0.0000E+00  1.8246E-04  0.0000E+00  0.0000E+00  0.0000E+00  0.0000E+00  0.0000E+00  0.0000E+00  0.0000E+00
138  0.0000E+00  2.1032E-04  1.3301E-03  0.0000E+00  0.0000E+00  0.0000E+00  0.0000E+00  0.0000E+00  0.0000E+00
139  0.0000E+00  7.0879E-04  0.0000E+00  0.0000E+00  0.0000E+00  0.0000E+00  0.0000E+00  0.0000E+00  0.0000E+00
140  0.0000E+00  4.5395E-03  1.4404E-03  0.0000E+00  0.0000E+00  3.4598E-02  0.0000E+00  0.0000E+00  0.0000E+00
141  0.0000E+00  1.0904E-02  0.0000E+00  1.0821E-02  0.0000E+00  0.0000E+00  0.0000E+00  2.3387E-02  0.0000E+00
142  1.0693E-06  1.5299E-02  0.0000E+00  6.6500E-02  0.0000E+00  0.0000E+00  0.0000E+00  0.0000E+00  0.0000E+00
143  0.0000E+00  5.6166E-02  0.0000E+00  0.0000E+00  3.9107E-02  0.0000E+00  1.2229E-02  1.4306E-01  2.8578E-02
144  0.0000E+00  4.0747E-02  0.0000E+00  0.0000E+00  0.0000E+00  1.5287E-01  0.0000E+00  0.0000E+00  1.0230E-01
145  0.0000E+00  1.1532E-01  0.0000E+00  0.0000E+00  1.3415E-01  3.1201E-01  3.1417E-01  0.0000E+00  7.1301E-02
146  6.0121E-05  1.3486E-01  1.4087E-01  3.5800E-01  2.2550E-01  5.2262E-02  0.0000E+00  2.9442E-02  0.0000E+00
147  6.3670E-05  3.5198E-01  2.1905E-01  6.2876E-01  2.4120E-01  3.0765E-01  6.3123E-01  3.7546E-01  3.3140E-01
148  0.0000E+00  9.1926E-02  1.5589E-01  0.0000E+00  1.3305E-01  0.0000E+00  0.0000E+00  2.0048E-01  0.0000E+00
149  0.0000E+00  5.9797E-01  3.7440E-01  6.5546E-01  0.0000E+00  0.0000E+00  6.4834E-01  0.0000E+00  5.6863E-01
150  1.1770E-04  8.3204E-01  1.3172E+00  1.0133E+00  0.0000E+00  0.0000E+00  2.1583E-01  9.3659E-01  3.5787E-01

# AV, chi2 & Mass for <> & i_chain = 1 ...  7 solutions
AV       1.1284      1.1234      1.1236      1.1244      1.1245      1.1276      1.1226      1.1269      1.1226
chi2 2.6439E+00  2.7025E+00  2.6871E+00  2.6813E+00  2.6864E+00  2.6866E+00  2.6903E+00  2.6855E+00  2.6909E+00
Mass 4.3488E-10  4.3678E-10  4.3772E-10  4.3781E-10  4.3677E-10  4.3572E-10  4.3791E-10  4.3694E-10  4.3861E-10
 -15.96                                  [v0_min (km/s) before EX0s...]
  48.93                                  [vd_min (km/s) before EX0s...]


## Synthetic spectrum (Best Model) ##l_obs f_obs f_syn wei
 3070    [Nl_obs]
 3359.00    0.19253   0.34144   -1.000
 3360.00    0.21582   0.32231   -1.000
 3361.00    0.21060   0.33373   -1.000
 3362.00    0.17540   0.36612   -1.000
 3363.00    0.19808   0.40377   -1.000
 3364.00    0.19077   0.42585   -1.000
 3365.00    0.21820   0.42417   -1.000
 3366.00    0.23457   0.41076   -1.000
 3367.00    0.21905   0.39582   -1.000
 3368.00    0.20548   0.38115   -1.000
 3369.00    0.23233   0.36665   -1.000
 3370.00    0.25810   0.34837   -1.000
 3371.00    0.22475   0.33829   -1.000
 3372.00    0.20315   0.34603   -1.000
 3373.00    0.24352   0.37025   -1.000
 3374.00    0.28829   0.40185   -1.000
 3375.00    0.27875   0.43036   -1.000
 3376.00    0.28113   0.44326   -1.000
 3377.00    0.28636   0.43595   -1.000
 3378.00    0.29867   0.41612   -1.000
 3379.00    0.28677   0.39995   -1.000
 3380.00    0.27985   0.39681   -1.000
 3381.00    0.30473   0.40505   -1.000
 3382.00    0.28095   0.41635   -1.000
 3383.00    0.27577   0.42631   -1.000
 3384.00    0.27672   0.43528   -1.000
 3385.00    0.28178   0.44211   -1.000
 3386.00    0.29496   0.43821   -1.000
 3387.00    0.30281   0.42749   -1.000
 3388.00    0.29420   0.42184   -1.000
 3389.00    0.26454   0.42733   -1.000
 3390.00    0.28076   0.43403   -1.000
 3391.00    0.30014   0.43150   -1.000
 3392.00    0.31004   0.41977   -1.000
 3393.00    0.30035   0.41391   -1.000
 3394.00    0.30708   0.42290   -1.000
 3395.00    0.34177   0.44164   -1.000
 3396.00    0.37894   0.46102   -1.000
 3397.00    0.40106   0.47773   -1.000
 3398.00    0.36668   0.49111   -1.000
 3399.00    0.36209   0.49722   -1.000
 3400.00    0.42447   0.49372   39.621
 3401.00    0.42138   0.48029   40.965
 3402.00    0.40237   0.46114   41.464
 3403.00    0.38990   0.44763   42.207
 3404.00    0.34354   0.44055   -1.000
 3405.00    0.32640   0.43982   -1.000
 3406.00    0.32717   0.43727   -1.000
 3407.00    0.33023   0.43078   -1.000
 3408.00    0.32080   0.42661   -1.000
 3409.00    0.33471   0.43201   -1.000
 3410.00    0.36433   0.44171   -1.000
 3411.00    0.37442   0.43880   43.178
 3412.00    0.37153   0.42340   44.745
 3413.00    0.37775   0.40578   45.250
 3414.00    0.35846   0.40165   44.796
 3415.00    0.35677   0.41682   43.393
 3416.00    0.36371   0.43868   -1.000
 3417.00    0.39697   0.45850   39.440
 3418.00    0.41023   0.47358   38.043
 3419.00    0.42855   0.48499   37.875
 3420.00    0.42241   0.48942   37.772
 3421.00    0.42639   0.48084   38.294
 3422.00    0.44722   0.45980   39.351
 3423.00    0.45063   0.44281   39.562
 3424.00    0.42672   0.43912   38.433
 3425.00    0.42036   0.44512   37.686
 3426.00    0.45190   0.45457   52.881
 3427.00    0.44381   0.46884   -1.000
 3428.00    0.43869   0.48963   -1.000
 3429.00    0.43369   0.50761   -1.000
 3430.00    0.44768   0.50756   -1.000
 3431.00    0.46986   0.48720   95.737
 3432.00    0.46350   0.46382   37.630
 3433.00    0.42932   0.45653   52.926
 3434.00    0.43456   0.46884   -1.000
 3435.00    0.44460   0.48235   -1.000
 3436.00    0.43853   0.48056   38.006
 3437.00    0.42376   0.46338   39.966
 3438.00    0.41747   0.43851   42.628
 3439.00    0.41528   0.41150   45.496
 3440.00    0.38432   0.38740   46.730
 3441.00    0.35986   0.37025   46.701
 3442.00    0.35715   0.36700   45.932
 3443.00    0.35984   0.37507   43.854
 3444.00    0.38135   0.38913   41.436
 3445.00    0.41475   0.40724   39.432
 3446.00    0.41713   0.43156   54.678
 3447.00    0.43685   0.45796   -1.000
 3448.00    0.45755   0.48089   -1.000
 3449.00    0.46656   0.49252   -1.000
 3450.00    0.45593   0.48490   -1.000
 3451.00    0.44631   0.46533   -1.000
 3452.00    0.44374   0.45090  316.844
 3453.00    0.43763   0.45071   -1.000
 3454.00    0.46245   0.46184  316.844
 3455.00    0.47249   0.47133  316.844
 3456.00    0.46861   0.46942  316.844
 3457.00    0.46578   0.45800   92.875
 3458.00    0.45547   0.44288   37.726
 3459.00    0.44605   0.42931   37.981
 3460.00    0.43518   0.41866   54.096
 3461.00    0.43015   0.41976   -1.000
 3462.00    0.42603   0.43477  316.844
 3463.00    0.44753   0.45060  316.844
 3464.00    0.48379   0.45482   -1.000
 3465.00    0.46557   0.45057   -1.000
 3466.00    0.46720   0.45249   -1.000
 3467.00    0.47338   0.46661  316.844
 3468.00    0.48456   0.48630  316.844
 3469.00    0.49774   0.50042  316.844
 3470.00    0.49348   0.50275  316.844
 3471.00    0.50005   0.49183  316.844
 3472.00    0.48377   0.47051   -1.000
 3473.00    0.45580   0.44170   92.305
 3474.00    0.44011   0.41734   38.348
 3475.00    0.40596   0.40614   38.999
 3476.00    0.39276   0.41470   55.306
 3477.00    0.39684   0.43875   -1.000
 3478.00    0.40913   0.46394   -1.000
 3479.00    0.47048   0.48156   -1.000
 3480.00    0.50337   0.49022   -1.000
 3481.00    0.50093   0.48816   -1.000
 3482.00    0.50620   0.47962   -1.000
 3483.00    0.49451   0.47192   -1.000
 3484.00    0.50389   0.47239   -1.000
 3485.00    0.49214   0.48411  308.983
 3486.00    0.51337   0.49682   -1.000
 3487.00    0.54444   0.49713   -1.000
 3488.00    0.51190   0.48037   -1.000
 3489.00    0.48717   0.45560   -1.000
 3490.00    0.48398   0.43878   -1.000
 3491.00    0.46166   0.44023   -1.000
 3492.00    0.48736   0.45235   -1.000
 3493.00    0.50342   0.46166   -1.000
 3494.00    0.48717   0.46258   -1.000
 3495.00    0.45831   0.45469  316.844
 3496.00    0.45686   0.44832   -1.000
 3497.00    0.45088   0.45291  316.844
 3498.00    0.45112   0.46739   -1.000
 3499.00    0.47635   0.48351  298.858
 3500.00    0.51913   0.49143   -1.000
 3501.00    0.51212   0.49762   -1.000
 3502.00    0.51322   0.50665  293.797
 3503.00    0.51975   0.51180  300.647
 3504.00    0.52983   0.50816   -1.000
 3505.00    0.52840   0.49686   -1.000
 3506.00    0.50136   0.48681   -1.000
 3507.00    0.51226   0.48212   -1.000
 3508.00    0.50761   0.47869   -1.000
 3509.00    0.49846   0.47490   -1.000
 3510.00    0.50544   0.46944   -1.000
 3511.00    0.49676   0.46110   -1.000
 3512.00    0.50606   0.44957   -1.000
 3513.00    0.49053   0.43951   -1.000
 3514.00    0.45652   0.44159   -1.000
 3515.00    0.46177   0.46303  313.702
 3516.00    0.49909   0.49677  299.939
 3517.00    0.53402   0.52186   -1.000
 3518.00    0.53725   0.52419   -1.000
 3519.00    0.55420   0.50461   -1.000
 3520.00    0.53199   0.47952   -1.000
 3521.00    0.48424   0.45815   -1.000
 3522.00    0.46029   0.44206   88.108
 3523.00    0.47792   0.42547   38.020
 3524.00    0.46513   0.40960   38.805
 3525.00    0.42083   0.40596   57.022
 3526.00    0.42145   0.42121  316.844
 3527.00    0.44563   0.44851  316.844
 3528.00    0.46330   0.47809   -1.000
 3529.00    0.46030   0.49827   -1.000
 3530.00    0.48864   0.50617   -1.000
 3531.00    0.52041   0.50449   -1.000
 3532.00    0.51985   0.49709   -1.000
 3533.00    0.51211   0.48854   -1.000
 3534.00    0.50169   0.48718   -1.000
 3535.00    0.53043   0.49417   -1.000
 3536.00    0.53470   0.50938   -1.000
 3537.00    0.52486   0.52756  297.236
 3538.00    0.53969   0.54036  295.774
 3539.00    0.54758   0.54365  299.544
 3540.00    0.53199   0.53740  304.134
 3541.00    0.52819   0.52960  305.014
 3542.00    0.53396   0.53115  302.009
 3543.00    0.53196   0.54146   -1.000
 3544.00    0.53159   0.54884   -1.000
 3545.00    0.53828   0.54723   -1.000
 3546.00    0.53592   0.53910  311.322
 3547.00    0.54927   0.53183   -1.000
 3548.00    0.54565   0.53057   -1.000
 3549.00    0.53594   0.53446  310.706
 3550.00    0.53492   0.53868  316.844
 3551.00    0.52986   0.53620  316.844
 3552.00    0.52544   0.52324  316.844
 3553.00    0.52335   0.50693   -1.000
 3554.00    0.53089   0.50013   -1.000
 3555.00    0.54254   0.50512   -1.000
 3556.00    0.52449   0.51400   -1.000
 3557.00    0.49821   0.52082   -1.000
 3558.00    0.49694   0.52276   -1.000
 3559.00    0.50074   0.52424   -1.000
 3560.00    0.49723   0.52959   -1.000
 3561.00    0.50692   0.53554   -1.000
 3562.00    0.50888   0.53272   -1.000
 3563.00    0.51650   0.51244   85.463
 3564.00    0.51301   0.47969   38.496
 3565.00    0.48426   0.45062   39.304
 3566.00    0.44129   0.44070   38.925
 3567.00    0.43990   0.44228   39.290
 3568.00    0.41469   0.44026   40.414
 3569.00    0.41039   0.43107   40.369
 3570.00    0.42422   0.42171   38.874
 3571.00    0.44181   0.42363   57.216
 3572.00    0.45406   0.43580   -1.000
 3573.00    0.45669   0.44839  316.844
 3574.00    0.46390   0.45931  316.844
 3575.00    0.45713   0.46765   -1.000
 3576.00    0.46267   0.47092  316.844
 3577.00    0.47422   0.46730   87.746
 3578.00    0.48053   0.45536   40.338
 3579.00    0.45597   0.43443   43.195
 3580.00    0.41459   0.41337   44.752
 3581.00    0.39400   0.40053   44.986
 3582.00    0.38912   0.39925   45.535
 3583.00    0.40580   0.40194   46.832
 3584.00    0.44004   0.39811   48.042
 3585.00    0.41885   0.38684   47.465
 3586.00    0.38179   0.37793   44.989
 3587.00    0.38405   0.38250   42.677
 3588.00    0.40761   0.40438   39.889
 3589.00    0.43768   0.43808   57.435
 3590.00    0.45975   0.46962   -1.000
 3591.00    0.48377   0.48828  316.844
 3592.00    0.50374   0.49160   -1.000
 3593.00    0.49800   0.49213  316.844
 3594.00    0.49120   0.50112   -1.000
 3595.00    0.53089   0.51959   -1.000
 3596.00    0.56755   0.53798   -1.000
 3597.00    0.57524   0.54856   -1.000
 3598.00    0.58591   0.55501   -1.000
 3599.00    0.59050   0.55824   -1.000
 3600.00    0.59630   0.55118   -1.000
 3601.00    0.60092   0.53108   -1.000
 3602.00    0.56549   0.50796   -1.000
 3603.00    0.53257   0.49161   -1.000
 3604.00    0.51356   0.48701   -1.000
 3605.00    0.48937   0.48663  316.844
 3606.00    0.50670   0.48132   -1.000
 3607.00    0.53158   0.46918   -1.000
 3608.00    0.50317   0.45667   -1.000
 3609.00    0.47388   0.45390   -1.000
 3610.00    0.47589   0.46349   -1.000
 3611.00    0.49117   0.48037   -1.000
 3612.00    0.50053   0.49571  316.844
 3613.00    0.52044   0.51008   -1.000
 3614.00    0.53618   0.52620   -1.000
 3615.00    0.52458   0.53641   -1.000
 3616.00    0.51015   0.52542   -1.000
 3617.00    0.48851   0.49472   81.555
 3618.00    0.46925   0.46313   57.884
 3619.00    0.45890   0.45610  316.844
 3620.00    0.46555   0.47570  312.284
 3621.00    0.48525   0.50607   -1.000
 3622.00    0.53055   0.53023  293.118
 3623.00    0.56913   0.54690   -1.000
 3624.00    0.58423   0.56505   -1.000
 3625.00    0.60465   0.59116   -1.000
 3626.00    0.62533   0.61801  266.403
 3627.00    0.64302   0.63017   -1.000
 3628.00    0.63596   0.61296   -1.000
 3629.00    0.60352   0.56745   -1.000
 3630.00    0.54201   0.51368   -1.000
 3631.00    0.48742   0.48379  316.844
 3632.00    0.48460   0.48495  316.844
 3633.00    0.50583   0.50468  316.844
 3634.00    0.50171   0.52202   -1.000
 3635.00    0.50441   0.53183   -1.000
 3636.00    0.53605   0.54247  288.402
 3637.00    0.56000   0.56186  276.797
 3638.00    0.59738   0.58374   -1.000
 3639.00    0.61457   0.59887   -1.000
 3640.00    0.59352   0.60218  281.866
 3641.00    0.59542   0.59140  293.779
 3642.00    0.59597   0.57191   -1.000
 3643.00    0.55765   0.55217  314.241
 3644.00    0.53595   0.53552  316.844
 3645.00    0.50443   0.52196   -1.000
 3646.00    0.49149   0.50942   -1.000
 3647.00    0.49473   0.50018  316.844
 3648.00    0.49963   0.49996  313.802
 3649.00    0.50449   0.50981  299.963
 3650.00    0.52566   0.52926  286.208
 3651.00    0.57308   0.55421   -1.000
 3652.00    0.59928   0.57959   -1.000
 3653.00    0.58608   0.59736   -1.000
 3654.00    0.59476   0.61125   -1.000
 3655.00    0.62006   0.62425  263.479
 3656.00    0.61314   0.63717   -1.000
 3657.00    0.60622   0.64727   -1.000
 3658.00    0.63024   0.65129   -1.000
 3659.00    0.64761   0.65153  258.899
 3660.00    0.64706   0.64681  261.776
 3661.00    0.63068   0.63517  265.295
 3662.00    0.60632   0.62045   -1.000
 3663.00    0.58306   0.61093   -1.000
 3664.00    0.59898   0.61038   -1.000
 3665.00    0.63590   0.61496   -1.000
 3666.00    0.63737   0.61604   -1.000
 3667.00    0.62200   0.60908   -1.000
 3668.00    0.60530   0.59568  281.656
 3669.00    0.57850   0.58632  275.906
 3670.00    0.58983   0.59150  267.485
 3671.00    0.60464   0.60679  264.057
 3672.00    0.62746   0.62116  263.549
 3673.00    0.65156   0.62781   -1.000
 3674.00    0.65837   0.62506   -1.000
 3675.00    0.65151   0.61343   -1.000
 3676.00    0.63657   0.59300   -1.000
 3677.00    0.62011   0.56850   -1.000
 3678.00    0.59378   0.54844   -1.000
 3679.00    0.56410   0.54079   -1.000
 3680.00    0.56724   0.54591   -1.000
 3681.00    0.56432   0.55820  278.597
 3682.00    0.54989   0.57036   -1.000
 3683.00    0.56903   0.57565  289.021
 3684.00    0.59687   0.56910   -1.000
 3685.00    0.58015   0.55165   -1.000
 3686.00    0.53697   0.53473  309.623
 3687.00    0.51548   0.53360   -1.000
 3688.00    0.54139   0.55195  275.688
 3689.00    0.57271   0.58329  261.772
 3690.00    0.58826   0.61217   -1.000
 3691.00    0.61639   0.62721   -1.000
 3692.00    0.63182   0.62342  268.359
 3693.00    0.62240   0.61149  269.865
 3694.00    0.61240   0.60440  268.083
 3695.00    0.62524   0.60459   -1.000
 3696.00    0.62408   0.60948   -1.000
 3697.00    0.61755   0.62020  251.832
 3698.00    0.66010   0.63797   -1.000
 3699.00    0.70322   0.65456   -1.000
 3700.00    0.71414   0.66113   -1.000
 3701.00    0.71964   0.64582   -1.000
 3702.00    0.66929   0.60690   -1.000
 3703.00    0.59636   0.55707   -1.000
 3704.00    0.56020   0.51626   -1.000
 3705.00    0.54530   0.49450   -1.000
 3706.00    0.52184   0.49311   -1.000
 3707.00    0.53515   0.50137   -1.000
 3708.00    0.54848   0.51349   -1.000
 3709.00    0.53677   0.52787  285.328
 3710.00    0.56112   0.54506   -1.000
 3711.00    0.59813   0.56648   -1.000
 3712.00    0.63783   0.59446   -1.000
 3713.00    0.68656   0.62328   -1.000
 3714.00    0.69609   0.64224   -1.000
 3715.00    0.67870   0.64592   -1.000
 3716.00    0.68952   0.63319   -1.000
 3717.00    0.68749   0.60149   -1.000
 3718.00    0.62496   0.55277   -1.000
 3719.00    0.54362   0.49400   -1.000
 3720.00    0.47752   0.44310   62.422
 3721.00    0.44455   0.42767   -1.000
 3722.00    0.46661   0.45291   -1.000
 3723.00    0.52612   0.50389   -1.000
 3724.00    0.58877   0.55591   -1.000
 3725.00    0.60438   0.58495   -1.000
 3726.00    0.60427   0.58784   -1.000
 3727.00    0.59195   0.58282  282.373
 3728.00    0.58759   0.58420  280.995
 3729.00    0.63618   0.58686   -1.000
 3730.00    0.65031   0.57771   -1.000
 3731.00    0.60664   0.54263   -1.000
 3732.00    0.56399   0.48445   -1.000
 3733.00    0.49504   0.42788   42.632
 3734.00    0.42712   0.38939   42.500
 3735.00    0.41977   0.38255   39.466
 3736.00    0.44296   0.40901   61.512
 3737.00    0.46476   0.45818  314.675
 3738.00    0.49145   0.51453   -1.000
 3739.00    0.54882   0.56620   -1.000
 3740.00    0.61417   0.59551   -1.000
 3741.00    0.62700   0.59568   -1.000
 3742.00    0.60178   0.57180   -1.000
 3743.00    0.59438   0.53946   -1.000
 3744.00    0.56655   0.50901   -1.000
 3745.00    0.51155   0.48788   75.320
 3746.00    0.49171   0.46907   39.010
 3747.00    0.45889   0.44533   40.605
 3748.00    0.42201   0.42351   67.803
 3749.00    0.42861   0.41688   -1.000
 3750.00    0.44119   0.43788  306.715
 3751.00    0.49684   0.48401   -1.000
 3752.00    0.57659   0.54001   -1.000
 3753.00    0.61526   0.59407   -1.000
 3754.00    0.65218   0.63083   -1.000
 3755.00    0.67907   0.63648   -1.000
 3756.00    0.65704   0.61161   -1.000
 3757.00    0.59881   0.57177   -1.000
 3758.00    0.56059   0.54232   -1.000
 3759.00    0.55457   0.53809   -1.000
 3760.00    0.56458   0.55154   -1.000
 3761.00    0.59277   0.56786   -1.000
 3762.00    0.60574   0.57400   -1.000
 3763.00    0.60728   0.57270   -1.000
 3764.00    0.62403   0.56860   -1.000
 3765.00    0.62404   0.56137   -1.000
 3766.00    0.60163   0.55160   -1.000
 3767.00    0.59028   0.54124   -1.000
 3768.00    0.59249   0.52987   -1.000
 3769.00    0.59126   0.52049   -1.000
 3770.00    0.57810   0.52249   -1.000
 3771.00    0.58233   0.54282   -1.000
 3772.00    0.62239   0.57522   -1.000
 3773.00    0.65095   0.60661   -1.000
 3774.00    0.67479   0.62440   -1.000
 3775.00    0.67981   0.63112   -1.000
 3776.00    0.67187   0.63643   -1.000
 3777.00    0.67147   0.64765   -1.000
 3778.00    0.68819   0.66609   -1.000
 3779.00    0.70465   0.68614   -1.000
 3780.00    0.70806   0.70189  237.535
 3781.00    0.73430   0.70875   -1.000
 3782.00    0.75049   0.70859   -1.000
 3783.00    0.73032   0.70255   -1.000
 3784.00    0.71374   0.68640   -1.000
 3785.00    0.69170   0.65971   -1.000
 3786.00    0.64662   0.63015   -1.000
 3787.00    0.62436   0.60434   -1.000
 3788.00    0.61215   0.59044   -1.000
 3789.00    0.59940   0.59167  286.903
 3790.00    0.59265   0.59996  287.459
 3791.00    0.60297   0.60431  295.017
 3792.00    0.61464   0.59620   -1.000
 3793.00    0.59113   0.57394   -1.000
 3794.00    0.56477   0.54610   -1.000
 3795.00    0.55054   0.51614   -1.000
 3796.00    0.53744   0.48528   -1.000
 3797.00    0.52377   0.45922   -1.000
 3798.00    0.51639   0.45387   -1.000
 3799.00    0.52930   0.48305   -1.000
 3800.00    0.56094   0.53846   -1.000
 3801.00    0.60951   0.59398   -1.000
 3802.00    0.64128   0.63516  264.208
 3803.00    0.65043   0.65508  265.414
 3804.00    0.67263   0.65787   -1.000
 3805.00    0.66283   0.64894   -1.000
 3806.00    0.60975   0.63950   -1.000
 3807.00    0.59150   0.64096   -1.000
 3808.00    0.62289   0.65618   -1.000
 3809.00    0.65496   0.67517   -1.000
 3810.00    0.67661   0.68391  274.146
 3811.00    0.68502   0.67152   -1.000
 3812.00    0.64794   0.64064  308.034
 3813.00    0.60046   0.60594  316.844
 3814.00    0.57151   0.57918  316.844
 3815.00    0.55750   0.57188   -1.000
 3816.00    0.56435   0.58135   -1.000
 3817.00    0.57667   0.59141   -1.000
 3818.00    0.57688   0.58436  316.844
 3819.00    0.56960   0.56251   -1.000
 3820.00    0.52591   0.54646   -1.000
 3821.00    0.49976   0.54793   -1.000
 3822.00    0.53250   0.55823   -1.000
 3823.00    0.54088   0.55421   73.769
 3824.00    0.51226   0.53260   39.622
 3825.00    0.47921   0.51111   39.883
 3826.00    0.46681   0.49835   39.376
 3827.00    0.46834   0.49409   38.730
 3828.00    0.48138   0.49481   38.637
 3829.00    0.50088   0.49449   39.753
 3830.00    0.50350   0.48677   42.247
 3831.00    0.46429   0.46828   44.655
 3832.00    0.42724   0.44014   44.878
 3833.00    0.41859   0.41077   43.494
 3834.00    0.42095   0.39311   42.120
 3835.00    0.43144   0.39236   42.098
 3836.00    0.43732   0.40350   43.083
 3837.00    0.42293   0.41761   43.228
 3838.00    0.40209   0.43280   41.565
 3839.00    0.39935   0.45234   -1.000
 3840.00    0.41972   0.48182   -1.000
 3841.00    0.46753   0.52227   -1.000
 3842.00    0.53543   0.56520   -1.000
 3843.00    0.57806   0.60218   -1.000
 3844.00    0.59079   0.62415   -1.000
 3845.00    0.60702   0.63499   -1.000
 3846.00    0.61781   0.64301   -1.000
 3847.00    0.60776   0.64692   -1.000
 3848.00    0.58011   0.64228   -1.000
 3849.00    0.55910   0.63264   -1.000
 3850.00    0.57945   0.62979   -1.000
 3851.00    0.60346   0.63982   -1.000
 3852.00    0.61008   0.65335   -1.000
 3853.00    0.60736   0.65850   -1.000
 3854.00    0.58963   0.64962   -1.000
 3855.00    0.57746   0.63313   -1.000
 3856.00    0.55215   0.61500   -1.000
 3857.00    0.52476   0.59505   38.273
 3858.00    0.51500   0.57665   39.051
 3859.00    0.49144   0.57148   -1.000
 3860.00    0.47937   0.58592   -1.000
 3861.00    0.51551   0.61638   -1.000
 3862.00    0.58681   0.64672   -1.000
 3863.00    0.62834   0.66201   -1.000
 3864.00    0.64098   0.66049   -1.000
 3865.00    0.64165   0.65447   -1.000
 3866.00    0.61639   0.65268   -1.000
 3867.00    0.59917   0.65355   -1.000
 3868.00    0.58846   0.65127   -1.000
 3869.00    0.55765   0.63969   -1.000
 3870.00    0.52467   0.62043   -1.000
 3871.00    0.52666   0.60388   -1.000
 3872.00    0.53374   0.59875   -1.000
 3873.00    0.54773   0.60986   -1.000
 3874.00    0.59125   0.62916   -1.000
 3875.00    0.61930   0.64034   -1.000
 3876.00    0.61518   0.62958   -1.000
 3877.00    0.57981   0.60647   -1.000
 3878.00    0.55011   0.58997   -1.000
 3879.00    0.55897   0.58724   -1.000
 3880.00    0.55928   0.59373   -1.000
 3881.00    0.54264   0.59804   -1.000
 3882.00    0.54328   0.59806   -1.000
 3883.00    0.56163   0.59645   -1.000
 3884.00    0.59063   0.58295   -1.000
 3885.00    0.59477   0.55070   -1.000
 3886.00    0.55814   0.51000   -1.000
 3887.00    0.53471   0.47684   -1.000
 3888.00    0.53900   0.46859   -1.000
 3889.00    0.55168   0.49180   -1.000
 3890.00    0.59177   0.53797   -1.000
 3891.00    0.63944   0.58901   -1.000
 3892.00    0.67068   0.62531   -1.000
 3893.00    0.68768   0.63745   -1.000
 3894.00    0.69135   0.63863   -1.000
 3895.00    0.69876   0.64389   -1.000
 3896.00    0.71279   0.65472   -1.000
 3897.00    0.73583   0.66540   -1.000
 3898.00    0.73784   0.66938   -1.000
 3899.00    0.71448   0.67005   -1.000
 3900.00    0.71946   0.67491   -1.000
 3901.00    0.73422   0.67914   -1.000
 3902.00    0.71609   0.67570   -1.000
 3903.00    0.68180   0.66450   -1.000
 3904.00    0.66143   0.65171   -1.000
 3905.00    0.65784   0.64966  262.434
 3906.00    0.67462   0.66413   -1.000
 3907.00    0.70942   0.69315   -1.000
 3908.00    0.73191   0.72511  230.994
 3909.00    0.74060   0.74930  228.888
 3910.00    0.77274   0.76214  227.133
 3911.00    0.80319   0.76866   -1.000
 3912.00    0.79426   0.77110   -1.000
 3913.00    0.77646   0.76690  236.929
 3914.00    0.75361   0.75620  241.181
 3915.00    0.74680   0.74516  244.293
 3916.00    0.76467   0.73543   -1.000
 3917.00    0.77744   0.72302   -1.000
 3918.00    0.75639   0.70443   -1.000
 3919.00    0.73277   0.68304   -1.000
 3920.00    0.70347   0.66584   -1.000
 3921.00    0.65971   0.65755  277.306
 3922.00    0.66164   0.66127  275.990
 3923.00    0.68636   0.66920   -1.000
 3924.00    0.66847   0.66954  305.509
 3925.00    0.63307   0.65466   -1.000
 3926.00    0.59932   0.62239   72.630
 3927.00    0.55658   0.57896   44.948
 3928.00    0.50272   0.52802   52.653
 3929.00    0.42429   0.47308   61.952
 3930.00    0.34873   0.40996   -1.000
 3931.00    0.29151   0.33825   -1.000
 3932.00    0.25298   0.27505   84.086
 3933.00    0.22612   0.24062   76.222
 3934.00    0.23175   0.25060   64.303
 3935.00    0.27675   0.30377   52.936
 3936.00    0.32587   0.38011   44.049
 3937.00    0.37389   0.45872   -1.000
 3938.00    0.43782   0.53053   -1.000
 3939.00    0.51286   0.58346   -1.000
 3940.00    0.56337   0.61749   -1.000
 3941.00    0.58733   0.63430   -1.000
 3942.00    0.60386   0.63805   -1.000
 3943.00    0.60175   0.63959   -1.000
 3944.00    0.60699   0.65209   -1.000
 3945.00    0.64663   0.67546   -1.000
 3946.00    0.68724   0.69846  254.828
 3947.00    0.70457   0.71238  248.870
 3948.00    0.72847   0.71925  240.169
 3949.00    0.74500   0.72703   -1.000
 3950.00    0.75377   0.73404   -1.000
 3951.00    0.77708   0.73495   -1.000
 3952.00    0.79676   0.73740   -1.000
 3953.00    0.79591   0.74515   -1.000
 3954.00    0.77771   0.74919   -1.000
 3955.00    0.77631   0.74360   -1.000
 3956.00    0.77380   0.73206   -1.000
 3957.00    0.74820   0.72414   -1.000
 3958.00    0.73631   0.72042   -1.000
 3959.00    0.73781   0.70269   -1.000
 3960.00    0.70239   0.66356   -1.000
 3961.00    0.63405   0.61844   -1.000
 3962.00    0.58421   0.57810   67.271
 3963.00    0.54757   0.54670   42.415
 3964.00    0.49731   0.50834   51.057
 3965.00    0.43112   0.44727   62.778
 3966.00    0.34960   0.37043   72.969
 3967.00    0.28611   0.29697   73.375
 3968.00    0.27098   0.25628   63.558
 3969.00    0.28097   0.26352   52.243
 3970.00    0.30424   0.31412   43.374
 3971.00    0.35355   0.38817   75.797
 3972.00    0.44494   0.46629   -1.000
 3973.00    0.53719   0.53447  288.517
 3974.00    0.59489   0.59348  263.320
 3975.00    0.65815   0.64286   -1.000
 3976.00    0.71649   0.68571   -1.000
 3977.00    0.74002   0.72486   -1.000
 3978.00    0.78727   0.75945   -1.000
 3979.00    0.83670   0.78530   -1.000
 3980.00    0.84698   0.79507   -1.000
 3981.00    0.83671   0.79411   -1.000
 3982.00    0.82723   0.79208   -1.000
 3983.00    0.84009   0.79670   -1.000
 3984.00    0.86156   0.80944   -1.000
 3985.00    0.87785   0.82570   -1.000
 3986.00    0.88720   0.84342   -1.000
 3987.00    0.89371   0.85978   -1.000
 3988.00    0.90355   0.86838   -1.000
 3989.00    0.92026   0.86958   -1.000
 3990.00    0.92570   0.87152   -1.000
 3991.00    0.91849   0.87953   -1.000
 3992.00    0.93014   0.89057   -1.000
 3993.00    0.93019   0.89589   -1.000
 3994.00    0.91031   0.88980   -1.000
 3995.00    0.88090   0.87369  204.512
 3996.00    0.86340   0.85668  202.622
 3997.00    0.86681   0.85236  195.231
 3998.00    0.88104   0.86504  187.514
 3999.00    0.92333   0.88867   -1.000
 4000.00    0.95252   0.91121   -1.000
 4001.00    0.95606   0.92599   -1.000
 4002.00    0.97622   0.92674   -1.000
 4003.00    0.97362   0.90801   -1.000
 4004.00    0.93693   0.87499   -1.000
 4005.00    0.89394   0.85143   -1.000
 4006.00    0.86718   0.85551  187.550
 4007.00    0.88050   0.88306  182.979
 4008.00    0.93715   0.91480   -1.000
 4009.00    0.98412   0.93419   -1.000
 4010.00    1.00086   0.94302   -1.000
 4011.00    1.00323   0.94686   -1.000
 4012.00    0.99174   0.94887   -1.000
 4013.00    0.97026   0.95160   -1.000
 4014.00    1.00000   0.95606   -1.000
 4015.00    1.02135   0.95930   -1.000
 4016.00    1.00388   0.95911   -1.000
 4017.00    0.99594   0.96038   -1.000
 4018.00    0.98775   0.96652   -1.000
 4019.00    0.99938   0.97353   -1.000
 4020.00    1.01449   0.97627   -1.000
 4021.00    1.02372   0.97212   -1.000
 4022.00    0.99795   0.96522   -1.000
 4023.00    0.98745   0.95876   -1.000
 4024.00    1.00732   0.95618   -1.000
 4025.00    1.00707   0.96296   -1.000
 4026.00    1.00358   0.98005   -1.000
 4027.00    1.03677   0.99499   -1.000
 4028.00    1.05424   0.98882   -1.000
 4029.00    1.00908   0.95537   -1.000
 4030.00    0.96160   0.90882   -1.000
 4031.00    0.91908   0.87305   -1.000
 4032.00    0.89320   0.85722   -1.000
 4033.00    0.89449   0.86288   -1.000
 4034.00    0.92835   0.88908   -1.000
 4035.00    0.97898   0.93084   -1.000
 4036.00    1.02342   0.97623   -1.000
 4037.00    1.05755   1.01068   -1.000
 4038.00    1.07085   1.02026   -1.000
 4039.00    1.05889   1.01072   -1.000
 4040.00    1.04235   0.99679   -1.000
 4041.00    1.02742   0.98571   -1.000
 4042.00    1.02678   0.96522   -1.000
 4043.00    0.99202   0.92097   -1.000
 4044.00    0.90071   0.86316   -1.000
 4045.00    0.82167   0.82651  198.818
 4046.00    0.84261   0.84016  183.619
 4047.00    0.93630   0.89326   -1.000
 4048.00    1.00038   0.95051   -1.000
 4049.00    1.01748   0.98985   -1.000
 4050.00    1.04509   1.00455   -1.000
 4051.00    1.04815   1.00272   -1.000
 4052.00    1.01021   0.99010   -1.000
 4053.00    0.99093   0.97370   -1.000
 4054.00    0.97529   0.95909   -1.000
 4055.00    0.96020   0.94728  189.382
 4056.00    0.95256   0.93731   -1.000
 4057.00    0.95438   0.93348   -1.000
 4058.00    0.96067   0.94392  178.873
 4059.00    0.98406   0.96284   -1.000
 4060.00    1.00898   0.96876   -1.000
 4061.00    1.00135   0.94359   -1.000
 4062.00    0.94857   0.89688   -1.000
 4063.00    0.90268   0.86365   -1.000
 4064.00    0.88533   0.85935   -1.000
 4065.00    0.91065   0.87723   -1.000
 4066.00    0.94739   0.90322   -1.000
 4067.00    0.96238   0.92596   -1.000
 4068.00    1.00796   0.93954   -1.000
 4069.00    1.04744   0.93676   -1.000
 4070.00    1.01104   0.91424   -1.000
 4071.00    0.95482   0.89107   -1.000
 4072.00    0.94722   0.89146   -1.000
 4073.00    0.96331   0.90897   -1.000
 4074.00    0.98722   0.91785   -1.000
 4075.00    0.98131   0.90008   -1.000
 4076.00    0.93823   0.86929   -1.000
 4077.00    0.89336   0.85400   -1.000
 4078.00    0.88155   0.86901  184.027
 4079.00    0.92410   0.91016  175.588
 4080.00    0.98709   0.95349   -1.000
 4081.00    1.04344   0.97772   -1.000
 4082.00    1.05072   0.97476   -1.000
 4083.00    1.01147   0.95752   -1.000
 4084.00    0.98795   0.94592   -1.000
 4085.00    0.99876   0.95321   -1.000
 4086.00    1.02590   0.97764   -1.000
 4087.00    1.06471   1.00515   -1.000
 4088.00    1.08459   1.02254   -1.000
 4089.00    1.08305   1.02185   -1.000
 4090.00    1.08060   1.00906   -1.000
 4091.00    1.06765   0.99572   -1.000
 4092.00    1.03994   0.98636   -1.000
 4093.00    1.03888   0.97366   -1.000
 4094.00    1.02804   0.95206   -1.000
 4095.00    0.99261   0.92234   -1.000
 4096.00    0.96363   0.89360   -1.000
 4097.00    0.96700   0.86925   -1.000
 4098.00    0.95962   0.83891   -1.000
 4099.00    0.90275   0.79172   -1.000
 4100.00    0.81332   0.73605   -1.000
 4101.00    0.75608   0.70179   -1.000
 4102.00    0.77679   0.71330   -1.000
 4103.00    0.83324   0.76762   -1.000
 4104.00    0.88853   0.83413   -1.000
 4105.00    0.94413   0.88894   -1.000
 4106.00    0.98455   0.92145   -1.000
 4107.00    1.00953   0.93640   -1.000
 4108.00    1.01303   0.93942   -1.000
 4109.00    1.00643   0.93695   -1.000
 4110.00    0.98442   0.93724   -1.000
 4111.00    0.96420   0.94472   -1.000
 4112.00    0.97925   0.95906   -1.000
 4113.00    1.01514   0.97731   -1.000
 4114.00    1.03784   0.99507   -1.000
 4115.00    1.05722   1.00542   -1.000
 4116.00    1.04836   1.00128   -1.000
 4117.00    1.02866   0.98554   -1.000
 4118.00    1.00900   0.96788   -1.000
 4119.00    0.98773   0.95887   -1.000
 4120.00    0.99166   0.96255   -1.000
 4121.00    0.99669   0.97172   -1.000
 4122.00    0.99528   0.98041  181.077
 4123.00    1.01608   0.98826   -1.000
 4124.00    1.02679   0.99618   -1.000
 4125.00    1.02333   1.00081   -1.000
 4126.00    1.00397   0.99763  186.628
 4127.00    1.00327   0.98969  187.766
 4128.00    0.99319   0.98329  189.578
 4129.00    0.98718   0.97535  194.200
 4130.00    0.98069   0.95832   -1.000
 4131.00    0.94933   0.93426   -1.000
 4132.00    0.92884   0.91690  199.119
 4133.00    0.92253   0.92242  190.223
 4134.00    0.93259   0.94912   -1.000
 4135.00    0.97446   0.98260  178.639
 4136.00    1.00957   1.01187  175.851
 4137.00    1.03098   1.03264  174.373
 4138.00    1.05189   1.04558  176.345
 4139.00    1.05378   1.04744  183.514
 4140.00    1.04447   1.02828  196.894
 4141.00    1.01748   0.98701   -1.000
 4142.00    0.95809   0.94040   -1.000
 4143.00    0.90696   0.91546  198.020
 4144.00    0.90637   0.92492   -1.000
 4145.00    0.96495   0.95775  185.049
 4146.00    1.01008   0.98863   -1.000
 4147.00    1.01979   0.99975   -1.000
 4148.00    1.02995   0.99713   -1.000
 4149.00    1.01451   0.99256   -1.000
 4150.00    0.99830   0.99109  193.506
 4151.00    0.99323   0.98951  194.224
 4152.00    0.97998   0.98374  196.965
 4153.00    0.96642   0.97465  195.055
 4154.00    0.94863   0.96725   -1.000
 4155.00    0.95045   0.96843   -1.000
 4156.00    0.95850   0.98024   -1.000
 4157.00    1.01914   0.99868   -1.000
 4158.00    1.25139   1.01946   -1.000
 4159.00    1.27453   1.03664   -1.000
 4160.00    0.88896   1.04858   -1.000
 4161.00    0.81953   1.05780   -1.000
 4162.00    1.04810   1.06491   -1.000
 4163.00    1.10884   1.06809   -1.000
 4164.00    1.07158   1.06310  187.906
 4165.00    1.02680   1.04816   -1.000
 4166.00    0.99107   1.03007   -1.000
 4167.00    0.98296   1.02125   -1.000
 4168.00    0.98825   1.02190   -1.000
 4169.00    1.00921   1.02253   -1.000
 4170.00    1.01978   1.00855  208.719
 4171.00    0.98476   0.97852  213.796
 4172.00    0.92474   0.95202   -1.000
 4173.00    0.89501   0.94476   -1.000
 4174.00    0.91186   0.95742   -1.000
 4175.00    0.94627   0.97578   -1.000
 4176.00    0.95852   0.98697   -1.000
 4177.00    0.95426   0.99542   -1.000
 4178.00    0.94556   1.00583   -1.000
 4179.00    0.95465   1.01477   -1.000
 4180.00    0.96387   1.01628   -1.000
 4181.00    0.99166   1.00984   -1.000
 4182.00    0.99691   1.01088  185.768
 4183.00    0.99676   1.02482   -1.000
 4184.00    1.01920   1.03540   -1.000
 4185.00    1.00947   1.02997   -1.000
 4186.00    0.97890   1.01097   -1.000
 4187.00    0.97369   0.99673   -1.000
 4188.00    0.95916   0.99947   -1.000
 4189.00    0.98179   1.01239   -1.000
 4190.00    1.00523   1.02500   -1.000
 4191.00    0.99922   1.03436   -1.000
 4192.00    1.01078   1.04292   -1.000
 4193.00    1.02137   1.04743   -1.000
 4194.00    1.01117   1.03714   -1.000
 4195.00    0.98215   1.00993   -1.000
 4196.00    0.95992   0.97924   -1.000
 4197.00    0.95451   0.95616  204.501
 4198.00    0.95994   0.94526  201.522
 4199.00    0.95763   0.94419  200.014
 4200.00    0.94686   0.94976  199.029
 4201.00    0.94561   0.95688  196.508
 4202.00    0.95744   0.96773  194.481
 4203.00    0.97239   0.98807   -1.000
 4204.00    0.98476   1.01477   -1.000
 4205.00    1.01151   1.03868   -1.000
 4206.00    1.04691   1.05616  181.221
 4207.00    1.05563   1.06671  181.447
 4208.00    1.06780   1.06850  181.485
 4209.00    1.06759   1.06550  180.488
 4210.00    1.03380   1.06526   -1.000
 4211.00    1.01990   1.07065   -1.000
 4212.00    1.03750   1.07119   -1.000
 4213.00    1.02924   1.05194   -1.000
 4214.00    0.98693   1.02192   -1.000
 4215.00    0.96412   1.00546   -1.000
 4216.00    0.98119   1.01703   -1.000
 4217.00    1.01416   1.05120   -1.000
 4218.00    1.06451   1.08548   -1.000
 4219.00    1.09334   1.10723  168.113
 4220.00    1.12426   1.11095  173.225
 4221.00    1.13268   1.09595   -1.000
 4222.00    1.10467   1.06000   -1.000
 4223.00    1.05583   0.99899   -1.000
 4224.00    0.95202   0.92011   -1.000
 4225.00    0.84832   0.85198  243.535
 4226.00    0.77975   0.82498   -1.000
 4227.00    0.80507   0.85992   -1.000
 4228.00    0.90794   0.94116   -1.000
 4229.00    1.00326   1.02538   -1.000
 4230.00    1.04725   1.07114   -1.000
 4231.00    1.07913   1.07892  180.877
 4232.00    1.07206   1.06489  183.681
 4233.00    1.04725   1.04244  187.112
 4234.00    1.04317   1.02351   -1.000
 4235.00    1.03027   1.01584  191.094
 4236.00    1.00873   1.01612  187.520
 4237.00    0.99493   1.02442   -1.000
 4238.00    0.99818   1.04038   -1.000
 4239.00    1.02006   1.05939   -1.000
 4240.00    1.05362   1.08014   -1.000
 4241.00    1.06509   1.10070   -1.000
 4242.00    1.06715   1.11753   -1.000
 4243.00    1.10665   1.13110   -1.000
 4244.00    1.12560   1.13764  177.075
 4245.00    1.10855   1.12750   -1.000
 4246.00    1.08779   1.09789  189.911
 4247.00    1.04805   1.05961  192.631
 4248.00    1.01356   1.02646  193.005
 4249.00    0.99241   1.00998   -1.000
 4250.00    0.98060   1.01318   -1.000
 4251.00    1.01886   1.02938  182.640
 4252.00    1.05372   1.03944  186.468
 4253.00    1.04000   1.03579  186.560
 4254.00    1.01866   1.03107  180.634
 4255.00    1.00389   1.04362   -1.000
 4256.00    1.05226   1.06847   -1.000
 4257.00    1.08836   1.07539  190.690
 4258.00    1.05284   1.05142  197.612
 4259.00    0.99106   1.01737   -1.000
 4260.00    0.94551   1.00592   -1.000
 4261.00    0.96508   1.03280   -1.000
 4262.00    1.03191   1.08245   -1.000
 4263.00    1.08861   1.12835   -1.000
 4264.00    1.12217   1.15125   -1.000
 4265.00    1.12198   1.15264   -1.000
 4266.00    1.12229   1.14035   -1.000
 4267.00    1.09714   1.11516   -1.000
 4268.00    1.07576   1.07693  195.812
 4269.00    1.04181   1.02801   -1.000
 4270.00    0.98599   0.97682  213.954
 4271.00    0.91811   0.94219   -1.000
 4272.00    0.90556   0.93181   -1.000
 4273.00    0.93168   0.94496  197.900
 4274.00    0.93998   0.97494   -1.000
 4275.00    0.97857   1.01688   -1.000
 4276.00    1.03790   1.06607   -1.000
 4277.00    1.09386   1.10636  179.134
 4278.00    1.09594   1.11702   -1.000
 4279.00    1.05539   1.10128   -1.000
 4280.00    1.02715   1.07808   -1.000
 4281.00    1.02790   1.06828   -1.000
 4282.00    1.04581   1.07142   -1.000
 4283.00    1.05425   1.07416   -1.000
 4284.00    1.04786   1.06937   -1.000
 4285.00    1.01982   1.05734   -1.000
 4286.00    1.00017   1.04036   -1.000
 4287.00    0.98000   1.01554   -1.000
 4288.00    0.94864   0.98204   -1.000
 4289.00    0.90491   0.95244   -1.000
 4290.00    0.88560   0.94884   -1.000
 4291.00    0.91303   0.97472   -1.000
 4292.00    0.97573   1.00911   -1.000
 4293.00    1.02210   1.02726  194.370
 4294.00    1.01639   1.02624  198.469
 4295.00    0.99130   1.01513   -1.000
 4296.00    0.96421   0.99281   -1.000
 4297.00    0.91653   0.95413   -1.000
 4298.00    0.86374   0.90660   -1.000
 4299.00    0.80787   0.86556   -1.000
 4300.00    0.78562   0.84713   -1.000
 4301.00    0.79931   0.85045   -1.000
 4302.00    0.82568   0.86402   -1.000
 4303.00    0.82923   0.87711   -1.000
 4304.00    0.83761   0.88313   -1.000
 4305.00    0.83763   0.87367   -1.000
 4306.00    0.81486   0.84930   -1.000
 4307.00    0.78756   0.82439   -1.000
 4308.00    0.76457   0.81640   -1.000
 4309.00    0.76100   0.83326   -1.000
 4310.00    0.79998   0.86856   -1.000
 4311.00    0.84677   0.91153   -1.000
 4312.00    0.87011   0.95478   -1.000
 4313.00    0.91446   1.00459   -1.000
 4314.00    0.99502   1.06578   -1.000
 4315.00    1.10022   1.13498   -1.000
 4316.00    1.17896   1.19987   -1.000
 4317.00    1.20172   1.23561   -1.000
 4318.00    1.21907   1.23868   -1.000
 4319.00    1.21483   1.22222  167.085
 4320.00    1.20029   1.19613  174.609
 4321.00    1.16552   1.15784  186.292
 4322.00    1.10592   1.10223  202.321
 4323.00    1.03215   1.03346  213.612
 4324.00    0.93913   0.97736   -1.000
 4325.00    0.89107   0.96577   -1.000
 4326.00    0.93425   1.00912   -1.000
 4327.00    1.05042   1.08484   -1.000
 4328.00    1.14538   1.15444  164.698
 4329.00    1.17308   1.18765  164.314
 4330.00    1.17153   1.19353   -1.000
 4331.00    1.17234   1.19436   -1.000
 4332.00    1.17257   1.20114   -1.000
 4333.00    1.18466   1.20695   -1.000
 4334.00    1.19559   1.19812  169.307
 4335.00    1.17856   1.16288  184.340
 4336.00    1.14640   1.09671   -1.000
 4337.00    1.06384   1.00580   -1.000
 4338.00    0.96036   0.91374   -1.000
 4339.00    0.88968   0.85698   -1.000
 4340.00    0.85515   0.85320  196.746
 4341.00    0.89025   0.90347  182.572
 4342.00    0.97179   0.98527   -1.000
 4343.00    1.04114   1.06293   -1.000
 4344.00    1.08976   1.11578   -1.000
 4345.00    1.11774   1.15122   -1.000
 4346.00    1.14954   1.17796   -1.000
 4347.00    1.18356   1.20147   -1.000
 4348.00    1.20628   1.21426  168.887
 4349.00    1.19776   1.19813  180.865
 4350.00    1.13843   1.15288  186.594
 4351.00    1.06463   1.10658   -1.000
 4352.00    1.03919   1.09025   -1.000
 4353.00    1.06186   1.11386   -1.000
 4354.00    1.10638   1.15636   -1.000
 4355.00    1.13989   1.19247   -1.000
 4356.00    1.16934   1.21034   -1.000
 4357.00    1.17155   1.21216   -1.000
 4358.00    1.16349   1.20532   -1.000
 4359.00    1.16200   1.20380   -1.000
 4360.00    1.18383   1.21658   -1.000
 4361.00    1.21399   1.23830   -1.000
 4362.00    1.23145   1.25903   -1.000
 4363.00    1.22486   1.27289   -1.000
 4364.00    1.22635   1.27926   -1.000
 4365.00    1.24902   1.27258   -1.000
 4366.00    1.22931   1.24927   -1.000
 4367.00    1.17052   1.22149   -1.000
 4368.00    1.13936   1.20493   -1.000
 4369.00    1.16170   1.19929   -1.000
 4370.00    1.17342   1.19649   -1.000
 4371.00    1.18426   1.18649  172.009
 4372.00    1.16482   1.16411  179.043
 4373.00    1.13154   1.13303  181.014
 4374.00    1.09630   1.10763  175.340
 4375.00    1.06394   1.10921   -1.000
 4376.00    1.08304   1.14196   -1.000
 4377.00    1.14277   1.18494   -1.000
 4378.00    1.17012   1.20876   -1.000
 4379.00    1.20344   1.20244  171.444
 4380.00    1.19217   1.16428   -1.000
 4381.00    1.14839   1.09591   -1.000
 4382.00    1.05062   1.01659   -1.000
 4383.00    0.95252   0.96437  201.978
 4384.00    0.91388   0.96646   -1.000
 4385.00    0.97325   1.01917   -1.000
 4386.00    1.04793   1.08484   -1.000
 4387.00    1.10125   1.12483   -1.000
 4388.00    1.14318   1.13636  175.089
 4389.00    1.13547   1.13680  172.663
 4390.00    1.13890   1.14104  168.825
 4391.00    1.14500   1.15230  168.689
 4392.00    1.17112   1.16382  171.881
 4393.00    1.15572   1.16750  172.433
 4394.00    1.12673   1.16740   -1.000
 4395.00    1.13165   1.18022   -1.000
 4396.00    1.17517   1.20699   -1.000
 4397.00    1.21720   1.22576  166.249
 4398.00    1.20784   1.22090  171.597
 4399.00    1.17552   1.19958   -1.000
 4400.00    1.15152   1.18094   -1.000
 4401.00    1.14945   1.16953   -1.000
 4402.00    1.15723   1.15329  181.245
 4403.00    1.14123   1.12196   -1.000
 4404.00    1.06966   1.08940   -1.000
 4405.00    1.05260   1.08112   -1.000
 4406.00    1.07325   1.10068   -1.000
 4407.00    1.09867   1.13087   -1.000
 4408.00    1.12919   1.16396   -1.000
 4409.00    1.17993   1.20502   -1.000
 4410.00    1.21890   1.25159   -1.000
 4411.00    1.24327   1.28056   -1.000
 4412.00    1.27627   1.27266  164.727
 4413.00    1.24068   1.23473  171.702
 4414.00    1.16930   1.18866   -1.000
 4415.00    1.12931   1.16048   -1.000
 4416.00    1.12000   1.17113   -1.000
 4417.00    1.14584   1.21359   -1.000
 4418.00    1.20928   1.26195   -1.000
 4419.00    1.24988   1.29013   -1.000
 4420.00    1.25163   1.29002   -1.000
 4421.00    1.23889   1.26944   -1.000
 4422.00    1.19389   1.24838   -1.000
 4423.00    1.18723   1.24018   -1.000
 4424.00    1.19725   1.24184   -1.000
 4425.00    1.18547   1.24385   -1.000
 4426.00    1.18175   1.24525   -1.000
 4427.00    1.19734   1.25085   -1.000
 4428.00    1.21820   1.25794   -1.000
 4429.00    1.22488   1.26054   -1.000
 4430.00    1.21634   1.25950   -1.000
 4431.00    1.21274   1.25854   -1.000
 4432.00    1.21484   1.25107   -1.000
 4433.00    1.19299   1.22695   -1.000
 4434.00    1.14625   1.19801   -1.000
 4435.00    1.11841   1.19169   -1.000
 4436.00    1.16190   1.22486   -1.000
 4437.00    1.22869   1.28149   -1.000
 4438.00    1.28119   1.32393   -1.000
 4439.00    1.30075   1.32998   -1.000
 4440.00    1.26466   1.29918   -1.000
 4441.00    1.22340   1.25510   -1.000
 4442.00    1.19697   1.22690   -1.000
 4443.00    1.19293   1.23518   -1.000
 4444.00    1.20425   1.27202   -1.000
 4445.00    1.24400   1.31166   -1.000
 4446.00    1.28215   1.33529   -1.000
 4447.00    1.30683   1.34130   -1.000
 4448.00    1.30600   1.34113   -1.000
 4449.00    1.28745   1.33952   -1.000
 4450.00    1.29197   1.33421   -1.000
 4451.00    1.29619   1.32293   -1.000
 4452.00    1.26989   1.30107   -1.000
 4453.00    1.22259   1.26428   -1.000
 4454.00    1.18804   1.22344   -1.000
 4455.00    1.16314   1.20195   -1.000
 4456.00    1.17698   1.20453   -1.000
 4457.00    1.19841   1.21750   -1.000
 4458.00    1.18970   1.22349   -1.000
 4459.00    1.18121   1.22029   -1.000
 4460.00    1.16633   1.21753   -1.000
 4461.00    1.17022   1.22507   -1.000
 4462.00    1.19517   1.24756   -1.000
 4463.00    1.23062   1.27763   -1.000
 4464.00    1.24300   1.30051   -1.000
 4465.00    1.25360   1.30750   -1.000
 4466.00    1.27419   1.30115   -1.000
 4467.00    1.24925   1.28992   -1.000
 4468.00    1.23809   1.28162   -1.000
 4469.00    1.22391   1.28315   -1.000
 4470.00    1.23810   1.30210   -1.000
 4471.00    1.27694   1.33507   -1.000
 4472.00    1.33022   1.36775   -1.000
 4473.00    1.33857   1.39030   -1.000
 4474.00    1.35205   1.39996   -1.000
 4475.00    1.37729   1.40608   -1.000
 4476.00    1.38133   1.41400   -1.000
 4477.00    1.39282   1.41539   -1.000
 4478.00    1.38672   1.39668  156.450
 4479.00    1.33692   1.35628   -1.000
 4480.00    1.28010   1.31446   -1.000
 4481.00    1.24477   1.29670   -1.000
 4482.00    1.26048   1.31430   -1.000
 4483.00    1.30976   1.35809   -1.000
 4484.00    1.36590   1.40400   -1.000
 4485.00    1.38716   1.43239   -1.000
 4486.00    1.39001   1.43238   -1.000
 4487.00    1.36528   1.40668   -1.000
 4488.00    1.31896   1.37128   -1.000
 4489.00    1.28528   1.35099   -1.000
 4490.00    1.27923   1.35575   -1.000
 4491.00    1.31618   1.37471   -1.000
 4492.00    1.34549   1.38233   -1.000
 4493.00    1.33407   1.36674   -1.000
 4494.00    1.31819   1.34362   -1.000
 4495.00    1.29575   1.33413   -1.000
 4496.00    1.30924   1.34769   -1.000
 4497.00    1.33493   1.37409   -1.000
 4498.00    1.35411   1.39631   -1.000
 4499.00    1.35460   1.40411   -1.000
 4500.00    1.33771   1.40129   -1.000
 4501.00    1.33114   1.40407   -1.000
 4502.00    1.35431   1.42186   -1.000
 4503.00    1.40886   1.45034   -1.000
 4504.00    1.45342   1.47551   -1.000
 4505.00    1.45772   1.48365   -1.000
 4506.00    1.43415   1.47555   -1.000
 4507.00    1.42175   1.46426   -1.000
 4508.00    1.42771   1.46031   -1.000
 4509.00    1.43093   1.46347   -1.000
 4510.00    1.44550   1.46558   -1.000
 4511.00    1.44562   1.45813  147.113
 4512.00    1.39449   1.44225   -1.000
 4513.00    1.37896   1.42603   -1.000
 4514.00    1.38211   1.41539   -1.000
 4515.00    1.37738   1.41142   -1.000
 4516.00    1.37773   1.41033   -1.000
 4517.00    1.35133   1.40811   -1.000
 4518.00    1.34998   1.40802   -1.000
 4519.00    1.37712   1.41653   -1.000
 4520.00    1.40361   1.43007   -1.000
 4521.00    1.41790   1.43617   -1.000
 4522.00    1.38771   1.42657   -1.000
 4523.00    1.34458   1.40578   -1.000
 4524.00    1.33999   1.38315   -1.000
 4525.00    1.33284   1.35851   -1.000
 4526.00    1.28799   1.32750   -1.000
 4527.00    1.24601   1.29501   -1.000
 4528.00    1.22226   1.27380   -1.000
 4529.00    1.23488   1.27231   -1.000
 4530.00    1.26020   1.28631   -1.000
 4531.00    1.29490   1.30330  162.656
 4532.00    1.29422   1.30967   -1.000
 4533.00    1.27163   1.30153   -1.000
 4534.00    1.25313   1.29193   -1.000
 4535.00    1.25421   1.30123   -1.000
 4536.00    1.29572   1.33757   -1.000
 4537.00    1.36493   1.38792   -1.000
 4538.00    1.40167   1.42607   -1.000
 4539.00    1.41297   1.43648   -1.000
 4540.00    1.38839   1.42782   -1.000
 4541.00    1.37009   1.41883   -1.000
 4542.00    1.37787   1.41857   -1.000
 4543.00    1.37074   1.42097   -1.000
 4544.00    1.36637   1.41686   -1.000
 4545.00    1.39427   1.40653   81.427
 4546.00    1.21096   1.39634   -1.000
 4547.00    0.34283   1.38578   -1.000
 4548.00   -0.00687   1.37172    0.000
 4549.00    0.14437   1.36074   -1.000
 4550.00    0.75075   1.36369   -1.000
 4551.00    0.41293   1.37722   -1.000
 4552.00    0.98296   1.38333   -1.000
 4553.00    1.33520   1.37536   -1.000
 4554.00    1.33175   1.36630   -1.000
 4555.00    1.31424   1.37286   -1.000
 4556.00    1.35552   1.40106   -1.000
 4557.00    1.41571   1.44017   -1.000
 4558.00    1.46376   1.47216  142.300
 4559.00    1.47117   1.48850  142.316
 4560.00    1.47342   1.49205   -1.000
 4561.00    1.47789   1.48570  148.634
 4562.00    1.44178   1.46936   -1.000
 4563.00    1.40009   1.44548   -1.000
 4564.00    1.36852   1.42536   -1.000
 4565.00    1.34511   1.42248   -1.000
 4566.00    1.37816   1.44042   -1.000
 4567.00    1.43106   1.46732   -1.000
 4568.00    1.46509   1.48430   -1.000
 4569.00    1.45635   1.47989   -1.000
 4570.00    1.42253   1.45954   -1.000
 4571.00    1.39506   1.43922   -1.000
 4572.00    1.39262   1.43649   -1.000
 4573.00    1.40604   1.45503   -1.000
 4574.00    1.42914   1.47810   -1.000
 4575.00    1.44550   1.48894   -1.000
 4576.00    1.43944   1.48557   -1.000
 4577.00    1.42568   1.47246   -1.000
 4578.00    1.39694   1.45022   -1.000
 4579.00    1.36766   1.42191   -1.000
 4580.00    1.34234   1.39833   -1.000
 4581.00    1.34112   1.39040   -1.000
 4582.00    1.36840   1.39721   -1.000
 4583.00    1.38552   1.40690   -1.000
 4584.00    1.37157   1.41045   -1.000
 4585.00    1.35741   1.41121   -1.000
 4586.00    1.37705   1.41980   -1.000
 4587.00    1.42087   1.44034   -1.000
 4588.00    1.46163   1.46409  144.053
 4589.00    1.46013   1.47807   -1.000
 4590.00    1.43837   1.47617   -1.000
 4591.00    1.42401   1.46102   -1.000
 4592.00    1.39548   1.44247   -1.000
 4593.00    1.36741   1.43135   -1.000
 4594.00    1.36906   1.42929   -1.000
 4595.00    1.39187   1.43215   -1.000
 4596.00    1.40423   1.43729   -1.000
 4597.00    1.42416   1.44348   -1.000
 4598.00    1.43644   1.44779  148.791
 4599.00    1.41089   1.44730   -1.000
 4600.00    1.37545   1.44227   -1.000
 4601.00    1.38045   1.43735   -1.000
 4602.00    1.40230   1.43681   -1.000
 4603.00    1.41304   1.44026   -1.000
 4604.00    1.41325   1.44556   -1.000
 4605.00    1.43155   1.45268   -1.000
 4606.00    1.46090   1.46602  139.168
 4607.00    1.45471   1.48879   -1.000
 4608.00    1.50426   1.51543  137.533
 4609.00    1.52432   1.53396  139.236
 4610.00    1.53330   1.53395  140.866
 4611.00    1.50609   1.51999  141.888
 4612.00    1.46761   1.50609   -1.000
 4613.00    1.44653   1.50061   -1.000
 4614.00    1.45594   1.50422   -1.000
 4615.00    1.46508   1.51230   -1.000
 4616.00    1.46882   1.51896   -1.000
 4617.00    1.47998   1.52157   -1.000
 4618.00    1.47220   1.52094   -1.000
 4619.00    1.45513   1.52080   -1.000
 4620.00    1.45939   1.52565   -1.000
 4621.00    1.48050   1.53420   -1.000
 4622.00    1.49186   1.53907   -1.000
 4623.00    1.51453   1.53590   -1.000
 4624.00    1.50969   1.52827  139.919
 4625.00    1.49041   1.52196   -1.000
 4626.00    1.50303   1.51856  140.645
 4627.00    1.50768   1.51911  141.058
 4628.00    1.48777   1.52212   -1.000
 4629.00    1.46871   1.52549   -1.000
 4630.00    1.46658   1.53010   -1.000
 4631.00    1.48988   1.53416   -1.000
 4632.00    1.49329   1.53153   -1.000
 4633.00    1.47554   1.52106   -1.000
 4634.00    1.46837   1.50972   -1.000
 4635.00    1.47438   1.50219   -1.000
 4636.00    1.47198   1.49426   -1.000
 4637.00    1.46442   1.48250  146.372
 4638.00    1.43700   1.47147   -1.000
 4639.00    1.43334   1.46853   -1.000
 4640.00    1.46446   1.47728  138.650
 4641.00    1.48978   1.49359  138.839
 4642.00    1.50990   1.50659  141.137
 4643.00    1.52010   1.50556  144.937
 4644.00    1.49599   1.48814  148.988
 4645.00    1.44860   1.46121  150.175
 4646.00    1.41468   1.43383   -1.000
 4647.00    1.42840   1.42000  144.607
 4648.00    1.44565   1.42979  142.398
 4649.00    1.44421   1.45704  141.900
 4650.00    1.46752   1.48608   -1.000
 4651.00    1.48429   1.50513   -1.000
 4652.00    1.48109   1.51079   -1.000
 4653.00    1.47262   1.50394   -1.000
 4654.00    1.44387   1.48942   -1.000
 4655.00    1.41587   1.47943   -1.000
 4656.00    1.42197   1.48527   -1.000
 4657.00    1.46991   1.50978   -1.000
 4658.00    1.52548   1.54651   -1.000
 4659.00    1.56440   1.57887  135.075
 4660.00    1.57049   1.59075   -1.000
 4661.00    1.55203   1.57911   -1.000
 4662.00    1.52001   1.55350   -1.000
 4663.00    1.48819   1.52542   -1.000
 4664.00    1.48346   1.49851  149.363
 4665.00    1.45659   1.46798  155.675
 4666.00    1.40003   1.43213   -1.000
 4667.00    1.36613   1.40225   -1.000
 4668.00    1.34652   1.39746   -1.000
 4669.00    1.36769   1.42350   -1.000
 4670.00    1.42822   1.46443   -1.000
 4671.00    1.48989   1.49801  140.842
 4672.00    1.52161   1.51344  140.740
 4673.00    1.49188   1.51627   -1.000
 4674.00    1.49382   1.51966   -1.000
 4675.00    1.53087   1.52875  137.353
 4676.00    1.54042   1.53684  140.047
 4677.00    1.52639   1.53208  142.886
 4678.00    1.49400   1.51324   -1.000
 4679.00    1.47677   1.49014  146.859
 4680.00    1.44483   1.47200   -1.000
 4681.00    1.44803   1.46540  142.010
 4682.00    1.47188   1.47288  139.889
 4683.00    1.51645   1.49024   -1.000
 4684.00    1.53870   1.50713   -1.000
 4685.00    1.55589   1.51524   -1.000
 4686.00    1.52378   1.51452  141.020
 4687.00    1.49666   1.50977  141.024
 4688.00    1.52021   1.50587  141.906
 4689.00    1.50641   1.50420  142.312
 4690.00    1.50041   1.50319  140.882
 4691.00    1.49551   1.50252  138.818
 4692.00    1.49597   1.50561  135.848
 4693.00    1.50592   1.51405  133.929
 4694.00    1.52612   1.52529  134.282
 4695.00    1.55566   1.53484  137.750
 4696.00    1.57284   1.53583   -1.000
 4697.00    1.53205   1.52225  143.952
 4698.00    1.49297   1.49830  143.142
 4699.00    1.46836   1.47610  143.890
 4700.00    1.44964   1.46190  146.275
 4701.00    1.46650   1.45243  147.297
 4702.00    1.45030   1.44597  144.941
 4703.00    1.42631   1.44775   -1.000
 4704.00    1.45664   1.46066  144.144
 4705.00    1.48047   1.47434  146.974
 4706.00    1.46791   1.47612  148.606
 4707.00    1.44017   1.46647   -1.000
 4708.00    1.42958   1.45810   -1.000
 4709.00    1.43922   1.46290   -1.000
 4710.00    1.46025   1.48059   -1.000
 4711.00    1.49182   1.50036  139.433
 4712.00    1.51938   1.51037  141.943
 4713.00    1.51877   1.50699  142.304
 4714.00    1.49400   1.50068  139.798
 4715.00    1.49369   1.50629  137.071
 4716.00    1.52481   1.52713  136.000
 4717.00    1.54688   1.55363  135.490
 4718.00    1.55597   1.57507   -1.000
 4719.00    1.58135   1.58830  135.978
 4720.00    1.57266   1.59339   -1.000
 4721.00    1.54677   1.59086   -1.000
 4722.00    1.52695   1.58587   -1.000
 4723.00    1.53053   1.58628   -1.000
 4724.00    1.54813   1.59021   -1.000
 4725.00    1.55440   1.58543   -1.000
 4726.00    1.53151   1.56359   -1.000
 4727.00    1.49581   1.52786   -1.000
 4728.00    1.46628   1.49428   -1.000
 4729.00    1.44977   1.47885   -1.000
 4730.00    1.47248   1.48264  142.102
 4731.00    1.49900   1.49815  140.805
 4732.00    1.52045   1.51748  139.959
 4733.00    1.53013   1.53332  139.180
 4734.00    1.53474   1.54076  140.410
 4735.00    1.51362   1.54088   -1.000
 4736.00    1.53499   1.53892  139.162
 4737.00    1.53254   1.54074  138.986
 4738.00    1.55424   1.54911  139.728
 4739.00    1.55976   1.55890  139.992
 4740.00    1.54444   1.56279   -1.000
 4741.00    1.53975   1.56296   -1.000
 4742.00    1.56920   1.56664  137.594
 4743.00    1.57381   1.57392  137.750
 4744.00    1.57634   1.58101  136.848
 4745.00    1.59818   1.58776  135.490
 4746.00    1.57419   1.59670   -1.000
 4747.00    1.58013   1.60842   -1.000
 4748.00    1.59291   1.61842   -1.000
 4749.00    1.59046   1.62396   -1.000
 4750.00    1.57879   1.62597   -1.000
 4751.00    1.56576   1.62258   -1.000
 4752.00    1.56525   1.61138   -1.000
 4753.00    1.54059   1.59529   -1.000
 4754.00    1.51795   1.58213   -1.000
 4755.00    1.52343   1.57715   -1.000
 4756.00    1.52308   1.57935   -1.000
 4757.00    1.51553   1.58602   -1.000
 4758.00    1.53039   1.59510   -1.000
 4759.00    1.53206   1.60241   -1.000
 4760.00    1.54277   1.60185   -1.000
 4761.00    1.53636   1.58873   -1.000
 4762.00    1.50264   1.56563   -1.000
 4763.00    1.47484   1.54276   -1.000
 4764.00    1.46624   1.52802   -1.000
 4765.00    1.47986   1.52072   -1.000
 4766.00    1.48229   1.52124   -1.000
 4767.00    1.49194   1.53567   -1.000
 4768.00    1.51978   1.56465   -1.000
 4769.00    1.55019   1.59527   -1.000
 4770.00    1.56037   1.61166   -1.000
 4771.00    1.55297   1.60993   -1.000
 4772.00    1.54670   1.60393   -1.000
 4773.00    1.54239   1.60966   -1.000
 4774.00    1.56793   1.62771   -1.000
 4775.00    1.58519   1.64603   -1.000
 4776.00    1.58814   1.65505   -1.000
 4777.00    1.58096   1.65666   -1.000
 4778.00    1.59043   1.65438   -1.000
 4779.00    1.59149   1.64757   -1.000
 4780.00    1.57756   1.63726   -1.000
 4781.00    1.57439   1.62609   -1.000
 4782.00    1.58399   1.61337   -1.000
 4783.00    1.57768   1.60020   -1.000
 4784.00    1.54756   1.59199   -1.000
 4785.00    1.53333   1.58903   -1.000
 4786.00    1.51520   1.58650   -1.000
 4787.00    1.50966   1.58391   -1.000
 4788.00    1.51523   1.58401   -1.000
 4789.00    1.54053   1.58717   -1.000
 4790.00    1.55422   1.59456   -1.000
 4791.00    1.55130   1.61053   -1.000
 4792.00    1.58217   1.63595   -1.000
 4793.00    1.59938   1.66537   -1.000
 4794.00    1.61933   1.69163   -1.000
 4795.00    1.64138   1.70573   -1.000
 4796.00    1.65358   1.70211   -1.000
 4797.00    1.61680   1.68320   -1.000
 4798.00    1.57949   1.65839   -1.000
 4799.00    1.54555   1.64027   -1.000
 4800.00    1.55955   1.63900   -1.000
 4801.00    1.59898   1.65517   -1.000
 4802.00    1.61006   1.67773   -1.000
 4803.00    1.61650   1.68915   -1.000
 4804.00    1.59523   1.68051   -1.000
 4805.00    1.59286   1.66094   -1.000
 4806.00    1.59978   1.64353   -1.000
 4807.00    1.59459   1.63495   -1.000
 4808.00    1.58772   1.63643   -1.000
 4809.00    1.58586   1.64546   -1.000
 4810.00    1.59576   1.65712   -1.000
 4811.00    1.62010   1.66690   -1.000
 4812.00    1.62188   1.67242   -1.000
 4813.00    1.60367   1.67618   -1.000
 4814.00    1.62989   1.68175   -1.000
 4815.00    1.63715   1.69017   -1.000
 4816.00    1.63135   1.70080   -1.000
 4817.00    1.66004   1.71152   -1.000
 4818.00    1.65577   1.72002   -1.000
 4819.00    1.65196   1.72443   -1.000
 4820.00    1.66208   1.72184   -1.000
 4821.00    1.64142   1.70793   -1.000
 4822.00    1.60697   1.68166   -1.000
 4823.00    1.57572   1.65157   -1.000
 4824.00    1.56961   1.63438   -1.000
 4825.00    1.60172   1.64017   -1.000
 4826.00    1.61620   1.65849   -1.000
 4827.00    1.61669   1.66938   -1.000
 4828.00    1.62317   1.66694   -1.000
 4829.00    1.59603   1.65882   -1.000
 4830.00    1.59565   1.65086   -1.000
 4831.00    1.59250   1.64220   -1.000
 4832.00    1.57463   1.63583   -1.000
 4833.00    1.59339   1.63918   -1.000
 4834.00    1.61916   1.65290   -1.000
 4835.00    1.62163   1.66875   -1.000
 4836.00    1.63183   1.67650   -1.000
 4837.00    1.64960   1.67425   -1.000
 4838.00    1.61339   1.66362   -1.000
 4839.00    1.57897   1.64785   -1.000
 4840.00    1.56817   1.63502   -1.000
 4841.00    1.57819   1.63022   -1.000
 4842.00    1.60060   1.63051   -1.000
 4843.00    1.59544   1.63365   -1.000
 4844.00    1.59694   1.64317   -1.000
 4845.00    1.63140   1.65977   -1.000
 4846.00    1.65903   1.67347  139.714
 4847.00    1.64278   1.67189   -1.000
 4848.00    1.62145   1.65816   -1.000
 4849.00    1.59748   1.64836   -1.000
 4850.00    1.60027   1.64960   -1.000
 4851.00    1.60156   1.65467   -1.000
 4852.00    1.60942   1.65270   -1.000
 4853.00    1.58983   1.63551   -1.000
 4854.00    1.55725   1.60196   -1.000
 4855.00    1.51576   1.56459   -1.000
 4856.00    1.51014   1.54098   -1.000
 4857.00    1.50180   1.52717   -1.000
 4858.00    1.46558   1.49378   -1.000
 4859.00    1.38050   1.41029   -1.000
 4860.00    1.24631   1.29229   -1.000
 4861.00    1.16404   1.20705   -1.000
 4862.00    1.19978   1.20971  154.443
 4863.00    1.30854   1.29631  148.717
 4864.00    1.40007   1.40721  145.420
 4865.00    1.45694   1.49300   -1.000
 4866.00    1.48518   1.54561   -1.000
 4867.00    1.51342   1.57649   -1.000
 4868.00    1.55769   1.59123   -1.000
 4869.00    1.54138   1.58530   -1.000
 4870.00    1.48226   1.55594   -1.000
 4871.00    1.44655   1.51728   -1.000
 4872.00    1.44435   1.49932   -1.000
 4873.00    1.46471   1.52096   -1.000
 4874.00    1.47816   1.56445   -1.000
 4875.00    1.51895   1.60054   -1.000
 4876.00    1.56228   1.62088   -1.000
 4877.00    1.57130   1.63431   -1.000
 4878.00    1.56954   1.65054   -1.000
 4879.00    1.59298   1.66948   -1.000
 4880.00    1.58397   1.68174   -1.000
 4881.00    1.57749   1.67752   -1.000
 4882.00    1.57622   1.66264   -1.000
 4883.00    1.58054   1.65112   -1.000
 4884.00    1.55400   1.64096   -1.000
 4885.00    1.53022   1.62510   -1.000
 4886.00    1.51601   1.60960   -1.000
 4887.00    1.53974   1.60272   -1.000
 4888.00    1.56110   1.59835   -1.000
 4889.00    1.50563   1.58397   -1.000
 4890.00    1.50460   1.55991   -1.000
 4891.00    1.49781   1.54809   -1.000
 4892.00    1.54252   1.57417   -1.000
 4893.00    1.62244   1.63741  130.234
 4894.00    1.68217   1.70958   -1.000
 4895.00    1.71322   1.76044   -1.000
 4896.00    1.70252   1.78244   -1.000
 4897.00    1.70188   1.78359   -1.000
 4898.00    1.67242   1.77198   -1.000
 4899.00    1.65559   1.75293   -1.000
 4900.00    1.64705   1.73371   -1.000
 4901.00    1.64901   1.72003   -1.000
 4902.00    1.64136   1.70991   -1.000
 4903.00    1.63671   1.70186   -1.000
 4904.00    1.63749   1.70453   -1.000
 4905.00    1.65891   1.72498   -1.000
 4906.00    1.69833   1.74839   -1.000
 4907.00    1.68503   1.74999   -1.000
 4908.00    1.62519   1.72618   -1.000
 4909.00    1.59380   1.69152   -1.000
 4910.00    1.57447   1.66399   -1.000
 4911.00    1.58311   1.65706   -1.000
 4912.00    1.60331   1.67263   -1.000
 4913.00    1.61247   1.70018   -1.000
 4914.00    1.65438   1.72641   -1.000
 4915.00    1.69595   1.74254   -1.000
 4916.00    1.68331   1.73683   -1.000
 4917.00    1.63594   1.69536   -1.000
 4918.00    1.57144   1.62142   -1.000
 4919.00    1.48937   1.54365   -1.000
 4920.00    1.45191   1.49768   -1.000
 4921.00    1.49240   1.50421  143.147
 4922.00    1.54748   1.54889  142.889
 4923.00    1.56865   1.59605   -1.000
 4924.00    1.58628   1.62513   -1.000
 4925.00    1.59524   1.64741   -1.000
 4926.00    1.64105   1.67898   -1.000
 4927.00    1.68441   1.71684   -1.000
 4928.00    1.70524   1.75029   -1.000
 4929.00    1.71648   1.77467   -1.000
 4930.00    1.70477   1.78544   -1.000
 4931.00    1.70334   1.77551   -1.000
 4932.00    1.64100   1.74398   -1.000
 4933.00    1.61031   1.70384   -1.000
 4934.00    1.59970   1.67751   -1.000
 4935.00    1.62905   1.67351   -1.000
 4936.00    1.63792   1.67296   -1.000
 4937.00    1.58546   1.65343   -1.000
 4938.00    1.54917   1.62095   -1.000
 4939.00    1.56284   1.60769   -1.000
 4940.00    1.58845   1.63361   -1.000
 4941.00    1.67443   1.68684  133.167
 4942.00    1.69781   1.73889   -1.000
 4943.00    1.74229   1.76919   -1.000
 4944.00    1.72636   1.77765   -1.000
 4945.00    1.70754   1.77349   -1.000
 4946.00    1.69823   1.76829   -1.000
 4947.00    1.70394   1.77155   -1.000
 4948.00    1.71714   1.78451   -1.000
 4949.00    1.72257   1.79865   -1.000
 4950.00    1.71938   1.80585   -1.000
 4951.00    1.72169   1.80530   -1.000
 4952.00    1.70885   1.79839   -1.000
 4953.00    1.70383   1.78622   -1.000
 4954.00    1.70132   1.76455   -1.000
 4955.00    1.68552   1.72147   -1.000
 4956.00    1.63126   1.65210   -1.000
 4957.00    1.54830   1.58434   -1.000
 4958.00    1.55806   1.56825  136.019
 4959.00    1.64512   1.61691  134.775
 4960.00    1.71085   1.69188  135.324
 4961.00    1.71111   1.74743   -1.000
 4962.00    1.72065   1.76728   -1.000
 4963.00    1.73288   1.76218   -1.000
 4964.00    1.69782   1.74209   -1.000
 4965.00    1.69601   1.71374  142.883
 4966.00    1.68494   1.68929  142.484
 4967.00    1.66025   1.67872   -1.000
 4968.00    1.63381   1.68086   -1.000
 4969.00    1.63246   1.69136   -1.000
 4970.00    1.64124   1.70827   -1.000
 4971.00    1.68610   1.72969   -1.000
 4972.00    1.73796   1.75168  134.914
 4973.00    1.74387   1.76843   -1.000
 4974.00    1.72108   1.77520   -1.000
 4975.00    1.73450   1.77192   -1.000
 4976.00    1.72498   1.76018   -1.000
 4977.00    1.70560   1.74124   -1.000
 4978.00    1.65934   1.71965   -1.000
 4979.00    1.64092   1.69880   -1.000
 4980.00    1.63480   1.67308   -1.000
 4981.00    1.58322   1.63496   -1.000
 4982.00    1.53564   1.58939   -1.000
 4983.00    1.50628   1.55741   -1.000
 4984.00    1.53058   1.55856   -1.000
 4985.00    1.57332   1.59139   -1.000
 4986.00    1.62775   1.64014  139.549
 4987.00    1.67433   1.68721  141.535
 4988.00    1.71078   1.71626  143.029
 4989.00    1.68314   1.71813   -1.000
 4990.00    1.63741   1.70442   -1.000
 4991.00    1.65647   1.69457   -1.000
 4992.00    1.65779   1.69685   -1.000
 4993.00    1.66070   1.70558   -1.000
 4994.00    1.68346   1.71371   -1.000
 4995.00    1.71013   1.72235  140.590
 4996.00    1.70567   1.73104   -1.000
 4997.00    1.67255   1.72930   -1.000
 4998.00    1.65854   1.70900   -1.000
 4999.00    1.61814   1.67518   -1.000
 5000.00    1.60719   1.64321   -1.000
 5001.00    1.60567   1.62810   -1.000
 5002.00    1.61568   1.62980  146.971
 5003.00    1.61900   1.63461  150.683
 5004.00    1.60468   1.62571   -1.000
 5005.00    1.58445   1.60013  148.099
 5006.00    1.56524   1.57771  143.594
 5007.00    1.58395   1.58521  141.951
 5008.00    1.63881   1.62315  143.691
 5009.00    1.68739   1.66183  147.938
 5010.00    1.67275   1.67445  153.479
 5011.00    1.62871   1.65417   -1.000
 5012.00    1.58511   1.61364   -1.000
 5013.00    1.54397   1.57521   -1.000
 5014.00    1.54716   1.55864  149.934
 5015.00    1.58205   1.56743  149.214
 5016.00    1.60513   1.58637  149.231
 5017.00    1.61774   1.59969  147.586
 5018.00    1.61369   1.60645  146.358
 5019.00    1.61774   1.61707  146.950
 5020.00    1.63377   1.63143  147.290
 5021.00    1.64323   1.63917  146.482
 5022.00    1.64800   1.64147  144.947
 5023.00    1.64354   1.65043  143.953
 5024.00    1.63606   1.67069   -1.000
 5025.00    1.65291   1.68987   -1.000
 5026.00    1.64714   1.69295   -1.000
 5027.00    1.62799   1.68369   -1.000
 5028.00    1.64646   1.68018   -1.000
 5029.00    1.67084   1.69321   -1.000
 5030.00    1.71684   1.71907  135.438
 5031.00    1.74778   1.74797  135.613
 5032.00    1.75558   1.77176  139.869
 5033.00    1.74044   1.78002   -1.000
 5034.00    1.73603   1.76306   -1.000
 5035.00    1.66582   1.72575   -1.000
 5036.00    1.62959   1.68971   -1.000
 5037.00    1.66204   1.66905  156.146
 5038.00    1.65280   1.65071  162.538
 5039.00    1.60018   1.61467  162.766
 5040.00    1.50612   1.56569   -1.000
 5041.00    1.46629   1.53807   -1.000
 5042.00    1.54371   1.56181  139.456
 5043.00    1.64715   1.63066  136.468
 5044.00    1.71046   1.71136  131.267
 5045.00    1.75577   1.77148  135.156
 5046.00    1.74686   1.79667   39.762
 5047.00    1.83232   1.78499   -1.000
 5048.00    0.86391   1.74502   -1.000
 5049.00   -0.04008   1.69771    0.000
 5050.00   -0.01868   1.66638    0.000
 5051.00    0.21385   1.66056   -1.000
 5052.00    1.10160   1.67767   -1.000
 5053.00    1.75372   1.71070   -1.000
 5054.00    1.74566   1.74761  135.015
 5055.00    1.76634   1.77517  135.255
 5056.00    1.76263   1.79045   -1.000
 5057.00    1.76852   1.79832   -1.000
 5058.00    1.80278   1.80493  134.540
 5059.00    1.78315   1.81419   -1.000
 5060.00    1.76379   1.82519   -1.000
 5061.00    1.79284   1.83248   -1.000
 5062.00    1.82664   1.82468  145.399
 5063.00    1.77355   1.79290   -1.000
 5064.00    1.68723   1.74605   -1.000
 5065.00    1.65891   1.70808   -1.000
 5066.00    1.67801   1.69463  142.672
 5067.00    1.68813   1.69956  141.996
 5068.00    1.69240   1.70994   -1.000
 5069.00    1.71888   1.72127  142.193
 5070.00    1.73660   1.73185  143.324
 5071.00    1.74023   1.73478  141.565
 5072.00    1.72044   1.72806  140.452
 5073.00    1.73220   1.72198  140.263
 5074.00    1.73878   1.72484  140.152
 5075.00    1.73373   1.73210  141.516
 5076.00    1.72306   1.73478  146.471
 5077.00    1.71853   1.72423  153.486
 5078.00    1.67025   1.69340   -1.000
 5079.00    1.61055   1.64845   -1.000
 5080.00    1.58349   1.61568   -1.000
 5081.00    1.60568   1.61448  146.735
 5082.00    1.63753   1.63483  143.955
 5083.00    1.64274   1.66004   -1.000
 5084.00    1.67305   1.68667  140.479
 5085.00    1.74220   1.71557   -1.000
 5086.00    1.76072   1.74096  139.580
 5087.00    1.75234   1.75697  138.566
 5088.00    1.74675   1.76514  137.803
 5089.00    1.77407   1.77132  137.089
 5090.00    1.76378   1.77870  135.496
 5091.00    1.77054   1.78957   -1.000
 5092.00    1.81451   1.80545  135.528
 5093.00    1.83180   1.82033  138.384
 5094.00    1.78431   1.82163   -1.000
 5095.00    1.84492   1.80207   -1.000
 5096.00    1.87176   1.76561   -1.000
 5097.00    1.71356   1.72319  148.302
 5098.00    1.63627   1.68804   -1.000
 5099.00    1.63404   1.67570   -1.000
 5100.00    1.68383   1.69468  139.198
 5101.00    1.73267   1.73206  140.045
 5102.00    1.76290   1.76256  141.914
 5103.00    1.75143   1.77058   -1.000
 5104.00    1.74788   1.76111  145.471
 5105.00    1.72840   1.74385  147.300
 5106.00    1.70436   1.72222  147.045
 5107.00    1.68238   1.70003  146.088
 5108.00    1.66179   1.68428   -1.000
 5109.00    1.67448   1.68020  142.926
 5110.00    1.70274   1.69068  141.181
 5111.00    1.71527   1.71493  139.458
 5112.00    1.77905   1.74521   -1.000
 5113.00    1.78171   1.77057  137.478
 5114.00    1.77459   1.78855  136.007
 5115.00    1.75506   1.80366   -1.000
 5116.00    1.79430   1.81873   -1.000
 5117.00    1.80524   1.83115   -1.000
 5118.00    1.85438   1.83541  139.189
 5119.00    1.81463   1.82761  141.497
 5120.00    1.80213   1.80756  145.181
 5121.00    1.76342   1.77761  149.591
 5122.00    1.71328   1.74129   -1.000
 5123.00    1.70263   1.70504  149.150
 5124.00    1.68620   1.67999  148.436
 5125.00    1.67785   1.67372  147.544
 5126.00    1.69190   1.68021  147.787
 5127.00    1.71419   1.68706   -1.000
 5128.00    1.70366   1.69027  145.666
 5129.00    1.68209   1.69542  143.157
 5130.00    1.69405   1.70849  142.032
 5131.00    1.73502   1.72843  140.670
 5132.00    1.74750   1.74810  139.432
 5133.00    1.76695   1.76326  139.099
 5134.00    1.77339   1.77444  141.703
 5135.00    1.77722   1.78010  145.193
 5136.00    1.77659   1.77175  147.472
 5137.00    1.72637   1.74388  147.607
 5138.00    1.66780   1.71020   -1.000
 5139.00    1.65850   1.69180   -1.000
 5140.00    1.67681   1.69231  149.859
 5141.00    1.66968   1.69850   -1.000
 5142.00    1.66319   1.70000   -1.000
 5143.00    1.67729   1.70277   -1.000
 5144.00    1.70523   1.71321  147.300
 5145.00    1.70780   1.72051  147.625
 5146.00    1.68394   1.71471   -1.000
 5147.00    1.69101   1.70567  144.944
 5148.00    1.68430   1.70594   -1.000
 5149.00    1.70043   1.71246  149.574
 5150.00    1.72105   1.71219  150.490
 5151.00    1.69322   1.70155  149.656
 5152.00    1.66562   1.69078   -1.000
 5153.00    1.67878   1.68952  142.935
 5154.00    1.69856   1.70104  139.298
 5155.00    1.74584   1.72647  136.728
 5156.00    1.80443   1.76172   -1.000
 5157.00    1.82740   1.79541   -1.000
 5158.00    1.80627   1.81753  136.279
 5159.00    1.82222   1.82633  137.079
 5160.00    1.84927   1.82393   -1.000
 5161.00    1.85023   1.81077   -1.000
 5162.00    1.82418   1.78618   -1.000
 5163.00    1.74707   1.75042  158.850
 5164.00    1.73378   1.69939   -1.000
 5165.00    1.61993   1.62048  187.222
 5166.00    1.45720   1.51302   -1.000
 5167.00    1.37456   1.41816   -1.000
 5168.00    1.38750   1.38875  169.901
 5169.00    1.47589   1.42266   -1.000
 5170.00    1.51171   1.45731   -1.000
 5171.00    1.45878   1.43737   -1.000
 5172.00    1.32952   1.38895   -1.000
 5173.00    1.34148   1.38656   -1.000
 5174.00    1.51304   1.46491   -1.000
 5175.00    1.67333   1.58432   -1.000
 5176.00    1.74174   1.67871   -1.000
 5177.00    1.76876   1.72636   -1.000
 5178.00    1.78855   1.74138   -1.000
 5179.00    1.78546   1.73418   -1.000
 5180.00    1.74428   1.69730   -1.000
 5181.00    1.63286   1.61521   -1.000
 5182.00    1.46677   1.49860   -1.000
 5183.00    1.32782   1.40126   -1.000
 5184.00    1.32287   1.38645   -1.000
 5185.00    1.48053   1.46963  145.404
 5186.00    1.65910   1.59327   -1.000
 5187.00    1.75766   1.68953   -1.000
 5188.00    1.79093   1.73738   -1.000
 5189.00    1.78321   1.75050   -1.000
 5190.00    1.78038   1.73785   -1.000
 5191.00    1.73192   1.70192   -1.000
 5192.00    1.67462   1.66259  150.136
 5193.00    1.67797   1.64881   -1.000
 5194.00    1.70158   1.66322   -1.000
 5195.00    1.73320   1.68787   -1.000
 5196.00    1.74709   1.71518   -1.000
 5197.00    1.79375   1.74574   -1.000
 5198.00    1.82814   1.77668   -1.000
 5199.00    1.85403   1.80107   -1.000
 5200.00    1.84560   1.81240   -1.000
 5201.00    1.83016   1.80686  146.454
 5202.00    1.80972   1.78268   -1.000
 5203.00    1.78620   1.73940   -1.000
 5204.00    1.72383   1.68240   -1.000
 5205.00    1.67201   1.62812   -1.000
 5206.00    1.68262   1.59329   -1.000
 5207.00    1.66014   1.58124   -1.000
 5208.00    1.64071   1.58458   -1.000
 5209.00    1.65808   1.60483   -1.000
 5210.00    1.70613   1.65150   -1.000
 5211.00    1.76428   1.71816   -1.000
 5212.00    1.84396   1.78078   -1.000
 5213.00    1.88430   1.81603   -1.000
 5214.00    1.87343   1.81369   -1.000
 5215.00    1.82764   1.78708   -1.000
 5216.00    1.77953   1.76468  137.880
 5217.00    1.78529   1.77014  135.864
 5218.00    1.83254   1.80227   -1.000
 5219.00    1.87653   1.84121   -1.000
 5220.00    1.89834   1.86962   -1.000
 5221.00    1.91301   1.87975   -1.000
 5222.00    1.90487   1.86815   -1.000
 5223.00    1.84494   1.83226  153.527
 5224.00    1.76951   1.77265  157.451
 5225.00    1.69435   1.69904  153.522
 5226.00    1.64409   1.63925  144.684
 5227.00    1.65340   1.62783   -1.000
 5228.00    1.71590   1.67446   -1.000
 5229.00    1.80357   1.75024   -1.000
 5230.00    1.85206   1.80783   -1.000
 5231.00    1.85567   1.81931   -1.000
 5232.00    1.82622   1.79521   -1.000
 5233.00    1.80357   1.76739   -1.000
 5234.00    1.78052   1.76619  134.833
 5235.00    1.80676   1.79722  133.461
 5236.00    1.85318   1.84317  133.440
 5237.00    1.91661   1.88289   -1.000
 5238.00    1.91914   1.90331  133.584
 5239.00    1.92751   1.90658  132.782
 5240.00    1.91476   1.90230  133.044
 5241.00    1.91865   1.89714  132.734
 5242.00    1.91123   1.89519  132.603
 5243.00    1.92589   1.89891   -1.000
 5244.00    1.94113   1.90291   -1.000
 5245.00    1.93042   1.89331   -1.000
 5246.00    1.87213   1.86317  143.105
 5247.00    1.81180   1.82580  143.394
 5248.00    1.80700   1.80050  144.318
 5249.00    1.83639   1.79042   -1.000
 5250.00    1.82345   1.78887   -1.000
 5251.00    1.82167   1.79552   -1.000
 5252.00    1.82707   1.80917  140.189
 5253.00    1.83332   1.82011  139.033
 5254.00    1.85095   1.82467   -1.000
 5255.00    1.86150   1.83419   -1.000
 5256.00    1.89212   1.86252   -1.000
 5257.00    1.93247   1.90330   -1.000
 5258.00    1.98393   1.93266   -1.000
 5259.00    1.97871   1.93319   -1.000
 5260.00    1.92591   1.90063   -1.000
 5261.00    1.84206   1.84090  154.104
 5262.00    1.76014   1.76818  157.048
 5263.00    1.70131   1.69892  157.181
 5264.00    1.65765   1.64632  154.230
 5265.00    1.65503   1.62047   -1.000
 5266.00    1.69504   1.62084   -1.000
 5267.00    1.72669   1.62798   -1.000
 5268.00    1.70336   1.61301   -1.000
 5269.00    1.64291   1.57747   -1.000
 5270.00    1.63389   1.56484   -1.000
 5271.00    1.70589   1.61212   -1.000
 5272.00    1.79285   1.69729   -1.000
 5273.00    1.83798   1.76153   -1.000
 5274.00    1.82172   1.78672   -1.000
 5275.00    1.81533   1.80098  133.173
 5276.00    1.85047   1.83060  130.973
 5277.00    1.94072   1.87646   -1.000
 5278.00    1.96527   1.91562   -1.000
 5279.00    1.95528   1.92482   -1.000
 5280.00    1.93739   1.90095   -1.000
 5281.00    1.89415   1.85950   -1.000
 5282.00    1.85200   1.82076   -1.000
 5283.00    1.82699   1.80406   -1.000
 5284.00    1.85117   1.82365   -1.000
 5285.00    1.92719   1.87628   -1.000
 5286.00    1.96910   1.93570   -1.000
 5287.00    1.86053   1.97279   -1.000
 5288.00    1.99395   1.98581  129.313
 5289.00    2.02237   1.98970   -1.000
 5290.00    2.01403   1.99300  129.977
 5291.00    2.01695   1.99356  131.263
 5292.00    1.99688   1.98766  133.126
 5293.00    1.99629   1.97656  136.955
 5294.00    1.98594   1.95859   -1.000
 5295.00    1.94333   1.92392  145.737
 5296.00    1.89647   1.87040   -1.000
 5297.00    1.80253   1.81709  140.557
 5298.00    1.78772   1.79280  138.100
 5299.00    1.84766   1.80791   -1.000
 5300.00    1.88773   1.84165   -1.000
 5301.00    1.90166   1.87149   -1.000
 5302.00    1.91900   1.89781  129.470
 5303.00    1.96660   1.93119   -1.000
 5304.00    1.99621   1.96917   -1.000
 5305.00    2.00270   1.99417  131.742
 5306.00    2.01836   1.99695  130.710
 5307.00    2.00597   1.98932  129.333
 5308.00    1.99088   1.98823  128.598
 5309.00    2.02790   1.99933   -1.000
 5310.00    2.04616   2.01249   -1.000
 5311.00    2.04101   2.01559   -1.000
 5312.00    2.05380   2.00824   -1.000
 5313.00    2.02381   1.99551   -1.000
 5314.00    2.00009   1.98015  133.566
 5315.00    1.98894   1.96324   -1.000
 5316.00    1.95032   1.94819  132.428
 5317.00    1.95978   1.94255  131.958
 5318.00    1.96620   1.94858  132.545
 5319.00    1.98722   1.95770   -1.000
 5320.00    1.99779   1.96033   -1.000
 5321.00    2.00485   1.95179   -1.000
 5322.00    1.98327   1.92949   -1.000
 5323.00    1.94542   1.89601   -1.000
 5324.00    1.92416   1.86138   -1.000
 5325.00    1.89308   1.82767   -1.000
 5326.00    1.87308   1.77959   -1.000
 5327.00    1.78716   1.71428   -1.000
 5328.00    1.70214   1.66689   -1.000
 5329.00    1.72996   1.68321   -1.000
 5330.00    1.86744   1.76181   -1.000
 5331.00    1.94060   1.84827   -1.000
 5332.00    1.93758   1.90269   -1.000
 5333.00    1.94380   1.92971  131.976
 5334.00    1.97930   1.94988   -1.000
 5335.00    1.99886   1.96833   -1.000
 5336.00    1.99574   1.97565  135.462
 5337.00    1.97017   1.96559  138.978
 5338.00    1.97412   1.93750   -1.000
 5339.00    1.94346   1.89533   -1.000
 5340.00    1.88479   1.85676   -1.000
 5341.00    1.87874   1.84872   -1.000
 5342.00    1.92361   1.87653   -1.000
 5343.00    1.98254   1.91388   -1.000
 5344.00    2.00372   1.93438   -1.000
 5345.00    1.97877   1.93295   -1.000
 5346.00    1.96617   1.91998   -1.000
 5347.00    1.97250   1.90543   -1.000
 5348.00    1.95852   1.89380   -1.000
 5349.00    1.94218   1.89253   -1.000
 5350.00    1.96584   1.91054   -1.000
 5351.00    1.98431   1.94373   -1.000
 5352.00    2.00434   1.97760   -1.000
 5353.00    2.01503   2.00238  127.339
 5354.00    2.02268   2.02079  126.515
 5355.00    2.07336   2.03902   -1.000
 5356.00    2.09583   2.05403   -1.000
 5357.00    2.07911   2.06057  127.490
 5358.00    2.06012   2.05935  129.118
 5359.00    2.08893   2.05171   -1.000
 5360.00    2.07797   2.03676   -1.000
 5361.00    2.01860   2.01611  133.989
 5362.00    2.00305   1.99407  134.762
 5363.00    1.99730   1.97309   -1.000
 5364.00    1.97989   1.95424   -1.000
 5365.00    1.95921   1.93968  135.139
 5366.00    1.96831   1.93235   -1.000
 5367.00    1.96080   1.92833   -1.000
 5368.00    1.97476   1.91151   -1.000
 5369.00    1.92798   1.87143   -1.000
 5370.00    1.86505   1.82138   -1.000
 5371.00    1.83725   1.79447   -1.000
 5372.00    1.89348   1.81828   -1.000
 5373.00    1.97557   1.88357   -1.000
 5374.00    2.04759   1.95324   -1.000
 5375.00    2.08156   1.99690   -1.000
 5376.00    2.06802   2.01063   -1.000
 5377.00    2.07471   2.01109   -1.000
 5378.00    2.03496   2.01157  131.526
 5379.00    2.02407   2.01166  132.765
 5380.00    2.03326   2.00436   -1.000
 5381.00    2.01997   1.98852   -1.000
 5382.00    2.00552   1.97202   -1.000
 5383.00    2.02664   1.96460   -1.000
 5384.00    2.01523   1.97100   -1.000
 5385.00    2.02357   1.98741   -1.000
 5386.00    2.04611   2.00244   -1.000
 5387.00    2.03556   2.00403   -1.000
 5388.00    2.00170   1.98912  136.442
 5389.00    1.99853   1.96371   -1.000
 5390.00    1.98889   1.93786   -1.000
 5391.00    1.97597   1.91976   -1.000
 5392.00    1.95840   1.91059   -1.000
 5393.00    1.96574   1.90648   -1.000
 5394.00    1.96879   1.89998   -1.000
 5395.00    1.93044   1.88238   -1.000
 5396.00    1.91262   1.85458   -1.000
 5397.00    1.91089   1.83668   -1.000
 5398.00    1.93476   1.84956   -1.000
 5399.00    1.96369   1.88851   -1.000
 5400.00    1.97882   1.92814   -1.000
 5401.00    2.00190   1.94810   -1.000
 5402.00    1.99541   1.94087   -1.000
 5403.00    1.94067   1.90371   -1.000
 5404.00    1.90060   1.84452   -1.000
 5405.00    1.84395   1.79417   -1.000
 5406.00    1.85411   1.78656   -1.000
 5407.00    1.91238   1.81678   -1.000
 5408.00    1.95126   1.84952   -1.000
 5409.00    1.93456   1.86265   -1.000
 5410.00    1.90418   1.86955   -1.000
 5411.00    1.95648   1.89618   -1.000
 5412.00    2.03408   1.93754   -1.000
 5413.00    2.03803   1.96852   -1.000
 5414.00    2.00917   1.98122   -1.000
 5415.00    1.99673   1.98809  130.931
 5416.00    2.00077   2.00227  131.666
 5417.00    2.02622   2.01867  132.987
 5418.00    2.03722   2.02341  133.596
 5419.00    2.02161   2.01556  132.942
 5420.00    2.03018   2.00444   -1.000
 5421.00    2.05030   1.99593   -1.000
 5422.00    2.02505   1.98744   -1.000
 5423.00    2.00779   1.97512   -1.000
 5424.00    1.98776   1.96839  131.741
 5425.00    1.99327   1.98131  132.733
 5426.00    2.01269   2.00652  136.753
 5427.00    2.04850   2.01426   -1.000
 5428.00    2.02753   1.98229   -1.000
 5429.00    1.96500   1.93031   -1.000
 5430.00    1.94648   1.90011   -1.000
 5431.00    1.96944   1.90371   -1.000
 5432.00    1.96696   1.91571   -1.000
 5433.00    1.95301   1.90824   -1.000
 5434.00    1.94294   1.88775   -1.000
 5435.00    1.93006   1.88353   -1.000
 5436.00    1.96224   1.91046   -1.000
 5437.00    2.02045   1.96034   -1.000
 5438.00    2.06577   2.01314   -1.000
 5439.00    2.09862   2.05252   -1.000
 5440.00    2.12024   2.07457   -1.000
 5441.00    2.11634   2.08420   -1.000
 5442.00    2.08522   2.08456  134.246
 5443.00    2.05906   2.06931  139.858
 5444.00    2.03072   2.02879  143.724
 5445.00    1.98037   1.96439  141.755
 5446.00    1.89473   1.90258  136.975
 5447.00    1.91327   1.87953   -1.000
 5448.00    1.98291   1.90690   -1.000
 5449.00    2.05796   1.96187   -1.000
 5450.00    2.09780   2.00641   -1.000
 5451.00    2.11640   2.02147   -1.000
 5452.00    2.10638   2.00991   -1.000
 5453.00    2.06298   1.97612   -1.000
 5454.00    2.00250   1.92729   -1.000
 5455.00    1.94833   1.88733   -1.000
 5456.00    1.97255   1.88707   -1.000
 5457.00    2.02592   1.93391   -1.000
 5458.00    2.08789   1.99479   -1.000
 5459.00    2.11676   2.02857   -1.000
 5460.00    2.09209   2.02524   -1.000
 5461.00    2.06373   1.99838   -1.000
 5462.00    2.01350   1.96812   -1.000
 5463.00    1.99712   1.95285   -1.000
 5464.00    2.02286   1.96024   -1.000
 5465.00    2.04036   1.98154   -1.000
 5466.00    2.07674   2.00244   -1.000
 5467.00    2.08185   2.01612   -1.000
 5468.00    2.07983   2.02164   -1.000
 5469.00    2.08716   2.01933   -1.000
 5470.00    2.08267   2.01052   -1.000
 5471.00    2.07800   1.99847   -1.000
 5472.00    2.07382   1.98671   -1.000
 5473.00    2.04833   1.97337   -1.000
 5474.00    2.02426   1.95072   -1.000
 5475.00    1.97851   1.91713   -1.000
 5476.00    1.93488   1.88628   -1.000
 5477.00    1.92850   1.88290   -1.000
 5478.00    1.97288   1.91377   -1.000
 5479.00    2.02997   1.95040   -1.000
 5480.00    2.02793   1.96331   -1.000
 5481.00    1.98720   1.95410   -1.000
 5482.00    1.97543   1.95012   -1.000
 5483.00    2.00889   1.97112   -1.000
 5484.00    2.05701   2.00587   -1.000
 5485.00    2.09113   2.02894   -1.000
 5486.00    2.06459   2.02654   -1.000
 5487.00    2.02518   2.00718  137.198
 5488.00    2.04130   1.99043   -1.000
 5489.00    2.05237   1.98928   -1.000
 5490.00    2.07513   2.00168   -1.000
 5491.00    2.08997   2.01494   -1.000
 5492.00    2.06525   2.02082   -1.000
 5493.00    2.06512   2.02003   -1.000
 5494.00    2.08870   2.01714   -1.000
 5495.00    2.07154   2.01261   -1.000
 5496.00    2.06223   2.00361   -1.000
 5497.00    2.06227   1.99570   -1.000
 5498.00    2.07395   1.99893   -1.000
 5499.00    2.08530   2.00801   -1.000
 5500.00    2.07720   2.00657   -1.000
 5501.00    2.07096   1.99008   -1.000
 5502.00    2.07010   1.97313   -1.000
 5503.00    2.06767   1.96994   -1.000
 5504.00    2.05074   1.97203   -1.000
 5505.00    2.03055   1.96483   -1.000
 5506.00    2.02611   1.95334   -1.000
 5507.00    2.04353   1.95450   -1.000
 5508.00    2.06567   1.97486   -1.000
 5509.00    2.05869   1.99730   -1.000
 5510.00    2.06390   1.99844   -1.000
 5511.00    2.03862   1.97655   -1.000
 5512.00    2.00414   1.94799   -1.000
 5513.00    1.98098   1.93080   -1.000
 5514.00    1.99908   1.93297   -1.000
 5515.00    2.04648   1.95097   -1.000
 5516.00    2.08424   1.97791   -1.000
 5517.00    2.11869   2.00855   -1.000
 5518.00    2.14728   2.03797   -1.000
 5519.00    2.14779   2.05905   -1.000
 5520.00    2.15286   2.06656   -1.000
 5521.00    2.13112   2.06488   -1.000
 5522.00    2.10579   2.06302   -1.000
 5523.00    2.11662   2.06241   -1.000
 5524.00    2.10956   2.05619   -1.000
 5525.00    2.09981   2.03468   -1.000
 5526.00    2.05770   1.99601   -1.000
 5527.00    1.98243   1.95235   -1.000
 5528.00    1.97412   1.92833   -1.000
 5529.00    2.00733   1.94226   -1.000
 5530.00    2.06528   1.98364   -1.000
 5531.00    2.11010   2.02248   -1.000
 5532.00    2.09742   2.03782   -1.000
 5533.00    2.09321   2.03323   -1.000
 5534.00    2.07360   2.02304   -1.000
 5535.00    2.07250   2.01722   -1.000
 5536.00    2.08431   2.01933   -1.000
 5537.00    2.08508   2.02812   -1.000
 5538.00    2.09426   2.04042   -1.000
 5539.00    2.12929   2.05471   -1.000
 5540.00    2.12768   2.06869   -1.000
 5541.00    2.14014   2.07552   -1.000
 5542.00    2.13194   2.07021   -1.000
 5543.00    2.10315   2.05799   -1.000
 5544.00    2.09684   2.04934   -1.000
 5545.00    2.09635   2.04861   -1.000
 5546.00    2.11900   2.05427   -1.000
 5547.00    2.13153   2.06621   -1.000
 5548.00    2.15757   2.08398   -1.000
 5549.00    2.17631   2.10071   -1.000
 5550.00    2.17726   2.10857   -1.000
 5551.00    2.17536   2.10532   -1.000
 5552.00    2.14598   2.09316   -1.000
 5553.00    2.11383   2.07754   -1.000
 5554.00    2.11161   2.06605   -1.000
 5555.00    2.12001   2.06284   -1.000
 5556.00    2.14219   2.06547   -1.000
 5557.00    2.13960   2.06859   -1.000
 5558.00    2.16430   2.07029   -1.000
 5559.00    2.16487   2.07213   -1.000
 5560.00    2.15453   2.07175   -1.000
 5561.00    2.13682   2.06421   -1.000
 5562.00    2.12175   2.05133   -1.000
 5563.00    2.11083   2.04037   -1.000
 5564.00    2.09118   2.03451   -1.000
 5565.00    2.08726   2.03048   -1.000
 5566.00    2.10305   2.02480   -1.000
 5567.00    2.09771   2.01907   -1.000
 5568.00    2.08680   2.01628   -1.000
 5569.00    2.09019   2.01715   -1.000
 5570.00    2.07067   2.01962   -1.000
 5571.00    2.02013   2.01937  136.965
 5572.00    1.89249   2.01581   -1.000
 5573.00    1.76877   2.01474   -1.000
 5574.00    2.14380   2.02351   -1.000
 5575.00    2.85053   2.04023   -1.000
 5576.00    3.21396   2.05366   -1.000
 5577.00    3.00904   2.06112   -1.000
 5578.00    2.36305   2.06882   -1.000
 5579.00    2.23508   2.07676   -1.000
 5580.00    2.17423   2.07986   -1.000
 5581.00    2.15158   2.07643   -1.000
 5582.00    2.12195   2.06957   -1.000
 5583.00    2.12688   2.06215   -1.000
 5584.00    2.11865   2.04741   -1.000
 5585.00    2.08727   2.01450   -1.000
 5586.00    2.05005   1.96575   -1.000
 5587.00    1.99121   1.92010   -1.000
 5588.00    1.96570   1.89906   -1.000
 5589.00    1.99942   1.90823   -1.000
 5590.00    2.03485   1.93716   -1.000
 5591.00    2.05217   1.96850   -1.000
 5592.00    2.06703   1.98841   -1.000
 5593.00    2.05106   1.99759   -1.000
 5594.00    2.04490   2.00764   -1.000
 5595.00    2.09942   2.02658   -1.000
 5596.00    2.13045   2.04398   -1.000
 5597.00    2.13433   2.04259   -1.000
 5598.00    2.10137   2.02188   -1.000
 5599.00    2.08416   1.99572   -1.000
 5600.00    2.05405   1.97443   -1.000
 5601.00    2.03884   1.96069   -1.000
 5602.00    2.02165   1.96104   -1.000
 5603.00    2.04371   1.98547   -1.000
 5604.00    2.09829   2.03153   -1.000
 5605.00    2.16667   2.08071   -1.000
 5606.00    2.20617   2.11554   -1.000
 5607.00    2.20310   2.13158   -1.000
 5608.00    2.20381   2.13461   -1.000
 5609.00    2.20321   2.13388   -1.000
 5610.00    2.20228   2.13617   -1.000
 5611.00    2.20555   2.13920   -1.000
 5612.00    2.19610   2.13009   -1.000
 5613.00    2.15636   2.09495   -1.000
 5614.00    2.08331   2.03602   -1.000
 5615.00    2.03824   1.98232   -1.000
 5616.00    2.06028   1.96633   -1.000
 5617.00    2.09902   1.99115   -1.000
 5618.00    2.13841   2.02882   -1.000
 5619.00    2.15845   2.05344   -1.000
 5620.00    2.16222   2.06682   -1.000
 5621.00    2.20030   2.07597   -1.000
 5622.00    2.19121   2.07319   -1.000
 5623.00    2.14357   2.05202   -1.000
 5624.00    2.11527   2.02335   -1.000
 5625.00    2.10315   2.00959   -1.000
 5626.00    2.10962   2.02279   -1.000
 5627.00    2.14929   2.05150   -1.000
 5628.00    2.18310   2.08039   -1.000
 5629.00    2.19591   2.10366   -1.000
 5630.00    2.20921   2.11843   -1.000
 5631.00    2.22366   2.12251   -1.000
 5632.00    2.19084   2.11751   -1.000
 5633.00    2.18359   2.10734   -1.000
 5634.00    2.19630   2.09398   -1.000
 5635.00    2.19287   2.07822   -1.000
 5636.00    2.17826   2.06326   -1.000
 5637.00    2.15465   2.05415   -1.000
 5638.00    2.13252   2.05304   -1.000
 5639.00    2.14528   2.05552   -1.000
 5640.00    2.13271   2.05456   -1.000
 5641.00    2.14273   2.04919   -1.000
 5642.00    2.13508   2.04730   -1.000
 5643.00    2.15873   2.05386   -1.000
 5644.00    2.17401   2.06398   -1.000
 5645.00    2.16780   2.07294   -1.000
 5646.00    2.18079   2.07972   -1.000
 5647.00    2.18813   2.08294   -1.000
 5648.00    2.18322   2.08200   -1.000
 5649.00    2.17268   2.07983   -1.000
 5650.00    2.17661   2.08192   -1.000
 5651.00    2.19262   2.09056   -1.000
 5652.00    2.20382   2.09831   -1.000
 5653.00    2.19163   2.09575   -1.000
 5654.00    2.15885   2.08418   -1.000
 5655.00    2.15120   2.06832   -1.000
 5656.00    2.12173   2.04534   -1.000
 5657.00    2.07245   2.01358   -1.000
 5658.00    2.02449   1.98453   -1.000
 5659.00    2.02290   1.97791   -1.000
 5660.00    2.08185   1.99679   -1.000
 5661.00    2.11303   2.01858   -1.000
 5662.00    2.12346   2.03074   -1.000
 5663.00    2.13682   2.04548   -1.000
 5664.00    2.15658   2.06773   -1.000
 5665.00    2.16738   2.08463   -1.000
 5666.00    2.14380   2.08542   -1.000
 5667.00    2.15199   2.07444   -1.000
 5668.00    2.16337   2.06570   -1.000
 5669.00    2.15901   2.06684   -1.000
 5670.00    2.17580   2.07613   -1.000
 5671.00    2.18987   2.09151   -1.000
 5672.00    2.20743   2.11081   -1.000
 5673.00    2.22140   2.12740   -1.000
 5674.00    2.21748   2.13548   -1.000
 5675.00    2.22011   2.13642   -1.000
 5676.00    2.20853   2.13586   -1.000
 5677.00    2.19454   2.13607   -1.000
 5678.00    2.18813   2.13276   -1.000
 5679.00    2.19907   2.12290   -1.000
 5680.00    2.19645   2.10797   -1.000
 5681.00    2.17535   2.08900   -1.000
 5682.00    2.14047   2.06903   -1.000
 5683.00    2.12396   2.05795   -1.000
 5684.00    2.12721   2.06104   -1.000
 5685.00    2.12878   2.06830   -1.000
 5686.00    2.11927   2.06827   -1.000
 5687.00    2.11483   2.06196   -1.000
 5688.00    2.14394   2.05952   -1.000
 5689.00    2.14700   2.06899   -1.000
 5690.00    2.18135   2.08933   -1.000
 5691.00    2.21449   2.11243   -1.000
 5692.00    2.23273   2.12985   -1.000
 5693.00    2.22278   2.13756   -1.000
 5694.00    2.22192   2.13738   -1.000
 5695.00    2.22487   2.13364   -1.000
 5696.00    2.19618   2.12734   -1.000
 5697.00    2.19003   2.11625   -1.000
 5698.00    2.18724   2.10032   -1.000
 5699.00    2.14391   2.08274   -1.000
 5700.00    2.11105   2.06649   -1.000
 5701.00    2.09793   2.05578   -1.000
 5702.00    2.11255   2.05722   -1.000
 5703.00    2.14069   2.06928   -1.000
 5704.00    2.14852   2.07910   -1.000
 5705.00    2.14690   2.07512   -1.000
 5706.00    2.12418   2.05537   -1.000
 5707.00    2.09117   2.02835   -1.000
 5708.00    2.07264   2.00415   -1.000
 5709.00    2.04695   1.98811   -1.000
 5710.00    2.03807   1.98494   -1.000
 5711.00    2.07132   1.99807   -1.000
 5712.00    2.11381   2.02669   -1.000
 5713.00    2.14525   2.06390   -1.000
 5714.00    2.18926   2.09658   -1.000
 5715.00    2.22514   2.11719   -1.000
 5716.00    2.20903   2.12929   -1.000
 5717.00    2.20437   2.13792   -1.000
 5718.00    2.22208   2.14602   -1.000
 5719.00    2.25447   2.15579   -1.000
 5720.00    2.27195   2.16721   -1.000
 5721.00    2.26217   2.17803   -1.000
 5722.00    2.25609   2.18618   -1.000
 5723.00    2.27827   2.18989   -1.000
 5724.00    2.26091   2.18593   -1.000
 5725.00    2.25414   2.17184   -1.000
 5726.00    2.22501   2.15255   -1.000
 5727.00    2.19762   2.14038   -1.000
 5728.00    2.21869   2.14238   -1.000
 5729.00    2.22914   2.14996   -1.000
 5730.00    2.22246   2.15105   -1.000
 5731.00    2.21009   2.14650   -1.000
 5732.00    2.20812   2.14712   -1.000
 5733.00    2.24205   2.15967   -1.000
 5734.00    2.25389   2.17596   -1.000
 5735.00    2.24941   2.18319   -1.000
 5736.00    2.26206   2.18040   -1.000
 5737.00    2.24736   2.17439   -1.000
 5738.00    2.23948   2.17123   -1.000
 5739.00    2.24138   2.17165   -1.000
 5740.00    2.23730   2.17185   -1.000
 5741.00    2.25096   2.16947   -1.000
 5742.00    2.23235   2.16695   -1.000
 5743.00    2.20660   2.17033   -1.000
 5744.00    2.24175   2.18047   -1.000
 5745.00    2.25661   2.18889   -1.000
 5746.00    2.23583   2.18582   -1.000
 5747.00    2.21251   2.17289   -1.000
 5748.00    2.22722   2.16456   -1.000
 5749.00    2.25287   2.16840   -1.000
 5750.00    2.23810   2.17412   -1.000
 5751.00    2.21316   2.16613   -1.000
 5752.00    2.16749   2.14154   -1.000
 5753.00    2.15650   2.11755   -1.000
 5754.00    2.17361   2.11475   -1.000
 5755.00    2.19625   2.13790   -1.000
 5756.00    2.25102   2.17211   -1.000
 5757.00    2.27958   2.19674   -1.000
 5758.00    2.26662   2.20182   -1.000
 5759.00    2.26436   2.18738   -1.000
 5760.00    2.23789   2.16028   -1.000
 5761.00    2.18114   2.13280   -1.000
 5762.00    2.17039   2.11985   -1.000
 5763.00    2.20181   2.13169   -1.000
 5764.00    2.23991   2.16385   -1.000
 5765.00    2.27066   2.19661   -1.000
 5766.00    2.27157   2.21536   -1.000
 5767.00    2.26406   2.22112   -1.000
 5768.00    2.27296   2.21962   -1.000
 5769.00    2.27850   2.21466   -1.000
 5770.00    2.27163   2.20804   -1.000
 5771.00    2.24193   2.20040   -1.000
 5772.00    2.23494   2.19169   -1.000
 5773.00    2.22936   2.18332   -1.000
 5774.00    2.20400   2.17810   -1.000
 5775.00    2.18262   2.17882  132.628
 5776.00    2.17629   2.18457  133.495
 5777.00    2.18254   2.18673  135.887
 5778.00    2.15346   2.17559  138.728
 5779.00    2.13088   2.14837  139.834
 5780.00    2.11771   2.11207  139.312
 5781.00    2.13548   2.08057   -1.000
 5782.00    2.15293   2.06504   -1.000
 5783.00    2.15590   2.06426   -1.000
 5784.00    2.15814   2.06831   -1.000
 5785.00    2.15615   2.07639   -1.000
 5786.00    2.18503   2.09516   -1.000
 5787.00    2.21110   2.12211   -1.000
 5788.00    2.24665   2.14574   -1.000
 5789.00    2.25067   2.15711   -1.000
 5790.00    2.22670   2.15702   -1.000
 5791.00    2.21935   2.15611   -1.000
 5792.00    2.19626   2.16551   -1.000
 5793.00    2.18572   2.18579  131.415
 5794.00    2.20333   2.20614  132.301
 5795.00    2.22228   2.21468  132.743
 5796.00    2.22810   2.20725  131.670
 5797.00    2.23732   2.19333   -1.000
 5798.00    2.24853   2.19009   -1.000
 5799.00    2.27121   2.20552   -1.000
 5800.00    2.29310   2.23006   -1.000
 5801.00    2.29038   2.24630   -1.000
 5802.00    2.29453   2.24556   -1.000
 5803.00    2.28714   2.23053   -1.000
 5804.00    2.25508   2.21152   -1.000
 5805.00    2.25374   2.19978   -1.000
 5806.00    2.25601   2.19925   -1.000
 5807.00    2.24788   2.20617   -1.000
 5808.00    2.24840   2.21444   -1.000
 5809.00    2.26657   2.22180   -1.000
 5810.00    2.29353   2.22860   -1.000
 5811.00    2.30895   2.23308   -1.000
 5812.00    2.31537   2.23205   -1.000
 5813.00    2.31640   2.22355   -1.000
 5814.00    2.30109   2.20829   -1.000
 5815.00    2.27117   2.19253   -1.000
 5816.00    2.25873   2.18781   -1.000
 5817.00    2.28512   2.20048   -1.000
 5818.00    2.34159   2.22329   -1.000
 5819.00    2.36901   2.24243   -1.000
 5820.00    2.37024   2.24971   -1.000
 5821.00    2.35194   2.24770   -1.000
 5822.00    2.32486   2.24296   -1.000
 5823.00    2.30535   2.24024   -1.000
 5824.00    2.32683   2.24071   -1.000
 5825.00    2.32461   2.24303   -1.000
 5826.00    2.33061   2.24627   -1.000
 5827.00    2.33907   2.24997   -1.000
 5828.00    2.33395   2.25430   -1.000
 5829.00    2.34272   2.25804   -1.000
 5830.00    2.35118   2.25871   -1.000
 5831.00    2.33435   2.25590   -1.000
 5832.00    2.31070   2.25036   -1.000
 5833.00    2.31232   2.24292   -1.000
 5834.00    2.32055   2.23599   -1.000
 5835.00    2.32290   2.23323   -1.000
 5836.00    2.32736   2.23484   -1.000
 5837.00    2.32427   2.23708   -1.000
 5838.00    2.32226   2.23983   -1.000
 5839.00    2.32559   2.24640   -1.000
 5840.00    2.32932   2.25664   -1.000
 5841.00    2.32817   2.26575   -1.000
 5842.00    2.31747   2.26830   -1.000
 5843.00    2.32999   2.26269   -1.000
 5844.00    2.33202   2.25143   -1.000
 5845.00    2.32060   2.23775   -1.000
 5846.00    2.31901   2.22449   -1.000
 5847.00    2.30892   2.21529   -1.000
 5848.00    2.30406   2.21276   -1.000
 5849.00    2.30369   2.21405   -1.000
 5850.00    2.31717   2.21107   -1.000
 5851.00    2.31223   2.19868   -1.000
 5852.00    2.28967   2.18122   -1.000
 5853.00    2.27369   2.16812   -1.000
 5854.00    2.26268   2.16223   -1.000
 5855.00    2.25464   2.15398   -1.000
 5856.00    2.25369   2.13476   -1.000
 5857.00    2.21387   2.11312   -1.000
 5858.00    2.21834   2.10798   -1.000
 5859.00    2.24316   2.12672   -1.000
 5860.00    2.25964   2.15554   -1.000
 5861.00    2.28147   2.17658   -1.000
 5862.00    2.29824   2.18611   -1.000
 5863.00    2.30605   2.18926   -1.000
 5864.00    2.30623   2.18951   -1.000
 5865.00    2.30317   2.18499   -1.000
 5866.00    2.30223   2.17743   -1.000
 5867.00    2.30671   2.17739   -1.000
 5868.00    2.32346   2.19091   -1.000
 5869.00    2.33488   2.21016   -1.000
 5870.00    2.31526   2.22373   -1.000
 5871.00    2.32096   2.22671   -1.000
 5872.00    2.33414   2.22245   -1.000
 5873.00    2.32701   2.21765   -1.000
 5874.00    2.31367   2.21555   -1.000
 5875.00    2.32910   2.21385   -1.000
 5876.00    2.34440   2.20804   -1.000
 5877.00    2.32244   2.19640   -1.000
 5878.00    2.30039   2.18102   -1.000
 5879.00    2.27833   2.16671   -1.000
 5880.00    2.27392   2.15870   -1.000
 5881.00    2.27964   2.15807   -1.000
 5882.00    2.28874   2.15915   -1.000
 5883.00    2.25779   2.15537   -1.000
 5884.00    2.17065   2.14749   -1.000
 5885.00    2.02175   2.13447   -1.000
 5886.00    1.83900   2.10069   -1.000
 5887.00    1.69201   2.02400   -1.000
 5888.00    1.69483   1.90246   -1.000
 5889.00    1.76512   1.77896  156.397
 5890.00    1.81573   1.71905   -1.000
 5891.00    1.80306   1.74940   -1.000
 5892.00    1.76458   1.82611   -1.000
 5893.00    1.72295   1.87553   -1.000
 5894.00    1.75126   1.86599   -1.000
 5895.00    1.84895   1.82535   -1.000
 5896.00    1.95307   1.81513   -1.000
 5897.00    2.06309   1.86646   -1.000
 5898.00    2.14107   1.95008   -1.000
 5899.00    2.20797   2.02641   -1.000
 5900.00    2.25680   2.08160   -1.000
 5901.00    2.29579   2.11861   -1.000
 5902.00    2.30926   2.14126   -1.000
 5903.00    2.28742   2.15314   -1.000
 5904.00    2.28217   2.15782   -1.000
 5905.00    2.27266   2.15925   -1.000
 5906.00    2.28066   2.16224   -1.000
 5907.00    2.28235   2.16896   -1.000
 5908.00    2.29551   2.17736   -1.000
 5909.00    2.30662   2.18513   -1.000
 5910.00    2.30710   2.19062   -1.000
 5911.00    2.31584   2.18975   -1.000
 5912.00    2.28223   2.17794   -1.000
 5913.00    2.22638   2.15603   -1.000
 5914.00    2.21320   2.13400   -1.000
 5915.00    2.24241   2.12479   -1.000
 5916.00    2.26800   2.13156   -1.000
 5917.00    2.26024   2.14784   -1.000
 5918.00    2.26856   2.16560   -1.000
 5919.00    2.29767   2.17840   -1.000
 5920.00    2.29779   2.18394   -1.000
 5921.00    2.29006   2.18367   -1.000
 5922.00    2.29541   2.18185   -1.000
 5923.00    2.29631   2.18403   -1.000
 5924.00    2.30000   2.19259   -1.000
 5925.00    2.31572   2.20290   -1.000
 5926.00    2.33764   2.20735   -1.000
 5927.00    2.33985   2.20099   -1.000
 5928.00    2.30232   2.18605   -1.000
 5929.00    2.26961   2.17247   -1.000
 5930.00    2.27113   2.17055   -1.000
 5931.00    2.29247   2.18043   -1.000
 5932.00    2.31756   2.19002   -1.000
 5933.00    2.31598   2.18978   -1.000
 5934.00    2.30499   2.18339   -1.000
 5935.00    2.30733   2.18293   -1.000
 5936.00    2.30368   2.19341   -1.000
 5937.00    2.31069   2.20596   -1.000
 5938.00    2.29509   2.21059   -1.000
 5939.00    2.29089   2.20467   -1.000
 5940.00    2.27105   2.19127   -1.000
 5941.00    2.26741   2.17827   -1.000
 5942.00    2.26701   2.17456   -1.000
 5943.00    2.27025   2.18277   -1.000
 5944.00    2.30059   2.19654   -1.000
 5945.00    2.32120   2.20643   -1.000
 5946.00    2.28951   2.20604   -1.000
 5947.00    2.27574   2.19572   -1.000
 5948.00    2.27848   2.18416   -1.000
 5949.00    2.27469   2.18172   -1.000
 5950.00    2.27789   2.18702   -1.000
 5951.00    2.28890   2.18971   -1.000
 5952.00    2.30205   2.18628   -1.000
 5953.00    2.28817   2.18248   -1.000
 5954.00    2.28458   2.18320   -1.000
 5955.00    2.30070   2.18418   -1.000
 5956.00    2.29707   2.18040   -1.000
 5957.00    2.27396   2.17776   -1.000
 5958.00    2.31058   2.18506   -1.000
 5959.00    2.33114   2.20176   -1.000
 5960.00    2.32796   2.22016   -1.000
 5961.00    2.34020   2.23268   -1.000
 5962.00    2.35428   2.23623   -1.000
 5963.00    2.32528   2.23204   -1.000
 5964.00    2.30903   2.22321   -1.000
 5965.00    2.29206   2.21478   -1.000
 5966.00    2.30346   2.21297   -1.000
 5967.00    2.32062   2.21943   -1.000
 5968.00    2.32152   2.22931   -1.000
 5969.00    2.32234   2.23843   -1.000
 5970.00    2.32340   2.24551   -1.000
 5971.00    2.33128   2.24926   -1.000
 5972.00    2.32469   2.24826   -1.000
 5973.00    2.30305   2.24170   -1.000
 5974.00    2.29259   2.22847   -1.000
 5975.00    2.29207   2.20982   -1.000
 5976.00    2.28135   2.19298   -1.000
 5977.00    2.28029   2.18619   -1.000
 5978.00    2.29902   2.19198   -1.000
 5979.00    2.31026   2.20632   -1.000
 5980.00    2.30633   2.21950   -1.000
 5981.00    2.30442   2.22066   -1.000
 5982.00    2.28520   2.20563   -1.000
 5983.00    2.26993   2.18305   -1.000
 5984.00    2.27347   2.16878   -1.000
 5985.00    2.27517   2.17277   -1.000
 5986.00    2.28207   2.18916   -1.000
 5987.00    2.27711   2.20592   -1.000
 5988.00    2.28225   2.21834   -1.000
 5989.00    2.30262   2.22563   -1.000
 5990.00    2.30446   2.22800   -1.000
 5991.00    2.30895   2.23011   -1.000
 5992.00    2.31118   2.23829   -1.000
 5993.00    2.32363   2.25138   -1.000
 5994.00    2.35110   2.25935   -1.000
 5995.00    2.35031   2.25374   -1.000
 5996.00    2.32375   2.23742   -1.000
 5997.00    2.29945   2.22158   -1.000
 5998.00    2.30982   2.21581   -1.000
 5999.00    2.32325   2.22048   -1.000
 6000.00    2.31604   2.22675   -1.000
 6001.00    2.28731   2.22727   -1.000
 6002.00    2.28611   2.22243   -1.000
 6003.00    2.28666   2.21874   -1.000
 6004.00    2.28519   2.21866   -1.000
 6005.00    2.29627   2.21373   -1.000
 6006.00    2.28990   2.19856   -1.000
 6007.00    2.25229   2.18205   -1.000
 6008.00    2.24513   2.17976   -1.000
 6009.00    2.27699   2.19668   -1.000
 6010.00    2.31144   2.21736   -1.000
 6011.00    2.31387   2.22382   -1.000
 6012.00    2.29541   2.21630   -1.000
 6013.00    2.28272   2.20742   -1.000
 6014.00    2.29830   2.20571   -1.000
 6015.00    2.30539   2.20732   -1.000
 6016.00    2.29715   2.20659   -1.000
 6017.00    2.28172   2.20507   -1.000
 6018.00    2.27791   2.20264   -1.000
 6019.00    2.25026   2.19597   -1.000
 6020.00    2.24402   2.18866   -1.000
 6021.00    2.25604   2.18777   -1.000
 6022.00    2.27136   2.19431   -1.000
 6023.00    2.29112   2.20564   -1.000
 6024.00    2.29133   2.21937   -1.000
 6025.00    2.31355   2.23323   -1.000
 6026.00    2.32131   2.24487   -1.000
 6027.00    2.31965   2.25448   -1.000
 6028.00    2.32097   2.26387   -1.000
 6029.00    2.34302   2.27210   -1.000
 6030.00    2.34458   2.27764   -1.000
 6031.00    2.34271   2.28209   -1.000
 6032.00    2.34178   2.28813   -1.000
 6033.00    2.34905   2.29747   -1.000
 6034.00    2.36629   2.30815   -1.000
 6035.00    2.35968   2.31414   -1.000
 6036.00    2.36339   2.31166   -1.000
 6037.00    2.37041   2.30228   -1.000
 6038.00    2.34476   2.28995   -1.000
 6039.00    2.31553   2.27917   -1.000
 6040.00    2.30223   2.27431   -1.000
 6041.00    2.30534   2.27734   -1.000
 6042.00    2.32116   2.28567   -1.000
 6043.00    2.35191   2.29567   -1.000
 6044.00    2.36505   2.30445   -1.000
 6045.00    2.36460   2.31036   -1.000
 6046.00    2.36559   2.31405   -1.000
 6047.00    2.35476   2.31634   -1.000
 6048.00    2.34028   2.31784   -1.000
 6049.00    2.35079   2.31835   -1.000
 6050.00    2.36950   2.31626   -1.000
 6051.00    2.37111   2.30952   -1.000
 6052.00    2.37454   2.29876   -1.000
 6053.00    2.37229   2.28640   -1.000
 6054.00    2.34957   2.27420   -1.000
 6055.00    2.32541   2.26450   -1.000
 6056.00    2.31369   2.26120   -1.000
 6057.00    2.31530   2.26596   -1.000
 6058.00    2.33249   2.27554   -1.000
 6059.00    2.35479   2.28462   -1.000
 6060.00    2.36896   2.28798   -1.000
 6061.00    2.36098   2.28213   -1.000
 6062.00    2.32836   2.26641   -1.000
 6063.00    2.28156   2.24452   -1.000
 6064.00    2.23926   2.22647   53.414
 6065.00    1.97224   2.22463   -1.000
 6066.00    1.14040   2.24364   -1.000
 6067.00    1.17751   2.27398   -1.000
 6068.00    2.27188   2.30003   -1.000
 6069.00    2.30502   2.31499  130.163
 6070.00    2.17369   2.32262   -1.000
 6071.00    1.97133   2.32693   -1.000
 6072.00    1.25872   2.32855   -1.000
 6073.00    1.16408   2.32741   -1.000
 6074.00    2.36897   2.32301   -1.000
 6075.00    2.35949   2.31365   -1.000
 6076.00    2.32959   2.29912   -1.000
 6077.00    2.32539   2.28284   -1.000
 6078.00    2.31407   2.26981   -1.000
 6079.00    2.30124   2.26226   -1.000
 6080.00    2.29446   2.25723   -1.000
 6081.00    2.28897   2.25210   -1.000
 6082.00    2.29002   2.24883   -1.000
 6083.00    2.30580   2.24976   -1.000
 6084.00    2.29558   2.25357   -1.000
 6085.00    2.29821   2.25904   -1.000
 6086.00    2.29559   2.26592   -1.000
 6087.00    2.29898   2.27127   -1.000
 6088.00    2.30974   2.27013   -1.000
 6089.00    2.30252   2.26123   -1.000
 6090.00    2.28575   2.25057   -1.000
 6091.00    2.27062   2.24632   -1.000
 6092.00    2.27465   2.25167   -1.000
 6093.00    2.29493   2.26430   -1.000
 6094.00    2.31611   2.27864   -1.000
 6095.00    2.33431   2.28895   -1.000
 6096.00    2.33156   2.29398   -1.000
 6097.00    2.32362   2.29746   -1.000
 6098.00    2.33501   2.29942   -1.000
 6099.00    2.34381   2.29140   -1.000
 6100.00    2.29999   2.26493   -1.000
 6101.00    2.25119   2.22437   -1.000
 6102.00    2.23246   2.19156   -1.000
 6103.00    2.21999   2.18911   -1.000
 6104.00    2.23836   2.21540   -1.000
 6105.00    2.28715   2.24916   -1.000
 6106.00    2.30766   2.27277   -1.000
 6107.00    2.30565   2.28599  137.009
 6108.00    2.29082   2.29505  136.567
 6109.00    2.29669   2.30073  136.177
 6110.00    2.32177   2.30151   -1.000
 6111.00    2.32045   2.30109  135.284
 6112.00    2.30169   2.30470  135.355
 6113.00    2.29649   2.31137  136.105
 6114.00    2.31711   2.31483  136.737
 6115.00    2.32101   2.31189  137.057
 6116.00    2.31756   2.30594  138.324
 6117.00    2.31319   2.29809  140.361
 6118.00    2.30761   2.28210   -1.000
 6119.00    2.28151   2.25350   -1.000
 6120.00    2.25258   2.21803   -1.000
 6121.00    2.22336   2.18950   -1.000
 6122.00    2.21786   2.18429   -1.000
 6123.00    2.24584   2.20654   -1.000
 6124.00    2.27287   2.23877   -1.000
 6125.00    2.29079   2.26022   -1.000
 6126.00    2.28070   2.26707  138.374
 6127.00    2.26770   2.26793  137.095
 6128.00    2.27014   2.27302  136.218
 6129.00    2.27963   2.28632  136.253
 6130.00    2.29457   2.30356  136.984
 6131.00    2.30641   2.31676  139.126
 6132.00    2.30760   2.31694  142.844
 6133.00    2.29147   2.29536  146.891
 6134.00    2.25914   2.24810  149.140
 6135.00    2.20806   2.18624   -1.000
 6136.00    2.14690   2.13879  143.296
 6137.00    2.12191   2.13368  140.291
 6138.00    2.16035   2.16895  139.707
 6139.00    2.20563   2.21428  140.070
 6140.00    2.22961   2.24132  139.573
 6141.00    2.25606   2.25184  137.911
 6142.00    2.25443   2.26428  136.870
 6143.00    2.24547   2.28439   -1.000
 6144.00    2.27691   2.30284   -1.000
 6145.00    2.29680   2.31005  138.883
 6146.00    2.28363   2.30512  139.815
 6147.00    2.28030   2.29254  140.267
 6148.00    2.27690   2.27778  139.983
 6149.00    2.26931   2.26668  139.231
 6150.00    2.27536   2.26384  138.568
 6151.00    2.26915   2.26901  139.054
 6152.00    2.26909   2.27532  140.144
 6153.00    2.27402   2.27493  140.538
 6154.00    2.25072   2.26674  140.804
 6155.00    2.23983   2.25762  141.835
 6156.00    2.25100   2.25202  143.938
 6157.00    2.24989   2.24515  147.487
 6158.00    2.22289   2.22626  152.029
 6159.00    2.19654   2.18557  155.126
 6160.00    2.16311   2.12551   -1.000
 6161.00    2.10046   2.06823   -1.000
 6162.00    2.07391   2.04287   -1.000
 6163.00    2.10025   2.05936   -1.000
 6164.00    2.15694   2.10096   -1.000
 6165.00    2.20505   2.14227   -1.000
 6166.00    2.21853   2.16499   -1.000
 6167.00    2.18898   2.16383   -1.000
 6168.00    2.15431   2.14641  147.470
 6169.00    2.14223   2.13277  144.840
 6170.00    2.15575   2.14077  143.860
 6171.00    2.19958   2.16848   -1.000
 6172.00    2.22588   2.19773   -1.000
 6173.00    2.23456   2.21631  143.681
 6174.00    2.24566   2.22546  143.369
 6175.00    2.23120   2.22982  142.824
 6176.00    2.24301   2.23316  142.174
 6177.00    2.26247   2.23861   -1.000
 6178.00    2.26234   2.24570  141.163
 6179.00    2.25638   2.25210  140.621
 6180.00    2.26432   2.25880  140.582
 6181.00    2.27538   2.26694  141.014
 6182.00    2.26033   2.27264  141.806
 6183.00    2.26645   2.27146  143.188
 6184.00    2.28216   2.26287  144.749
 6185.00    2.27187   2.24840   -1.000
 6186.00    2.25823   2.23111   -1.000
 6187.00    2.24374   2.21423   -1.000
 6188.00    2.23508   2.19674   -1.000
 6189.00    2.22328   2.17454   -1.000
 6190.00    2.19389   2.15238   -1.000
 6191.00    2.17307   2.14587   -1.000
 6192.00    2.19147   2.16457   -1.000
 6193.00    2.23838   2.19969   -1.000
 6194.00    2.26510   2.23303   -1.000
 6195.00    2.27338   2.25335  143.705
 6196.00    2.26737   2.25936  145.204
 6197.00    2.24338   2.25210  145.725
 6198.00    2.22950   2.23674  144.858
 6199.00    2.20920   2.22567  143.120
 6200.00    2.19183   2.22977   -1.000
 6201.00    2.20263   2.24631   -1.000
 6202.00    2.24293   2.26475   -1.000
 6203.00    2.28416   2.27777  141.623
 6204.00    2.29909   2.28497  141.902
 6205.00    2.29593   2.28938  142.239
 6206.00    2.29241   2.29259  142.463
 6207.00    2.29015   2.29364  143.480
 6208.00    2.29237   2.29035  144.759
 6209.00    2.28319   2.28144  145.996
 6210.00    2.26874   2.26627  147.834
 6211.00    2.25746   2.24338  149.809
 6212.00    2.23976   2.21346   -1.000
 6213.00    2.22662   2.18406   -1.000
 6214.00    2.21288   2.16607   -1.000
 6215.00    2.21398   2.16426   -1.000
 6216.00    2.21777   2.17209   -1.000
 6217.00    2.21936   2.17787   -1.000
 6218.00    2.22355   2.17561   -1.000
 6219.00    2.22453   2.17057   -1.000
 6220.00    2.23372   2.17258   -1.000
 6221.00    2.23438   2.18313   -1.000
 6222.00    2.24487   2.19538   -1.000
 6223.00    2.14675   2.20383   -1.000
 6224.00    2.00141   2.20922   -1.000
 6225.00    2.16469   2.21343   -1.000
 6226.00    2.28328   2.21338   -1.000
 6227.00    2.22941   2.20211   -1.000
 6228.00    2.21434   2.17577   -1.000
 6229.00    2.19975   2.14124   -1.000
 6230.00    2.15948   2.11585   -1.000
 6231.00    2.13795   2.11486   -1.000
 6232.00    2.16494   2.13991   -1.000
 6233.00    2.21801   2.17886   -1.000
 6234.00    2.25837   2.21429   -1.000
 6235.00    2.26414   2.23272   -1.000
 6236.00    2.25943   2.23081   -1.000
 6237.00    2.26170   2.21517   -1.000
 6238.00    2.25246   2.19526   -1.000
 6239.00    2.22702   2.17866   -1.000
 6240.00    2.20777   2.16767   -1.000
 6241.00    2.20335   2.15933   -1.000
 6242.00    2.19895   2.14996   -1.000
 6243.00    2.18801   2.14097   -1.000
 6244.00    2.17301   2.13749   -1.000
 6245.00    2.17464   2.14366   -1.000
 6246.00    2.19524   2.16138   -1.000
 6247.00    2.22584   2.18691   -1.000
 6248.00    2.24761   2.20908   -1.000
 6249.00    2.25172   2.21591   -1.000
 6250.00    2.24772   2.20308   -1.000
 6251.00    2.20982   2.17645   -1.000
 6252.00    2.16787   2.14951   -1.000
 6253.00    2.14813   2.13303  155.502
 6254.00    2.14226   2.12659  157.034
 6255.00    2.14470   2.12187   -1.000
 6256.00    2.14594   2.11419   -1.000
 6257.00    2.13598   2.10942   -1.000
 6258.00    2.12871   2.11740  151.130
 6259.00    2.15348   2.14056  148.950
 6260.00    2.20185   2.17214   -1.000
 6261.00    2.23559   2.20209   -1.000
 6262.00    2.24718   2.22292   -1.000
 6263.00    2.25426   2.23085   -1.000
 6264.00    2.25272   2.22900   -1.000
 6265.00    2.23575   2.22634  147.727
 6266.00    2.19377   2.22891   -1.000
 6267.00    2.19816   2.23328   -1.000
 6268.00    2.22284   2.23376  148.360
 6269.00    2.21803   2.23203  147.912
 6270.00    2.20822   2.23316   -1.000
 6271.00    2.22046   2.23759  148.711
 6272.00    2.23642   2.24006  149.899
 6273.00    2.22353   2.23464  151.688
 6274.00    2.17997   2.22008   -1.000
 6275.00    2.12996   2.20010   -1.000
 6276.00    2.10270   2.17997   -1.000
 6277.00    2.10470   2.16309   -1.000
 6278.00    2.10285   2.15088   -1.000
 6279.00    2.05639   2.14450   -1.000
 6280.00    2.03221   2.14770   -1.000
 6281.00    2.06114   2.16377   -1.000
 6282.00    2.10284   2.18990   -1.000
 6283.00    2.13614   2.21756   -1.000
 6284.00    2.17158   2.23944   -1.000
 6285.00    2.22146   2.25413   -1.000
 6286.00    2.24296   2.26482   -1.000
 6287.00    2.24281   2.27219   -1.000
 6288.00    2.24418   2.27255   -1.000
 6289.00    2.24609   2.26379  149.945
 6290.00    2.24610   2.24986  150.116
 6291.00    2.23490   2.23778  150.328
 6292.00    2.22591   2.23148  151.045
 6293.00    2.22866   2.22868  152.198
 6294.00    2.23900   2.22344  152.800
 6295.00    2.24543   2.21163   -1.000
 6296.00    2.28011   2.19683   -1.000
 6297.00    2.34003   2.18757   -1.000
 6298.00    2.39814   2.18690   -1.000
 6299.00    2.40892   2.18835   -1.000
 6300.00    2.33819   2.18513   -1.000
 6301.00    2.23331   2.18140   -1.000
 6302.00    2.18186   2.18644  149.555
 6303.00    2.18969   2.20171  148.041
 6304.00    2.21018   2.22144  146.767
 6305.00    2.22849   2.24044  145.962
 6306.00    2.24216   2.25748  146.238
 6307.00    2.24824   2.27101   -1.000
 6308.00    2.26105   2.27728  147.915
 6309.00    2.28335   2.27473  148.470
 6310.00    2.25849   2.26652  148.855
 6311.00    2.21809   2.25693   -1.000
 6312.00    2.20279   2.24747   -1.000
 6313.00    2.19065   2.23649   -1.000
 6314.00    2.17331   2.22354   -1.000
 6315.00    2.17044   2.21139   -1.000
 6316.00    2.16310   2.20138   -1.000
 6317.00    2.14644   2.19491   -1.000
 6318.00    2.15129   2.19806   -1.000
 6319.00    2.18780   2.21423   -1.000
 6320.00    2.21941   2.23575  146.107
 6321.00    2.23496   2.25368  145.464
 6322.00    2.25066   2.26765  144.820
 6323.00    2.26863   2.28101  144.578
 6324.00    2.27959   2.29318  144.196
 6325.00    2.27184   2.30057   -1.000
 6326.00    2.26054   2.30274   -1.000
 6327.00    2.26907   2.30275   -1.000
 6328.00    2.27689   2.30255   -1.000
 6329.00    2.28681   2.30279  143.494
 6330.00    2.28179   2.30525   -1.000
 6331.00    2.27030   2.30950   -1.000
 6332.00    2.24882   2.30842   -1.000
 6333.00    2.23805   2.29388   -1.000
 6334.00    2.21810   2.26758   -1.000
 6335.00    2.02511   2.24291   -1.000
 6336.00    1.95336   2.23433   -1.000
 6337.00    2.18022   2.24382   -1.000
 6338.00    2.24495   2.26334  142.460
 6339.00    2.24495   2.28347   -1.000
 6340.00    2.27276   2.29626   -1.000
 6341.00    2.27969   2.29643  143.736
 6342.00    2.25387   2.28587   -1.000
 6343.00    2.23847   2.27406   -1.000
 6344.00    2.23470   2.27176   -1.000
 6345.00    2.24348   2.28190   -1.000
 6346.00    2.27668   2.29868   -1.000
 6347.00    2.28322   2.31553   -1.000
 6348.00    2.26191   2.32905   -1.000
 6349.00    2.26932   2.33805   -1.000
 6350.00    2.28902   2.34156   -1.000
 6351.00    2.28071   2.33815   -1.000
 6352.00    2.28035   2.32692   -1.000
 6353.00    2.28734   2.31032   -1.000
 6354.00    2.27000   2.29456   -1.000
 6355.00    2.24114   2.28361   -1.000
 6356.00    2.22493   2.27409   -1.000
 6357.00    2.22766   2.26076   -1.000
 6358.00    2.22926   2.24462  146.954
 6359.00    2.22731   2.23083  146.667
 6360.00    2.23829   2.22161  146.358
 6361.00    2.26187   2.21679   -1.000
 6362.00    2.27639   2.21874   -1.000
 6363.00    2.25780   2.22996   -1.000
 6364.00    2.24708   2.24874  142.939
 6365.00    2.25437   2.27041  141.995
 6366.00    2.25409   2.29130   -1.000
 6367.00    2.25991   2.30855   -1.000
 6368.00    2.26730   2.31925   -1.000
 6369.00    2.27738   2.32360   -1.000
 6370.00    2.28622   2.32645   -1.000
 6371.00    2.29319   2.33234   -1.000
 6372.00    2.29137   2.34074   -1.000
 6373.00    2.27464   2.34726   -1.000
 6374.00    2.26609   2.34921   -1.000
 6375.00    2.23748   2.34708   -1.000
 6376.00    2.22611   2.34154   -1.000
 6377.00    2.25442   2.33304   -1.000
 6378.00    2.25665   2.32393   -1.000
 6379.00    2.24518   2.31710   -1.000
 6380.00    2.24235   2.31440   -1.000
 6381.00    2.24974   2.31574   -1.000
 6382.00    2.25244   2.31903   -1.000
 6383.00    2.25047   2.32229   -1.000
 6384.00    2.24347   2.32598   -1.000
 6385.00    2.25022   2.33137   -1.000
 6386.00    2.24764   2.33738   -1.000
 6387.00    2.21981   2.34138   -1.000
 6388.00    2.22127   2.34223   -1.000
 6389.00    2.23051   2.33825   -1.000
 6390.00    2.21401   2.32522   -1.000
 6391.00    2.18862   2.30187   -1.000
 6392.00    2.17508   2.27743   -1.000
 6393.00    2.14976   2.26762   -1.000
 6394.00    2.12522   2.28010   -1.000
 6395.00    2.11945   2.30446   -1.000
 6396.00    2.13963   2.32121   -1.000
 6397.00    2.15087   2.31627   -1.000
 6398.00    2.11985   2.29168   -1.000
 6399.00    2.06863   2.26710   -1.000
 6400.00    2.03936   2.26511   -1.000
 6401.00    2.05668   2.28995   -1.000
 6402.00    2.09427   2.32434   -1.000
 6403.00    2.11564   2.34935   -1.000
 6404.00    2.10993   2.35626   -1.000
 6405.00    2.09036   2.34640   -1.000
 6406.00    2.07001   2.32872   -1.000
 6407.00    2.05345   2.31527   -1.000
 6408.00    2.01967   2.31172   -1.000
 6409.00    1.98029   2.31337   -1.000
 6410.00    1.97099   2.31245   -1.000
 6411.00    1.98004   2.30871   -1.000
 6412.00    1.97953   2.30865   -1.000
 6413.00    1.96840   2.31525   -1.000
 6414.00    1.97634   2.32529   -1.000
 6415.00    1.98017   2.33398   -1.000
 6416.00    1.95586   2.33652   -1.000
 6417.00    1.94474   2.32905   -1.000
 6418.00    1.92509   2.31156   -1.000
 6419.00    1.87374   2.29122   -1.000
 6420.00    1.84076   2.28107   -1.000
 6421.00    1.83130   2.29042   -1.000
 6422.00    1.82717   2.31483   -1.000
 6423.00    1.84376   2.34088   -1.000
 6424.00    1.85408   2.35963   -1.000
 6425.00    1.83469   2.37064   -1.000
 6426.00    1.82156   2.37480   -1.000
 6427.00    1.79848   2.36830   -1.000
 6428.00    0.92158   2.34764   -1.000
