###################################################################
## OUTPUT of StarlightChains_v04.for    [Cid@UFSC - 01/Apr/2007] ##
###################################################################

## Some input info
NGC6528_c_2.cxt                          [arq_obs]
Base.BC03.S                              [arq_base]
NGC6528_c_2.msk                          [arq_masks]
StCv04.C11.config                        [arq_config]
  150                                    [N_base]
    0                                    [N_YAV_components = # of components with extra extinction!]
    0                                    [i_FitPowerLaw (1/0 = Yes/No)]
-9.99                                    [alpha_PowerLaw]
CCM                                      [red_law_option]
 1.458241                                [q_norm = A(l_norm)/A(V)]

## (Re)Sampling Parameters
 3359.00                                 [l_ini (A)]
 6428.00                                 [l_fin (A)]
    1.00                                 [dl    (A)]     (OBS: dl_cushion =    50.00 A)

## Normalization info
 4020.00                                 [l_norm (A) - for base]
 4010.00                                 [llow_norm (A) - window for f_obs]
 4060.00                                 [lupp_norm (A) - window for f_obs]
4.572307E-15                             [fobs_norm (in input units)]

## S/N
 4730.00                                 [llow_SN (A) - window for S/N]
 4780.00                                 [lupp_SN (A) - window for S/N]
  26.838                                 [S/N in S/N window]
  13.309                                 [S/N in norm. window]
 348.211                                 [S/N_err in S/N window]
 172.676                                 [S/N_err in norm. window]
  1.0000                                 [fscale_chi2]

## etc...
  2147483601                             [idum_orig]
  3069                                   [NOl_eff]
   531                                   [Nl_eff]
  2538    NSIGMA                         [Ntot_cliped & clip_method]
  2251200                                [Nglobal_steps]
   7                                     [N_chains]
  36                                     [NEX0s_base = N_base in EX0s-fits]
 0   0   1      162   2.0   3.907E+02    [Clip-Bug, RC-Crash & Burn-In warning-flags, n_censored_weights, wei_nsig_threshold & wei_limit]
    67     67.340     67.336      0.004  [idt_all, wdt_TotTime, wdt_UsrTime & wdt_SysTime (sec)]

## Synthesis Results - Best model ##

 2.82904E+00                             [chi2/Nl_eff]
     2.38483                             [adev (%)]

   104.15708                             [sum-of-x (%)]
 1.97694E-14                             [Flux_tot (units of input spectrum!)]
 2.18988E-09                             [Mini_tot (???)]
 1.09266E-09                             [Mcor_tot (???)]

   0.60                                  [v0_min  (km/s)]
 104.06                                  [vd_min  (km/s)]
 1.0598                                  [AV_min  (mag)]
 0.0000                                  [YAV_min (mag)]

# j     x_j(%)      Mini_j(%)     Mcor_j(%)     age_j(yr)     Z_j      (L/M)_j    YAV?  Mstars   component_j        a/Fe...       SSP_chi2r SSP_adev(%)   SSP_AV   SSP_x(%)
  1      5.1981     5.5213E-03    1.1066E-02    1.000000E+06  0.00010  8.160E-03    0   1.0000   age020_m22            0.0000     6.0761E+03    48.4853   4.0000    89.5579
  2      1.3919     2.5350E-04    5.0806E-04    3.160000E+06  0.00010  4.759E-02    0   1.0000   age045_m22            0.0000     8.7990E+02    14.7193   4.0000   100.7975
  3      1.5733     7.0581E-04    1.3555E-03    5.010000E+06  0.00010  1.932E-02    0   0.9582   age055_m22            0.0000     1.5418E+03    24.5524   4.0000    92.9077
  4      0.0000     0.0000E+00    0.0000E+00    6.610000E+06  0.00010  9.973E-03    0   0.9297   age061_m22            0.0000     6.0813E+03    47.8305   4.0000    92.3605
  5      0.0000     0.0000E+00    0.0000E+00    8.710000E+06  0.00010  7.690E-03    0   0.9030   age067_m22            0.0000     5.9556E+03    47.3999   4.0000    92.9019
  6      0.0000     0.0000E+00    0.0000E+00    1.000000E+07  0.00010  6.375E-03    0   0.8902   age070_m22            0.0000     5.9118E+03    47.2060   4.0000    93.1175
  7      0.0000     0.0000E+00    0.0000E+00    1.445000E+07  0.00010  4.874E-03    0   0.8589   age078_m22            0.0000     4.9515E+03    43.5268   4.0000    96.6176
  8      0.0000     0.0000E+00    0.0000E+00    2.512000E+07  0.00010  4.103E-03    0   0.8174   age090_m22            0.0000     3.3028E+03    34.8631   4.0000   102.9362
  9      0.0000     0.0000E+00    0.0000E+00    4.000000E+07  0.00010  3.654E-03    0   0.7830   age104_m22            0.0000     2.4924E+03    27.7901   4.0000   106.2297
 10      0.0000     0.0000E+00    0.0000E+00    5.500000E+07  0.00010  3.093E-03    0   0.7597   age110_m22            0.0000     2.2407E+03    25.3345   4.0000   107.0835
 11      0.0000     0.0000E+00    0.0000E+00    1.015200E+08  0.00010  2.431E-03    0   0.7138   age116_m22            0.0000     1.8018E+03    21.2385   4.0000   107.2141
 12      0.0000     0.0000E+00    0.0000E+00    1.609000E+08  0.00010  1.319E-03    0   0.6775   age120_m22            0.0000     1.2904E+03    17.9433   4.0000   104.9338
 13      0.0000     0.0000E+00    0.0000E+00    2.861200E+08  0.00010  1.075E-03    0   0.6412   age125_m22            0.0000     1.7370E+03    21.5190   4.0000   107.8827
 14      0.0000     0.0000E+00    0.0000E+00    5.088000E+08  0.00010  7.183E-04    0   0.6083   age130_m22            0.0000     1.7512E+03    21.8858   4.0000   106.4386
 15      0.0000     0.0000E+00    0.0000E+00    9.047900E+08  0.00010  4.524E-04    0   0.5785   age135_m22            0.0000     1.7158E+03    21.9746   4.0000   104.9565
 16      0.0000     0.0000E+00    0.0000E+00    1.278050E+09  0.00010  3.018E-04    0   0.5588   age138_m22            0.0000     1.1938E+03    18.5293   3.5277   103.0316
 17      0.0000     0.0000E+00    0.0000E+00    1.434000E+09  0.00010  2.691E-04    0   0.5532   age139_m22            0.0000     1.0934E+03    17.7264   3.3614   102.6919
 18      0.0000     0.0000E+00    0.0000E+00    2.500000E+09  0.00010  1.582E-04    0   0.5296   age150_m22            0.0000     1.0603E+03    17.7360   3.2993   103.1958
 19      0.0000     0.0000E+00    0.0000E+00    4.250000E+09  0.00010  1.007E-04    0   0.5110   age158_m22            0.0000     8.6157E+02    16.0217   3.1504   102.1046
 20      0.0000     0.0000E+00    0.0000E+00    6.250000E+09  0.00010  6.869E-05    0   0.4985   age166_m22            0.0000     6.9849E+02    14.4320   3.0977   100.0196
 21      0.0000     0.0000E+00    0.0000E+00    7.500000E+09  0.00010  5.873E-05    0   0.4931   age171_m22            0.0000     6.8211E+02    14.4172   3.1072    99.4936
 22      0.0000     0.0000E+00    0.0000E+00    1.000000E+10  0.00010  4.481E-05    0   0.4854   age181_m22            0.0000     6.6656E+02    14.2497   3.0587    99.2293
 23      0.0000     0.0000E+00    0.0000E+00    1.300000E+10  0.00010  3.489E-05    0   0.4791   age193_m22            0.0000     6.3848E+02    13.9023   2.9859    98.8433
 24      0.1650     4.7113E-02    4.5002E-02    1.500000E+10  0.00010  3.035E-05    0   0.4766   age201_m22            0.0000     6.2367E+02    13.7293   2.9430    98.7106
 25      0.0000     0.0000E+00    0.0000E+00    1.800000E+10  0.00010  2.510E-05    0   0.4735   age213_m22            0.0000     5.9039E+02    13.3484   2.8685    98.2407
 26      1.3045     1.3368E-03    2.6792E-03    1.000000E+06  0.00040  8.458E-03    0   1.0000   age020_m32            0.0000     6.1322E+03    48.4724   4.0000    90.1958
 27      0.0000     0.0000E+00    0.0000E+00    3.160000E+06  0.00040  3.973E-02    0   1.0000   age045_m32            0.0000     3.1828E+03    33.9064   4.0000   102.6937
 28      0.0000     0.0000E+00    0.0000E+00    5.010000E+06  0.00040  1.935E-02    0   0.9532   age055_m32            0.0000     4.3708E+03    40.8213   4.0000    96.7887
 29      0.0009     6.8244E-07    1.2642E-06    6.610000E+06  0.00040  1.204E-02    0   0.9243   age061_m32            0.0000     5.3891E+03    45.2871   4.0000    94.7991
 30      0.0000     0.0000E+00    0.0000E+00    8.710000E+06  0.00040  9.433E-03    0   0.9001   age067_m32            0.0000     5.1648E+03    44.3685   4.0000    95.8465
 31      0.0000     0.0000E+00    0.0000E+00    1.000000E+07  0.00040  8.053E-03    0   0.8877   age070_m32            0.0000     4.9968E+03    43.6846   4.0000    96.3870
 32      0.0000     0.0000E+00    0.0000E+00    1.445000E+07  0.00040  7.027E-03    0   0.8578   age078_m32            0.0000     3.2258E+03    34.6049   4.0000   101.1614
 33      0.0068     1.2441E-05    2.0361E-05    2.512000E+07  0.00040  4.707E-03    0   0.8166   age090_m32            0.0000     2.3256E+03    28.2984   4.0000   103.7952
 34      0.0000     0.0000E+00    0.0000E+00    4.000000E+07  0.00040  3.714E-03    0   0.7827   age104_m32            0.0000     1.8925E+03    23.4052   4.0000   105.5052
 35      0.0000     0.0000E+00    0.0000E+00    5.500000E+07  0.00040  2.982E-03    0   0.7593   age110_m32            0.0000     1.7960E+03    21.9792   4.0000   106.0037
 36      0.0000     0.0000E+00    0.0000E+00    1.015200E+08  0.00040  2.188E-03    0   0.7143   age116_m32            0.0000     1.6148E+03    20.2180   4.0000   107.1126
 37      0.0000     0.0000E+00    0.0000E+00    1.609000E+08  0.00040  1.690E-03    0   0.6856   age120_m32            0.0000     1.6366E+03    21.0237   4.0000   107.1919
 38      0.0000     0.0000E+00    0.0000E+00    2.861200E+08  0.00040  1.152E-03    0   0.6509   age125_m32            0.0000     1.6391E+03    21.3195   4.0000   105.9929
 39      0.0000     0.0000E+00    0.0000E+00    5.088000E+08  0.00040  7.331E-04    0   0.6182   age130_m32            0.0000     1.6377E+03    21.4883   4.0000   104.3331
 40      0.0000     0.0000E+00    0.0000E+00    9.047900E+08  0.00040  3.960E-04    0   0.5890   age135_m32            0.0000     1.2006E+03    18.4274   3.5587   102.8627
 41      0.0000     0.0000E+00    0.0000E+00    1.278050E+09  0.00040  2.854E-04    0   0.5687   age138_m32            0.0000     1.1176E+03    18.1317   3.3459   104.1781
 42      0.0000     0.0000E+00    0.0000E+00    1.434000E+09  0.00040  2.531E-04    0   0.5632   age139_m32            0.0000     1.1004E+03    18.0451   3.2920   104.0864
 43      0.0000     0.0000E+00    0.0000E+00    2.500000E+09  0.00040  1.488E-04    0   0.5386   age150_m32            0.0000     9.2413E+02    16.6457   3.0088   102.8871
 44      0.0000     0.0000E+00    0.0000E+00    4.250000E+09  0.00040  9.082E-05    0   0.5199   age158_m32            0.0000     6.5840E+02    13.8798   2.9069   100.5102
 45      0.0000     0.0000E+00    0.0000E+00    6.250000E+09  0.00040  6.362E-05    0   0.5076   age166_m32            0.0000     5.1543E+02    12.3089   2.8914    97.8705
 46      0.0000     0.0000E+00    0.0000E+00    7.500000E+09  0.00040  5.289E-05    0   0.5027   age171_m32            0.0000     4.7876E+02    11.8556   2.8366    96.9081
 47      3.8383     8.3757E-01    8.3059E-01    1.000000E+10  0.00040  3.972E-05    0   0.4948   age181_m32            0.0000     4.4672E+02    11.4077   2.7420    95.8325
 48      0.0000     0.0000E+00    0.0000E+00    1.300000E+10  0.00040  3.283E-05    0   0.4870   age193_m32            0.0000     5.0642E+02    11.9952   2.6895    98.0968
 49      0.0000     0.0000E+00    0.0000E+00    1.500000E+10  0.00040  2.925E-05    0   0.4854   age201_m32            0.0000     5.5269E+02    12.5148   2.6703    99.3834
 50      0.0000     0.0000E+00    0.0000E+00    1.800000E+10  0.00040  2.469E-05    0   0.4819   age213_m32            0.0000     5.6629E+02    12.6329   2.6223    99.8286
 51      0.8940     6.9557E-04    1.3940E-03    1.000000E+06  0.00400  1.114E-02    0   1.0000   age020_m42            0.0000     5.7978E+03    47.3158   4.0000    90.9116
 52      0.0000     0.0000E+00    0.0000E+00    3.160000E+06  0.00400  4.073E-02    0   0.9999   age045_m42            0.0000     2.2765E+03    27.3673   4.0000   104.2289
 53      0.0000     0.0000E+00    0.0000E+00    5.010000E+06  0.00400  2.534E-02    0   0.9488   age055_m42            0.0000     3.5856E+03    36.8879   4.0000    99.2994
 54      0.1891     6.3453E-05    1.1725E-04    6.610000E+06  0.00400  2.583E-02    0   0.9220   age061_m42            0.0000     1.9247E+03    24.1679   4.0000   103.7441
 55      1.5955     8.1060E-04    1.4594E-03    8.710000E+06  0.00400  1.706E-02    0   0.8983   age067_m42            0.0000     1.7434E+03    24.1532   4.0000   101.1460
 56      0.9173     6.2551E-04    1.1110E-03    1.000000E+07  0.00400  1.271E-02    0   0.8862   age070_m42            0.0000     1.8502E+03    25.8028   4.0000    99.8426
 57      0.0000     0.0000E+00    0.0000E+00    1.445000E+07  0.00400  7.666E-03    0   0.8571   age078_m42            0.0000     2.7182E+03    32.4851   4.0000    98.8258
 58      0.0000     0.0000E+00    0.0000E+00    2.512000E+07  0.00400  5.070E-03    0   0.8174   age090_m42            0.0000     1.5247E+03    23.3002   4.0000   100.5700
 59      0.0000     0.0000E+00    0.0000E+00    4.000000E+07  0.00400  3.505E-03    0   0.7851   age104_m42            0.0000     9.8050E+02    17.4246   4.0000   100.3642
 60      0.0000     0.0000E+00    0.0000E+00    5.500000E+07  0.00400  3.059E-03    0   0.7629   age110_m42            0.0000     1.1100E+03    16.3443   4.0000   103.9392
 61      0.0000     0.0000E+00    0.0000E+00    1.015200E+08  0.00400  2.268E-03    0   0.7207   age116_m42            0.0000     1.4280E+03    19.4997   4.0000   106.7190
 62      0.0000     0.0000E+00    0.0000E+00    1.609000E+08  0.00400  1.720E-03    0   0.6930   age120_m42            0.0000     1.4042E+03    19.5294   4.0000   106.5685
 63      0.0000     0.0000E+00    0.0000E+00    2.861200E+08  0.00400  1.079E-03    0   0.6613   age125_m42            0.0000     1.3040E+03    19.3495   3.9068   103.5496
 64      0.0000     0.0000E+00    0.0000E+00    5.088000E+08  0.00400  6.261E-04    0   0.6313   age130_m42            0.0000     1.3997E+03    20.0899   3.7191   106.0473
 65      0.0000     0.0000E+00    0.0000E+00    9.047900E+08  0.00400  3.535E-04    0   0.6024   age135_m42            0.0000     1.0431E+03    17.1987   3.2682   107.0201
 66      0.0000     0.0000E+00    0.0000E+00    1.278050E+09  0.00400  2.677E-04    0   0.5837   age138_m42            0.0000     4.6593E+02    11.2025   2.3437   106.7721
 67      0.0000     0.0000E+00    0.0000E+00    1.434000E+09  0.00400  1.910E-04    0   0.5716   age139_m42            0.0000     6.0872E+02    12.5939   2.5639   107.1551
 68      0.0000     0.0000E+00    0.0000E+00    2.500000E+09  0.00400  9.818E-05    0   0.5463   age150_m42            0.0000     2.8465E+02     8.3158   2.2099   103.8083
 69      0.0000     0.0000E+00    0.0000E+00    4.250000E+09  0.00400  5.491E-05    0   0.5269   age158_m42            0.0000     1.8243E+02     6.6111   2.0746   101.4551
 70      0.0000     0.0000E+00    0.0000E+00    6.250000E+09  0.00400  3.857E-05    0   0.5151   age166_m42            0.0000     1.2950E+02     5.6556   1.8892   100.6338
 71      0.0000     0.0000E+00    0.0000E+00    7.500000E+09  0.00400  3.243E-05    0   0.5110   age171_m42            0.0000     1.0537E+02     5.2144   1.7740   100.3467
 72      0.0000     0.0000E+00    0.0000E+00    1.000000E+10  0.00400  2.424E-05    0   0.5028   age181_m42            0.0000     7.9610E+01     4.8137   1.6548   100.0210
 73      0.0000     0.0000E+00    0.0000E+00    1.300000E+10  0.00400  1.883E-05    0   0.4927   age193_m42            0.0000     6.4856E+01     4.5986   1.5973    99.8584
 74      0.0000     0.0000E+00    0.0000E+00    1.500000E+10  0.00400  1.685E-05    0   0.4919   age201_m42            0.0000     6.8223E+01     4.5958   1.6133    99.7883
 75      0.0000     0.0000E+00    0.0000E+00    1.800000E+10  0.00400  1.452E-05    0   0.4874   age213_m42            0.0000     7.5583E+01     4.6414   1.6489    99.8884
 76      0.0000     0.0000E+00    0.0000E+00    1.000000E+06  0.00800  1.286E-02    0   1.0000   age020_m52            0.0000     5.5857E+03    46.3999   4.0000    92.8674
 77      0.0000     0.0000E+00    0.0000E+00    3.160000E+06  0.00800  3.147E-02    0   0.9966   age045_m52            0.0000     5.3117E+03    45.2361   4.0000    94.5684
 78      0.0000     0.0000E+00    0.0000E+00    5.010000E+06  0.00800  2.664E-02    0   0.9443   age055_m52            0.0000     4.0089E+03    39.4151   4.0000    98.4163
 79      0.0000     0.0000E+00    0.0000E+00    6.610000E+06  0.00800  2.151E-02    0   0.9177   age061_m52            0.0000     9.8764E+02    18.8600   4.0000    98.6717
 80      0.0000     0.0000E+00    0.0000E+00    8.710000E+06  0.00800  1.628E-02    0   0.8948   age067_m52            0.0000     1.6819E+03    24.4440   4.0000   101.4022
 81      0.0000     0.0000E+00    0.0000E+00    1.000000E+07  0.00800  1.215E-02    0   0.8827   age070_m52            0.0000     2.4490E+03    30.3331   4.0000   101.4112
 82      0.0000     0.0000E+00    0.0000E+00    1.445000E+07  0.00800  8.739E-03    0   0.8552   age078_m52            0.0000     2.4826E+03    29.9976   4.0000   102.7615
 83      0.0000     0.0000E+00    0.0000E+00    2.512000E+07  0.00800  5.676E-03    0   0.8162   age090_m52            0.0000     1.7371E+03    22.5558   4.0000   104.6070
 84      0.0000     0.0000E+00    0.0000E+00    4.000000E+07  0.00800  3.939E-03    0   0.7841   age104_m52            0.0000     1.4688E+03    19.2208   4.0000   105.3580
 85      0.0000     0.0000E+00    0.0000E+00    5.500000E+07  0.00800  3.155E-03    0   0.7627   age110_m52            0.0000     1.4374E+03    18.4025   4.0000   106.3955
 86      0.0000     0.0000E+00    0.0000E+00    1.015200E+08  0.00800  2.206E-03    0   0.7226   age116_m52            0.0000     1.3698E+03    18.3038   4.0000   107.5641
 87      0.0000     0.0000E+00    0.0000E+00    1.609000E+08  0.00800  1.596E-03    0   0.6963   age120_m52            0.0000     1.3105E+03    18.6891   4.0000   106.4861
 88      0.0000     0.0000E+00    0.0000E+00    2.861200E+08  0.00800  1.002E-03    0   0.6665   age125_m52            0.0000     1.4294E+03    19.9452   3.8717   106.0663
 89      0.0000     0.0000E+00    0.0000E+00    5.088000E+08  0.00800  5.759E-04    0   0.6377   age130_m52            0.0000     1.3935E+03    19.0631   3.4153   110.7379
 90      0.0000     0.0000E+00    0.0000E+00    9.047900E+08  0.00800  2.972E-04    0   0.6086   age135_m52            0.0000     8.4837E+02    14.2131   2.7288   111.2064
 91      0.0000     0.0000E+00    0.0000E+00    1.278050E+09  0.00800  2.242E-04    0   0.5907   age138_m52            0.0000     3.6828E+02     9.6529   2.0459   110.6663
 92      0.0000     0.0000E+00    0.0000E+00    1.434000E+09  0.00800  1.645E-04    0   0.5787   age139_m52            0.0000     3.8984E+02     9.6655   2.2423   109.7879
 93      0.1826     2.0493E-02    2.2667E-02    2.500000E+09  0.00800  7.723E-05    0   0.5519   age150_m52            0.0000     1.7636E+02     6.8196   1.8417   107.0352
 94      0.0000     0.0000E+00    0.0000E+00    4.250000E+09  0.00800  4.151E-05    0   0.5320   age158_m52            0.0000     1.2833E+02     5.9584   1.7663   104.7053
 95      0.4712     1.3569E-01    1.4133E-01    6.250000E+09  0.00800  3.010E-05    0   0.5197   age166_m52            0.0000     7.0074E+01     5.0026   1.4973   103.9668
 96      0.0711     2.4968E-02    2.5715E-02    7.500000E+09  0.00800  2.467E-05    0   0.5139   age171_m52            0.0000     6.0488E+01     4.8861   1.4324   103.7503
 97      0.0188     8.7605E-03    8.8736E-03    1.000000E+10  0.00800  1.862E-05    0   0.5054   age181_m52            0.0000     4.2993E+01     4.7931   1.2359   103.8739
 98      0.0084     5.0912E-03    5.0896E-03    1.300000E+10  0.00800  1.433E-05    0   0.4988   age193_m52            0.0000     3.2557E+01     5.0307   1.0852   105.0087
 99      0.0000     0.0000E+00    0.0000E+00    1.500000E+10  0.00800  1.244E-05    0   0.4936   age201_m52            0.0000     3.1443E+01     5.2426   1.0377   105.6476
100      0.0000     0.0000E+00    0.0000E+00    1.800000E+10  0.00800  1.070E-05    0   0.4888   age213_m52            0.0000     3.1980E+01     5.4417   0.9847   105.6470
101      0.0000     0.0000E+00    0.0000E+00    1.000000E+06  0.02000  1.989E-02    0   1.0000   age020_m62            0.0000     5.6446E+03    46.5215   4.0000    91.9542
102      0.0000     0.0000E+00    0.0000E+00    3.160000E+06  0.02000  3.772E-02    0   0.9858   age045_m62            0.0000     5.1208E+03    44.6135   4.0000    94.4249
103      0.0000     0.0000E+00    0.0000E+00    5.010000E+06  0.02000  3.227E-02    0   0.9342   age055_m62            0.0000     3.0157E+03    33.3838   4.0000   101.8934
104      0.5563     2.0198E-04    3.6797E-04    6.610000E+06  0.02000  2.387E-02    0   0.9090   age061_m62            0.0000     2.7501E+03    32.1853   4.0000   100.4380
105      0.0000     0.0000E+00    0.0000E+00    8.710000E+06  0.02000  1.102E-02    0   0.8861   age067_m62            0.0000     2.7480E+03    33.1011   4.0000    95.1233
106      0.0000     0.0000E+00    0.0000E+00    1.000000E+07  0.02000  1.011E-02    0   0.8751   age070_m62            0.0000     2.3730E+03    30.5575   4.0000    97.4022
107      0.0000     0.0000E+00    0.0000E+00    1.445000E+07  0.02000  7.331E-03    0   0.8472   age078_m62            0.0000     2.1041E+03    28.5972   4.0000    98.6989
108      0.0000     2.8868E-08    4.6858E-08    2.512000E+07  0.02000  4.206E-03    0   0.8099   age090_m62            0.0000     1.9324E+03    27.6748   4.0000    97.6248
109      0.0000     0.0000E+00    0.0000E+00    4.000000E+07  0.02000  3.373E-03    0   0.7799   age104_m62            0.0000     1.3215E+03    19.8346   4.0000   103.5743
110      0.0000     0.0000E+00    0.0000E+00    5.500000E+07  0.02000  2.747E-03    0   0.7595   age110_m62            0.0000     1.2919E+03    17.7905   4.0000   105.6222
111      0.0000     0.0000E+00    0.0000E+00    1.015200E+08  0.02000  1.878E-03    0   0.7221   age116_m62            0.0000     1.4273E+03    18.8906   4.0000   107.8827
112      0.0000     0.0000E+00    0.0000E+00    1.609000E+08  0.02000  1.378E-03    0   0.6978   age120_m62            0.0000     1.5242E+03    20.1342   4.0000   108.0984
113      0.0000     0.0000E+00    0.0000E+00    2.861200E+08  0.02000  8.869E-04    0   0.6700   age125_m62            0.0000     1.7513E+03    21.8743   3.8823   108.0862
114      0.0000     0.0000E+00    0.0000E+00    5.088000E+08  0.02000  4.834E-04    0   0.6430   age130_m62            0.0000     1.4721E+03    19.2103   3.2632   112.0981
115      0.0000     0.0000E+00    0.0000E+00    9.047900E+08  0.02000  2.312E-04    0   0.6152   age135_m62            0.0000     8.1307E+02    13.8080   2.5579   112.5811
116      0.6553     4.0950E-02    4.8644E-02    1.278050E+09  0.02000  1.387E-04    0   0.5927   age138_m62            0.0000     4.1359E+02     9.6426   2.1272   109.2424
117      0.0000     0.0000E+00    0.0000E+00    1.434000E+09  0.02000  1.168E-04    0   0.5865   age139_m62            0.0000     3.4393E+02     8.7345   2.0865   107.9454
118      1.0133     1.5954E-01    1.7937E-01    2.500000E+09  0.02000  5.505E-05    0   0.5610   age150_m62            0.0000     1.3741E+02     6.0315   1.6001   106.2504
119      5.5545     1.5682E+00    1.6994E+00    4.250000E+09  0.02000  3.070E-05    0   0.5407   age158_m62            0.0000     6.0658E+01     5.4743   1.1560   107.5057
120      0.8862     3.6507E-01    3.8610E-01    6.250000E+09  0.02000  2.104E-05    0   0.5277   age166_m62            0.0000     4.6962E+01     5.9097   0.9609   108.5426
121      3.8991     1.9093E+00    1.9986E+00    7.500000E+09  0.02000  1.770E-05    0   0.5223   age171_m62            0.0000     4.8872E+01     6.3213   0.8367   109.2252
122     17.0337     1.1383E+01    1.1683E+01    1.000000E+10  0.02000  1.297E-05    0   0.5121   age181_m62            0.0000     6.2161E+01     7.4238   0.6066   110.3634
123      4.2827     3.8303E+00    3.8744E+00    1.300000E+10  0.02000  9.691E-06    0   0.5047   age193_m62            0.0000     7.8448E+01     8.1855   0.4782   111.1482
124      1.5960     1.6547E+00    1.6578E+00    1.500000E+10  0.02000  8.360E-06    0   0.4999   age201_m62            0.0000     9.7541E+01     8.8517   0.3661   111.7942
125     28.0902     3.5229E+01    3.4921E+01    1.800000E+10  0.02000  6.911E-06    0   0.4946   age213_m62            0.0000     1.2617E+02     9.6894   0.2362   112.6354
126      0.0000     0.0000E+00    0.0000E+00    1.000000E+06  0.05000  2.651E-02    0   0.9998   age020_m72            0.0000     5.5172E+03    46.0201   4.0000    93.1487
127      0.0000     0.0000E+00    0.0000E+00    3.160000E+06  0.05000  4.817E-02    0   0.9577   age045_m72            0.0000     4.3724E+03    40.9854   4.0000    98.2616
128      0.0000     0.0000E+00    0.0000E+00    5.010000E+06  0.05000  3.101E-02    0   0.9147   age055_m72            0.0000     3.3996E+03    35.9596   4.0000   100.5042
129      0.0000     0.0000E+00    0.0000E+00    6.610000E+06  0.05000  1.472E-02    0   0.8877   age061_m72            0.0000     2.9582E+03    33.9609   4.0000    97.5819
130      0.0000     0.0000E+00    0.0000E+00    8.710000E+06  0.05000  1.050E-02    0   0.8638   age067_m72            0.0000     3.4850E+03    36.8635   4.0000    99.0765
131      0.0000     0.0000E+00    0.0000E+00    1.000000E+07  0.05000  8.954E-03    0   0.8524   age070_m72            0.0000     3.8291E+03    38.6148   4.0000    99.8824
132      0.0000     0.0000E+00    0.0000E+00    1.445000E+07  0.05000  6.392E-03    0   0.8262   age078_m72            0.0000     3.5161E+03    37.0144   4.0000   100.9833
133      0.0000     0.0000E+00    0.0000E+00    2.512000E+07  0.05000  4.207E-03    0   0.7902   age090_m72            0.0000     2.3661E+03    29.6244   4.0000   104.2787
134      0.0000     0.0000E+00    0.0000E+00    4.000000E+07  0.05000  3.198E-03    0   0.7618   age104_m72            0.0000     1.5168E+03    18.9967   4.0000   107.8751
135      0.0000     0.0000E+00    0.0000E+00    5.500000E+07  0.05000  2.593E-03    0   0.7432   age110_m72            0.0000     1.5484E+03    19.1141   4.0000   108.6174
136      0.0000     0.0000E+00    0.0000E+00    1.015200E+08  0.05000  1.716E-03    0   0.7092   age116_m72            0.0000     1.6018E+03    19.8592   4.0000   108.9487
137      0.0000     0.0000E+00    0.0000E+00    1.609000E+08  0.05000  1.218E-03    0   0.6876   age120_m72            0.0000     1.6316E+03    20.7303   4.0000   107.9454
138      0.0000     0.0000E+00    0.0000E+00    2.861200E+08  0.05000  7.047E-04    0   0.6618   age125_m72            0.0000     1.6603E+03    20.7356   3.5779   109.2122
139      0.0000     0.0000E+00    0.0000E+00    5.088000E+08  0.05000  3.590E-04    0   0.6356   age130_m72            0.0000     1.2469E+03    17.0346   2.8242   113.4504
140      0.0000     0.0000E+00    0.0000E+00    9.047900E+08  0.05000  1.484E-04    0   0.6088   age135_m72            0.0000     3.9550E+02     9.7423   1.9143   109.6343
141      0.0000     0.0000E+00    0.0000E+00    1.278050E+09  0.05000  9.435E-05    0   0.5924   age138_m72            0.0000     1.6588E+02     7.1117   1.3607   108.2483
142      0.3420     3.7875E-02    4.4384E-02    1.434000E+09  0.05000  7.827E-05    0   0.5847   age139_m72            0.0000     1.3527E+02     6.5628   1.3886   107.6722
143      0.8364     1.9286E-01    2.1580E-01    2.500000E+09  0.05000  3.759E-05    0   0.5583   age150_m72            0.0000     5.0100E+01     5.7157   0.9669   108.0663
144      1.1675     5.4933E-01    5.9166E-01    4.250000E+09  0.05000  1.842E-05    0   0.5374   age158_m72            0.0000     5.4485E+01     6.9794   0.5657   108.4686
145      1.2928     9.2835E-01    9.7532E-01    6.250000E+09  0.05000  1.207E-05    0   0.5242   age166_m72            0.0000     9.0558E+01     8.5268   0.2051   109.2389
146      1.8881     1.6376E+00    1.7011E+00    7.500000E+09  0.05000  9.993E-06    0   0.5183   age171_m72            0.0000     9.6240E+01     8.6900   0.1414   109.3657
147      0.4591     5.4578E-01    5.5578E-01    1.000000E+10  0.05000  7.291E-06    0   0.5081   age181_m72            0.0000     1.3138E+02     9.7386  -0.0825   110.1890
148      0.0171     2.7961E-02    2.8120E-02    1.300000E+10  0.05000  5.316E-06    0   0.5018   age193_m72            0.0000     1.9736E+02    11.3208  -0.4138   111.6168
149      0.0000     0.0000E+00    0.0000E+00    1.500000E+10  0.05000  4.497E-06    0   0.4972   age201_m72            0.0000     2.3507E+02    12.1379  -0.5619   112.7091
150     16.7598     3.8851E+01    3.8340E+01    1.800000E+10  0.05000  3.739E-06    0   0.4924   age213_m72            0.0000     2.8305E+02    13.0924  -0.7632   114.0152


## Synthesis Results - Average & Chains ##

# j      x_j: min, <> & last-chain-values for 1 ...  7 chains
  1      5.1981      5.2269      5.5264      5.2569      5.1891      5.1168      5.1662      5.1459      5.2992
  2      1.3919      0.4224      0.3105      0.6158      0.3354      0.4976      0.5153      0.9121      0.0000
  3      1.5733      0.6856      0.5640      0.9663      0.7030      0.5458      0.6805      0.7946      0.9176
  4      0.0000      0.0188      0.0000      0.0000      0.0000      0.0000      0.0000      0.0000      0.1242
  5      0.0000      0.0387      0.0000      0.0000      0.3475      0.0000      0.0000      0.0000      0.0896
  6      0.0000      0.1039      0.0000      0.2446      0.1265      0.3771      0.0000      0.1761      0.0000
  7      0.0000      0.1069      0.2208      0.0415      0.0234      0.1493      0.1714      0.0106      0.0000
  8      0.0000      0.0235      0.0000      0.0077      0.1830      0.0000      0.0000      0.0000      0.0000
  9      0.0000      0.0263      0.2175      0.0000      0.0881      0.0000      0.0000      0.0000      0.0000
 10      0.0000      0.0186      0.0000      0.0000      0.0000      0.0000      0.0000      0.0000      0.0000
 11      0.0000      0.0155      0.0115      0.1830      0.0000      0.0000      0.0000      0.0000      0.0000
 12      0.0000      0.0223      0.0000      0.0000      0.0817      0.0000      0.0000      0.0000      0.0000
 13      0.0000      0.0108      0.0000      0.0496      0.0000      0.0000      0.0000      0.0000      0.0329
 14      0.0000      0.0094      0.0000      0.0000      0.0000      0.0000      0.0000      0.0000      0.0000
 15      0.0000      0.0091      0.0000      0.0000      0.0000      0.0000      0.0000      0.0183      0.0000
 16      0.0000      0.0134      0.0000      0.0000      0.0000      0.0000      0.1158      0.0000      0.0000
 17      0.0000      0.0106      0.0000      0.0000      0.0000      0.1715      0.0000      0.0000      0.0000
 18      0.0000      0.0188      0.0000      0.0000      0.0000      0.0042      0.0000      0.0000      0.0000
 19      0.0000      0.0290      0.2599      0.0000      0.0017      0.0000      0.0000      0.0069      0.0000
 20      0.0000      0.0574      0.0000      0.0000      0.1585      0.0000      0.0000      0.0437      0.2884
 21      0.0000      0.0648      0.0000      0.0000      0.0000      0.0000      0.0000      0.0000      0.0000
 22      0.0000      0.0451      0.0000      0.0000      0.0247      0.0000      0.0000      0.0000      0.0000
 23      0.0000      0.0313      0.0000      0.0000      0.0340      0.0000      0.0000      0.0117      0.0000
 24      0.1650      0.0630      0.0526      0.0480      0.0268      0.0225      0.3052      0.0000      0.0000
 25      0.0000      0.0692      0.0000      0.0000      0.0000      0.0000      0.1155      0.1391      0.2206
 26      1.3045      1.2284      1.2712      1.2229      1.4405      1.3786      1.4246      1.1101      1.2389
 27      0.0000      0.0154      0.0000      0.0112      0.0000      0.0097      0.0000      0.0000      0.0000
 28      0.0000      0.0198      0.0000      0.0743      0.0000      0.0000      0.0000      0.0000      0.0000
 29      0.0009      0.0565      0.2129      0.0000      0.0000      0.0000      0.2123      0.1847      0.0026
 30      0.0000      0.0300      0.0000      0.0000      0.0000      0.0090      0.0000      0.1032      0.0000
 31      0.0000      0.0246      0.0617      0.0000      0.0000      0.0000      0.0244      0.0740      0.0000
 32      0.0000      0.0533      0.2180      0.0592      0.1457      0.0613      0.1734      0.0000      0.2870
 33      0.0068      0.0317      0.0000      0.0000      0.0000      0.0000      0.2436      0.0000      0.2343
 34      0.0000      0.0269      0.2108      0.0000      0.0053      0.0000      0.0000      0.0180      0.0000
 35      0.0000      0.0232      0.0000      0.0000      0.0157      0.1116      0.0000      0.0000      0.0069
 36      0.0000      0.0091      0.0000      0.0000      0.0000      0.0000      0.0000      0.0000      0.0000
 37      0.0000      0.0097      0.0000      0.0035      0.0000      0.0000      0.0000      0.0000      0.0000
 38      0.0000      0.0092      0.0000      0.0000      0.0000      0.0000      0.0000      0.1502      0.0083
 39      0.0000      0.0190      0.0214      0.0391      0.0000      0.0000      0.0000      0.0222      0.0000
 40      0.0000      0.0167      0.0000      0.1081      0.0048      0.0000      0.0000      0.0000      0.0000
 41      0.0000      0.0186      0.0000      0.0000      0.0877      0.0000      0.0000      0.0000      0.0135
 42      0.0000      0.0115      0.0000      0.0000      0.0000      0.0000      0.0000      0.0000      0.0000
 43      0.0000      0.0343      0.0000      0.2720      0.0000      0.0000      0.0000      0.1001      0.0000
 44      0.0000      0.0368      0.0000      0.0257      0.0000      0.0000      0.0000      0.0000      0.0000
 45      0.0000      0.0890      0.0000      0.0945      0.0000      0.3411      0.0000      0.0000      0.0000
 46      0.0000      0.1153      0.3604      0.0000      0.0877      0.0000      0.0171      0.0000      0.2232
 47      3.8383      3.5667      3.7184      3.2798      3.1652      3.8862      3.1143      3.6312      3.6336
 48      0.0000      0.0856      0.0000      0.1297      0.0000      0.0576      0.0154      0.3625      0.1527
 49      0.0000      0.0836      0.4010      0.5717      0.0000      0.1541      0.0000      0.1159      0.0136
 50      0.0000      0.0383      0.0000      0.0000      0.0000      0.0000      0.1486      0.0000      0.0000
 51      0.8940      0.7339      0.6904      0.8444      0.7642      0.7798      0.9687      1.0326      0.6057
 52      0.0000      0.0635      0.0019      0.0000      0.0949      0.1914      0.1214      0.0000      0.0000
 53      0.0000      0.0365      0.0000      0.0000      0.1370      0.0000      0.0000      0.0004      0.2324
 54      0.1891      0.1024      0.0000      0.0000      0.1829      0.0000      0.2715      0.0000      0.2165
 55      1.5955      1.6592      1.7483      1.7048      1.6043      1.7346      1.7440      1.4998      1.4215
 56      0.9173      0.7016      0.6218      0.7562      0.7038      0.7534      0.5020      0.6698      0.7282
 57      0.0000      0.0299      0.0000      0.1431      0.0000      0.0000      0.0000      0.0000      0.1591
 58      0.0000      0.0188      0.0000      0.0329      0.0000      0.0000      0.0000      0.0000      0.0000
 59      0.0000      0.0175      0.0000      0.0000      0.0740      0.0000      0.0000      0.0000      0.0000
 60      0.0000      0.0231      0.0000      0.0000      0.0000      0.0000      0.0000      0.0000      0.0000
 61      0.0000      0.0114      0.0000      0.0000      0.0000      0.0000      0.1620      0.0000      0.0000
 62      0.0000      0.0073      0.0000      0.0000      0.0265      0.0000      0.0000      0.0000      0.0000
 63      0.0000      0.0093      0.0000      0.0000      0.0000      0.0000      0.0000      0.0000      0.0000
 64      0.0000      0.0088      0.0000      0.0000      0.0000      0.2008      0.0000      0.0000      0.0000
 65      0.0000      0.0097      0.0000      0.0000      0.0347      0.0000      0.0000      0.0000      0.0000
 66      0.0000      0.0207      0.0000      0.0000      0.0000      0.0000      0.0000      0.0000      0.0000
 67      0.0000      0.0156      0.0000      0.0000      0.0000      0.1677      0.0000      0.0000      0.0000
 68      0.0000      0.0593      0.0000      0.0000      0.0000      0.0000      0.0000      0.1209      0.0000
 69      0.0000      0.0626      0.0121      0.0229      0.0548      0.0000      0.0000      0.0000      0.1804
 70      0.0000      0.0472      0.0000      0.0000      0.0000      0.0000      0.0000      0.0000      0.0000
 71      0.0000      0.0478      0.0046      0.0000      0.0000      0.0000      0.0000      0.0000      0.0000
 72      0.0000      0.0419      0.0000      0.0000      0.0000      0.0000      0.0000      0.0000      0.0000
 73      0.0000      0.0526      0.0000      0.0000      0.0000      0.0000      0.0000      0.0000      0.0761
 74      0.0000      0.0580      0.0000      0.0000      0.0000      0.0361      0.0000      0.0000      0.0582
 75      0.0000      0.0394      0.0000      0.0000      0.0000      0.0000      0.0000      0.0000      0.0000
 76      0.0000      0.0390      0.0000      0.0000      0.0000      0.0000      0.0000      0.0000      0.0000
 77      0.0000      0.0264      0.0000      0.2861      0.0000      0.0000      0.0000      0.0000      0.0000
 78      0.0000      0.0356      0.0986      0.0484      0.0000      0.0000      0.0147      0.0000      0.0000
 79      0.0000      0.0235      0.0000      0.0000      0.0000      0.0000      0.0000      0.0000      0.0000
 80      0.0000      0.0822      0.0000      0.0000      0.2435      0.0000      0.0000      0.0000      0.0369
 81      0.0000      0.0224      0.1435      0.0000      0.0000      0.0000      0.0000      0.0000      0.0012
 82      0.0000      0.0306      0.0000      0.0138      0.0660      0.0000      0.0000      0.0000      0.0000
 83      0.0000      0.0193      0.0909      0.0000      0.0000      0.0000      0.0000      0.0000      0.0000
 84      0.0000      0.0246      0.0000      0.1390      0.0070      0.0000      0.0894      0.0000      0.0000
 85      0.0000      0.0102      0.0000      0.1025      0.0000      0.0272      0.0000      0.0000      0.0000
 86      0.0000      0.0153      0.0000      0.0000      0.0859      0.0000      0.0000      0.0488      0.0000
 87      0.0000      0.0067      0.0000      0.0000      0.0000      0.0000      0.0000      0.0000      0.0000
 88      0.0000      0.0103      0.0729      0.0000      0.0000      0.0000      0.0000      0.0000      0.0000
 89      0.0000      0.0117      0.0000      0.0000      0.0000      0.0000      0.0000      0.0000      0.0000
 90      0.0000      0.0339      0.0000      0.0467      0.0040      0.0000      0.0000      0.0000      0.2206
 91      0.0000      0.0836      0.0000      0.0074      0.0000      0.0484      0.0000      0.0000      0.2204
 92      0.0000      0.0449      0.0000      0.0000      0.0000      0.0000      0.1134      0.0000      0.1187
 93      0.1826      0.1274      0.0000      0.0000      0.0339      0.2304      0.3733      0.0000      0.0000
 94      0.0000      0.1870      0.0577      0.0466      0.0786      0.4159      0.0690      0.2857      0.3025
 95      0.4712      0.2476      0.2688      0.4303      0.5857      0.4907      0.1820      0.0000      0.8071
 96      0.0711      0.2672      0.3795      0.3508      0.1375      0.3610      0.5194      0.3031      0.2262
 97      0.0188      0.3102      0.0000      0.5128      0.5986      0.4647      0.4937      0.0000      0.3528
 98      0.0084      0.3075      0.2487      0.1504      1.5967      0.2508      0.3449      0.5349      0.0000
 99      0.0000      0.2324      0.4519      0.5175      0.0000      0.0000      0.0000      0.9090      0.1248
100      0.0000      0.2297      0.0000      0.3159      0.0000      0.0000      0.0553      0.0000      0.0000
101      0.0000      0.0579      0.0000      0.0000      0.0000      0.0000      0.1572      0.0000      0.0000
102      0.0000      0.0384      0.0000      0.0000      0.0000      0.0592      0.0637      0.0000      0.1535
103      0.0000      0.0235      0.0000      0.0118      0.1808      0.0000      0.0000      0.0000      0.1216
104      0.5563      0.2861      0.3876      0.1099      0.0000      0.5086      0.2650      0.3554      0.3284
105      0.0000      0.0354      0.0000      0.0000      0.0000      0.1065      0.0000      0.0000      0.0000
106      0.0000      0.0244      0.0019      0.0000      0.0585      0.0548      0.0000      0.0000      0.0000
107      0.0000      0.0255      0.0000      0.0000      0.0000      0.0000      0.0000      0.0864      0.0000
108      0.0000      0.0294      0.0000      0.0000      0.0000      0.0000      0.1748      0.0000      0.0000
109      0.0000      0.0135      0.0151      0.0000      0.0000      0.0000      0.0000      0.0000      0.0411
110      0.0000      0.0117      0.0000      0.0000      0.0000      0.0000      0.0000      0.0000      0.0000
111      0.0000      0.0088      0.0000      0.0517      0.0000      0.0000      0.0000      0.1733      0.0000
112      0.0000      0.0086      0.0000      0.0000      0.0000      0.0000      0.0000      0.0000      0.0000
113      0.0000      0.0078      0.0000      0.0063      0.0000      0.0000      0.0000      0.0000      0.0000
114      0.0000      0.0122      0.0000      0.0000      0.0000      0.0000      0.0000      0.0000      0.0000
115      0.0000      0.0332      0.0000      0.2687      0.0000      0.0000      0.0000      0.1253      0.1197
116      0.6553      0.0540      0.0000      0.2383      0.7973      0.0941      0.3319      0.0000      0.2635
117      0.0000      0.0880      0.0648      0.0361      0.1190      0.0000      0.0000      0.0000      0.0000
118      1.0133      0.1634      0.3622      0.1570      0.3012      0.0548      0.2371      0.3528      0.4057
119      5.5545      6.6474      7.3674      5.6337      6.3008      7.9955      6.4477      6.1834      6.4977
120      0.8862      0.4476      0.6213      0.4967      0.1253      0.3241      0.3210      1.6704      0.3468
121      3.8991      4.9843      4.6639      5.6537      5.1733      4.7543      5.8635      4.9851      5.0520
122     17.0337     15.7627     14.9139     15.9592     16.0383     15.3335     14.4372     16.0869     16.4292
123      4.2827      3.5724      4.6018      3.0934      4.2663      3.3464      4.0628      2.7036      3.3032
124      1.5960      3.1037      3.1238      3.0630      2.3753      2.7478      3.1101      2.6832      2.7520
125     28.0902     27.1559     26.8659     27.0781     27.2634     28.1003     27.2541     26.7664     27.4535
126      0.0000      0.0151      0.0000      0.0000      0.0000      0.0000      0.0000      0.0908      0.0089
127      0.0000      0.1242      0.0622      0.0253      0.0382      0.0000      0.0402      0.4381      0.1562
128      0.0000      0.0249      0.0000      0.0174      0.0000      0.0000      0.0000      0.0387      0.0000
129      0.0000      0.0658      0.0000      0.1031      0.0000      0.2450      0.0000      0.0000      0.0755
130      0.0000      0.0247      0.0000      0.0123      0.0000      0.0000      0.0000      0.0000      0.0000
131      0.0000      0.0184      0.0000      0.0000      0.1035      0.0194      0.0000      0.0000      0.0000
132      0.0000      0.0139      0.0000      0.0000      0.0000      0.0000      0.0000      0.0000      0.0000
133      0.0000      0.0250      0.0201      0.0000      0.0000      0.0000      0.0000      0.0000      0.0000
134      0.0000      0.0095      0.0000      0.0000      0.0000      0.0000      0.0000      0.0000      0.0000
135      0.0000      0.0186      0.0000      0.0000      0.0000      0.0000      0.0000      0.0000      0.0000
136      0.0000      0.0256      0.0000      0.0000      0.4170      0.0000      0.0000      0.0000      0.0000
137      0.0000      0.0061      0.0000      0.0000      0.0000      0.0000      0.0000      0.0000      0.0053
138      0.0000      0.0106      0.0000      0.0000      0.0819      0.0000      0.0557      0.0000      0.0000
139      0.0000      0.0139      0.0000      0.0000      0.0000      0.0000      0.1130      0.0000      0.0000
140      0.0000      0.0874      0.1765      0.0972      0.0000      0.0429      0.1005      0.0000      0.0323
141      0.0000      0.1710      0.1831      0.2059      0.0000      0.0000      0.0723      0.0352      0.4469
142      0.3420      0.2082      0.6880      0.0000      0.0618      0.0000      1.4747      0.7939      0.0000
143      0.8364      0.5352      0.5158      0.5340      0.6830      0.6555      0.8636      0.8189      0.2250
144      1.1675      0.4181      0.5721      1.1036      0.1851      0.6583      0.1756      0.0000      0.8452
145      1.2928      0.4106      0.3704      0.5501      0.7021      0.3395      0.4622      0.3602      0.0830
146      1.8881      0.7403      0.9612      0.8818      0.6701      0.0000      0.5946      1.5378      1.1402
147      0.4591      0.2804      0.0387      0.0000      0.0000      0.1367      0.4249      0.0436      0.4986
148      0.0171      0.2108      0.0000      0.2570      0.1587      0.4341      0.2578      0.0000      0.0538
149      0.0000      0.1610      0.1897      0.0000      0.0588      0.2306      0.0000      0.0629      0.0000
150     16.7598     19.0147     18.9912     18.8968     18.7573     19.0103     18.4304     19.3054     18.6198

# j      m_j: min, <> & last-chain-values for 1 ...  7 chains
  1  1.1066E-02  1.0726E-02  1.1388E-02  1.0837E-02  1.0730E-02  1.0501E-02  1.0776E-02  1.0612E-02  1.0979E-02
  2  5.0806E-04  1.4863E-04  1.0970E-04  2.1765E-04  1.1893E-04  1.7509E-04  1.8431E-04  3.2250E-04  0.0000E+00
  3  1.3555E-03  5.6935E-04  4.7040E-04  8.0615E-04  5.8835E-04  4.5333E-04  5.7443E-04  6.6313E-04  7.6943E-04
  4  0.0000E+00  2.9302E-05  0.0000E+00  0.0000E+00  0.0000E+00  0.0000E+00  0.0000E+00  0.0000E+00  1.9578E-04
  5  0.0000E+00  7.6041E-05  0.0000E+00  0.0000E+00  6.8857E-04  0.0000E+00  0.0000E+00  0.0000E+00  1.7792E-04
  6  0.0000E+00  2.4297E-04  0.0000E+00  5.7462E-04  2.9796E-04  8.8184E-04  0.0000E+00  4.1385E-04  0.0000E+00
  7  0.0000E+00  3.1543E-04  6.5439E-04  1.2307E-04  6.9541E-05  4.4062E-04  5.1414E-04  3.1407E-05  0.0000E+00
  8  0.0000E+00  7.8545E-05  0.0000E+00  2.5829E-05  6.1533E-04  0.0000E+00  0.0000E+00  0.0000E+00  0.0000E+00
  9  0.0000E+00  9.4473E-05  7.8371E-04  0.0000E+00  3.1858E-04  0.0000E+00  0.0000E+00  0.0000E+00  0.0000E+00
 10  0.0000E+00  7.6606E-05  0.0000E+00  0.0000E+00  0.0000E+00  0.0000E+00  0.0000E+00  0.0000E+00  0.0000E+00
 11  0.0000E+00  7.6400E-05  5.6845E-05  9.0380E-04  0.0000E+00  0.0000E+00  0.0000E+00  0.0000E+00  0.0000E+00
 12  0.0000E+00  1.9178E-04  0.0000E+00  0.0000E+00  7.0844E-04  0.0000E+00  0.0000E+00  0.0000E+00  0.0000E+00
 13  0.0000E+00  1.0807E-04  0.0000E+00  4.9795E-04  0.0000E+00  0.0000E+00  0.0000E+00  0.0000E+00  3.3148E-04
 14  0.0000E+00  1.3268E-04  0.0000E+00  0.0000E+00  0.0000E+00  0.0000E+00  0.0000E+00  0.0000E+00  0.0000E+00
 15  0.0000E+00  1.9386E-04  0.0000E+00  0.0000E+00  0.0000E+00  0.0000E+00  0.0000E+00  3.9273E-04  0.0000E+00
 16  0.0000E+00  4.1394E-04  0.0000E+00  0.0000E+00  0.0000E+00  0.0000E+00  3.6482E-03  0.0000E+00  0.0000E+00
 17  0.0000E+00  3.6524E-04  0.0000E+00  0.0000E+00  0.0000E+00  5.9041E-03  0.0000E+00  0.0000E+00  0.0000E+00
 18  0.0000E+00  1.0526E-03  0.0000E+00  0.0000E+00  0.0000E+00  2.3612E-04  0.0000E+00  0.0000E+00  0.0000E+00
 19  0.0000E+00  2.4676E-03  2.2180E-02  0.0000E+00  1.4480E-04  0.0000E+00  0.0000E+00  5.9274E-04  0.0000E+00
 20  0.0000E+00  6.9740E-03  0.0000E+00  0.0000E+00  1.9410E-02  0.0000E+00  0.0000E+00  5.3428E-03  3.5382E-02
 21  0.0000E+00  9.1069E-03  0.0000E+00  0.0000E+00  0.0000E+00  0.0000E+00  0.0000E+00  0.0000E+00  0.0000E+00
 22  0.0000E+00  8.1739E-03  0.0000E+00  0.0000E+00  4.5108E-03  0.0000E+00  0.0000E+00  0.0000E+00  0.0000E+00
 23  0.0000E+00  7.1868E-03  0.0000E+00  0.0000E+00  7.8772E-03  0.0000E+00  0.0000E+00  2.7043E-03  0.0000E+00
 24  4.5002E-02  1.6573E-02  1.3886E-02  1.2682E-02  7.0938E-03  5.9125E-03  8.1572E-02  0.0000E+00  0.0000E+00
 25  0.0000E+00  2.1850E-02  0.0000E+00  0.0000E+00  0.0000E+00  0.0000E+00  3.7077E-02  4.4159E-02  7.0344E-02
 26  2.6792E-03  2.4320E-03  2.5272E-03  2.4322E-03  2.8737E-03  2.7295E-03  2.8670E-03  2.2086E-03  2.4765E-03
 27  0.0000E+00  6.4805E-06  0.0000E+00  4.7396E-06  0.0000E+00  4.0826E-06  0.0000E+00  0.0000E+00  0.0000E+00
 28  0.0000E+00  1.6304E-05  0.0000E+00  6.1529E-05  0.0000E+00  0.0000E+00  0.0000E+00  0.0000E+00  0.0000E+00
 29  1.2642E-06  7.2660E-05  2.7489E-04  0.0000E+00  0.0000E+00  0.0000E+00  2.7742E-04  2.3857E-04  3.3300E-06
 30  0.0000E+00  4.7986E-05  0.0000E+00  0.0000E+00  0.0000E+00  1.4449E-05  0.0000E+00  1.6567E-04  0.0000E+00
 31  0.0000E+00  4.5321E-05  1.1428E-04  0.0000E+00  0.0000E+00  0.0000E+00  4.5721E-05  1.3732E-04  0.0000E+00
 32  0.0000E+00  1.0900E-04  4.4744E-04  1.2155E-04  3.0012E-04  1.2533E-04  3.6024E-04  0.0000E+00  5.9239E-04
 33  2.0361E-05  9.2183E-05  0.0000E+00  0.0000E+00  0.0000E+00  0.0000E+00  7.1942E-04  0.0000E+00  6.8728E-04
 34  0.0000E+00  9.5026E-05  7.4711E-04  0.0000E+00  1.8785E-05  0.0000E+00  0.0000E+00  6.3968E-05  0.0000E+00
 35  0.0000E+00  9.8715E-05  0.0000E+00  0.0000E+00  6.7298E-05  4.7600E-04  0.0000E+00  0.0000E+00  2.9584E-05
 36  0.0000E+00  4.9656E-05  0.0000E+00  0.0000E+00  0.0000E+00  0.0000E+00  0.0000E+00  0.0000E+00  0.0000E+00
 37  0.0000E+00  6.5699E-05  0.0000E+00  2.3713E-05  0.0000E+00  0.0000E+00  0.0000E+00  0.0000E+00  0.0000E+00
 38  0.0000E+00  8.7083E-05  0.0000E+00  0.0000E+00  0.0000E+00  0.0000E+00  0.0000E+00  1.4285E-03  7.9718E-05
 39  0.0000E+00  2.6836E-04  3.0324E-04  5.5521E-04  0.0000E+00  0.0000E+00  0.0000E+00  3.1535E-04  0.0000E+00
 40  0.0000E+00  4.1568E-04  0.0000E+00  2.7046E-03  1.1993E-04  0.0000E+00  0.0000E+00  0.0000E+00  0.0000E+00
 41  0.0000E+00  6.2003E-04  0.0000E+00  0.0000E+00  2.9503E-03  0.0000E+00  0.0000E+00  0.0000E+00  4.5624E-04
 42  0.0000E+00  4.3006E-04  0.0000E+00  0.0000E+00  0.0000E+00  0.0000E+00  0.0000E+00  0.0000E+00  0.0000E+00
 43  0.0000E+00  2.0775E-03  0.0000E+00  1.6561E-02  0.0000E+00  0.0000E+00  0.0000E+00  6.0949E-03  0.0000E+00
 44  0.0000E+00  3.5320E-03  0.0000E+00  2.4711E-03  0.0000E+00  0.0000E+00  0.0000E+00  0.0000E+00  0.0000E+00
 45  0.0000E+00  1.1891E-02  0.0000E+00  1.2684E-02  0.0000E+00  4.5580E-02  0.0000E+00  0.0000E+00  0.0000E+00
 46  0.0000E+00  1.8352E-02  5.7596E-02  0.0000E+00  1.4069E-02  0.0000E+00  2.7642E-03  0.0000E+00  3.5871E-02
 47  8.3059E-01  7.4398E-01  7.7889E-01  6.8727E-01  6.6531E-01  8.1072E-01  6.6035E-01  7.6118E-01  7.6528E-01
 48  0.0000E+00  2.1257E-02  0.0000E+00  3.2353E-02  0.0000E+00  1.4320E-02  3.8760E-03  9.0495E-02  3.8295E-02
 49  0.0000E+00  2.3230E-02  1.1190E-01  1.5958E-01  0.0000E+00  4.2839E-02  0.0000E+00  3.2357E-02  3.8099E-03
 50  0.0000E+00  1.2524E-02  0.0000E+00  0.0000E+00  0.0000E+00  0.0000E+00  4.9364E-02  0.0000E+00  0.0000E+00
 51  1.3940E-03  1.1031E-03  1.0421E-03  1.2750E-03  1.1575E-03  1.1723E-03  1.4801E-03  1.5597E-03  9.1925E-04
 52  0.0000E+00  2.6114E-05  7.8787E-07  0.0000E+00  3.9315E-05  7.8706E-05  5.0717E-05  0.0000E+00  0.0000E+00
 53  0.0000E+00  2.2857E-05  0.0000E+00  0.0000E+00  8.6582E-05  0.0000E+00  0.0000E+00  2.4542E-07  1.4713E-04
 54  1.1725E-04  6.1228E-05  0.0000E+00  0.0000E+00  1.1018E-04  0.0000E+00  1.6494E-04  0.0000E+00  1.3065E-04
 55  1.4594E-03  1.4629E-03  1.5479E-03  1.5100E-03  1.4254E-03  1.5295E-03  1.5631E-03  1.3289E-03  1.2655E-03
 56  1.1110E-03  8.1919E-04  7.2898E-04  8.8689E-04  8.2798E-04  8.7968E-04  5.9580E-04  7.8584E-04  8.5840E-04
 57  0.0000E+00  5.5940E-05  0.0000E+00  2.6916E-04  0.0000E+00  0.0000E+00  0.0000E+00  0.0000E+00  3.0066E-04
 58  0.0000E+00  5.0831E-05  0.0000E+00  8.9264E-05  0.0000E+00  0.0000E+00  0.0000E+00  0.0000E+00  0.0000E+00
 59  0.0000E+00  6.5572E-05  0.0000E+00  0.0000E+00  2.7973E-04  0.0000E+00  0.0000E+00  0.0000E+00  0.0000E+00
 60  0.0000E+00  9.6468E-05  0.0000E+00  0.0000E+00  0.0000E+00  0.0000E+00  0.0000E+00  0.0000E+00  0.0000E+00
 61  0.0000E+00  6.0830E-05  0.0000E+00  0.0000E+00  0.0000E+00  0.0000E+00  8.7638E-04  0.0000E+00  0.0000E+00
 62  0.0000E+00  4.9147E-05  0.0000E+00  0.0000E+00  1.8013E-04  0.0000E+00  0.0000E+00  0.0000E+00  0.0000E+00
 63  0.0000E+00  9.5624E-05  0.0000E+00  0.0000E+00  0.0000E+00  0.0000E+00  0.0000E+00  0.0000E+00  0.0000E+00
 64  0.0000E+00  1.4814E-04  0.0000E+00  0.0000E+00  0.0000E+00  3.3912E-03  0.0000E+00  0.0000E+00  0.0000E+00
 65  0.0000E+00  2.7599E-04  0.0000E+00  0.0000E+00  9.9757E-04  0.0000E+00  0.0000E+00  0.0000E+00  0.0000E+00
 66  0.0000E+00  7.5626E-04  0.0000E+00  0.0000E+00  0.0000E+00  0.0000E+00  0.0000E+00  0.0000E+00  0.0000E+00
 67  0.0000E+00  7.8091E-04  0.0000E+00  0.0000E+00  0.0000E+00  8.4043E-03  0.0000E+00  0.0000E+00  0.0000E+00
 68  0.0000E+00  5.5224E-03  0.0000E+00  0.0000E+00  0.0000E+00  0.0000E+00  0.0000E+00  1.1324E-02  0.0000E+00
 69  0.0000E+00  1.0064E-02  1.9459E-03  3.6926E-03  8.8790E-03  0.0000E+00  0.0000E+00  0.0000E+00  2.9271E-02
 70  0.0000E+00  1.0563E-02  0.0000E+00  0.0000E+00  0.0000E+00  0.0000E+00  0.0000E+00  0.0000E+00  0.0000E+00
 71  0.0000E+00  1.2619E-02  1.2236E-03  0.0000E+00  0.0000E+00  0.0000E+00  0.0000E+00  0.0000E+00  0.0000E+00
 72  0.0000E+00  1.4546E-02  0.0000E+00  0.0000E+00  0.0000E+00  0.0000E+00  0.0000E+00  0.0000E+00  0.0000E+00
 73  0.0000E+00  2.3055E-02  0.0000E+00  0.0000E+00  0.0000E+00  0.0000E+00  0.0000E+00  0.0000E+00  3.3676E-02
 74  0.0000E+00  2.8349E-02  0.0000E+00  0.0000E+00  0.0000E+00  1.7625E-02  0.0000E+00  0.0000E+00  2.8706E-02
 75  0.0000E+00  2.2172E-02  0.0000E+00  0.0000E+00  0.0000E+00  0.0000E+00  0.0000E+00  0.0000E+00  0.0000E+00
 76  0.0000E+00  5.0820E-05  0.0000E+00  0.0000E+00  0.0000E+00  0.0000E+00  0.0000E+00  0.0000E+00  0.0000E+00
 77  0.0000E+00  1.3986E-05  0.0000E+00  1.5239E-04  0.0000E+00  0.0000E+00  0.0000E+00  0.0000E+00  0.0000E+00
 78  0.0000E+00  2.1159E-05  5.8784E-05  2.8852E-05  0.0000E+00  0.0000E+00  8.8636E-06  0.0000E+00  0.0000E+00
 79  0.0000E+00  1.6816E-05  0.0000E+00  0.0000E+00  0.0000E+00  0.0000E+00  0.0000E+00  0.0000E+00  0.0000E+00
 80  0.0000E+00  7.5626E-05  0.0000E+00  0.0000E+00  2.2582E-04  0.0000E+00  0.0000E+00  0.0000E+00  3.4255E-05
 81  0.0000E+00  2.7192E-05  1.7531E-04  0.0000E+00  0.0000E+00  0.0000E+00  0.0000E+00  0.0000E+00  1.4430E-06
 82  0.0000E+00  5.0097E-05  0.0000E+00  2.2748E-05  1.0891E-04  0.0000E+00  0.0000E+00  0.0000E+00  0.0000E+00
 83  0.0000E+00  4.6417E-05  2.1973E-04  0.0000E+00  0.0000E+00  0.0000E+00  0.0000E+00  0.0000E+00  0.0000E+00
 84  0.0000E+00  8.2144E-05  0.0000E+00  4.6559E-04  2.3514E-05  0.0000E+00  3.0305E-04  0.0000E+00  0.0000E+00
 85  0.0000E+00  4.1221E-05  0.0000E+00  4.1663E-04  0.0000E+00  1.1011E-04  0.0000E+00  0.0000E+00  0.0000E+00
 86  0.0000E+00  8.3788E-05  0.0000E+00  0.0000E+00  4.7453E-04  0.0000E+00  0.0000E+00  2.6917E-04  0.0000E+00
 87  0.0000E+00  4.8906E-05  0.0000E+00  0.0000E+00  0.0000E+00  0.0000E+00  0.0000E+00  0.0000E+00  0.0000E+00
 88  0.0000E+00  1.1496E-04  8.1563E-04  0.0000E+00  0.0000E+00  0.0000E+00  0.0000E+00  0.0000E+00  0.0000E+00
 89  0.0000E+00  2.1735E-04  0.0000E+00  0.0000E+00  0.0000E+00  0.0000E+00  0.0000E+00  0.0000E+00  0.0000E+00
 90  0.0000E+00  1.1615E-03  0.0000E+00  1.6100E-03  1.3768E-04  0.0000E+00  0.0000E+00  0.0000E+00  7.6362E-03
 91  0.0000E+00  3.6875E-03  0.0000E+00  3.2990E-04  0.0000E+00  2.1333E-03  0.0000E+00  0.0000E+00  9.8163E-03
 92  0.0000E+00  2.6457E-03  0.0000E+00  0.0000E+00  0.0000E+00  0.0000E+00  6.7927E-03  0.0000E+00  7.0599E-03
 93  2.2667E-02  1.5245E-02  0.0000E+00  0.0000E+00  4.0924E-03  2.7574E-02  4.5410E-02  0.0000E+00  0.0000E+00
 94  0.0000E+00  4.0136E-02  1.2427E-02  1.0050E-02  1.6990E-02  8.9270E-02  1.5056E-02  6.1608E-02  6.5536E-02
 95  1.4133E-01  7.1574E-02  7.8036E-02  1.2497E-01  1.7064E-01  1.4187E-01  5.3472E-02  0.0000E+00  2.3561E-01
 96  2.5715E-02  9.3215E-02  1.3292E-01  1.2291E-01  4.8338E-02  1.2593E-01  1.8417E-01  1.0623E-01  7.9651E-02
 97  8.8736E-03  1.4097E-01  0.0000E+00  2.3415E-01  2.7417E-01  2.1124E-01  2.2807E-01  0.0000E+00  1.6191E-01
 98  5.0896E-03  1.7922E-01  1.4559E-01  8.8086E-02  9.3780E-01  1.4619E-01  2.0436E-01  3.1332E-01  0.0000E+00
 99  0.0000E+00  1.5443E-01  3.0153E-01  3.4544E-01  0.0000E+00  0.0000E+00  0.0000E+00  6.0690E-01  8.3731E-02
100  0.0000E+00  1.7569E-01  0.0000E+00  2.4274E-01  0.0000E+00  0.0000E+00  4.3026E-02  0.0000E+00  0.0000E+00
101  0.0000E+00  4.8705E-05  0.0000E+00  0.0000E+00  0.0000E+00  0.0000E+00  1.3457E-04  0.0000E+00  0.0000E+00
102  0.0000E+00  1.6788E-05  0.0000E+00  0.0000E+00  0.0000E+00  2.5931E-05  2.8317E-05  0.0000E+00  6.7817E-05
103  0.0000E+00  1.1399E-05  0.0000E+00  5.7626E-06  8.8332E-05  0.0000E+00  0.0000E+00  0.0000E+00  5.9529E-05
104  3.6797E-04  1.8246E-04  2.4821E-04  7.0410E-05  0.0000E+00  3.2437E-04  1.7175E-04  2.2774E-04  2.1144E-04
105  0.0000E+00  4.7612E-05  0.0000E+00  0.0000E+00  0.0000E+00  1.4338E-04  0.0000E+00  0.0000E+00  0.0000E+00
106  0.0000E+00  3.5343E-05  2.7552E-06  0.0000E+00  8.5377E-05  7.9490E-05  0.0000E+00  0.0000E+00  0.0000E+00
107  0.0000E+00  4.9325E-05  0.0000E+00  0.0000E+00  0.0000E+00  0.0000E+00  0.0000E+00  1.6810E-04  0.0000E+00
108  4.6858E-08  9.4787E-05  0.0000E+00  0.0000E+00  0.0000E+00  0.0000E+00  5.7301E-04  0.0000E+00  0.0000E+00
109  0.0000E+00  5.2240E-05  5.8887E-05  0.0000E+00  0.0000E+00  0.0000E+00  0.0000E+00  0.0000E+00  1.6056E-04
110  0.0000E+00  5.4193E-05  0.0000E+00  0.0000E+00  0.0000E+00  0.0000E+00  0.0000E+00  0.0000E+00  0.0000E+00
111  0.0000E+00  5.6476E-05  0.0000E+00  3.3408E-04  0.0000E+00  0.0000E+00  0.0000E+00  1.1216E-03  0.0000E+00
112  0.0000E+00  7.2511E-05  0.0000E+00  0.0000E+00  0.0000E+00  0.0000E+00  0.0000E+00  0.0000E+00  0.0000E+00
113  0.0000E+00  9.8809E-05  0.0000E+00  7.9706E-05  0.0000E+00  0.0000E+00  0.0000E+00  0.0000E+00  0.0000E+00
114  0.0000E+00  2.7138E-04  0.0000E+00  0.0000E+00  0.0000E+00  0.0000E+00  0.0000E+00  0.0000E+00  0.0000E+00
115  0.0000E+00  1.4793E-03  0.0000E+00  1.2028E-02  0.0000E+00  0.0000E+00  0.0000E+00  5.6119E-03  5.3864E-03
116  4.8644E-02  3.8620E-03  0.0000E+00  1.7130E-02  5.7489E-02  6.7307E-03  2.4144E-02  0.0000E+00  1.9040E-02
117  0.0000E+00  7.3956E-03  5.4713E-03  3.0518E-03  1.0079E-02  0.0000E+00  0.0000E+00  0.0000E+00  0.0000E+00
118  1.7937E-01  2.7874E-02  6.2071E-02  2.6919E-02  5.1787E-02  9.3601E-03  4.1131E-02  6.0500E-02  6.9893E-02
119  1.6994E+00  1.9604E+00  2.1819E+00  1.6691E+00  1.8725E+00  2.3583E+00  1.9329E+00  1.8326E+00  1.9348E+00
120  3.8610E-01  1.8799E-01  2.6204E-01  2.0955E-01  5.3020E-02  1.3615E-01  1.3705E-01  7.0500E-01  1.4704E-01
121  1.9986E+00  2.4628E+00  2.3142E+00  2.8064E+00  2.5759E+00  2.3494E+00  2.9450E+00  2.4754E+00  2.5204E+00
122  1.1683E+01  1.0421E+01  9.9017E+00  1.0600E+01  1.0685E+01  1.0139E+01  9.7025E+00  1.0688E+01  1.0967E+01
123  3.8744E+00  3.1153E+00  4.0299E+00  2.7099E+00  3.7491E+00  2.9185E+00  3.6015E+00  2.3694E+00  2.9084E+00
124  1.6578E+00  3.1077E+00  3.1410E+00  3.0810E+00  2.3967E+00  2.7516E+00  3.1655E+00  2.6999E+00  2.7822E+00
125  3.4921E+01  3.2543E+01  3.2331E+01  3.2598E+01  3.2923E+01  3.3679E+01  3.3199E+01  3.2235E+01  3.3218E+01
126  0.0000E+00  9.5484E-06  0.0000E+00  0.0000E+00  0.0000E+00  0.0000E+00  0.0000E+00  5.7635E-05  5.6567E-06
127  0.0000E+00  4.1353E-05  2.0793E-05  8.4567E-06  1.2828E-05  0.0000E+00  1.3588E-05  1.4658E-04  5.2508E-05
128  0.0000E+00  1.2283E-05  0.0000E+00  8.6534E-06  0.0000E+00  0.0000E+00  0.0000E+00  1.9215E-05  0.0000E+00
129  0.0000E+00  6.6409E-05  0.0000E+00  1.0454E-04  0.0000E+00  2.4746E-04  0.0000E+00  0.0000E+00  7.6956E-05
130  0.0000E+00  3.4068E-05  0.0000E+00  1.6983E-05  0.0000E+00  0.0000E+00  0.0000E+00  0.0000E+00  0.0000E+00
131  0.0000E+00  2.9309E-05  0.0000E+00  0.0000E+00  1.6624E-04  3.0942E-05  0.0000E+00  0.0000E+00  0.0000E+00
132  0.0000E+00  3.0191E-05  0.0000E+00  0.0000E+00  0.0000E+00  0.0000E+00  0.0000E+00  0.0000E+00  0.0000E+00
133  0.0000E+00  7.8786E-05  6.3571E-05  0.0000E+00  0.0000E+00  0.0000E+00  0.0000E+00  0.0000E+00  0.0000E+00
134  0.0000E+00  3.7806E-05  0.0000E+00  0.0000E+00  0.0000E+00  0.0000E+00  0.0000E+00  0.0000E+00  0.0000E+00
135  0.0000E+00  8.9241E-05  0.0000E+00  0.0000E+00  0.0000E+00  0.0000E+00  0.0000E+00  0.0000E+00  0.0000E+00
136  0.0000E+00  1.7745E-04  0.0000E+00  0.0000E+00  2.9079E-03  0.0000E+00  0.0000E+00  0.0000E+00  0.0000E+00
137  0.0000E+00  5.7700E-05  0.0000E+00  0.0000E+00  0.0000E+00  0.0000E+00  0.0000E+00  0.0000E+00  5.0363E-05
138  0.0000E+00  1.6694E-04  0.0000E+00  0.0000E+00  1.2985E-03  0.0000E+00  8.9110E-04  0.0000E+00  0.0000E+00
139  0.0000E+00  4.1305E-04  0.0000E+00  0.0000E+00  0.0000E+00  0.0000E+00  3.4060E-03  0.0000E+00  0.0000E+00
140  0.0000E+00  6.0007E-03  1.2178E-02  6.7055E-03  0.0000E+00  2.9440E-03  7.0143E-03  0.0000E+00  2.2408E-03
141  0.0000E+00  1.7978E-02  1.9337E-02  2.1749E-02  0.0000E+00  0.0000E+00  7.7243E-03  3.7144E-03  4.7443E-02
142  4.4384E-02  2.6039E-02  8.6422E-02  0.0000E+00  7.7934E-03  0.0000E+00  1.8751E-01  9.9800E-02  0.0000E+00
143  2.1580E-01  1.3310E-01  1.2882E-01  1.3341E-01  1.7118E-01  1.6305E-01  2.1833E-01  2.0466E-01  5.6505E-02
144  5.9166E-01  2.0425E-01  2.8067E-01  5.4158E-01  9.1133E-02  3.2161E-01  8.7217E-02  0.0000E+00  4.1692E-01
145  9.7532E-01  2.9856E-01  2.7053E-01  4.0190E-01  5.1449E-01  2.4694E-01  3.4168E-01  2.6321E-01  6.0945E-02
146  1.7011E+00  6.4294E-01  8.3829E-01  7.6931E-01  5.8647E-01  0.0000E+00  5.2488E-01  1.3422E+00  9.9988E-01
147  5.5578E-01  3.2726E-01  4.5407E-02  0.0000E+00  0.0000E+00  1.5951E-01  5.0399E-01  5.1164E-02  5.8743E-01
148  2.8120E-02  3.3316E-01  0.0000E+00  4.0805E-01  2.5274E-01  6.8618E-01  4.1428E-01  0.0000E+00  8.5861E-02
149  0.0000E+00  2.9814E-01  3.5271E-01  0.0000E+00  1.0976E-01  4.2701E-01  0.0000E+00  1.1710E-01  0.0000E+00
150  3.8340E+01  4.1931E+01  4.2055E+01  4.1861E+01  4.1681E+01  4.1926E+01  4.1313E+01  4.2782E+01  4.1457E+01

# AV, chi2 & Mass for <> & i_chain = 1 ...  7 solutions
AV       1.0598      1.0322      1.0348      1.0378      1.0464      1.0352      1.0528      1.0376      1.0364
chi2 2.8290E+00  2.9239E+00  2.9007E+00  2.9031E+00  2.9041E+00  2.9054E+00  2.8791E+00  2.8937E+00  2.9039E+00
Mass 1.0927E-09  1.0923E-09  1.0914E-09  1.0955E-09  1.1048E-09  1.0966E-09  1.1047E-09  1.0948E-09  1.0880E-09
   0.60                                  [v0_min (km/s) before EX0s...]
 104.06                                  [vd_min (km/s) before EX0s...]


## Synthetic spectrum (Best Model) ##l_obs f_obs f_syn wei
 3070    [Nl_obs]
 3359.00    0.26891   0.40214   -1.000
 3360.00    0.28396   0.38019   -1.000
 3361.00    0.27327   0.38240   -1.000
 3362.00    0.26212   0.40581   -1.000
 3363.00    0.26184   0.43680   -1.000
 3364.00    0.27323   0.45868   -1.000
 3365.00    0.30327   0.46113   -1.000
 3366.00    0.30170   0.44599   -1.000
 3367.00    0.30462   0.42332   -1.000
 3368.00    0.31847   0.40228   -1.000
 3369.00    0.31149   0.38767   -1.000
 3370.00    0.34088   0.38022   -1.000
 3371.00    0.31621   0.38044   -1.000
 3372.00    0.29847   0.39047   -1.000
 3373.00    0.28740   0.41118   -1.000
 3374.00    0.30933   0.43886   -1.000
 3375.00    0.33803   0.46515   -1.000
 3376.00    0.33117   0.47997   -1.000
 3377.00    0.32740   0.47711   -1.000
 3378.00    0.34567   0.45999   -1.000
 3379.00    0.32598   0.44053   -1.000
 3380.00    0.31990   0.43060   -1.000
 3381.00    0.32623   0.43444   -1.000
 3382.00    0.32054   0.44735   -1.000
 3383.00    0.31465   0.46237   -1.000
 3384.00    0.32522   0.47509   -1.000
 3385.00    0.35282   0.48409   -1.000
 3386.00    0.37742   0.48858   -1.000
 3387.00    0.38014   0.48901   -1.000
 3388.00    0.35317   0.48695   -1.000
 3389.00    0.37409   0.48263   -1.000
 3390.00    0.37132   0.47404   -1.000
 3391.00    0.34809   0.46133   -1.000
 3392.00    0.35237   0.45051   -1.000
 3393.00    0.35324   0.44931   -1.000
 3394.00    0.36144   0.46033   -1.000
 3395.00    0.35351   0.47952   -1.000
 3396.00    0.37657   0.50040   -1.000
 3397.00    0.39686   0.51935   -1.000
 3398.00    0.42953   0.53397   -1.000
 3399.00    0.42622   0.54137   -1.000
 3400.00    0.40920   0.53991   -1.000
 3401.00    0.41570   0.53050   -1.000
 3402.00    0.42085   0.51654   -1.000
 3403.00    0.41127   0.50244   -1.000
 3404.00    0.40458   0.49051   -1.000
 3405.00    0.42991   0.48058   53.899
 3406.00    0.41771   0.47215   54.735
 3407.00    0.44431   0.46646   54.970
 3408.00    0.42921   0.46578   54.503
 3409.00    0.41834   0.46990   52.922
 3410.00    0.40516   0.47379   -1.000
 3411.00    0.40769   0.47013   -1.000
 3412.00    0.44704   0.45689   55.881
 3413.00    0.44459   0.44052   55.623
 3414.00    0.43729   0.43156   54.122
 3415.00    0.43591   0.43717   51.752
 3416.00    0.43044   0.45622   49.282
 3417.00    0.43786   0.48213   46.985
 3418.00    0.43778   0.50709   -1.000
 3419.00    0.44220   0.52473   -1.000
 3420.00    0.47150   0.52994   46.939
 3421.00    0.49333   0.52170   48.315
 3422.00    0.46286   0.50594   49.173
 3423.00    0.44802   0.49268   47.730
 3424.00    0.46347   0.48729   46.565
 3425.00    0.45051   0.48897   50.432
 3426.00    0.45511   0.49561   -1.000
 3427.00    0.48305   0.50719   -1.000
 3428.00    0.46490   0.52307   -1.000
 3429.00    0.49279   0.53643   -1.000
 3430.00    0.49868   0.53736   -1.000
 3431.00    0.47630   0.52407   46.517
 3432.00    0.47111   0.50569   50.494
 3433.00    0.43877   0.49446   -1.000
 3434.00    0.44592   0.49398   -1.000
 3435.00    0.45292   0.49667   46.414
 3436.00    0.45712   0.49259   48.672
 3437.00    0.45031   0.47665   51.705
 3438.00    0.44378   0.44987   55.653
 3439.00    0.44485   0.41778   57.657
 3440.00    0.40841   0.38865   57.694
 3441.00    0.39588   0.37007   57.229
 3442.00    0.39895   0.36623   54.838
 3443.00    0.40272   0.37522   51.819
 3444.00    0.42009   0.39160   49.061
 3445.00    0.42566   0.41098   52.325
 3446.00    0.43074   0.43205  390.720
 3447.00    0.43703   0.45478   -1.000
 3448.00    0.46093   0.47767   -1.000
 3449.00    0.47890   0.49505   -1.000
 3450.00    0.47775   0.50043   -1.000
 3451.00    0.46959   0.49450   -1.000
 3452.00    0.48682   0.48628  390.720
 3453.00    0.51203   0.48421   -1.000
 3454.00    0.48934   0.48847  390.720
 3455.00    0.48687   0.49105  390.720
 3456.00    0.45915   0.48433   -1.000
 3457.00    0.46273   0.46789   46.418
 3458.00    0.45709   0.44771   46.947
 3459.00    0.43983   0.43159   51.806
 3460.00    0.47226   0.42470   -1.000
 3461.00    0.46018   0.42951   -1.000
 3462.00    0.45044   0.44415   -1.000
 3463.00    0.46339   0.46050  390.720
 3464.00    0.47508   0.46971  390.720
 3465.00    0.49453   0.47178   -1.000
 3466.00    0.49481   0.47414   -1.000
 3467.00    0.48475   0.48282  390.720
 3468.00    0.50167   0.49681  390.720
 3469.00    0.51616   0.50903   -1.000
 3470.00    0.51864   0.51195   -1.000
 3471.00    0.51884   0.50158   -1.000
 3472.00    0.50515   0.47940   -1.000
 3473.00    0.48324   0.45132   46.941
 3474.00    0.46891   0.42595   48.377
 3475.00    0.45486   0.41188   53.130
 3476.00    0.46349   0.41438   -1.000
 3477.00    0.45745   0.43116   -1.000
 3478.00    0.46710   0.45367   -1.000
 3479.00    0.50821   0.47236   -1.000
 3480.00    0.52199   0.48153   -1.000
 3481.00    0.49425   0.48045   -1.000
 3482.00    0.48158   0.47323   -1.000
 3483.00    0.48204   0.46728   -1.000
 3484.00    0.49298   0.46946   -1.000
 3485.00    0.50172   0.48049   -1.000
 3486.00    0.50363   0.49254   -1.000
 3487.00    0.49320   0.49470  390.720
 3488.00    0.50569   0.48168   -1.000
 3489.00    0.51130   0.45914   -1.000
 3490.00    0.48932   0.43936   -1.000
 3491.00    0.47591   0.43190   -1.000
 3492.00    0.49402   0.43709   -1.000
 3493.00    0.49269   0.44740   -1.000
 3494.00    0.47615   0.45402   -1.000
 3495.00    0.47969   0.45389   -1.000
 3496.00    0.48110   0.45310   -1.000
 3497.00    0.47578   0.46147   -1.000
 3498.00    0.48597   0.48215  369.811
 3499.00    0.50476   0.50743  365.344
 3500.00    0.52082   0.52749  361.218
 3501.00    0.52467   0.54050   -1.000
 3502.00    0.54881   0.54887  370.069
 3503.00    0.57944   0.55218   -1.000
 3504.00    0.55961   0.54858   -1.000
 3505.00    0.53861   0.53961  375.972
 3506.00    0.53310   0.53003  373.022
 3507.00    0.53930   0.52213   -1.000
 3508.00    0.51801   0.51349  390.720
 3509.00    0.51205   0.50162   -1.000
 3510.00    0.51545   0.48719   -1.000
 3511.00    0.51433   0.47194   -1.000
 3512.00    0.52134   0.45789   -1.000
 3513.00    0.47795   0.44911   -1.000
 3514.00    0.45624   0.45220  390.720
 3515.00    0.47514   0.47127  371.362
 3516.00    0.49440   0.50080  368.264
 3517.00    0.51699   0.52690   -1.000
 3518.00    0.52766   0.53689   -1.000
 3519.00    0.53794   0.52699   -1.000
 3520.00    0.52141   0.50288   -1.000
 3521.00    0.51021   0.47381   -1.000
 3522.00    0.49288   0.44661   46.574
 3523.00    0.45424   0.42408   47.962
 3524.00    0.44887   0.40930   55.075
 3525.00    0.42920   0.40785   -1.000
 3526.00    0.42222   0.42325  390.720
 3527.00    0.44521   0.45194  389.775
 3528.00    0.47099   0.48354   -1.000
 3529.00    0.52027   0.50644   -1.000
 3530.00    0.53487   0.51556   -1.000
 3531.00    0.51566   0.51543  390.042
 3532.00    0.49086   0.51535   -1.000
 3533.00    0.49748   0.52080   -1.000
 3534.00    0.53033   0.53021  370.852
 3535.00    0.54909   0.53897   -1.000
 3536.00    0.55280   0.54534  367.828
 3537.00    0.54479   0.55123  364.349
 3538.00    0.55808   0.55706  368.228
 3539.00    0.54798   0.55945   -1.000
 3540.00    0.54418   0.55610   -1.000
 3541.00    0.51851   0.55034   -1.000
 3542.00    0.51150   0.54867   -1.000
 3543.00    0.51885   0.55331   -1.000
 3544.00    0.53361   0.55967   -1.000
 3545.00    0.54019   0.56180   -1.000
 3546.00    0.52165   0.55834   -1.000
 3547.00    0.52202   0.55308   -1.000
 3548.00    0.52591   0.54970   -1.000
 3549.00    0.51882   0.54759   -1.000
 3550.00    0.50933   0.54298   -1.000
 3551.00    0.51218   0.53310   -1.000
 3552.00    0.51040   0.51945   -1.000
 3553.00    0.50429   0.50756  390.720
 3554.00    0.49652   0.50258  390.720
 3555.00    0.47069   0.50425   -1.000
 3556.00    0.45973   0.50757   -1.000
 3557.00    0.46780   0.50837   -1.000
 3558.00    0.48311   0.50741   -1.000
 3559.00    0.47729   0.50913   -1.000
 3560.00    0.47372   0.51588   -1.000
 3561.00    0.48027   0.52348   -1.000
 3562.00    0.48627   0.52253   -1.000
 3563.00    0.49393   0.50563   47.128
 3564.00    0.47480   0.47544   48.626
 3565.00    0.44906   0.44471   48.093
 3566.00    0.42469   0.42515   48.160
 3567.00    0.42589   0.41654   49.697
 3568.00    0.44022   0.41080   50.149
 3569.00    0.41714   0.40433   48.425
 3570.00    0.39972   0.40153   55.514
 3571.00    0.40314   0.40795  390.720
 3572.00    0.40228   0.42278   -1.000
 3573.00    0.42915   0.43961   -1.000
 3574.00    0.45978   0.45252   -1.000
 3575.00    0.46762   0.45814   -1.000
 3576.00    0.46819   0.45410  179.956
 3577.00    0.45132   0.43941   49.038
 3578.00    0.43475   0.41576   52.756
 3579.00    0.42029   0.38855   55.166
 3580.00    0.40131   0.36578   55.474
 3581.00    0.38375   0.35351   55.918
 3582.00    0.37730   0.35131   57.428
 3583.00    0.36810   0.35320   59.131
 3584.00    0.37374   0.35360   59.199
 3585.00    0.36687   0.35252   56.133
 3586.00    0.36724   0.35491   53.191
 3587.00    0.37675   0.36592   50.168
 3588.00    0.39251   0.38732   55.954
 3589.00    0.41624   0.41660  390.720
 3590.00    0.44638   0.44715  390.720
 3591.00    0.47160   0.47107  390.720
 3592.00    0.48691   0.48518  390.720
 3593.00    0.49167   0.49436  388.898
 3594.00    0.48741   0.50672   -1.000
 3595.00    0.49277   0.52546   -1.000
 3596.00    0.50729   0.54671   -1.000
 3597.00    0.53177   0.56513   -1.000
 3598.00    0.54030   0.57847   -1.000
 3599.00    0.55958   0.58452   -1.000
 3600.00    0.56067   0.57880   -1.000
 3601.00    0.54263   0.55927   -1.000
 3602.00    0.53337   0.53064  390.720
 3603.00    0.50415   0.50214  390.720
 3604.00    0.48869   0.48121   -1.000
 3605.00    0.47432   0.46856  390.720
 3606.00    0.47393   0.45897   -1.000
 3607.00    0.47859   0.44799   -1.000
 3608.00    0.47251   0.43799   -1.000
 3609.00    0.46414   0.43639   -1.000
 3610.00    0.47583   0.44757   -1.000
 3611.00    0.49847   0.46780   -1.000
 3612.00    0.50160   0.48958   -1.000
 3613.00    0.50162   0.50868  377.610
 3614.00    0.51488   0.52271  384.890
 3615.00    0.50877   0.52589   -1.000
 3616.00    0.50816   0.51156  160.389
 3617.00    0.49344   0.48181   56.561
 3618.00    0.47476   0.45236   -1.000
 3619.00    0.45908   0.44247   -1.000
 3620.00    0.46833   0.45875   -1.000
 3621.00    0.50648   0.49208   -1.000
 3622.00    0.52334   0.52844  356.187
 3623.00    0.54319   0.56077   -1.000
 3624.00    0.56910   0.59078   -1.000
 3625.00    0.58791   0.62044   -1.000
 3626.00    0.59111   0.64444   -1.000
 3627.00    0.60754   0.65138   -1.000
 3628.00    0.60962   0.63206   -1.000
 3629.00    0.59306   0.58799  390.720
 3630.00    0.56942   0.53470   -1.000
 3631.00    0.53067   0.49361   -1.000
 3632.00    0.49383   0.47771   -1.000
 3633.00    0.50547   0.48539   -1.000
 3634.00    0.51698   0.50597   -1.000
 3635.00    0.51925   0.52945   -1.000
 3636.00    0.54379   0.55253   -1.000
 3637.00    0.56013   0.57660   -1.000
 3638.00    0.57955   0.60100   -1.000
 3639.00    0.57509   0.62017   -1.000
 3640.00    0.59094   0.62729   -1.000
 3641.00    0.60647   0.61937   -1.000
 3642.00    0.57712   0.59952   -1.000
 3643.00    0.56218   0.57418   -1.000
 3644.00    0.54918   0.54844  390.720
 3645.00    0.53881   0.52441   -1.000
 3646.00    0.53388   0.50349   -1.000
 3647.00    0.50296   0.48957   -1.000
 3648.00    0.50591   0.48882   -1.000
 3649.00    0.51830   0.50504   -1.000
 3650.00    0.53526   0.53585  342.544
 3651.00    0.55753   0.57322   -1.000
 3652.00    0.57735   0.60731   -1.000
 3653.00    0.59748   0.63204   -1.000
 3654.00    0.61803   0.64880   -1.000
 3655.00    0.62147   0.66320   -1.000
 3656.00    0.63120   0.67904   -1.000
 3657.00    0.63450   0.69521   -1.000
 3658.00    0.63821   0.70738   -1.000
 3659.00    0.65352   0.71193   -1.000
 3660.00    0.65490   0.70747   -1.000
 3661.00    0.64700   0.69519   -1.000
 3662.00    0.64145   0.67951   -1.000
 3663.00    0.63764   0.66647   -1.000
 3664.00    0.63231   0.65933   -1.000
 3665.00    0.62066   0.65616   -1.000
 3666.00    0.62801   0.65153   -1.000
 3667.00    0.62787   0.64184   -1.000
 3668.00    0.61918   0.62991   -1.000
 3669.00    0.60471   0.62403   -1.000
 3670.00    0.60497   0.63045   -1.000
 3671.00    0.62603   0.64641   -1.000
 3672.00    0.63959   0.66276   -1.000
 3673.00    0.64236   0.67162   -1.000
 3674.00    0.64218   0.66954   -1.000
 3675.00    0.63867   0.65612   -1.000
 3676.00    0.61536   0.63292   -1.000
 3677.00    0.60959   0.60429  366.127
 3678.00    0.58955   0.57759   -1.000
 3679.00    0.56444   0.56142  352.856
 3680.00    0.55916   0.56081  344.369
 3681.00    0.56043   0.57293   -1.000
 3682.00    0.58569   0.58792  354.176
 3683.00    0.60164   0.59442  368.889
 3684.00    0.58107   0.58571  381.949
 3685.00    0.57479   0.56431   -1.000
 3686.00    0.55664   0.54213   -1.000
 3687.00    0.52844   0.53442  344.368
 3688.00    0.54098   0.54962   -1.000
 3689.00    0.56357   0.58408   -1.000
 3690.00    0.58857   0.62354   -1.000
 3691.00    0.63706   0.65104   -1.000
 3692.00    0.66190   0.65761  333.330
 3693.00    0.64851   0.64848  331.373
 3694.00    0.62023   0.63668   -1.000
 3695.00    0.61233   0.63275   -1.000
 3696.00    0.62484   0.64081   -1.000
 3697.00    0.63529   0.65905   -1.000
 3698.00    0.63877   0.68079   -1.000
 3699.00    0.66265   0.69637   -1.000
 3700.00    0.68182   0.69723   -1.000
 3701.00    0.67376   0.67820  362.156
 3702.00    0.64429   0.63934  390.720
 3703.00    0.60631   0.58781   -1.000
 3704.00    0.57025   0.53685   -1.000
 3705.00    0.53480   0.49914   -1.000
 3706.00    0.51586   0.48073   -1.000
 3707.00    0.53078   0.47982   -1.000
 3708.00    0.53059   0.49305   -1.000
 3709.00    0.54022   0.51957   -1.000
 3710.00    0.56961   0.55806   -1.000
 3711.00    0.58999   0.60295   -1.000
 3712.00    0.62063   0.64519   -1.000
 3713.00    0.65882   0.67448   -1.000
 3714.00    0.67857   0.68324  311.481
 3715.00    0.67520   0.66953  329.698
 3716.00    0.65024   0.63547   -1.000
 3717.00    0.61770   0.58481   -1.000
 3718.00    0.57547   0.52462   -1.000
 3719.00    0.51924   0.46689   -1.000
 3720.00    0.46043   0.42701   -1.000
 3721.00    0.43565   0.41762   -1.000
 3722.00    0.46048   0.43967   -1.000
 3723.00    0.50340   0.48149   -1.000
 3724.00    0.55403   0.52449   -1.000
 3725.00    0.58612   0.55233   -1.000
 3726.00    0.59135   0.56020   -1.000
 3727.00    0.59193   0.55666   -1.000
 3728.00    0.58019   0.55208   -1.000
 3729.00    0.57543   0.54647   -1.000
 3730.00    0.58663   0.53115   -1.000
 3731.00    0.56488   0.49907   -1.000
 3732.00    0.52039   0.45318   -1.000
 3733.00    0.47993   0.40576   -1.000
 3734.00    0.43074   0.37043   -1.000
 3735.00    0.39588   0.35735   61.321
 3736.00    0.40068   0.37028   -1.000
 3737.00    0.43002   0.40586   -1.000
 3738.00    0.46037   0.45438  345.124
 3739.00    0.50167   0.50188  347.754
 3740.00    0.54898   0.53313   -1.000
 3741.00    0.56142   0.53890   -1.000
 3742.00    0.55711   0.52054   -1.000
 3743.00    0.53487   0.48840   -1.000
 3744.00    0.50964   0.45458   -1.000
 3745.00    0.47733   0.42663   47.661
 3746.00    0.45475   0.40479   50.031
 3747.00    0.46018   0.38809   -1.000
 3748.00    0.45583   0.38071   -1.000
 3749.00    0.43061   0.39051   -1.000
 3750.00    0.44394   0.42184   -1.000
 3751.00    0.49087   0.46978   -1.000
 3752.00    0.53894   0.52285   -1.000
 3753.00    0.56675   0.56946  312.285
 3754.00    0.58846   0.59825  336.898
 3755.00    0.60427   0.59920  380.422
 3756.00    0.59927   0.57222   -1.000
 3757.00    0.56887   0.53164   -1.000
 3758.00    0.53235   0.49895   -1.000
 3759.00    0.51865   0.48737   -1.000
 3760.00    0.51923   0.49345   -1.000
 3761.00    0.53789   0.50424   -1.000
 3762.00    0.54467   0.50982   -1.000
 3763.00    0.53629   0.50929   -1.000
 3764.00    0.53834   0.50594   -1.000
 3765.00    0.54453   0.50241   -1.000
 3766.00    0.55984   0.50141   -1.000
 3767.00    0.54624   0.50628   -1.000
 3768.00    0.55153   0.51817   -1.000
 3769.00    0.57556   0.53554   -1.000
 3770.00    0.58837   0.55633   -1.000
 3771.00    0.59231   0.57852   -1.000
 3772.00    0.61459   0.59881   -1.000
 3773.00    0.62603   0.61350   -1.000
 3774.00    0.63466   0.62100   -1.000
 3775.00    0.63676   0.62405   -1.000
 3776.00    0.62205   0.62737  310.232
 3777.00    0.62127   0.63432   -1.000
 3778.00    0.62672   0.64556   -1.000
 3779.00    0.64286   0.65921   -1.000
 3780.00    0.65659   0.67223   -1.000
 3781.00    0.66529   0.68176   -1.000
 3782.00    0.66650   0.68520   -1.000
 3783.00    0.67347   0.67869  322.657
 3784.00    0.66780   0.65819   -1.000
 3785.00    0.64902   0.62428   -1.000
 3786.00    0.60969   0.58442   -1.000
 3787.00    0.56610   0.54925   -1.000
 3788.00    0.54895   0.52751   -1.000
 3789.00    0.54395   0.52205   -1.000
 3790.00    0.53295   0.52759  362.026
 3791.00    0.54886   0.53379   -1.000
 3792.00    0.55726   0.53173   -1.000
 3793.00    0.53828   0.51924   -1.000
 3794.00    0.50300   0.50089  390.720
 3795.00    0.49579   0.48160   -1.000
 3796.00    0.50028   0.46389   -1.000
 3797.00    0.49433   0.45079   -1.000
 3798.00    0.48463   0.44907   -1.000
 3799.00    0.47840   0.46537   -1.000
 3800.00    0.49088   0.49882  331.784
 3801.00    0.52007   0.53971   -1.000
 3802.00    0.54381   0.57638   -1.000
 3803.00    0.56333   0.59967   -1.000
 3804.00    0.57768   0.60618   -1.000
 3805.00    0.57318   0.59909   -1.000
 3806.00    0.54662   0.58784   -1.000
 3807.00    0.53489   0.58296   -1.000
 3808.00    0.54010   0.58883   -1.000
 3809.00    0.55414   0.59943   -1.000
 3810.00    0.57745   0.60308   -1.000
 3811.00    0.58396   0.59106  376.955
 3812.00    0.55980   0.56352  390.720
 3813.00    0.52566   0.52884  390.720
 3814.00    0.48215   0.49760   -1.000
 3815.00    0.45398   0.47768   -1.000
 3816.00    0.45142   0.46913   -1.000
 3817.00    0.46014   0.46430  390.720
 3818.00    0.47448   0.45461   -1.000
 3819.00    0.46757   0.43995   -1.000
 3820.00    0.44717   0.42850   -1.000
 3821.00    0.44573   0.42567   -1.000
 3822.00    0.44916   0.42685  120.117
 3823.00    0.44577   0.42215   48.752
 3824.00    0.42789   0.40868   49.288
 3825.00    0.40572   0.39331   48.711
 3826.00    0.40153   0.38429   47.912
 3827.00    0.39673   0.38483   47.595
 3828.00    0.39988   0.39183   48.744
 3829.00    0.41983   0.39867   51.565
 3830.00    0.43330   0.39900   54.885
 3831.00    0.42941   0.39063   55.553
 3832.00    0.41363   0.37737   53.999
 3833.00    0.39889   0.36645   52.143
 3834.00    0.38491   0.36307   51.792
 3835.00    0.39760   0.36676   52.992
 3836.00    0.41902   0.37274   53.493
 3837.00    0.42551   0.37625   51.735
 3838.00    0.43050   0.37809   -1.000
 3839.00    0.41632   0.38450   -1.000
 3840.00    0.40796   0.40168  390.720
 3841.00    0.43236   0.43059  379.613
 3842.00    0.46827   0.46542  375.295
 3843.00    0.49191   0.49765  375.317
 3844.00    0.50470   0.52044   -1.000
 3845.00    0.50790   0.53255   -1.000
 3846.00    0.49727   0.53607   -1.000
 3847.00    0.49174   0.53302   -1.000
 3848.00    0.48128   0.52527   -1.000
 3849.00    0.49235   0.51690   -1.000
 3850.00    0.49135   0.51304   -1.000
 3851.00    0.48745   0.51522   -1.000
 3852.00    0.49935   0.51850   -1.000
 3853.00    0.50757   0.51641  390.720
 3854.00    0.48558   0.50665   -1.000
 3855.00    0.46259   0.49157  108.842
 3856.00    0.46512   0.47389   46.839
 3857.00    0.47699   0.45538   48.355
 3858.00    0.46415   0.44039   69.434
 3859.00    0.45614   0.43634   -1.000
 3860.00    0.46241   0.44818   -1.000
 3861.00    0.46793   0.47341  366.910
 3862.00    0.49843   0.50117  371.461
 3863.00    0.52628   0.52006   -1.000
 3864.00    0.53107   0.52580  384.617
 3865.00    0.52133   0.52281  390.720
 3866.00    0.50773   0.51739   -1.000
 3867.00    0.49427   0.51143   -1.000
 3868.00    0.49467   0.50295  109.103
 3869.00    0.49099   0.49055   68.653
 3870.00    0.47888   0.47719  390.720
 3871.00    0.45947   0.47083   -1.000
 3872.00    0.45765   0.47786   -1.000
 3873.00    0.47943   0.49771   -1.000
 3874.00    0.51417   0.52061  379.793
 3875.00    0.54840   0.53322   -1.000
 3876.00    0.55329   0.52791   -1.000
 3877.00    0.52912   0.51080   -1.000
 3878.00    0.50234   0.49462   -1.000
 3879.00    0.49390   0.48710  390.720
 3880.00    0.48941   0.48829  390.720
 3881.00    0.48813   0.49459  381.647
 3882.00    0.49007   0.50304   -1.000
 3883.00    0.51083   0.50956  382.377
 3884.00    0.54122   0.50713   -1.000
 3885.00    0.53584   0.49239   -1.000
 3886.00    0.51451   0.47282   -1.000
 3887.00    0.51462   0.46206   -1.000
 3888.00    0.53172   0.47130   -1.000
 3889.00    0.54918   0.50187   -1.000
 3890.00    0.57994   0.54553   -1.000
 3891.00    0.62941   0.58859   -1.000
 3892.00    0.66197   0.61886   -1.000
 3893.00    0.65424   0.63098   -1.000
 3894.00    0.64355   0.63015   -1.000
 3895.00    0.64596   0.62622   -1.000
 3896.00    0.64804   0.62455   -1.000
 3897.00    0.65710   0.62455   -1.000
 3898.00    0.65743   0.62379   -1.000
 3899.00    0.64630   0.62263   -1.000
 3900.00    0.65097   0.62269   -1.000
 3901.00    0.65691   0.62224   -1.000
 3902.00    0.66744   0.61772   -1.000
 3903.00    0.66123   0.60858   -1.000
 3904.00    0.62893   0.59947   -1.000
 3905.00    0.59914   0.59811  305.780
 3906.00    0.60718   0.60997  290.398
 3907.00    0.64715   0.63491   -1.000
 3908.00    0.68055   0.66588   -1.000
 3909.00    0.70738   0.69412   -1.000
 3910.00    0.72594   0.71427   -1.000
 3911.00    0.73718   0.72626  285.255
 3912.00    0.75364   0.73114   -1.000
 3913.00    0.74701   0.72962   -1.000
 3914.00    0.73546   0.72209   -1.000
 3915.00    0.72591   0.70941   -1.000
 3916.00    0.71401   0.69209   -1.000
 3917.00    0.69321   0.66994   -1.000
 3918.00    0.67019   0.64299   -1.000
 3919.00    0.64110   0.61377   -1.000
 3920.00    0.61574   0.58825   -1.000
 3921.00    0.59338   0.57230   -1.000
 3922.00    0.58603   0.56795   -1.000
 3923.00    0.59388   0.56966   -1.000
 3924.00    0.60255   0.56780   -1.000
 3925.00    0.59591   0.55437   -1.000
 3926.00    0.57523   0.52657   54.427
 3927.00    0.52909   0.48812   63.778
 3928.00    0.46542   0.44537   74.937
 3929.00    0.40022   0.40408   88.337
 3930.00    0.33791   0.36640  100.708
 3931.00    0.31062   0.33281  104.332
 3932.00    0.31567   0.30632   95.696
 3933.00    0.31970   0.29267   81.194
 3934.00    0.32283   0.29738   66.889
 3935.00    0.32902   0.32088   55.495
 3936.00    0.36125   0.35861   78.008
 3937.00    0.41644   0.40356   -1.000
 3938.00    0.46189   0.44899   -1.000
 3939.00    0.50267   0.48750   -1.000
 3940.00    0.54777   0.51464   -1.000
 3941.00    0.56776   0.52919   -1.000
 3942.00    0.55501   0.53520   -1.000
 3943.00    0.53668   0.54165  330.046
 3944.00    0.53931   0.55650   -1.000
 3945.00    0.57689   0.58030  314.759
 3946.00    0.63300   0.60755   -1.000
 3947.00    0.66452   0.63260   -1.000
 3948.00    0.68156   0.65446   -1.000
 3949.00    0.70440   0.67437   -1.000
 3950.00    0.72738   0.69089   -1.000
 3951.00    0.73894   0.70156   -1.000
 3952.00    0.73128   0.70797   -1.000
 3953.00    0.73429   0.71247   -1.000
 3954.00    0.75282   0.71404   -1.000
 3955.00    0.74659   0.70997   -1.000
 3956.00    0.71525   0.70014   -1.000
 3957.00    0.69967   0.68677   -1.000
 3958.00    0.70388   0.66837   -1.000
 3959.00    0.69040   0.63861   -1.000
 3960.00    0.63948   0.59535   -1.000
 3961.00    0.57434   0.54681  100.404
 3962.00    0.51756   0.50306   51.412
 3963.00    0.48028   0.46849   61.548
 3964.00    0.45468   0.43737   75.766
 3965.00    0.42485   0.40176   89.078
 3966.00    0.38236   0.36140   91.337
 3967.00    0.35067   0.32428   80.163
 3968.00    0.33257   0.30288   65.901
 3969.00    0.34054   0.30509   54.599
 3970.00    0.37237   0.33098   -1.000
 3971.00    0.41229   0.37426   -1.000
 3972.00    0.46034   0.42779   -1.000
 3973.00    0.51978   0.48503   -1.000
 3974.00    0.58269   0.54213   -1.000
 3975.00    0.63895   0.59641   -1.000
 3976.00    0.67511   0.64729   -1.000
 3977.00    0.71124   0.69473   -1.000
 3978.00    0.75942   0.73674   -1.000
 3979.00    0.79250   0.76965   -1.000
 3980.00    0.81106   0.78926   -1.000
 3981.00    0.81451   0.79652   -1.000
 3982.00    0.80054   0.79705  258.594
 3983.00    0.80431   0.79901  253.904
 3984.00    0.81934   0.80778  249.461
 3985.00    0.82578   0.82359  245.717
 3986.00    0.83762   0.84311  244.846
 3987.00    0.85475   0.86125  244.708
 3988.00    0.87064   0.87355  241.237
 3989.00    0.87598   0.87996  235.434
 3990.00    0.87575   0.88484   -1.000
 3991.00    0.89135   0.89211  237.736
 3992.00    0.91629   0.90073   -1.000
 3993.00    0.93129   0.90494   -1.000
 3994.00    0.92763   0.90031   -1.000
 3995.00    0.90012   0.88861  250.694
 3996.00    0.87523   0.87796  242.162
 3997.00    0.87119   0.87780  232.247
 3998.00    0.88116   0.89190   -1.000
 3999.00    0.90783   0.91660  222.939
 4000.00    0.93523   0.94232  223.169
 4001.00    0.95632   0.95906  232.507
 4002.00    0.97671   0.95829   -1.000
 4003.00    0.97507   0.93771   -1.000
 4004.00    0.92678   0.90503   -1.000
 4005.00    0.87678   0.87859  232.414
 4006.00    0.85812   0.87429   -1.000
 4007.00    0.88215   0.89446   -1.000
 4008.00    0.93529   0.92686  221.835
 4009.00    0.96214   0.95616  222.198
 4010.00    0.95916   0.97627   -1.000
 4011.00    0.96729   0.98869   -1.000
 4012.00    0.98806   0.99740   -1.000
 4013.00    1.00000   1.00505  220.251
 4014.00    1.01798   1.01126  222.637
 4015.00    1.02376   1.01438  223.636
 4016.00    1.01837   1.01511  221.361
 4017.00    1.00712   1.01664   -1.000
 4018.00    1.00204   1.02117   -1.000
 4019.00    1.02297   1.02674  223.983
 4020.00    1.03191   1.02897  225.334
 4021.00    1.01825   1.02494  226.953
 4022.00    1.00757   1.01656  225.214
 4023.00    0.99558   1.00822   -1.000
 4024.00    0.99176   1.00524   -1.000
 4025.00    1.00605   1.01144  210.720
 4026.00    1.02645   1.02491  215.895
 4027.00    1.04747   1.03414  227.699
 4028.00    1.05138   1.02332   -1.000
 4029.00    1.01312   0.98447   -1.000
 4030.00    0.94205   0.92659   -1.000
 4031.00    0.87285   0.87093  241.654
 4032.00    0.83672   0.83646  231.659
 4033.00    0.83937   0.83351  220.116
 4034.00    0.85895   0.86257  210.753
 4035.00    0.90278   0.91613   -1.000
 4036.00    0.97738   0.97844  208.322
 4037.00    1.04412   1.03115  213.131
 4038.00    1.07846   1.06013   -1.000
 4039.00    1.07009   1.06395  218.614
 4040.00    1.04715   1.04983  224.122
 4041.00    1.04556   1.02385   -1.000
 4042.00    1.03447   0.98229   -1.000
 4043.00    0.99117   0.92246   -1.000
 4044.00    0.90216   0.85676   -1.000
 4045.00    0.80411   0.81265  227.923
 4046.00    0.78347   0.81498   -1.000
 4047.00    0.86200   0.86272  213.474
 4048.00    0.95776   0.93130   -1.000
 4049.00    1.00980   0.99344   -1.000
 4050.00    1.03585   1.03200  222.531
 4051.00    1.05422   1.04446  227.185
 4052.00    1.04588   1.03607  229.843
 4053.00    1.01270   1.01534  231.511
 4054.00    0.97929   0.99011   -1.000
 4055.00    0.95923   0.96603  233.403
 4056.00    0.94132   0.94720  227.677
 4057.00    0.92360   0.93784   -1.000
 4058.00    0.92345   0.94035   -1.000
 4059.00    0.93829   0.94801  230.710
 4060.00    0.96485   0.94604   -1.000
 4061.00    0.96852   0.92286   -1.000
 4062.00    0.91106   0.88340   -1.000
 4063.00    0.83152   0.84912   -1.000
 4064.00    0.81034   0.83780   -1.000
 4065.00    0.86026   0.85344  223.521
 4066.00    0.91531   0.88628   -1.000
 4067.00    0.94603   0.92105   -1.000
 4068.00    0.97517   0.94391   -1.000
 4069.00    0.99649   0.94658   -1.000
 4070.00    0.98748   0.93091   -1.000
 4071.00    0.94314   0.91194   -1.000
 4072.00    0.91700   0.90604  229.950
 4073.00    0.94517   0.91307   -1.000
 4074.00    0.96811   0.91785   -1.000
 4075.00    0.94474   0.90679   -1.000
 4076.00    0.88533   0.88670  245.624
 4077.00    0.84561   0.87921   -1.000
 4078.00    0.86866   0.89962   -1.000
 4079.00    0.93376   0.94556   -1.000
 4080.00    1.00328   0.99688  221.675
 4081.00    1.05241   1.03253   -1.000
 4082.00    1.05414   1.04264  227.166
 4083.00    1.01713   1.03587   -1.000
 4084.00    0.99490   1.03001   -1.000
 4085.00    1.00165   1.03956   -1.000
 4086.00    1.03253   1.06658   -1.000
 4087.00    1.08564   1.10035   -1.000
 4088.00    1.12938   1.12671  209.849
 4089.00    1.13672   1.13560  212.980
 4090.00    1.11751   1.12733  214.223
 4091.00    1.08451   1.10945   -1.000
 4092.00    1.06171   1.08932   -1.000
 4093.00    1.06646   1.06663  232.410
 4094.00    1.06220   1.03821   -1.000
 4095.00    1.01739   1.00384  239.727
 4096.00    0.95486   0.96817   -1.000
 4097.00    0.92143   0.93623   -1.000
 4098.00    0.91548   0.90608  289.097
 4099.00    0.90421   0.87409   -1.000
 4100.00    0.86668   0.84412   -1.000
 4101.00    0.82161   0.82843   -1.000
 4102.00    0.81606   0.83821   -1.000
 4103.00    0.85404   0.87437   -1.000
 4104.00    0.89941   0.92438   -1.000
 4105.00    0.94742   0.97293   -1.000
 4106.00    1.00477   1.00794  229.602
 4107.00    1.02552   1.02496  233.587
 4108.00    1.00462   1.02565   -1.000
 4109.00    0.98535   1.01694   -1.000
 4110.00    0.95762   1.00830   -1.000
 4111.00    0.93978   1.00783   -1.000
 4112.00    0.94877   1.01809   -1.000
 4113.00    0.97553   1.03638   -1.000
 4114.00    1.01829   1.05508   -1.000
 4115.00    1.03425   1.06558   -1.000
 4116.00    1.02639   1.06243   -1.000
 4117.00    1.01145   1.04776   -1.000
 4118.00    0.99437   1.02952   -1.000
 4119.00    0.97249   1.01687   -1.000
 4120.00    0.97609   1.01406   -1.000
 4121.00    0.99940   1.01931   -1.000
 4122.00    0.99543   1.02888   -1.000
 4123.00    0.99568   1.04032   -1.000
 4124.00    1.02140   1.05103   -1.000
 4125.00    1.04089   1.05640   -1.000
 4126.00    1.02706   1.05216   -1.000
 4127.00    1.00478   1.03871   -1.000
 4128.00    0.98570   1.01933   -1.000
 4129.00    0.96933   0.99584   -1.000
 4130.00    0.95211   0.96862   -1.000
 4131.00    0.93285   0.94166  246.386
 4132.00    0.90991   0.92430   -1.000
 4133.00    0.89849   0.92776   -1.000
 4134.00    0.91367   0.95419   -1.000
 4135.00    0.95015   0.99495   -1.000
 4136.00    0.99889   1.03652   -1.000
 4137.00    1.03355   1.06799   -1.000
 4138.00    1.05374   1.08311   -1.000
 4139.00    1.05611   1.07877   -1.000
 4140.00    1.04223   1.05140  258.117
 4141.00    1.00667   1.00328  258.819
 4142.00    0.93179   0.94894   -1.000
 4143.00    0.84942   0.91198   -1.000
 4144.00    0.83610   0.90755   -1.000
 4145.00    0.89254   0.93276   -1.000
 4146.00    0.94680   0.96829   -1.000
 4147.00    0.97256   0.99393   -1.000
 4148.00    0.97562   1.00268   -1.000
 4149.00    0.95839   0.99902   -1.000
 4150.00    0.93316   0.99136   -1.000
 4151.00    0.92259   0.98420   -1.000
 4152.00    0.92280   0.97784   -1.000
 4153.00    0.92410   0.97195   -1.000
 4154.00    0.95045   0.96841   -1.000
 4155.00    1.09067   0.97133   -1.000
 4156.00    1.15477   0.98454   -1.000
 4157.00    0.90336   1.00762   -1.000
 4158.00    0.77705   1.03675   -1.000
 4159.00    0.93589   1.06654   -1.000
 4160.00    1.03796   1.09206   -1.000
 4161.00    1.04702   1.11144   -1.000
 4162.00    1.04497   1.12219   -1.000
 4163.00    1.04706   1.12120   -1.000
 4164.00    1.03615   1.10709   -1.000
 4165.00    1.00414   1.08414   -1.000
 4166.00    0.97127   1.06127   -1.000
 4167.00    0.95029   1.04732   -1.000
 4168.00    0.95580   1.04167   -1.000
 4169.00    0.98259   1.03617   -1.000
 4170.00    0.98599   1.02045   -1.000
 4171.00    0.94999   0.99297   -1.000
 4172.00    0.89649   0.96450   -1.000
 4173.00    0.86804   0.94774   -1.000
 4174.00    0.88190   0.94851   -1.000
 4175.00    0.91551   0.96111   -1.000
 4176.00    0.93320   0.97694   -1.000
 4177.00    0.92443   0.99192   -1.000
 4178.00    0.92711   1.00559   -1.000
 4179.00    0.94859   1.01626   -1.000
 4180.00    0.95506   1.02275   -1.000
 4181.00    0.95033   1.02722   -1.000
 4182.00    0.95739   1.03503   -1.000
 4183.00    0.98863   1.04797   -1.000
 4184.00    1.02558   1.05865   -1.000
 4185.00    1.03738   1.05857   -1.000
 4186.00    1.00959   1.04694   -1.000
 4187.00    0.97358   1.03414   -1.000
 4188.00    0.96787   1.03132   -1.000
 4189.00    0.99257   1.04059   -1.000
 4190.00    1.00871   1.05651   -1.000
 4191.00    1.01582   1.07238   -1.000
 4192.00    1.03285   1.08284   -1.000
 4193.00    1.05602   1.08162   -1.000
 4194.00    1.04302   1.06296   -1.000
 4195.00    0.98149   1.02839   -1.000
 4196.00    0.93462   0.98937   -1.000
 4197.00    0.92592   0.95722   -1.000
 4198.00    0.92029   0.93865   -1.000
 4199.00    0.91670   0.93269   -1.000
 4200.00    0.92042   0.93659   -1.000
 4201.00    0.92490   0.94846   -1.000
 4202.00    0.93018   0.96925   -1.000
 4203.00    0.95325   1.00026   -1.000
 4204.00    0.99986   1.03906   -1.000
 4205.00    1.03199   1.07904   -1.000
 4206.00    1.06717   1.11253   -1.000
 4207.00    1.08993   1.13469   -1.000
 4208.00    1.08727   1.14377   -1.000
 4209.00    1.08677   1.14324   -1.000
 4210.00    1.06520   1.13816   -1.000
 4211.00    1.05597   1.13034   -1.000
 4212.00    1.07012   1.11621   -1.000
 4213.00    1.05356   1.09263   -1.000
 4214.00    0.99822   1.06747   -1.000
 4215.00    0.95526   1.05780   -1.000
 4216.00    0.97879   1.07554   -1.000
 4217.00    1.06686   1.11739   -1.000
 4218.00    1.14894   1.16366   -1.000
 4219.00    1.18050   1.19510   -1.000
 4220.00    1.18582   1.19790  225.918
 4221.00    1.17217   1.16703  245.774
 4222.00    1.12603   1.10236   -1.000
 4223.00    1.04193   1.01129   -1.000
 4224.00    0.94076   0.90954   -1.000
 4225.00    0.82648   0.82498  268.141
 4226.00    0.72910   0.78540   -1.000
 4227.00    0.72721   0.80723   -1.000
 4228.00    0.84290   0.87998   -1.000
 4229.00    0.98221   0.97344  217.368
 4230.00    1.08410   1.05062   -1.000
 4231.00    1.13449   1.09365   -1.000
 4232.00    1.12950   1.10190   -1.000
 4233.00    1.10085   1.08857  235.393
 4234.00    1.06749   1.06911  235.945
 4235.00    1.03141   1.05592   -1.000
 4236.00    1.02310   1.05436   -1.000
 4237.00    1.04178   1.06586   -1.000
 4238.00    1.06236   1.08835   -1.000
 4239.00    1.08354   1.11786   -1.000
 4240.00    1.11337   1.15101   -1.000
 4241.00    1.14423   1.18631   -1.000
 4242.00    1.17430   1.22126   -1.000
 4243.00    1.20518   1.25160   -1.000
 4244.00    1.24786   1.26840   -1.000
 4245.00    1.26556   1.26188  234.091
 4246.00    1.21492   1.22901   -1.000
 4247.00    1.13839   1.17797   -1.000
 4248.00    1.08575   1.12475   -1.000
 4249.00    1.05244   1.08545   -1.000
 4250.00    1.01843   1.06674   -1.000
 4251.00    1.01245   1.06475   -1.000
 4252.00    1.04143   1.06842   -1.000
 4253.00    1.05143   1.07173   -1.000
 4254.00    1.02889   1.07790   -1.000
 4255.00    1.03666   1.09339   -1.000
 4256.00    1.09829   1.11309   -1.000
 4257.00    1.14810   1.11979   -1.000
 4258.00    1.12929   1.10475   -1.000
 4259.00    1.06503   1.08011   -1.000
 4260.00    1.02038   1.07214   -1.000
 4261.00    1.02807   1.09948   -1.000
 4262.00    1.08738   1.15701   -1.000
 4263.00    1.17848   1.22265   -1.000
 4264.00    1.24474   1.27081   -1.000
 4265.00    1.26472   1.28856   -1.000
 4266.00    1.25071   1.27387   -1.000
 4267.00    1.21413   1.23051   -1.000
 4268.00    1.16347   1.16469  256.453
 4269.00    1.10057   1.08704   -1.000
 4270.00    1.01674   1.01102  260.880
 4271.00    0.92691   0.95388   -1.000
 4272.00    0.88688   0.92763   -1.000
 4273.00    0.90349   0.93645   -1.000
 4274.00    0.93701   0.97575   -1.000
 4275.00    0.97242   1.03663   -1.000
 4276.00    1.04900   1.10534   -1.000
 4277.00    1.14792   1.16378   -1.000
 4278.00    1.20160   1.19584  232.581
 4279.00    1.19017   1.20043  230.512
 4280.00    1.14936   1.18916   -1.000
 4281.00    1.11902   1.17787   -1.000
 4282.00    1.11168   1.17215   -1.000
 4283.00    1.13289   1.16815   -1.000
 4284.00    1.14242   1.16041   -1.000
 4285.00    1.10855   1.14564   -1.000
 4286.00    1.07455   1.12280   -1.000
 4287.00    1.05650   1.09086   -1.000
 4288.00    1.02149   1.05327   -1.000
 4289.00    0.96149   1.02161   -1.000
 4290.00    0.93240   1.01084   -1.000
 4291.00    0.97496   1.02628   -1.000
 4292.00    1.05789   1.05671  239.728
 4293.00    1.10979   1.08248   -1.000
 4294.00    1.10312   1.09060   -1.000
 4295.00    1.07719   1.07725  273.784
 4296.00    1.05544   1.04445   -1.000
 4297.00    1.02286   0.99558   -1.000
 4298.00    0.95118   0.93984   -1.000
 4299.00    0.86464   0.89137   -1.000
 4300.00    0.82705   0.86317   -1.000
 4301.00    0.84055   0.85722   -1.000
 4302.00    0.86682   0.86511  285.798
 4303.00    0.88844   0.87355   -1.000
 4304.00    0.90357   0.87261   -1.000
 4305.00    0.89680   0.85699   -1.000
 4306.00    0.85378   0.82971   -1.000
 4307.00    0.80526   0.80363  302.229
 4308.00    0.78225   0.79558   -1.000
 4309.00    0.80374   0.81641   -1.000
 4310.00    0.86317   0.86565  255.988
 4311.00    0.93739   0.93546  242.659
 4312.00    1.00595   1.01754   -1.000
 4313.00    1.06943   1.10850   -1.000
 4314.00    1.13918   1.20634   -1.000
 4315.00    1.23170   1.30299   -1.000
 4316.00    1.35708   1.38580   -1.000
 4317.00    1.44807   1.43894  199.896
 4318.00    1.46551   1.45539  205.977
 4319.00    1.43308   1.43856  215.144
 4320.00    1.37468   1.39582   -1.000
 4321.00    1.32041   1.32961  248.981
 4322.00    1.26564   1.24391   -1.000
 4323.00    1.16662   1.15069   -1.000
 4324.00    1.04049   1.07649   -1.000
 4325.00    0.95553   1.05206   -1.000
 4326.00    0.97657   1.09050   -1.000
 4327.00    1.11300   1.17678   -1.000
 4328.00    1.27642   1.27564  202.827
 4329.00    1.36067   1.35349  199.975
 4330.00    1.35932   1.40085   -1.000
 4331.00    1.35537   1.42620   -1.000
 4332.00    1.37494   1.44280   -1.000
 4333.00    1.39837   1.45180   -1.000
 4334.00    1.42309   1.44306   -1.000
 4335.00    1.43392   1.40404   -1.000
 4336.00    1.37355   1.33116   -1.000
 4337.00    1.26504   1.23736   -1.000
 4338.00    1.14835   1.14879  268.633
 4339.00    1.07203   1.09553   -1.000
 4340.00    1.04794   1.09100   -1.000
 4341.00    1.08644   1.13151   -1.000
 4342.00    1.16805   1.19755   -1.000
 4343.00    1.24233   1.26744   -1.000
 4344.00    1.29158   1.32638   -1.000
 4345.00    1.33284   1.37331   -1.000
 4346.00    1.35872   1.41003   -1.000
 4347.00    1.36737   1.43506   -1.000
 4348.00    1.39771   1.44067   -1.000
 4349.00    1.41712   1.41727  230.224
 4350.00    1.36958   1.36749  224.235
 4351.00    1.25338   1.31150   -1.000
 4352.00    1.18432   1.27694   -1.000
 4353.00    1.20884   1.27931   -1.000
 4354.00    1.27294   1.31103   -1.000
 4355.00    1.33102   1.35251   -1.000
 4356.00    1.37777   1.38509  206.926
 4357.00    1.39378   1.40298  204.809
 4358.00    1.38524   1.41067   -1.000
 4359.00    1.35874   1.41957   -1.000
 4360.00    1.35530   1.43787   -1.000
 4361.00    1.40235   1.46477   -1.000
 4362.00    1.44475   1.49340   -1.000
 4363.00    1.46160   1.51537   -1.000
 4364.00    1.48640   1.52475   -1.000
 4365.00    1.50161   1.51697   -1.000
 4366.00    1.46083   1.49146   -1.000
 4367.00    1.39304   1.45691   -1.000
 4368.00    1.36200   1.42657   -1.000
 4369.00    1.36836   1.40596   -1.000
 4370.00    1.37360   1.39078   -1.000
 4371.00    1.36449   1.37062  220.783
 4372.00    1.34764   1.34004  223.407
 4373.00    1.31742   1.30435  216.593
 4374.00    1.26006   1.27752   -1.000
 4375.00    1.24834   1.27408   -1.000
 4376.00    1.28384   1.29606   -1.000
 4377.00    1.33774   1.32844  203.437
 4378.00    1.38076   1.34599   -1.000
 4379.00    1.38212   1.32903   -1.000
 4380.00    1.34769   1.26990   -1.000
 4381.00    1.27044   1.17837   -1.000
 4382.00    1.13779   1.08035   -1.000
 4383.00    0.99321   1.01282   -1.000
 4384.00    0.92915   1.00091   -1.000
 4385.00    1.00205   1.04565   -1.000
 4386.00    1.15123   1.11868   -1.000
 4387.00    1.25323   1.18549   -1.000
 4388.00    1.28447   1.22782   -1.000
 4389.00    1.27130   1.24903   -1.000
 4390.00    1.26589   1.26238  208.157
 4391.00    1.28802   1.27686  212.048
 4392.00    1.31486   1.29443   -1.000
 4393.00    1.32837   1.31387  205.283
 4394.00    1.32129   1.33688   -1.000
 4395.00    1.33467   1.36628   -1.000
 4396.00    1.39681   1.39811  205.061
 4397.00    1.45686   1.41995   -1.000
 4398.00    1.46891   1.42043   -1.000
 4399.00    1.42200   1.39934   -1.000
 4400.00    1.34076   1.36636   -1.000
 4401.00    1.31134   1.32581   -1.000
 4402.00    1.31901   1.27759   -1.000
 4403.00    1.26787   1.22302   -1.000
 4404.00    1.17070   1.17494  218.474
 4405.00    1.12018   1.15389   -1.000
 4406.00    1.15803   1.16935  209.630
 4407.00    1.21717   1.21588  200.746
 4408.00    1.25946   1.28196   -1.000
 4409.00    1.31510   1.35506   -1.000
 4410.00    1.39708   1.42111   -1.000
 4411.00    1.46911   1.46178  203.156
 4412.00    1.50085   1.46242   -1.000
 4413.00    1.47166   1.42774   -1.000
 4414.00    1.36975   1.38046  206.724
 4415.00    1.26871   1.35082   -1.000
 4416.00    1.26765   1.35953   -1.000
 4417.00    1.34629   1.40297   -1.000
 4418.00    1.41408   1.45810   -1.000
 4419.00    1.45848   1.49671   -1.000
 4420.00    1.46743   1.50477   -1.000
 4421.00    1.41742   1.48591   -1.000
 4422.00    1.35529   1.45793   -1.000
 4423.00    1.32101   1.43743   -1.000
 4424.00    1.32467   1.43174   -1.000
 4425.00    1.34176   1.43625   -1.000
 4426.00    1.35469   1.44427   -1.000
 4427.00    1.38863   1.45166   -1.000
 4428.00    1.40891   1.45558   -1.000
 4429.00    1.40457   1.45487   -1.000
 4430.00    1.37614   1.44980   -1.000
 4431.00    1.37772   1.43974   -1.000
 4432.00    1.40491   1.42295   -1.000
 4433.00    1.38670   1.39892  209.170
 4434.00    1.33062   1.37823   -1.000
 4435.00    1.30381   1.37940   -1.000
 4436.00    1.33765   1.41230   -1.000
 4437.00    1.42879   1.46690   -1.000
 4438.00    1.52107   1.51539  198.571
 4439.00    1.57385   1.53433   -1.000
 4440.00    1.55214   1.51864   -1.000
 4441.00    1.47967   1.48626  203.934
 4442.00    1.41169   1.46407   -1.000
 4443.00    1.40437   1.47139   -1.000
 4444.00    1.47892   1.50769   -1.000
 4445.00    1.55432   1.55469  190.155
 4446.00    1.59185   1.59301  191.865
 4447.00    1.61078   1.61315  193.855
 4448.00    1.62450   1.61774  193.164
 4449.00    1.60596   1.61212  193.762
 4450.00    1.59347   1.59698  199.601
 4451.00    1.59398   1.56942   -1.000
 4452.00    1.57545   1.52659   -1.000
 4453.00    1.51643   1.47142   -1.000
 4454.00    1.43040   1.41472  208.402
 4455.00    1.36881   1.37207  207.650
 4456.00    1.36305   1.34978  208.581
 4457.00    1.37974   1.34396   -1.000
 4458.00    1.38656   1.34409   -1.000
 4459.00    1.37843   1.34528   -1.000
 4460.00    1.36282   1.35138  202.182
 4461.00    1.33761   1.36979   -1.000
 4462.00    1.35788   1.40373   -1.000
 4463.00    1.43992   1.44697  195.533
 4464.00    1.50478   1.48632   -1.000
 4465.00    1.51371   1.51118  200.819
 4466.00    1.50287   1.51972   -1.000
 4467.00    1.50567   1.51838  200.669
 4468.00    1.50218   1.51688   -1.000
 4469.00    1.48366   1.52389   -1.000
 4470.00    1.47940   1.54517   -1.000
 4471.00    1.53220   1.58036   -1.000
 4472.00    1.60791   1.62121  180.617
 4473.00    1.66176   1.65930  179.475
 4474.00    1.68155   1.68884  178.278
 4475.00    1.67567   1.70972   -1.000
 4476.00    1.70138   1.72049   -1.000
 4477.00    1.75392   1.71486   -1.000
 4478.00    1.75321   1.68593   -1.000
 4479.00    1.67720   1.63787   -1.000
 4480.00    1.58549   1.58911  191.469
 4481.00    1.52367   1.56496   -1.000
 4482.00    1.53464   1.57835   -1.000
 4483.00    1.59422   1.62367   -1.000
 4484.00    1.67270   1.67788  182.170
 4485.00    1.74915   1.71687   -1.000
 4486.00    1.76805   1.72371   -1.000
 4487.00    1.72280   1.69999   -1.000
 4488.00    1.64964   1.66105  188.245
 4489.00    1.58559   1.62920   -1.000
 4490.00    1.55686   1.61599   -1.000
 4491.00    1.57550   1.61694   -1.000
 4492.00    1.62137   1.61698  196.167
 4493.00    1.62594   1.60591   -1.000
 4494.00    1.56906   1.58994   -1.000
 4495.00    1.51798   1.58412   -1.000
 4496.00    1.52367   1.59950   -1.000
 4497.00    1.57025   1.63211   -1.000
 4498.00    1.64341   1.66806   -1.000
 4499.00    1.69784   1.69623  180.244
 4500.00    1.70191   1.71563  174.238
 4501.00    1.68805   1.73557   -1.000
 4502.00    1.71233   1.76405   -1.000
 4503.00    1.79857   1.80092  174.022
 4504.00    1.87331   1.83562   -1.000
 4505.00    1.87667   1.85709   -1.000
 4506.00    1.83864   1.86029   -1.000
 4507.00    1.80367   1.85188   -1.000
 4508.00    1.80113   1.84178   -1.000
 4509.00    1.82130   1.83417  178.300
 4510.00    1.82898   1.82632  181.594
 4511.00    1.80642   1.81206  183.134
 4512.00    1.75824   1.78892   -1.000
 4513.00    1.70595   1.76220   -1.000
 4514.00    1.68135   1.74028   -1.000
 4515.00    1.70831   1.72830   -1.000
 4516.00    1.73554   1.72549  183.039
 4517.00    1.72057   1.72895  179.450
 4518.00    1.69961   1.73790   -1.000
 4519.00    1.73080   1.75249   -1.000
 4520.00    1.78952   1.76862   -1.000
 4521.00    1.81103   1.77662   -1.000
 4522.00    1.76449   1.76756  191.561
 4523.00    1.71248   1.73851   -1.000
 4524.00    1.67979   1.69317  202.678
 4525.00    1.64248   1.63760  205.727
 4526.00    1.57770   1.57774  204.919
 4527.00    1.51002   1.52281  201.643
 4528.00    1.44757   1.48430   -1.000
 4529.00    1.43320   1.46966   -1.000
 4530.00    1.46896   1.47843  200.830
 4531.00    1.52092   1.49985   -1.000
 4532.00    1.56721   1.52070   -1.000
 4533.00    1.56435   1.53376   -1.000
 4534.00    1.52403   1.54357   -1.000
 4535.00    1.50626   1.56306   -1.000
 4536.00    1.58200   1.60088   -1.000
 4537.00    1.71790   1.65208   -1.000
 4538.00    1.77848   1.69882   -1.000
 4539.00    1.75410   1.72546   -1.000
 4540.00    1.70781   1.73049   -1.000
 4541.00    1.68609   1.72465   -1.000
 4542.00    1.71199   1.71946   97.374
 4543.00    1.59513   1.71664   -1.000
 4544.00    0.63712   1.71262   -1.000
 4545.00    0.07711   1.70400   -1.000
 4546.00    0.13591   1.69257   -1.000
 4547.00    0.94630   1.68220   -1.000
 4548.00    0.69758   1.67469   -1.000
 4549.00    1.07386   1.67181   -1.000
 4550.00    1.58226   1.67357   -1.000
 4551.00    1.68582   1.67768  195.036
 4552.00    1.69215   1.67860  192.892
 4553.00    1.67904   1.67515  186.463
 4554.00    1.66310   1.67404  179.009
 4555.00    1.66513   1.68655   -1.000
 4556.00    1.73722   1.71885  175.491
 4557.00    1.82488   1.76572   -1.000
 4558.00    1.88103   1.81392   -1.000
 4559.00    1.88544   1.84868   -1.000
 4560.00    1.88265   1.86459   -1.000
 4561.00    1.88179   1.85998   -1.000
 4562.00    1.86022   1.83939   -1.000
 4563.00    1.81042   1.80917  181.377
 4564.00    1.75180   1.78194   -1.000
 4565.00    1.73761   1.77024   -1.000
 4566.00    1.79674   1.78128  175.663
 4567.00    1.86791   1.80756   -1.000
 4568.00    1.90918   1.83395   -1.000
 4569.00    1.90593   1.84412   -1.000
 4570.00    1.84704   1.83700  179.199
 4571.00    1.78280   1.82291   -1.000
 4572.00    1.77369   1.81693   -1.000
 4573.00    1.82273   1.82599  176.571
 4574.00    1.87180   1.84307   -1.000
 4575.00    1.87609   1.85610   -1.000
 4576.00    1.86057   1.85470  185.372
 4577.00    1.84666   1.83635  189.518
 4578.00    1.81279   1.80331  189.674
 4579.00    1.75537   1.76413  187.275
 4580.00    1.70555   1.73019   -1.000
 4581.00    1.70663   1.71235  185.939
 4582.00    1.74952   1.71081   -1.000
 4583.00    1.77014   1.71873   -1.000
 4584.00    1.76585   1.72744   -1.000
 4585.00    1.72997   1.73579  176.468
 4586.00    1.72661   1.75019   -1.000
 4587.00    1.77800   1.77490  177.858
 4588.00    1.84479   1.80520   -1.000
 4589.00    1.89197   1.82836   -1.000
 4590.00    1.86646   1.83319   -1.000
 4591.00    1.80636   1.81818  183.619
 4592.00    1.74975   1.79108   -1.000
 4593.00    1.73059   1.76400   -1.000
 4594.00    1.73189   1.74432  181.125
 4595.00    1.72510   1.73521  180.722
 4596.00    1.72806   1.73522  182.022
 4597.00    1.74205   1.74205  183.678
 4598.00    1.78042   1.75131   -1.000
 4599.00    1.78306   1.75913   -1.000
 4600.00    1.77403   1.76342  180.681
 4601.00    1.77118   1.76489  180.645
 4602.00    1.79199   1.76580   -1.000
 4603.00    1.80922   1.76763   -1.000
 4604.00    1.81029   1.77293   -1.000
 4605.00    1.79404   1.78641  171.638
 4606.00    1.80686   1.81283  169.379
 4607.00    1.89158   1.85206   -1.000
 4608.00    1.98643   1.89536   -1.000
 4609.00    2.04992   1.93062   -1.000
 4610.00    2.03237   1.94553   -1.000
 4611.00    1.98039   1.94152   -1.000
 4612.00    1.95260   1.92723   -1.000
 4613.00    1.95095   1.91584   -1.000
 4614.00    1.96969   1.91495   -1.000
 4615.00    1.98027   1.92429   -1.000
 4616.00    2.00626   1.93767   -1.000
 4617.00    2.01098   1.94858   -1.000
 4618.00    1.99885   1.95480   -1.000
 4619.00    1.98407   1.95733   -1.000
 4620.00    1.97183   1.95915  170.344
 4621.00    1.99119   1.96140   -1.000
 4622.00    2.00893   1.96242   -1.000
 4623.00    1.99660   1.95990   -1.000
 4624.00    1.98497   1.95301   -1.000
 4625.00    1.96887   1.94371   -1.000
 4626.00    1.95757   1.93473   -1.000
 4627.00    1.95541   1.92953   -1.000
 4628.00    1.94703   1.92925   -1.000
 4629.00    1.94936   1.93302  171.904
 4630.00    1.96752   1.93735   -1.000
 4631.00    1.98207   1.93834   -1.000
 4632.00    1.95680   1.93216   -1.000
 4633.00    1.90994   1.91764  177.569
 4634.00    1.88635   1.89707  179.836
 4635.00    1.88588   1.87432  180.784
 4636.00    1.87046   1.85087   -1.000
 4637.00    1.84046   1.82750  177.883
 4638.00    1.80131   1.80675  173.641
 4639.00    1.77372   1.79415   -1.000
 4640.00    1.79231   1.79331  171.382
 4641.00    1.84822   1.80267   -1.000
 4642.00    1.90335   1.81173   -1.000
 4643.00    1.90198   1.80941   -1.000
 4644.00    1.86763   1.78769   -1.000
 4645.00    1.79923   1.75210   -1.000
 4646.00    1.73741   1.71491   -1.000
 4647.00    1.70809   1.69354  175.646
 4648.00    1.72280   1.69892   -1.000
 4649.00    1.79475   1.72984   -1.000
 4650.00    1.87081   1.77466   -1.000
 4651.00    1.90462   1.81655   -1.000
 4652.00    1.93116   1.84339   -1.000
 4653.00    1.91865   1.85116   -1.000
 4654.00    1.87751   1.84608   -1.000
 4655.00    1.83235   1.84108  169.574
 4656.00    1.83372   1.85104  165.471
 4657.00    1.89968   1.88134   -1.000
 4658.00    2.00307   1.92710   -1.000
 4659.00    2.08583   1.97034   -1.000
 4660.00    2.09778   1.99429   -1.000
 4661.00    2.03338   1.98800   -1.000
 4662.00    1.95836   1.95501  177.507
 4663.00    1.88805   1.90405  184.697
 4664.00    1.87468   1.84473   -1.000
 4665.00    1.85381   1.78307   -1.000
 4666.00    1.78286   1.72643   -1.000
 4667.00    1.66507   1.68594   -1.000
 4668.00    1.62662   1.67496   -1.000
 4669.00    1.68484   1.69687  173.779
 4670.00    1.79534   1.74320   -1.000
 4671.00    1.87688   1.79342   -1.000
 4672.00    1.91007   1.83333   -1.000
 4673.00    1.90448   1.85674   -1.000
 4674.00    1.91297   1.87075   -1.000
 4675.00    1.93120   1.88054   -1.000
 4676.00    1.95865   1.88615   -1.000
 4677.00    1.97497   1.88233   -1.000
 4678.00    1.93364   1.86518   -1.000
 4679.00    1.87931   1.83935   -1.000
 4680.00    1.84148   1.81409   -1.000
 4681.00    1.81721   1.79981   -1.000
 4682.00    1.82779   1.80086   -1.000
 4683.00    1.89219   1.81454   -1.000
 4684.00    1.95008   1.83273   -1.000
 4685.00    1.96049   1.84622   -1.000
 4686.00    1.93999   1.85167   -1.000
 4687.00    1.91044   1.84957   -1.000
 4688.00    1.90980   1.84483   -1.000
 4689.00    1.92799   1.84044   -1.000
 4690.00    1.91653   1.83858   -1.000
 4691.00    1.89971   1.84001   -1.000
 4692.00    1.90516   1.84700   -1.000
 4693.00    1.94370   1.86024   -1.000
 4694.00    1.98003   1.87715   -1.000
 4695.00    2.00570   1.89003   -1.000
 4696.00    2.02645   1.89097   -1.000
 4697.00    1.99295   1.87486   -1.000
 4698.00    1.92507   1.84561   -1.000
 4699.00    1.87455   1.81150   -1.000
 4700.00    1.88286   1.78314   -1.000
 4701.00    1.89081   1.76503   -1.000
 4702.00    1.84851   1.75917   -1.000
 4703.00    1.83515   1.76404   -1.000
 4704.00    1.87150   1.77622   -1.000
 4705.00    1.92969   1.78863   -1.000
 4706.00    1.95309   1.79490   -1.000
 4707.00    1.91735   1.79393   -1.000
 4708.00    1.86919   1.79182   -1.000
 4709.00    1.86073   1.79678   -1.000
 4710.00    1.90908   1.81065   -1.000
 4711.00    1.96688   1.82842   -1.000
 4712.00    1.98829   1.84174   -1.000
 4713.00    1.95669   1.84838   -1.000
 4714.00    1.91730   1.85360   -1.000
 4715.00    1.91423   1.86744   -1.000
 4716.00    1.97926   1.89516   -1.000
 4717.00    2.05357   1.93360   -1.000
 4718.00    2.07917   1.97395   -1.000
 4719.00    2.10808   2.00623   -1.000
 4720.00    2.13849   2.02629   -1.000
 4721.00    2.12159   2.03362   -1.000
 4722.00    2.09219   2.03298   -1.000
 4723.00    2.06616   2.02794   -1.000
 4724.00    2.06899   2.01840   -1.000
 4725.00    2.10487   1.99730   -1.000
 4726.00    2.05825   1.95867   -1.000
 4727.00    1.93467   1.90572   -1.000
 4728.00    1.84028   1.85120  177.345
 4729.00    1.82763   1.81436  175.246
 4730.00    1.86792   1.80366   -1.000
 4731.00    1.90504   1.81859   -1.000
 4732.00    1.95049   1.84690   -1.000
 4733.00    1.98299   1.87674   -1.000
 4734.00    2.01677   1.89939   -1.000
 4735.00    2.03588   1.91361   -1.000
 4736.00    2.00064   1.92319   -1.000
 4737.00    1.99887   1.93308   -1.000
 4738.00    2.03990   1.94548   -1.000
 4739.00    2.07111   1.95810   -1.000
 4740.00    2.07790   1.96740   -1.000
 4741.00    2.06102   1.97223   -1.000
 4742.00    2.04382   1.97556   -1.000
 4743.00    2.07196   1.98112   -1.000
 4744.00    2.10087   1.99056   -1.000
 4745.00    2.08847   2.00486   -1.000
 4746.00    2.10341   2.02170   -1.000
 4747.00    2.13638   2.03923   -1.000
 4748.00    2.12463   2.05359   -1.000
 4749.00    2.10978   2.06229   -1.000
 4750.00    2.11436   2.06274   -1.000
 4751.00    2.10348   2.05345   -1.000
 4752.00    2.06805   2.03458   -1.000
 4753.00    2.02410   2.01120   -1.000
 4754.00    2.01338   1.98935   -1.000
 4755.00    2.01535   1.97608   -1.000
 4756.00    2.01003   1.97335   -1.000
 4757.00    2.00346   1.97947   -1.000
 4758.00    1.99087   1.98927  175.470
 4759.00    1.99627   1.99589  179.828
 4760.00    2.00252   1.99264  182.242
 4761.00    1.96051   1.97528  182.586
 4762.00    1.91633   1.94502   -1.000
 4763.00    1.89326   1.90805  180.970
 4764.00    1.87567   1.87293  178.501
 4765.00    1.84570   1.84832  174.484
 4766.00    1.85911   1.84068   -1.000
 4767.00    1.87749   1.85449   -1.000
 4768.00    1.93982   1.88652   -1.000
 4769.00    1.99449   1.92610   -1.000
 4770.00    2.01955   1.95897   -1.000
 4771.00    2.00565   1.97954   -1.000
 4772.00    1.98927   1.99206  168.346
 4773.00    2.02124   2.00706  168.447
 4774.00    2.06556   2.02907   -1.000
 4775.00    2.08693   2.05449   -1.000
 4776.00    2.08074   2.07589  171.927
 4777.00    2.08238   2.08779  172.971
 4778.00    2.07328   2.08925  173.418
 4779.00    2.06924   2.08019  174.256
 4780.00    2.05834   2.06227  175.653
 4781.00    2.03985   2.03692  175.622
 4782.00    2.00891   2.00861  176.194
 4783.00    1.97871   1.98193  177.929
 4784.00    1.97279   1.96266  178.979
 4785.00    1.98118   1.95219   -1.000
 4786.00    1.97407   1.94898   -1.000
 4787.00    1.97399   1.94957   -1.000
 4788.00    1.98664   1.95312   -1.000
 4789.00    2.00234   1.96064   -1.000
 4790.00    2.00341   1.97600   -1.000
 4791.00    2.02836   2.00314   -1.000
 4792.00    2.07262   2.04307   -1.000
 4793.00    2.13019   2.09153   -1.000
 4794.00    2.19418   2.13688   -1.000
 4795.00    2.21559   2.16675   -1.000
 4796.00    2.20173   2.17142   -1.000
 4797.00    2.14920   2.15231  173.549
 4798.00    2.08872   2.11975   -1.000
 4799.00    2.04930   2.09121   -1.000
 4800.00    2.04830   2.07937   -1.000
 4801.00    2.10066   2.08911  170.023
 4802.00    2.16881   2.11039   -1.000
 4803.00    2.17917   2.12863   -1.000
 4804.00    2.12714   2.12960  173.762
 4805.00    2.07596   2.11244   -1.000
 4806.00    2.04681   2.08533   -1.000
 4807.00    2.02797   2.06131   -1.000
 4808.00    2.02431   2.04908   -1.000
 4809.00    2.03629   2.05169  168.884
 4810.00    2.06430   2.06487  168.712
 4811.00    2.09993   2.08142   -1.000
 4812.00    2.10818   2.09573  167.698
 4813.00    2.10624   2.10681  166.641
 4814.00    2.11161   2.11777  165.606
 4815.00    2.13714   2.13214  164.931
 4816.00    2.17150   2.15099   -1.000
 4817.00    2.19326   2.17223   -1.000
 4818.00    2.21281   2.19119   -1.000
 4819.00    2.23013   2.20153   -1.000
 4820.00    2.23623   2.19727   -1.000
 4821.00    2.21804   2.17546   -1.000
 4822.00    2.14198   2.13992  170.607
 4823.00    2.07304   2.10224   -1.000
 4824.00    2.05393   2.07601   -1.000
 4825.00    2.10659   2.06936   -1.000
 4826.00    2.16300   2.07786   -1.000
 4827.00    2.14832   2.08955   -1.000
 4828.00    2.11658   2.09329   -1.000
 4829.00    2.12517   2.08698   -1.000
 4830.00    2.13151   2.07376   -1.000
 4831.00    2.09294   2.06033   -1.000
 4832.00    2.07490   2.05258   -1.000
 4833.00    2.08956   2.05681   -1.000
 4834.00    2.13585   2.07215   -1.000
 4835.00    2.17245   2.09283   -1.000
 4836.00    2.16608   2.10792   -1.000
 4837.00    2.16132   2.11036   -1.000
 4838.00    2.14319   2.09925   -1.000
 4839.00    2.10589   2.07950   -1.000
 4840.00    2.07491   2.05966   -1.000
 4841.00    2.07542   2.04603   -1.000
 4842.00    2.08451   2.04236   -1.000
 4843.00    2.06845   2.04929   -1.000
 4844.00    2.08012   2.06578   -1.000
 4845.00    2.16680   2.08743   -1.000
 4846.00    2.20768   2.10616   -1.000
 4847.00    2.16642   2.11447   -1.000
 4848.00    2.10224   2.11262  169.767
 4849.00    2.09206   2.10661  170.755
 4850.00    2.12586   2.10358   -1.000
 4851.00    2.14264   2.10150   -1.000
 4852.00    2.14622   2.09306   -1.000
 4853.00    2.11905   2.07106   -1.000
 4854.00    2.06360   2.03620   -1.000
 4855.00    1.97870   1.99737  185.161
 4856.00    1.95259   1.96210  201.349
 4857.00    2.00620   1.92994   -1.000
 4858.00    2.00734   1.88806   -1.000
 4859.00    1.92333   1.82741   -1.000
 4860.00    1.76617   1.75433  201.465
 4861.00    1.64832   1.69560   -1.000
 4862.00    1.66849   1.67823  182.976
 4863.00    1.79571   1.71114   -1.000
 4864.00    1.90064   1.77883   -1.000
 4865.00    1.96673   1.85563   -1.000
 4866.00    2.00939   1.92092   -1.000
 4867.00    2.01838   1.96304   -1.000
 4868.00    2.03596   1.97777   -1.000
 4869.00    2.02761   1.96491   -1.000
 4870.00    1.97104   1.93131   -1.000
 4871.00    1.87561   1.89305  177.771
 4872.00    1.87044   1.87111  176.424
 4873.00    1.94544   1.88017   -1.000
 4874.00    2.01066   1.91720   -1.000
 4875.00    2.02830   1.96733   -1.000
 4876.00    2.06516   2.01600   -1.000
 4877.00    2.08566   2.05671   -1.000
 4878.00    2.13012   2.08899   -1.000
 4879.00    2.17052   2.11066   -1.000
 4880.00    2.15704   2.11960   -1.000
 4881.00    2.07638   2.11406   -1.000
 4882.00    2.06320   2.09765   -1.000
 4883.00    2.08869   2.07500   -1.000
 4884.00    2.09318   2.04877   -1.000
 4885.00    2.02810   2.01946  178.761
 4886.00    1.97587   1.99088  181.491
 4887.00    1.98944   1.96637   -1.000
 4888.00    2.02876   1.94571   -1.000
 4889.00    2.03386   1.92556   -1.000
 4890.00    1.97630   1.90956   -1.000
 4891.00    1.94512   1.91068   -1.000
 4892.00    2.00254   1.94639   -1.000
 4893.00    2.14481   2.02015   -1.000
 4894.00    2.30133   2.11626   -1.000
 4895.00    2.37856   2.20756   -1.000
 4896.00    2.39447   2.27049   -1.000
 4897.00    2.40537   2.29815   -1.000
 4898.00    2.39249   2.29486   -1.000
 4899.00    2.32966   2.27274   -1.000
 4900.00    2.25554   2.24284   -1.000
 4901.00    2.24290   2.21508   -1.000
 4902.00    2.24089   2.19450   -1.000
 4903.00    2.22124   2.18537   -1.000
 4904.00    2.24999   2.18981   -1.000
 4905.00    2.31693   2.20562   -1.000
 4906.00    2.36155   2.22181   -1.000
 4907.00    2.35577   2.22323   -1.000
 4908.00    2.30668   2.20146   -1.000
 4909.00    2.22781   2.16380   -1.000
 4910.00    2.18932   2.12766   -1.000
 4911.00    2.20561   2.11107   -1.000
 4912.00    2.23480   2.12144   -1.000
 4913.00    2.27092   2.15193   -1.000
 4914.00    2.32667   2.18646   -1.000
 4915.00    2.34598   2.20533   -1.000
 4916.00    2.36166   2.19059   -1.000
 4917.00    2.30329   2.13343   -1.000
 4918.00    2.14219   2.04127   -1.000
 4919.00    1.99319   1.94112   -1.000
 4920.00    1.91911   1.86841   -1.000
 4921.00    1.97032   1.84694   -1.000
 4922.00    2.09138   1.87730   -1.000
 4923.00    2.18015   1.93787   -1.000
 4924.00    2.20314   2.00600   -1.000
 4925.00    2.23489   2.06925   16.486
 4926.00    2.29830   2.12952   16.374
 4927.00    2.33594   2.18929   16.278
 4928.00    2.39383   2.24530   16.450
 4929.00    2.41612   2.28965   16.913
 4930.00    2.43376   2.31177   17.533
 4931.00    2.42337   2.30672   17.553
 4932.00    2.35337   2.27717   17.226
 4933.00    2.25752   2.23511   17.230
 4934.00    2.25038   2.19322   17.760
 4935.00    2.27127   2.15819   18.244
 4936.00    2.28432   2.12576   -1.000
 4937.00    2.21557   2.09066   17.423
 4938.00    2.13301   2.05893   16.867
 4939.00    2.11047   2.04773   16.566
 4940.00    2.18676   2.07097   16.422
 4941.00    2.32508   2.12532   -1.000
 4942.00    2.40518   2.19154   -1.000
 4943.00    2.43347   2.24877   -1.000
 4944.00    2.45297   2.28533   16.434
 4945.00    2.43497   2.30323   16.239
 4946.00    2.40094   2.31172   16.195
 4947.00    2.41218   2.32124   16.129
 4948.00    2.44573   2.33645   16.219
 4949.00    2.44658   2.35438   16.333
 4950.00    2.44917   2.36828   16.526
 4951.00    2.45071   2.37207   16.738
 4952.00    2.43472   2.36040   17.204
 4953.00    2.40345   2.32848   18.109
 4954.00    2.32693   2.27264   18.809
 4955.00    2.24897   2.19212   18.376
 4956.00    2.11843   2.09904   17.307
 4957.00    1.97603   2.01906   16.735
 4958.00    1.95702   1.98211   16.626
 4959.00    2.10710   2.00392   16.712
 4960.00    2.26867   2.06750   -1.000
 4961.00    2.28009   2.13981   17.056
 4962.00    2.28479   2.18906   17.421
 4963.00    2.27889   2.20294   17.637
 4964.00    2.27797   2.18599   17.632
 4965.00    2.23307   2.15140   17.576
 4966.00    2.19553   2.11619   17.442
 4967.00    2.19167   2.09336   17.253
 4968.00    2.18380   2.08958   17.067
 4969.00    2.20060   2.10442   16.863
 4970.00    2.24022   2.13436   16.708
 4971.00    2.26960   2.17168   16.649
 4972.00    2.30761   2.20970   16.774
 4973.00    2.33495   2.24031   16.955
 4974.00    2.36318   2.25767   17.189
 4975.00    2.34823   2.25867   17.469
 4976.00    2.31274   2.24305   17.684
 4977.00    2.28462   2.21278   17.948
 4978.00    2.20120   2.17236   18.553
 4979.00    2.15858   2.12472   19.133
 4980.00    2.15008   2.07112   19.100
 4981.00    2.09704   2.01274   18.722
 4982.00    1.99860   1.95598   18.187
 4983.00    1.95058   1.91620   17.611
 4984.00    1.99697   1.90845   17.197
 4985.00    2.07997   1.93802   17.235
 4986.00    2.16092   1.99451   -1.000
 4987.00    2.23923   2.05816   -1.000
 4988.00    2.30268   2.10932   -1.000
 4989.00    2.28515   2.13795   17.501
 4990.00    2.24824   2.14689   17.433
 4991.00    2.24560   2.14726   17.423
 4992.00    2.26096   2.14823   17.330
 4993.00    2.27744   2.15363   17.253
 4994.00    2.27381   2.16183   17.370
 4995.00    2.27352   2.16940   17.613
 4996.00    2.29000   2.17179   17.968
 4997.00    2.28763   2.16298   18.178
 4998.00    2.24968   2.13745   18.175
 4999.00    2.18020   2.09815   18.000
 5000.00    2.10326   2.05379   17.902
 5001.00    2.07972   2.01584   18.181
 5002.00    2.11914   1.98936   18.635
 5003.00    2.15201   1.97011   -1.000
 5004.00    2.14697   1.95170   -1.000
 5005.00    2.08045   1.93308   17.675
 5006.00    2.03524   1.92335   17.520
 5007.00    2.05763   1.93290   17.779
 5008.00    2.15060   1.96247   -1.000
 5009.00    2.22834   1.99716   -1.000
 5010.00    2.21055   2.01561   -1.000
 5011.00    2.14850   2.00544   -1.000
 5012.00    2.06549   1.96980   18.850
 5013.00    2.00158   1.92582   18.475
 5014.00    2.00094   1.89302   18.411
 5015.00    2.02448   1.88343   18.404
 5016.00    2.08116   1.89504   -1.000
 5017.00    2.10418   1.91819   -1.000
 5018.00    2.09675   1.94320   18.144
 5019.00    2.12260   1.96424   -1.000
 5020.00    2.16146   1.97979   -1.000
 5021.00    2.16809   1.98979   -1.000
 5022.00    2.12495   1.99874   17.765
 5023.00    2.13803   2.01236   17.856
 5024.00    2.21488   2.03266   -1.000
 5025.00    2.25434   2.05400   -1.000
 5026.00    2.25501   2.06935   -1.000
 5027.00    2.22090   2.07717   17.158
 5028.00    2.20859   2.08632   16.883
 5029.00    2.26402   2.10717   16.706
 5030.00    2.33169   2.14324   -1.000
 5031.00    2.35682   2.18743   -1.000
 5032.00    2.40923   2.22525   -1.000
 5033.00    2.44613   2.24305   -1.000
 5034.00    2.39810   2.23151   -1.000
 5035.00    2.27368   2.19368   18.616
 5036.00    2.17266   2.14015   19.370
 5037.00    2.17827   2.08246   20.103
 5038.00    2.18968   2.02424   -1.000
 5039.00    2.11476   1.96588   -1.000
 5040.00    1.98355   1.91540   17.835
 5041.00    1.93676   1.89308   17.147
 5042.00    2.04138   1.91780   16.771
 5043.00    2.21769   1.99068   -1.000
 5044.00    2.32700   2.08886   -1.000
 5045.00    1.44112   2.17924   -1.000
 5046.00    0.16850   2.23235   -1.000
 5047.00    0.09678   2.23786   -1.000
 5048.00    0.80489   2.20293   -1.000
 5049.00    2.07615   2.15001   17.585
 5050.00    2.21709   2.10366   17.149
 5051.00    2.24148   2.08271   16.853
 5052.00    2.28168   2.09126   -1.000
 5053.00    2.34269   2.12362   -1.000
 5054.00    2.39952   2.16799   -1.000
 5055.00    2.44561   2.21233   -1.000
 5056.00    2.48855   2.24922   -1.000
 5057.00    2.49909   2.27899   -1.000
 5058.00    2.49299   2.30409   -1.000
 5059.00    2.50099   2.32706   -1.000
 5060.00    2.52762   2.34484   -1.000
 5061.00    2.56068   2.34937   -1.000
 5062.00    2.55593   2.33226   -1.000
 5063.00    2.47542   2.28973   -1.000
 5064.00    2.34889   2.23087   17.649
 5065.00    2.26137   2.17239   17.598
 5066.00    2.28184   2.13156   17.510
 5067.00    2.32845   2.11457   -1.000
 5068.00    2.33183   2.11703   -1.000
 5069.00    2.35933   2.12961   -1.000
 5070.00    2.38524   2.14352   -1.000
 5071.00    2.36725   2.15275   -1.000
 5072.00    2.34188   2.15640   -1.000
 5073.00    2.36597   2.15805   -1.000
 5074.00    2.40305   2.16139   -1.000
 5075.00    2.40209   2.16322   -1.000
 5076.00    2.37645   2.15681   -1.000
 5077.00    2.36811   2.13510   -1.000
 5078.00    2.31478   2.09600   -1.000
 5079.00    2.20305   2.04626   -1.000
 5080.00    2.12105   2.00186   18.065
 5081.00    2.12542   1.97932   17.722
 5082.00    2.19283   1.98435   -1.000
 5083.00    2.24345   2.01186   -1.000
 5084.00    2.28619   2.05262   -1.000
 5085.00    2.35333   2.09738   -1.000
 5086.00    2.39896   2.13983   -1.000
 5087.00    2.42563   2.17537   -1.000
 5088.00    2.44605   2.20285   -1.000
 5089.00    2.45177   2.22500   -1.000
 5090.00    2.46324   2.24545   -1.000
 5091.00    2.49506   2.26695   -1.000
 5092.00    2.52964   2.28776   -1.000
 5093.00    2.55553   2.30027   -1.000
 5094.00    2.55744   2.29473   -1.000
 5095.00    2.47752   2.26544   -1.000
 5096.00    2.39223   2.21563   -1.000
 5097.00    2.33206   2.15892   -1.000
 5098.00    2.27396   2.11152   17.296
 5099.00    2.24229   2.08726   17.187
 5100.00    2.28136   2.09205   -1.000
 5101.00    2.37231   2.11854   -1.000
 5102.00    2.42210   2.15031   -1.000
 5103.00    2.42074   2.17070   -1.000
 5104.00    2.38358   2.17254   -1.000
 5105.00    2.34813   2.15819   -1.000
 5106.00    2.31324   2.13429   -1.000
 5107.00    2.29529   2.10889   -1.000
 5108.00    2.28744   2.08910   -1.000
 5109.00    2.28729   2.08133   -1.000
 5110.00    2.29223   2.08937   -1.000
 5111.00    2.34308   2.11225   -1.000
 5112.00    2.39485   2.14593   -1.000
 5113.00    2.44045   2.18403   -1.000
 5114.00    2.48388   2.22229   -1.000
 5115.00    2.53411   2.25867   -1.000
 5116.00    2.56570   2.29001   -1.000
 5117.00    2.58203   2.31193   -1.000
 5118.00    2.58965   2.31905   -1.000
 5119.00    2.55667   2.30673   -1.000
 5120.00    2.49584   2.27385   -1.000
 5121.00    2.44456   2.22480   -1.000
 5122.00    2.36793   2.16699   -1.000
 5123.00    2.27328   2.11038   -1.000
 5124.00    2.22026   2.06565   -1.000
 5125.00    2.23305   2.03872   -1.000
 5126.00    2.27828   2.02995   -1.000
 5127.00    2.29226   2.03375   -1.000
 5128.00    2.28509   2.04465   -1.000
 5129.00    2.29847   2.06157   -1.000
 5130.00    2.33874   2.08546   -1.000
 5131.00    2.40870   2.11650   -1.000
 5132.00    2.46482   2.15127   -1.000
 5133.00    2.47523   2.18302   -1.000
 5134.00    2.51000   2.20614   -1.000
 5135.00    2.55053   2.21528   -1.000
 5136.00    2.54115   2.20731   -1.000
 5137.00    2.46598   2.18287   -1.000
 5138.00    2.37003   2.14974   -1.000
 5139.00    2.33272   2.12098   -1.000
 5140.00    2.36887   2.10364   -1.000
 5141.00    2.39435   2.09715   -1.000
 5142.00    2.34951   2.09660   -1.000
 5143.00    2.32108   2.09725   -1.000
 5144.00    2.36794   2.09710   -1.000
 5145.00    2.36215   2.09405   -1.000
 5146.00    2.30948   2.08644   -1.000
 5147.00    2.28993   2.07867   -1.000
 5148.00    2.31496   2.07517   -1.000
 5149.00    2.33207   2.07539   -1.000
 5150.00    2.34393   2.07469   -1.000
 5151.00    2.30789   2.06941   -1.000
 5152.00    2.27551   2.06275   -1.000
 5153.00    2.27519   2.06319   -1.000
 5154.00    2.30699   2.07865   -1.000
 5155.00    2.40076   2.11351   -1.000
 5156.00    2.49877   2.16343   -1.000
 5157.00    2.57974   2.21732   -1.000
 5158.00    2.59404   2.26160   -1.000
 5159.00    2.59359   2.28768   -1.000
 5160.00    2.59205   2.29143   -1.000
 5161.00    2.57942   2.27144   -1.000
 5162.00    2.54655   2.22673   -1.000
 5163.00    2.47145   2.15545   -1.000
 5164.00    2.35490   2.05653   -1.000
 5165.00    2.14520   1.93534   -1.000
 5166.00    1.87075   1.80448   21.164
 5167.00    1.68383   1.68906   21.177
 5168.00    1.66891   1.61397   22.640
 5169.00    1.82310   1.58098   -1.000
 5170.00    1.94031   1.57146   -1.000
 5171.00    1.84198   1.56400   -1.000
 5172.00    1.67844   1.55829   18.524
 5173.00    1.67107   1.58034   17.946
 5174.00    1.88299   1.64748   -1.000
 5175.00    2.16367   1.75474   -1.000
 5176.00    2.31199   1.87094   -1.000
 5177.00    2.36401   1.96182   -1.000
 5178.00    2.42985   2.00912   -1.000
 5179.00    2.41508   2.00363   -1.000
 5180.00    2.28739   1.94652   -1.000
 5181.00    2.12327   1.84865   -1.000
 5182.00    1.89158   1.73512   -1.000
 5183.00    1.66027   1.64843   18.383
 5184.00    1.64085   1.62688   17.923
 5185.00    1.89890   1.68633   -1.000
 5186.00    2.19809   1.80450   -1.000
 5187.00    2.36690   1.93630   -1.000
 5188.00    2.42389   2.04308   -1.000
 5189.00    2.45383   2.10249   -1.000
 5190.00    2.45095   2.11366   -1.000
 5191.00    2.37394   2.08903   -1.000
 5192.00    2.29809   2.05125   -1.000
 5193.00    2.28472   2.02410   -1.000
 5194.00    2.34034   2.02412   -1.000
 5195.00    2.37720   2.04910   -1.000
 5196.00    2.42003   2.09231   -1.000
 5197.00    2.47896   2.14434   -1.000
 5198.00    2.52623   2.19498   -1.000
 5199.00    2.55908   2.23405   -1.000
 5200.00    2.55621   2.25300   -1.000
 5201.00    2.53631   2.24529   -1.000
 5202.00    2.49836   2.20761   -1.000
 5203.00    2.44654   2.14298   -1.000
 5204.00    2.36514   2.05955   -1.000
 5205.00    2.27536   1.97162   -1.000
 5206.00    2.23100   1.89845   -1.000
 5207.00    2.21812   1.85359   -1.000
 5208.00    2.20485   1.84557   -1.000
 5209.00    2.23538   1.87607   -1.000
 5210.00    2.32530   1.94332   -1.000
 5211.00    2.45064   2.03503   -1.000
 5212.00    2.58527   2.12971   -1.000
 5213.00    2.65882   2.20434   -1.000
 5214.00    2.64458   2.24533   -1.000
 5215.00    2.59616   2.25700   -1.000
 5216.00    2.57508   2.25780   -1.000
 5217.00    2.59916   2.26819   -1.000
 5218.00    2.64331   2.29692   -1.000
 5219.00    2.70518   2.33648   -1.000
 5220.00    2.74471   2.37066   -1.000
 5221.00    2.75104   2.38217   -1.000
 5222.00    2.72450   2.36022   -1.000
 5223.00    2.62897   2.30267   -1.000
 5224.00    2.48186   2.21920   -1.000
 5225.00    2.33517   2.13096   -1.000
 5226.00    2.25086   2.06589   -1.000
 5227.00    2.28144   2.04736   -1.000
 5228.00    2.45739   2.08173   -1.000
 5229.00    2.65491   2.15145   -1.000
 5230.00    2.74567   2.22293   -1.000
 5231.00    2.74715   2.26739   -1.000
 5232.00    2.68599   2.27989   -1.000
 5233.00    2.60584   2.27590   -1.000
 5234.00    2.60153   2.27924   -1.000
 5235.00    2.66503   2.30655   -1.000
 5236.00    2.76980   2.35368   -1.000
 5237.00    2.84777   2.40685   -1.000
 5238.00    2.86066   2.44904   -1.000
 5239.00    2.83365   2.47231   -1.000
 5240.00    2.79164   2.47965   -1.000
 5241.00    2.77306   2.47843   -1.000
 5242.00    2.78482   2.47558   -1.000
 5243.00    2.80824   2.47191   -1.000
 5244.00    2.82978   2.46213   -1.000
 5245.00    2.79013   2.43817   -1.000
 5246.00    2.68125   2.39745   -1.000
 5247.00    2.58321   2.34799   -1.000
 5248.00    2.57473   2.30319   -1.000
 5249.00    2.59923   2.27422   -1.000
 5250.00    2.56807   2.26284   -1.000
 5251.00    2.57300   2.26608   -1.000
 5252.00    2.63146   2.28039   -1.000
 5253.00    2.67197   2.30022   -1.000
 5254.00    2.67272   2.32424   -1.000
 5255.00    2.67669   2.35580   -1.000
 5256.00    2.74758   2.39792   -1.000
 5257.00    2.85950   2.44617   -1.000
 5258.00    2.92071   2.48274   -1.000
 5259.00    2.89459   2.48844   -1.000
 5260.00    2.83292   2.45181   -1.000
 5261.00    2.72927   2.37363   -1.000
 5262.00    2.57888   2.26786   -1.000
 5263.00    2.42969   2.15498   -1.000
 5264.00    2.31407   2.05611   -1.000
 5265.00    2.25987   1.98429   -1.000
 5266.00    2.29547   1.93998   -1.000
 5267.00    2.36784   1.91432   -1.000
 5268.00    2.35463   1.89713   -1.000
 5269.00    2.22551   1.88666   -1.000
 5270.00    2.20287   1.89882   -1.000
 5271.00    2.36795   1.94757   -1.000
 5272.00    2.59234   2.03019   -1.000
 5273.00    2.70136   2.12470   -1.000
 5274.00    2.71132   2.20704   -1.000
 5275.00    2.71503   2.27800   -1.000
 5276.00    2.77522   2.34167   -1.000
 5277.00    2.88649   2.40104   -1.000
 5278.00    2.96832   2.44887   -1.000
 5279.00    2.99002   2.46927   -1.000
 5280.00    2.92627   2.45672   -1.000
 5281.00    2.83199   2.42021   -1.000
 5282.00    2.77064   2.38115   -1.000
 5283.00    2.73034   2.36316   -1.000
 5284.00    2.74508   2.38250   -1.000
 5285.00    2.90495   2.43747   -1.000
 5286.00    3.04902   2.51023   -1.000
 5287.00    3.10193   2.57693   -1.000
 5288.00    3.09638   2.62329   -1.000
 5289.00    3.09265   2.64890   -1.000
 5290.00    3.10940   2.65962   -1.000
 5291.00    3.10137   2.66023   -1.000
 5292.00    3.07424   2.64981   -1.000
 5293.00    3.05139   2.62508   -1.000
 5294.00    3.03284   2.58286   -1.000
 5295.00    2.95435   2.52184   -1.000
 5296.00    2.80370   2.44763   -1.000
 5297.00    2.67011   2.37627   -1.000
 5298.00    2.63761   2.32940   -1.000
 5299.00    2.72772   2.32029   -1.000
 5300.00    2.83964   2.34724   -1.000
 5301.00    2.89387   2.39722   -1.000
 5302.00    2.94120   2.45944   -1.000
 5303.00    3.03396   2.52579   -1.000
 5304.00    3.13551   2.58876   -1.000
 5305.00    3.18664   2.63917   -1.000
 5306.00    3.17160   2.66996   -1.000
 5307.00    3.13638   2.68436   -1.000
 5308.00    3.14241   2.69142   -1.000
 5309.00    3.18537   2.69762   -1.000
 5310.00    3.21242   2.70370   -1.000
 5311.00    3.21129   2.70432   -1.000
 5312.00    3.16943   2.69611   -1.000
 5313.00    3.13613   2.68004   -1.000
 5314.00    3.11029   2.65879   -1.000
 5315.00    3.09050   2.63735   -1.000
 5316.00    3.07590   2.61893   -1.000
 5317.00    3.06602   2.60569   -1.000
 5318.00    3.07850   2.59854   -1.000
 5319.00    3.08428   2.59331   -1.000
 5320.00    3.08479   2.58434   -1.000
 5321.00    3.06388   2.56591   -1.000
 5322.00    3.00564   2.53332   -1.000
 5323.00    2.93569   2.48481   -1.000
 5324.00    2.88497   2.42102   -1.000
 5325.00    2.87392   2.34553   -1.000
 5326.00    2.80868   2.26361   -1.000
 5327.00    2.60954   2.18654   -1.000
 5328.00    2.42796   2.13888   -1.000
 5329.00    2.47315   2.14149   -1.000
 5330.00    2.70722   2.20167   -1.000
 5331.00    2.91125   2.29838   -1.000
 5332.00    2.99992   2.39947   -1.000
 5333.00    3.04345   2.48664   -1.000
 5334.00    3.09691   2.55238   -1.000
 5335.00    3.14817   2.59579   -1.000
 5336.00    3.14463   2.61422   -1.000
 5337.00    3.10585   2.60417   -1.000
 5338.00    3.05133   2.56865   -1.000
 5339.00    2.96120   2.51808   -1.000
 5340.00    2.86649   2.47055   -1.000
 5341.00    2.85468   2.44442   -1.000
 5342.00    2.94856   2.44919   -1.000
 5343.00    3.05559   2.47399   -1.000
 5344.00    3.09183   2.50008   -1.000
 5345.00    3.05980   2.51418   -1.000
 5346.00    3.04232   2.51262   -1.000
 5347.00    3.03905   2.50204   -1.000
 5348.00    3.00330   2.49352   -1.000
 5349.00    2.99127   2.49750   -1.000
 5350.00    3.06271   2.52211   -1.000
 5351.00    3.17520   2.56672   -1.000
 5352.00    3.22740   2.62237   -1.000
 5353.00    3.24027   2.67963   -1.000
 5354.00    3.25346   2.72969   -1.000
 5355.00    3.29321   2.77059   -1.000
 5356.00    3.34496   2.79985   -1.000
 5357.00    3.34314   2.81466   -1.000
 5358.00    3.32350   2.81513   -1.000
 5359.00    3.31321   2.80168   -1.000
 5360.00    3.26388   2.77563   -1.000
 5361.00    3.18805   2.74077   -1.000
 5362.00    3.14580   2.70233   -1.000
 5363.00    3.13425   2.66471   -1.000
 5364.00    3.10946   2.63025   -1.000
 5365.00    3.07650   2.59940   -1.000
 5366.00    3.07700   2.56972   -1.000
 5367.00    3.07100   2.53653   -1.000
 5368.00    3.04851   2.49426   -1.000
 5369.00    2.96053   2.44191   -1.000
 5370.00    2.82279   2.39217   -1.000
 5371.00    2.76591   2.36705   -1.000
 5372.00    2.86384   2.38430   -1.000
 5373.00    3.06137   2.44466   -1.000
 5374.00    3.23286   2.52660   -1.000
 5375.00    3.30809   2.60459   -1.000
 5376.00    3.29645   2.65964   -1.000
 5377.00    3.26943   2.68989   -1.000
 5378.00    3.29018   2.70305   -1.000
 5379.00    3.31286   2.70477   -1.000
 5380.00    3.29292   2.69780   -1.000
 5381.00    3.24041   2.68346   -1.000
 5382.00    3.19697   2.66652   -1.000
 5383.00    3.18537   2.65413   -1.000
 5384.00    3.19648   2.65026   -1.000
 5385.00    3.23243   2.65375   -1.000
 5386.00    3.25449   2.65755   -1.000
 5387.00    3.23672   2.65183   -1.000
 5388.00    3.18126   2.63098   -1.000
 5389.00    3.10207   2.59785   -1.000
 5390.00    3.04393   2.56019   -1.000
 5391.00    3.02216   2.52668   -1.000
 5392.00    3.02153   2.50146   -1.000
 5393.00    3.02751   2.48152   -1.000
 5394.00    3.03086   2.46111   -1.000
 5395.00    3.00367   2.43719   -1.000
 5396.00    2.91685   2.41406   -1.000
 5397.00    2.87240   2.40164   -1.000
 5398.00    2.94264   2.41109   -1.000
 5399.00    3.04009   2.44298   -1.000
 5400.00    3.09131   2.48158   -1.000
 5401.00    3.09832   2.50681   -1.000
 5402.00    3.09669   2.50338   -1.000
 5403.00    3.02719   2.46696   -1.000
 5404.00    2.88752   2.40819   -1.000
 5405.00    2.77211   2.34824   -1.000
 5406.00    2.76298   2.31036   -1.000
 5407.00    2.85631   2.30683   -1.000
 5408.00    2.93919   2.32873   -1.000
 5409.00    2.93743   2.36471   -1.000
 5410.00    2.94903   2.40749   -1.000
 5411.00    3.03307   2.45798   -1.000
 5412.00    3.14602   2.51614   -1.000
 5413.00    3.22901   2.57348   -1.000
 5414.00    3.25079   2.62349   -1.000
 5415.00    3.25814   2.66384   -1.000
 5416.00    3.29254   2.69458   -1.000
 5417.00    3.32420   2.71534   -1.000
 5418.00    3.31900   2.72278   -1.000
 5419.00    3.27373   2.71682   -1.000
 5420.00    3.24515   2.70211   -1.000
 5421.00    3.26204   2.68406   -1.000
 5422.00    3.27610   2.66920   -1.000
 5423.00    3.22528   2.66055   -1.000
 5424.00    3.16708   2.65896   -1.000
 5425.00    3.20731   2.66567   -1.000
 5426.00    3.29467   2.67284   -1.000
 5427.00    3.30025   2.66691   -1.000
 5428.00    3.18503   2.63853   -1.000
 5429.00    3.04475   2.59079   -1.000
 5430.00    3.01780   2.54217   -1.000
 5431.00    3.08038   2.50751   -1.000
 5432.00    3.10133   2.48792   -1.000
 5433.00    3.04693   2.47674   -1.000
 5434.00    2.99641   2.47135   -1.000
 5435.00    3.00213   2.48098   -1.000
 5436.00    3.06232   2.51483   -1.000
 5437.00    3.17351   2.57401   -1.000
 5438.00    3.28030   2.64929   -1.000
 5439.00    3.37731   2.72404   -1.000
 5440.00    3.43807   2.78430   -1.000
 5441.00    3.43137   2.81951   -1.000
 5442.00    3.37857   2.82497   -1.000
 5443.00    3.31636   2.79799   -1.000
 5444.00    3.27194   2.73984   -1.000
 5445.00    3.14864   2.66112   -1.000
 5446.00    2.95716   2.58314   -1.000
 5447.00    2.87914   2.53158   -1.000
 5448.00    2.96453   2.52113   -1.000
 5449.00    3.10914   2.54609   -1.000
 5450.00    3.20979   2.58379   -1.000
 5451.00    3.26508   2.60691   -1.000
 5452.00    3.22336   2.60274   -1.000
 5453.00    3.14697   2.57225   -1.000
 5454.00    3.03714   2.52834   -1.000
 5455.00    2.95650   2.49292   -1.000
 5456.00    2.97021   2.48629   -1.000
 5457.00    3.06669   2.51391   -1.000
 5458.00    3.20199   2.56267   -1.000
 5459.00    3.26330   2.60524   -1.000
 5460.00    3.22810   2.62381   -1.000
 5461.00    3.15288   2.61719   -1.000
 5462.00    3.07783   2.59692   -1.000
 5463.00    3.03670   2.58063   -1.000
 5464.00    3.05479   2.57976   -1.000
 5465.00    3.11200   2.59487   -1.000
 5466.00    3.16385   2.61788   -1.000
 5467.00    3.17830   2.63890   -1.000
 5468.00    3.18629   2.65058   -1.000
 5469.00    3.18451   2.65000   -1.000
 5470.00    3.14149   2.63830   -1.000
 5471.00    3.12188   2.61875   -1.000
 5472.00    3.12596   2.59402   -1.000
 5473.00    3.09345   2.56445   -1.000
 5474.00    3.05631   2.52949   -1.000
 5475.00    2.99862   2.49399   -1.000
 5476.00    2.90886   2.46746   -1.000
 5477.00    2.89696   2.45788   -1.000
 5478.00    3.00422   2.47009   -1.000
 5479.00    3.10735   2.49422   -1.000
 5480.00    3.10383   2.51550   -1.000
 5481.00    3.01700   2.53116   -1.000
 5482.00    2.97597   2.54759   -1.000
 5483.00    3.04054   2.57480   -1.000
 5484.00    3.13945   2.60999   -1.000
 5485.00    3.20871   2.63947   -1.000
 5486.00    3.21181   2.65340   -1.000
 5487.00    3.16576   2.64986   -1.000
 5488.00    3.13748   2.63934   -1.000
 5489.00    3.14575   2.63366   -1.000
 5490.00    3.15920   2.63858   -1.000
 5491.00    3.20657   2.64973   -1.000
 5492.00    3.24563   2.65998   -1.000
 5493.00    3.23995   2.66514   -1.000
 5494.00    3.22476   2.66432   -1.000
 5495.00    3.22918   2.66047   -1.000
 5496.00    3.20259   2.65620   -1.000
 5497.00    3.15421   2.65321   -1.000
 5498.00    3.17642   2.65315   -1.000
 5499.00    3.22296   2.65375   -1.000
 5500.00    3.21596   2.64883   -1.000
 5501.00    3.16410   2.63529   -1.000
 5502.00    3.12418   2.61549   -1.000
 5503.00    3.13508   2.59613   -1.000
 5504.00    3.15190   2.58186   -1.000
 5505.00    3.11406   2.57172   -1.000
 5506.00    3.08373   2.56730   -1.000
 5507.00    3.11926   2.57166   -1.000
 5508.00    3.17863   2.58325   -1.000
 5509.00    3.20884   2.59399   -1.000
 5510.00    3.18200   2.59181   -1.000
 5511.00    3.12207   2.57263   -1.000
 5512.00    3.07010   2.54437   -1.000
 5513.00    3.05317   2.51994   -1.000
 5514.00    3.09272   2.51306   -1.000
 5515.00    3.14248   2.52846   -1.000
 5516.00    3.17961   2.56387   -1.000
 5517.00    3.25232   2.61223   -1.000
 5518.00    3.34676   2.66413   -1.000
 5519.00    3.39005   2.70971   -1.000
 5520.00    3.38796   2.74195   -1.000
 5521.00    3.38877   2.75825   -1.000
 5522.00    3.37185   2.76209   -1.000
 5523.00    3.36741   2.75525   -1.000
 5524.00    3.35229   2.73680   -1.000
 5525.00    3.30514   2.70547   -1.000
 5526.00    3.23828   2.66361   -1.000
 5527.00    3.14886   2.62153   -1.000
 5528.00    3.08274   2.59251   -1.000
 5529.00    3.11223   2.58907   -1.000
 5530.00    3.22194   2.61040   -1.000
 5531.00    3.28542   2.64246   -1.000
 5532.00    3.28578   2.66983   -1.000
 5533.00    3.27127   2.68406   -1.000
 5534.00    3.26733   2.68722   -1.000
 5535.00    3.26893   2.68542   -1.000
 5536.00    3.28265   2.68564   -1.000
 5537.00    3.30610   2.69316   -1.000
 5538.00    3.32866   2.70879   -1.000
 5539.00    3.37329   2.72935   -1.000
 5540.00    3.42838   2.74991   -1.000
 5541.00    3.45520   2.76374   -1.000
 5542.00    3.42771   2.76677   -1.000
 5543.00    3.39278   2.76054   -1.000
 5544.00    3.39195   2.75191   -1.000
 5545.00    3.40453   2.74825   -1.000
 5546.00    3.40889   2.75391   -1.000
 5547.00    3.42828   2.76942   -1.000
 5548.00    3.48066   2.79226   -1.000
 5549.00    3.52922   2.81566   -1.000
 5550.00    3.53633   2.83072   -1.000
 5551.00    3.51222   2.83316   -1.000
 5552.00    3.47888   2.82320   -1.000
 5553.00    3.43902   2.80506   -1.000
 5554.00    3.40599   2.78564   -1.000
 5555.00    3.39430   2.77085   -1.000
 5556.00    3.40410   2.76258   -1.000
 5557.00    3.41348   2.75916   -1.000
 5558.00    3.40579   2.75722   -1.000
 5559.00    3.41107   2.75457   -1.000
 5560.00    3.42345   2.74908   -1.000
 5561.00    3.39979   2.73889   -1.000
 5562.00    3.35741   2.72454   -1.000
 5563.00    3.33314   2.70931   -1.000
 5564.00    3.32482   2.69553   -1.000
 5565.00    3.31330   2.68392   -1.000
 5566.00    3.30239   2.67407   -1.000
 5567.00    3.31213   2.66743   -1.000
 5568.00    3.33040   2.66511   -1.000
 5569.00    3.34906   2.66655   -1.000
 5570.00    3.39730   2.67029   -1.000
 5571.00    3.46146   2.67509   -1.000
 5572.00    3.38469   2.67995   -1.000
 5573.00    3.21989   2.68614   -1.000
 5574.00    3.20990   2.69688   -1.000
 5575.00    3.32772   2.71497   -1.000
 5576.00    3.49463   2.73572   -1.000
 5577.00    3.51175   2.75393   -1.000
 5578.00    3.47750   2.76940   -1.000
 5579.00    3.45460   2.78038   -1.000
 5580.00    3.45180   2.78341   -1.000
 5581.00    3.44976   2.77786   -1.000
 5582.00    3.43366   2.76220   -1.000
 5583.00    3.40675   2.73498   -1.000
 5584.00    3.37841   2.69615   -1.000
 5585.00    3.31432   2.64407   -1.000
 5586.00    3.20928   2.58455   -1.000
 5587.00    3.11884   2.52956   -1.000
 5588.00    3.07959   2.49256   -1.000
 5589.00    3.10863   2.48346   -1.000
 5590.00    3.17175   2.49909   -1.000
 5591.00    3.22533   2.53127   -1.000
 5592.00    3.24953   2.56860   -1.000
 5593.00    3.24992   2.60464   -1.000
 5594.00    3.28069   2.63711   -1.000
 5595.00    3.35291   2.66448   -1.000
 5596.00    3.39917   2.68157   -1.000
 5597.00    3.34777   2.68108   -1.000
 5598.00    3.25462   2.66043   -1.000
 5599.00    3.20154   2.62749   -1.000
 5600.00    3.18560   2.59538   -1.000
 5601.00    3.16735   2.57701   -1.000
 5602.00    3.16099   2.58032   -1.000
 5603.00    3.21202   2.60906   -1.000
 5604.00    3.29428   2.66087   -1.000
 5605.00    3.38375   2.72399   -1.000
 5606.00    3.47597   2.78255   -1.000
 5607.00    3.52104   2.82734   -1.000
 5608.00    3.50433   2.85514   -1.000
 5609.00    3.47791   2.86896   -1.000
 5610.00    3.47823   2.87194   -1.000
 5611.00    3.50356   2.86388   -1.000
 5612.00    3.51412   2.83914   -1.000
 5613.00    3.44817   2.79339   -1.000
 5614.00    3.30522   2.73087   -1.000
 5615.00    3.18549   2.66719   -1.000
 5616.00    3.18027   2.62483   -1.000
 5617.00    3.24906   2.61442   -1.000
 5618.00    3.30390   2.63204   -1.000
 5619.00    3.29957   2.66106   -1.000
 5620.00    3.30787   2.68786   -1.000
 5621.00    3.35812   2.70478   -1.000
 5622.00    3.37055   2.70602   -1.000
 5623.00    3.30832   2.69006   -1.000
 5624.00    3.23025   2.66703   -1.000
 5625.00    3.21281   2.65118   -1.000
 5626.00    3.26948   2.65583   -1.000
 5627.00    3.34933   2.68185   -1.000
 5628.00    3.42112   2.71905   -1.000
 5629.00    3.46720   2.75762   -1.000
 5630.00    3.47904   2.78889   -1.000
 5631.00    3.47853   2.80695   -1.000
 5632.00    3.47314   2.81071   -1.000
 5633.00    3.43985   2.80155   -1.000
 5634.00    3.40701   2.78297   -1.000
 5635.00    3.37481   2.75939   -1.000
 5636.00    3.34221   2.73575   -1.000
 5637.00    3.33201   2.71692   -1.000
 5638.00    3.34220   2.70482   -1.000
 5639.00    3.34981   2.69809   -1.000
 5640.00    3.33677   2.69397   -1.000
 5641.00    3.31480   2.69107   -1.000
 5642.00    3.31476   2.69121   -1.000
 5643.00    3.33727   2.69799   -1.000
 5644.00    3.37007   2.71027   -1.000
 5645.00    3.39134   2.72452   -1.000
 5646.00    3.40432   2.73815   -1.000
 5647.00    3.42566   2.74877   -1.000
 5648.00    3.43302   2.75616   -1.000
 5649.00    3.43319   2.76255   -1.000
 5650.00    3.45273   2.77035   -1.000
 5651.00    3.49408   2.78007   -1.000
 5652.00    3.52690   2.78769   -1.000
 5653.00    3.51383   2.78648   -1.000
 5654.00    3.47783   2.77254   -1.000
 5655.00    3.44449   2.74739   -1.000
 5656.00    3.39631   2.71374   -1.000
 5657.00    3.30361   2.67608   -1.000
 5658.00    3.20685   2.64110   -1.000
 5659.00    3.21193   2.61892   -1.000
 5660.00    3.29398   2.61735   -1.000
 5661.00    3.33997   2.63221   -1.000
 5662.00    3.33548   2.65345   -1.000
 5663.00    3.34290   2.67862   -1.000
 5664.00    3.39312   2.70617   -1.000
 5665.00    3.43157   2.72953   -1.000
 5666.00    3.42241   2.74403   -1.000
 5667.00    3.38851   2.74865   -1.000
 5668.00    3.36606   2.74867   -1.000
 5669.00    3.37742   2.75208   -1.000
 5670.00    3.40767   2.76307   -1.000
 5671.00    3.45231   2.78294   -1.000
 5672.00    3.52033   2.80977   -1.000
 5673.00    3.57776   2.83812   -1.000
 5674.00    3.59757   2.86098   -1.000
 5675.00    3.60339   2.87592   -1.000
 5676.00    3.60535   2.88272   -1.000
 5677.00    3.59775   2.88282   -1.000
 5678.00    3.59364   2.87529   -1.000
 5679.00    3.58086   2.85894   -1.000
 5680.00    3.54517   2.83578   -1.000
 5681.00    3.50931   2.81032   -1.000
 5682.00    3.47328   2.78633   -1.000
 5683.00    3.47085   2.76876   -1.000
 5684.00    3.50863   2.76082   -1.000
 5685.00    3.52064   2.75887   -1.000
 5686.00    3.47985   2.75673   -1.000
 5687.00    3.43155   2.75506   -1.000
 5688.00    3.42748   2.75909   -1.000
 5689.00    3.48248   2.77425   -1.000
 5690.00    3.56013   2.80084   -1.000
 5691.00    3.62233   2.83250   -1.000
 5692.00    3.66498   2.86174   -1.000
 5693.00    3.66866   2.88104   -1.000
 5694.00    3.64505   2.88727   -1.000
 5695.00    3.63057   2.88118   -1.000
 5696.00    3.60860   2.86556   -1.000
 5697.00    3.56103   2.84211   -1.000
 5698.00    3.48625   2.81333   -1.000
 5699.00    3.41387   2.78359   -1.000
 5700.00    3.36612   2.75831   -1.000
 5701.00    3.33217   2.74036   -1.000
 5702.00    3.34449   2.73152   -1.000
 5703.00    3.40429   2.73120   -1.000
 5704.00    3.44737   2.73119   -1.000
 5705.00    3.43988   2.72273   -1.000
 5706.00    3.38947   2.70150   -1.000
 5707.00    3.32807   2.67095   -1.000
 5708.00    3.28563   2.64126   -1.000
 5709.00    3.26871   2.62098   -1.000
 5710.00    3.28904   2.61774   -1.000
 5711.00    3.32975   2.63484   -1.000
 5712.00    3.39026   2.67011   -1.000
 5713.00    3.49136   2.71800   -1.000
 5714.00    3.58382   2.77011   -1.000
 5715.00    3.63486   2.81606   -1.000
 5716.00    3.65242   2.85307   -1.000
 5717.00    3.66083   2.88138   -1.000
 5718.00    3.67088   2.90401   -1.000
 5719.00    3.68745   2.92458   -1.000
 5720.00    3.71832   2.94566   -1.000
 5721.00    3.75141   2.96580   -1.000
 5722.00    3.77847   2.98125   -1.000
 5723.00    3.77535   2.98791   -1.000
 5724.00    3.75015   2.98311   -1.000
 5725.00    3.72040   2.96730   -1.000
 5726.00    3.66670   2.94527   -1.000
 5727.00    3.62404   2.92536   -1.000
 5728.00    3.64484   2.91382   -1.000
 5729.00    3.68489   2.91161   -1.000
 5730.00    3.67846   2.91386   -1.000
 5731.00    3.64057   2.91803   -1.000
 5732.00    3.65700   2.92567   -1.000
 5733.00    3.73453   2.93892   -1.000
 5734.00    3.78488   2.95481   -1.000
 5735.00    3.77403   2.96610   -1.000
 5736.00    3.73866   2.96971   -1.000
 5737.00    3.70717   2.96712   -1.000
 5738.00    3.69288   2.96193   -1.000
 5739.00    3.69736   2.95797   -1.000
 5740.00    3.70809   2.95581   -1.000
 5741.00    3.71598   2.95618   -1.000
 5742.00    3.71604   2.95914   -1.000
 5743.00    3.71574   2.96537   -1.000
 5744.00    3.73254   2.97419   -1.000
 5745.00    3.77284   2.98145   -1.000
 5746.00    3.79393   2.98255   -1.000
 5747.00    3.74511   2.97626   -1.000
 5748.00    3.69942   2.96641   -1.000
 5749.00    3.73505   2.95863   -1.000
 5750.00    3.77910   2.95061   -1.000
 5751.00    3.75137   2.93762   -1.000
 5752.00    3.67845   2.91802   -1.000
 5753.00    3.62359   2.89961   -1.000
 5754.00    3.61825   2.89547   -1.000
 5755.00    3.65326   2.91086   -1.000
 5756.00    3.72173   2.94007   -1.000
 5757.00    3.78052   2.96667   -1.000
 5758.00    3.78269   2.97669   -1.000
 5759.00    3.73201   2.96455   -1.000
 5760.00    3.65054   2.93564   -1.000
 5761.00    3.57722   2.90460   -1.000
 5762.00    3.54833   2.88696   -1.000
 5763.00    3.59360   2.89325   -1.000
 5764.00    3.68208   2.92302   -1.000
 5765.00    3.76289   2.96507   -1.000
 5766.00    3.79875   3.00304   -1.000
 5767.00    3.79729   3.02918   -1.000
 5768.00    3.78210   3.04101   -1.000
 5769.00    3.74839   3.04021   -1.000
 5770.00    3.72543   3.03059   -1.000
 5771.00    3.70537   3.01720   -1.000
 5772.00    3.65676   3.00314   -1.000
 5773.00    3.59045   2.99123   -1.000
 5774.00    3.52285   2.98319   -1.000
 5775.00    3.45450   2.97844   -1.000
 5776.00    3.41314   2.97412   -1.000
 5777.00    3.43331   2.96386   -1.000
 5778.00    3.50403   2.94042   -1.000
 5779.00    3.54669   2.90125   -1.000
 5780.00    3.51074   2.85006   -1.000
 5781.00    3.44514   2.79759   -1.000
 5782.00    3.41385   2.75572   -1.000
 5783.00    3.42305   2.73309   -1.000
 5784.00    3.44561   2.72923   -1.000
 5785.00    3.47635   2.74191   -1.000
 5786.00    3.53459   2.77015   -1.000
 5787.00    3.62201   2.80897   -1.000
 5788.00    3.69736   2.84829   -1.000
 5789.00    3.71603   2.88133   -1.000
 5790.00    3.67509   2.90613   -1.000
 5791.00    3.63846   2.92708   -1.000
 5792.00    3.64184   2.95016   -1.000
 5793.00    3.68558   2.97717   -1.000
 5794.00    3.75539   3.00324   -1.000
 5795.00    3.80613   3.02049   -1.000
 5796.00    3.82217   3.02698   -1.000
 5797.00    3.81596   3.02717   -1.000
 5798.00    3.81422   3.03158   -1.000
 5799.00    3.83849   3.04692   -1.000
 5800.00    3.88138   3.07055   -1.000
 5801.00    3.89742   3.09155   -1.000
 5802.00    3.89211   3.09917   -1.000
 5803.00    3.86351   3.09092   -1.000
 5804.00    3.78260   3.07181   -1.000
 5805.00    3.73895   3.05252   -1.000
 5806.00    3.75723   3.04106   -1.000
 5807.00    3.76280   3.03991   -1.000
 5808.00    3.77331   3.04650   -1.000
 5809.00    3.81532   3.05624   -1.000
 5810.00    3.86255   3.06435   -1.000
 5811.00    3.88846   3.06644   -1.000
 5812.00    3.87277   3.05966   -1.000
 5813.00    3.83987   3.04481   -1.000
 5814.00    3.81048   3.02568   -1.000
 5815.00    3.78086   3.00921   -1.000
 5816.00    3.77190   3.00332   -1.000
 5817.00    3.80996   3.01358   -1.000
 5818.00    3.86438   3.03679   -1.000
 5819.00    3.91252   3.06320   -1.000
 5820.00    3.93882   3.08332   -1.000
 5821.00    3.93779   3.09319   -1.000
 5822.00    3.91880   3.09455   -1.000
 5823.00    3.90754   3.09189   -1.000
 5824.00    3.91804   3.09082   -1.000
 5825.00    3.94424   3.09300   -1.000
 5826.00    3.96417   3.09831   -1.000
 5827.00    3.96031   3.10498   -1.000
 5828.00    3.96798   3.11167   -1.000
 5829.00    3.96732   3.11708   -1.000
 5830.00    3.96272   3.11946   -1.000
 5831.00    3.96778   3.11734   -1.000
 5832.00    3.95668   3.11085   -1.000
 5833.00    3.94592   3.10104   -1.000
 5834.00    3.93700   3.09028   -1.000
 5835.00    3.93467   3.08133   -1.000
 5836.00    3.93991   3.07723   -1.000
 5837.00    3.91992   3.07788   -1.000
 5838.00    3.89655   3.08283   -1.000
 5839.00    3.89582   3.09300   -1.000
 5840.00    3.91753   3.10754   -1.000
 5841.00    3.95902   3.12226   -1.000
 5842.00    3.98471   3.13155   -1.000
 5843.00    3.97652   3.13029   -1.000
 5844.00    3.94529   3.11778   -1.000
 5845.00    3.88406   3.09652   -1.000
 5846.00    3.82085   3.07167   -1.000
 5847.00    3.80111   3.04811   -1.000
 5848.00    3.80367   3.02888   -1.000
 5849.00    3.79577   3.01338   -1.000
 5850.00    3.76923   2.99849   -1.000
 5851.00    3.72248   2.98069   -1.000
 5852.00    3.67568   2.95948   -1.000
 5853.00    3.66965   2.93735   -1.000
 5854.00    3.68930   2.91594   -1.000
 5855.00    3.68332   2.89483   -1.000
 5856.00    3.63719   2.87287   -1.000
 5857.00    3.58520   2.85410   -1.000
 5858.00    3.59345   2.84695   -1.000
 5859.00    3.65507   2.85624   -1.000
 5860.00    3.70047   2.87900   -1.000
 5861.00    3.71009   2.90452   -1.000
 5862.00    3.71661   2.92475   -1.000
 5863.00    3.71278   2.93653   -1.000
 5864.00    3.69847   2.94122   -1.000
 5865.00    3.68562   2.94214   -1.000
 5866.00    3.66664   2.94284   -1.000
 5867.00    3.66164   2.94822   -1.000
 5868.00    3.70951   2.96231   -1.000
 5869.00    3.76370   2.98205   -1.000
 5870.00    3.78643   3.00028   -1.000
 5871.00    3.78526   3.01240   -1.000
 5872.00    3.75716   3.01669   -1.000
 5873.00    3.75035   3.01514   -1.000
 5874.00    3.77105   3.00977   -1.000
 5875.00    3.77716   3.00103   -1.000
 5876.00    3.74998   2.98701   -1.000
 5877.00    3.71199   2.96667   -1.000
 5878.00    3.65935   2.94269   -1.000
 5879.00    3.61221   2.91908   -1.000
 5880.00    3.56734   2.90041   -1.000
 5881.00    3.49193   2.88847   -1.000
 5882.00    3.33117   2.88124   -1.000
 5883.00    3.04802   2.87032   -1.000
 5884.00    2.74113   2.84547   18.236
 5885.00    2.46573   2.79678   -1.000
 5886.00    2.39292   2.71297   -1.000
 5887.00    2.51692   2.58944   19.796
 5888.00    2.52832   2.43775   19.037
 5889.00    2.34466   2.28770   18.533
 5890.00    2.15988   2.17955   18.584
 5891.00    2.12967   2.13591   19.043
 5892.00    2.29381   2.14962   -1.000
 5893.00    2.56928   2.18587   -1.000
 5894.00    2.75460   2.21552   -1.000
 5895.00    2.80756   2.23516   -1.000
 5896.00    2.87042   2.26304   -1.000
 5897.00    3.04690   2.32478   -1.000
 5898.00    3.28150   2.42024   -1.000
 5899.00    3.46526   2.53096   -1.000
 5900.00    3.57702   2.63827   -1.000
 5901.00    3.64039   2.72846   -1.000
 5902.00    3.67071   2.79443   -1.000
 5903.00    3.68054   2.83754   -1.000
 5904.00    3.67825   2.86295   -1.000
 5905.00    3.68501   2.87777   -1.000
 5906.00    3.71431   2.88850   -1.000
 5907.00    3.73940   2.90008   -1.000
 5908.00    3.75282   2.91312   -1.000
 5909.00    3.74940   2.92434   -1.000
 5910.00    3.75807   2.93030   -1.000
 5911.00    3.76141   2.92725   -1.000
 5912.00    3.67593   2.91348   -1.000
 5913.00    3.59027   2.89143   -1.000
 5914.00    3.53692   2.86838   -1.000
 5915.00    3.51837   2.85392   -1.000
 5916.00    3.54829   2.85411   -1.000
 5917.00    3.60157   2.86740   -1.000
 5918.00    3.65450   2.88844   -1.000
 5919.00    3.69334   2.90934   -1.000
 5920.00    3.70293   2.92487   -1.000
 5921.00    3.67837   2.93353   -1.000
 5922.00    3.69753   2.93779   -1.000
 5923.00    3.72219   2.94176   -1.000
 5924.00    3.74274   2.94795   -1.000
 5925.00    3.75696   2.95471   -1.000
 5926.00    3.75452   2.95801   -1.000
 5927.00    3.76193   2.95511   -1.000
 5928.00    3.72059   2.94620   -1.000
 5929.00    3.66038   2.93626   -1.000
 5930.00    3.65726   2.93022   -1.000
 5931.00    3.70794   2.93098   -1.000
 5932.00    3.73357   2.93565   -1.000
 5933.00    3.72601   2.93955   -1.000
 5934.00    3.67981   2.94251   -1.000
 5935.00    3.67219   2.94746   -1.000
 5936.00    3.71735   2.95733   -1.000
 5937.00    3.75093   2.96894   -1.000
 5938.00    3.76432   2.97613   -1.000
 5939.00    3.76783   2.97614   -1.000
 5940.00    3.72360   2.96899   -1.000
 5941.00    3.67972   2.95951   -1.000
 5942.00    3.69068   2.95464   -1.000
 5943.00    3.73810   2.95888   -1.000
 5944.00    3.77403   2.96964   -1.000
 5945.00    3.79781   2.97991   -1.000
 5946.00    3.79618   2.98361   -1.000
 5947.00    3.76405   2.97821   -1.000
 5948.00    3.73060   2.96643   -1.000
 5949.00    3.70571   2.95373   -1.000
 5950.00    3.69665   2.94558   -1.000
 5951.00    3.70122   2.94070   -1.000
 5952.00    3.69706   2.93717   -1.000
 5953.00    3.68264   2.93423   -1.000
 5954.00    3.68581   2.93265   -1.000
 5955.00    3.70913   2.93222   -1.000
 5956.00    3.69073   2.93192   -1.000
 5957.00    3.66650   2.93472   -1.000
 5958.00    3.69091   2.94539   -1.000
 5959.00    3.74578   2.96463   -1.000
 5960.00    3.78949   2.98807   -1.000
 5961.00    3.81809   3.00954   -1.000
 5962.00    3.83143   3.02320   -1.000
 5963.00    3.82148   3.02769   -1.000
 5964.00    3.79152   3.02528   -1.000
 5965.00    3.76581   3.02113   -1.000
 5966.00    3.77987   3.02074   -1.000
 5967.00    3.80860   3.02777   -1.000
 5968.00    3.82172   3.04051   -1.000
 5969.00    3.84852   3.05466   -1.000
 5970.00    3.87686   3.06640   -1.000
 5971.00    3.87575   3.07243   -1.000
 5972.00    3.86513   3.06984   -1.000
 5973.00    3.85023   3.05765   -1.000
 5974.00    3.81609   3.03719   -1.000
 5975.00    3.77168   3.01198   -1.000
 5976.00    3.73763   2.98811   -1.000
 5977.00    3.72805   2.97243   -1.000
 5978.00    3.75177   2.96724   -1.000
 5979.00    3.77802   2.97093   -1.000
 5980.00    3.80638   2.97660   -1.000
 5981.00    3.81904   2.97685   -1.000
 5982.00    3.79506   2.96743   -1.000
 5983.00    3.72727   2.95191   -1.000
 5984.00    3.69021   2.93953   -1.000
 5985.00    3.72727   2.93882   -1.000
 5986.00    3.78816   2.95213   -1.000
 5987.00    3.82672   2.97309   -1.000
 5988.00    3.84667   2.99559   -1.000
 5989.00    3.87203   3.01610   -1.000
 5990.00    3.89161   3.03320   -1.000
 5991.00    3.88965   3.04784   -1.000
 5992.00    3.88550   3.06161   -1.000
 5993.00    3.91238   3.07384   -1.000
 5994.00    3.93955   3.07996   -1.000
 5995.00    3.92611   3.07573   -1.000
 5996.00    3.86566   3.06118   -1.000
 5997.00    3.82288   3.04257   -1.000
 5998.00    3.82219   3.02702   -1.000
 5999.00    3.84124   3.01897   -1.000
 6000.00    3.84030   3.01685   -1.000
 6001.00    3.81916   3.01683   -1.000
 6002.00    3.79779   3.01565   -1.000
 6003.00    3.79743   3.01175   -1.000
 6004.00    3.80240   3.00558   -1.000
 6005.00    3.77492   2.99591   -1.000
 6006.00    3.73331   2.98221   -1.000
 6007.00    3.71148   2.96964   -1.000
 6008.00    3.72283   2.96506   -1.000
 6009.00    3.77194   2.97208   -1.000
 6010.00    3.81982   2.98590   -1.000
 6011.00    3.85303   2.99615   -1.000
 6012.00    3.84264   2.99824   -1.000
 6013.00    3.81185   2.99395   -1.000
 6014.00    3.80164   2.98815   -1.000
 6015.00    3.80282   2.98373   -1.000
 6016.00    3.80669   2.97939   -1.000
 6017.00    3.82561   2.97483   -1.000
 6018.00    3.84753   2.97148   -1.000
 6019.00    3.82432   2.96879   -1.000
 6020.00    3.80361   2.96787   -1.000
 6021.00    3.82977   2.97247   -1.000
 6022.00    3.85010   2.98382   -1.000
 6023.00    3.86013   3.00130   -1.000
 6024.00    3.88609   3.02298   -1.000
 6025.00    3.92990   3.04672   -1.000
 6026.00    3.96065   3.07062   -1.000
 6027.00    3.96723   3.09314   -1.000
 6028.00    3.97888   3.11386   -1.000
 6029.00    3.99250   3.13238   -1.000
 6030.00    3.99696   3.14795   -1.000
 6031.00    3.99850   3.16186   -1.000
 6032.00    4.00166   3.17581   -1.000
 6033.00    4.01686   3.18991   -1.000
 6034.00    4.03864   3.20278   -1.000
 6035.00    4.05433   3.21080   -1.000
 6036.00    4.05333   3.21128   -1.000
 6037.00    4.04748   3.20505   -1.000
 6038.00    4.03727   3.19462   -1.000
 6039.00    4.01901   3.18430   -1.000
 6040.00    4.01290   3.17799   -1.000
 6041.00    4.02244   3.17883   -1.000
 6042.00    4.04223   3.18703   -1.000
 6043.00    4.07177   3.20046   -1.000
 6044.00    4.10751   3.21556   -1.000
 6045.00    4.11327   3.22841   -1.000
 6046.00    4.11463   3.23826   -1.000
 6047.00    4.11947   3.24424   -1.000
 6048.00    4.12343   3.24659   -1.000
 6049.00    4.12694   3.24530   -1.000
 6050.00    4.10950   3.23986   -1.000
 6051.00    4.08837   3.22910   -1.000
 6052.00    4.07504   3.21226   -1.000
 6053.00    4.06516   3.19118   -1.000
 6054.00    4.04423   3.16998   -1.000
 6055.00    4.01838   3.15261   -1.000
 6056.00    4.00143   3.14221   -1.000
 6057.00    4.00644   3.14099   -1.000
 6058.00    4.02169   3.14687   -1.000
 6059.00    4.06383   3.15474   -1.000
 6060.00    4.08260   3.15812   -1.000
 6061.00    3.99204   3.15199   -1.000
 6062.00    3.84010   3.13660   -1.000
 6063.00    3.21727   3.11704   10.279
 6064.00    2.37955   3.10276   -1.000
 6065.00    3.09909   3.10213   16.591
 6066.00    3.85280   3.12014   -1.000
 6067.00    4.08066   3.15324   -1.000
 6068.00    3.63297   3.19180   -1.000
 6069.00    2.01182   3.22629   -1.000
 6070.00    3.00800   3.25231   -1.000
 6071.00    4.08405   3.26876   -1.000
 6072.00    4.20921   3.27581   -1.000
 6073.00    4.17308   3.27404   -1.000
 6074.00    4.16666   3.26423   -1.000
 6075.00    4.14535   3.24718   -1.000
 6076.00    4.10294   3.22393   -1.000
 6077.00    4.05286   3.19686   -1.000
 6078.00    4.03307   3.16925   -1.000
 6079.00    4.01593   3.14480   -1.000
 6080.00    4.01337   3.12544   -1.000
 6081.00    4.00753   3.11187   -1.000
 6082.00    3.99811   3.10465   -1.000
 6083.00    3.99665   3.10488   -1.000
 6084.00    4.01713   3.11067   -1.000
 6085.00    4.03542   3.11857   -1.000
 6086.00    4.01654   3.12580   -1.000
 6087.00    4.02923   3.12920   -1.000
 6088.00    4.05507   3.12653   -1.000
 6089.00    4.00880   3.11850   -1.000
 6090.00    3.94285   3.10921   -1.000
 6091.00    3.95313   3.10510   -1.000
 6092.00    3.97312   3.10988   -1.000
 6093.00    4.01621   3.12326   -1.000
 6094.00    4.05552   3.14190   -1.000
 6095.00    4.06324   3.16040   -1.000
 6096.00    4.05527   3.17410   -1.000
 6097.00    4.07897   3.17999   -1.000
 6098.00    4.11020   3.17638   -1.000
 6099.00    4.09348   3.16047   -1.000
 6100.00    4.03857   3.13067   -1.000
 6101.00    3.91176   3.09270   -1.000
 6102.00    3.80688   3.05826   -1.000
 6103.00    3.83756   3.04287   -1.000
 6104.00    3.94096   3.05248   -1.000
 6105.00    4.01838   3.08005   -1.000
 6106.00    4.05497   3.11371   -1.000
 6107.00    4.06446   3.14421   -1.000
 6108.00    4.07008   3.16808   -1.000
 6109.00    4.04110   3.18521   -1.000
 6110.00    4.02661   3.19654   -1.000
 6111.00    4.06492   3.20461   -1.000
 6112.00    4.08004   3.21279   -1.000
 6113.00    4.06261   3.22069   -1.000
 6114.00    4.03815   3.22502   -1.000
 6115.00    4.02718   3.22164   -1.000
 6116.00    4.02521   3.20854   -1.000
 6117.00    4.01913   3.18627   -1.000
 6118.00    4.02869   3.15454   -1.000
 6119.00    4.01393   3.11472   -1.000
 6120.00    3.95114   3.07341   -1.000
 6121.00    3.87566   3.04071   -1.000
 6122.00    3.83534   3.02713   -1.000
 6123.00    3.91636   3.03577   -1.000
 6124.00    4.02859   3.05950   -1.000
 6125.00    4.04568   3.08627   -1.000
 6126.00    4.00677   3.10897   -1.000
 6127.00    3.98964   3.12762   -1.000
 6128.00    3.97845   3.14559   -1.000
 6129.00    3.97495   3.16589   -1.000
 6130.00    4.00603   3.18513   -1.000
 6131.00    4.04178   3.19437   -1.000
 6132.00    4.03906   3.18378   -1.000
 6133.00    3.99819   3.14795   -1.000
 6134.00    3.88103   3.09042   -1.000
 6135.00    3.75136   3.02509   -1.000
 6136.00    3.64380   2.97276   -1.000
 6137.00    3.62015   2.95255   -1.000
 6138.00    3.66158   2.96978   -1.000
 6139.00    3.80240   3.01265   -1.000
 6140.00    3.89930   3.06342   -1.000
 6141.00    3.89684   3.10877   -1.000
 6142.00    3.91821   3.14666   -1.000
 6143.00    3.97533   3.17770   -1.000
 6144.00    4.00008   3.19967   -1.000
 6145.00    4.00818   3.20949   -1.000
 6146.00    3.99608   3.20587   -1.000
 6147.00    3.98081   3.19110   -1.000
 6148.00    3.94663   3.17035   -1.000
 6149.00    3.92696   3.15099   -1.000
 6150.00    3.92273   3.13792   -1.000
 6151.00    3.92170   3.13236   -1.000
 6152.00    3.89578   3.13026   -1.000
 6153.00    3.90623   3.12566   -1.000
 6154.00    3.89735   3.11485   -1.000
 6155.00    3.86439   3.09702   -1.000
 6156.00    3.79410   3.07162   -1.000
 6157.00    3.76404   3.03478   -1.000
 6158.00    3.69875   2.98257   -1.000
 6159.00    3.58816   2.91452   -1.000
 6160.00    3.46130   2.83748   -1.000
 6161.00    3.34438   2.76746   -1.000
 6162.00    3.28119   2.72234   -1.000
 6163.00    3.34134   2.71386   -1.000
 6164.00    3.44202   2.73698   -1.000
 6165.00    3.53105   2.77622   -1.000
 6166.00    3.58144   2.81305   -1.000
 6167.00    3.58120   2.83677   -1.000
 6168.00    3.55010   2.84581   -1.000
 6169.00    3.50852   2.84939   -1.000
 6170.00    3.49280   2.85961   -1.000
 6171.00    3.55063   2.88214   -1.000
 6172.00    3.64337   2.91260   -1.000
 6173.00    3.65205   2.94203   -1.000
 6174.00    3.67566   2.96596   -1.000
 6175.00    3.68356   2.98382   -1.000
 6176.00    3.64425   2.99780   -1.000
 6177.00    3.65210   3.01143   -1.000
 6178.00    3.68294   3.02662   -1.000
 6179.00    3.70983   3.04242   -1.000
 6180.00    3.74698   3.05662   -1.000
 6181.00    3.76983   3.06731   -1.000
 6182.00    3.76476   3.07121   -1.000
 6183.00    3.72805   3.06514   -1.000
 6184.00    3.69028   3.04816   -1.000
 6185.00    3.66974   3.02143   -1.000
 6186.00    3.64372   2.98777   -1.000
 6187.00    3.58921   2.95124   -1.000
 6188.00    3.58319   2.91586   -1.000
 6189.00    3.54925   2.88503   -1.000
 6190.00    3.47477   2.86318   -1.000
 6191.00    3.45536   2.85655   -1.000
 6192.00    3.53031   2.87026   -1.000
 6193.00    3.62534   2.90126   -1.000
 6194.00    3.67954   2.93964   -1.000
 6195.00    3.72342   2.97377   -1.000
 6196.00    3.71331   2.99635   -1.000
 6197.00    3.65792   3.00488   -1.000
 6198.00    3.59241   3.00335   -1.000
 6199.00    3.54838   3.00004   -1.000
 6200.00    3.56060   3.00421   -1.000
 6201.00    3.61387   3.01891   -1.000
 6202.00    3.67768   3.04027   -1.000
 6203.00    3.72806   3.06284   -1.000
 6204.00    3.74546   3.08164   -1.000
 6205.00    3.74421   3.09487   -1.000
 6206.00    3.75626   3.10189   -1.000
 6207.00    3.75069   3.10193   -1.000
 6208.00    3.73745   3.09355   -1.000
 6209.00    3.73051   3.07460   -1.000
 6210.00    3.71646   3.04425   -1.000
 6211.00    3.66112   3.00363   -1.000
 6212.00    3.61082   2.95650   -1.000
 6213.00    3.56398   2.90935   -1.000
 6214.00    3.53657   2.87071   -1.000
 6215.00    3.59396   2.84637   -1.000
 6216.00    3.63190   2.83686   -1.000
 6217.00    3.67022   2.83753   -1.000
 6218.00    3.68517   2.84236   -1.000
 6219.00    3.59694   2.84720   -1.000
 6220.00    3.52350   2.85288   -1.000
 6221.00    3.54729   2.86084   -1.000
 6222.00    3.61894   2.87067   -1.000
 6223.00    3.70737   2.88046   -1.000
 6224.00    3.72871   2.88829   -1.000
 6225.00    3.72000   2.89162   -1.000
 6226.00    3.70007   2.88721   -1.000
 6227.00    3.66974   2.87218   -1.000
 6228.00    3.61900   2.84690   -1.000
 6229.00    3.54560   2.81705   -1.000
 6230.00    3.47284   2.79326   -1.000
 6231.00    3.45878   2.78760   -1.000
 6232.00    3.48448   2.80465   -1.000
 6233.00    3.52297   2.83959   -1.000
 6234.00    3.58303   2.88021   -1.000
 6235.00    3.65260   2.91260   -1.000
 6236.00    3.66817   2.92650   -1.000
 6237.00    3.64204   2.92046   -1.000
 6238.00    3.60755   2.89929   -1.000
 6239.00    3.55673   2.87125   -1.000
 6240.00    3.51028   2.84363   -1.000
 6241.00    3.50746   2.82113   -1.000
 6242.00    3.52274   2.80568   -1.000
 6243.00    3.48647   2.79890   -1.000
 6244.00    3.44447   2.80328   -1.000
 6245.00    3.46281   2.81957   -1.000
 6246.00    3.51092   2.84511   -1.000
 6247.00    3.58831   2.87437   -1.000
 6248.00    3.62781   2.89835   -1.000
 6249.00    3.62407   2.90905   -1.000
 6250.00    3.60217   2.90287   -1.000
 6251.00    3.53553   2.88180   -1.000
 6252.00    3.46707   2.85218   -1.000
 6253.00    3.44172   2.82211   -1.000
 6254.00    3.44200   2.79613   -1.000
 6255.00    3.42998   2.77549   -1.000
 6256.00    3.39472   2.76101   -1.000
 6257.00    3.39040   2.75592   -1.000
 6258.00    3.42583   2.76592   -1.000
 6259.00    3.44746   2.79304   -1.000
 6260.00    3.52151   2.83401   -1.000
 6261.00    3.61029   2.88063   -1.000
 6262.00    3.65389   2.92335   -1.000
 6263.00    3.67760   2.95463   -1.000
 6264.00    3.65345   2.97220   -1.000
 6265.00    3.61080   2.97915   -1.000
 6266.00    3.61980   2.98111   -1.000
 6267.00    3.63369   2.98243   -1.000
 6268.00    3.62684   2.98440   -1.000
 6269.00    3.60886   2.98798   -1.000
 6270.00    3.61012   2.99366   -1.000
 6271.00    3.61058   3.00027   -1.000
 6272.00    3.55125   3.00457   -1.000
 6273.00    3.46869   3.00318   -1.000
 6274.00    3.42705   2.99392   -1.000
 6275.00    3.38505   2.97725   -1.000
 6276.00    3.35847   2.95571   -1.000
 6277.00    3.31702   2.93280   -1.000
 6278.00    3.27392   2.91281   -1.000
 6279.00    3.23396   2.90007   -1.000
 6280.00    3.24466   2.89863   -1.000
 6281.00    3.32170   2.91071   -1.000
 6282.00    3.45089   2.93548   -1.000
 6283.00    3.58739   2.96852   -1.000
 6284.00    3.66251   3.00408   -1.000
 6285.00    3.69375   3.03742   -1.000
 6286.00    3.74775   3.06558   -1.000
 6287.00    3.80501   3.08585   -1.000
 6288.00    3.87041   3.09583   -1.000
 6289.00    3.87404   3.09380   -1.000
 6290.00    3.82838   3.08129   -1.000
 6291.00    3.80497   3.06226   -1.000
 6292.00    3.78655   3.04154   -1.000
 6293.00    3.75912   3.02143   -1.000
 6294.00    3.76987   3.00260   -1.000
 6295.00    3.74308   2.98430   -1.000
 6296.00    3.70506   2.96721   -1.000
 6297.00    3.68427   2.95430   -1.000
 6298.00    3.67252   2.94764   -1.000
 6299.00    3.70089   2.94559   -1.000
 6300.00    3.72832   2.94630   -1.000
 6301.00    3.71878   2.94943   -1.000
 6302.00    3.70836   2.95781   -1.000
 6303.00    3.73986   2.97357   -1.000
 6304.00    3.78820   2.99664   -1.000
 6305.00    3.81484   3.02463   -1.000
 6306.00    3.85721   3.05415   -1.000
 6307.00    3.92397   3.08033   -1.000
 6308.00    3.97109   3.09807   -1.000
 6309.00    3.97097   3.10364   -1.000
 6310.00    3.93612   3.09756   -1.000
 6311.00    3.88231   3.08348   -1.000
 6312.00    3.86039   3.06504   -1.000
 6313.00    3.84088   3.04497   -1.000
 6314.00    3.81806   3.02417   -1.000
 6315.00    3.80002   3.00478   -1.000
 6316.00    3.80156   2.98995   -1.000
 6317.00    3.80883   2.98254   -1.000
 6318.00    3.82623   2.98539   -1.000
 6319.00    3.84915   3.00049   -1.000
 6320.00    3.90927   3.02575   -1.000
 6321.00    3.96760   3.05559   -1.000
 6322.00    3.99637   3.08555   -1.000
 6323.00    4.03665   3.11274   -1.000
 6324.00    4.07260   3.13549   -1.000
 6325.00    4.06373   3.15271   -1.000
 6326.00    4.07541   3.16482   -1.000
 6327.00    4.10657   3.17356   -1.000
 6328.00    4.10037   3.18029   -1.000
 6329.00    4.12332   3.18553   -1.000
 6330.00    4.12812   3.18848   -1.000
 6331.00    4.10973   3.18791   -1.000
 6332.00    4.13314   3.18108   -1.000
 6333.00    4.13437   3.16497   -1.000
 6334.00    4.08054   3.14116   -1.000
 6335.00    4.01147   3.11636   -1.000
 6336.00    3.98730   3.09995   -1.000
 6337.00    3.99913   3.09767   -1.000
 6338.00    4.04195   3.10770   -1.000
 6339.00    4.11778   3.12375   -1.000
 6340.00    4.15760   3.13782   -1.000
 6341.00    4.12364   3.14389   -1.000
 6342.00    4.08666   3.14138   -1.000
 6343.00    4.06858   3.13570   -1.000
 6344.00    4.06380   3.13452   -1.000
 6345.00    4.05930   3.14419   -1.000
 6346.00    4.09411   3.16415   -1.000
 6347.00    4.15282   3.18959   -1.000
 6348.00    4.17818   3.21422   -1.000
 6349.00    4.17679   3.23244   -1.000
 6350.00    4.18687   3.24061   -1.000
 6351.00    4.18319   3.23732   -1.000
 6352.00    4.14280   3.22309   -1.000
 6353.00    4.10426   3.20015   -1.000
 6354.00    4.06269   3.17178   -1.000
 6355.00    4.00956   3.14159   -1.000
 6356.00    3.99416   3.11074   -1.000
 6357.00    3.96406   3.07861   -1.000
 6358.00    3.90141   3.04606   -1.000
 6359.00    3.88822   3.01645   -1.000
 6360.00    3.89177   2.99420   -1.000
 6361.00    3.90557   2.98312   -1.000
 6362.00    3.91636   2.98618   -1.000
 6363.00    3.93873   3.00434   -1.000
 6364.00    3.99770   3.03565   -1.000
 6365.00    4.05796   3.07555   -1.000
 6366.00    4.13195   3.11862   -1.000
 6367.00    4.20032   3.15977   -1.000
 6368.00    4.24871   3.19555   -1.000
 6369.00    4.27035   3.22397   -1.000
 6370.00    4.27075   3.24620   -1.000
 6371.00    4.28628   3.26406   -1.000
 6372.00    4.30077   3.27848   -1.000
 6373.00    4.29475   3.28856   -1.000
 6374.00    4.29065   3.29270   -1.000
 6375.00    4.29799   3.29036   -1.000
 6376.00    4.28662   3.28186   -1.000
 6377.00    4.25642   3.26825   -1.000
 6378.00    4.23293   3.25241   -1.000
 6379.00    4.20056   3.23892   -1.000
 6380.00    4.19006   3.23085   -1.000
 6381.00    4.20060   3.22933   -1.000
 6382.00    4.21207   3.23318   -1.000
 6383.00    4.21727   3.24037   -1.000
 6384.00    4.18897   3.24893   -1.000
 6385.00    4.18361   3.25791   -1.000
 6386.00    4.20058   3.26612   -1.000
 6387.00    4.20133   3.27107   -1.000
 6388.00    4.20270   3.27013   -1.000
 6389.00    4.17582   3.26130   -1.000
 6390.00    4.14087   3.24406   -1.000
 6391.00    4.09663   3.22076   -1.000
 6392.00    4.01068   3.19788   -1.000
 6393.00    3.94808   3.18358   -1.000
 6394.00    3.94782   3.18321   -1.000
 6395.00    3.99952   3.19391   -1.000
 6396.00    4.06057   3.20588   -1.000
 6397.00    4.08763   3.21038   -1.000
 6398.00    4.04264   3.20505   -1.000
 6399.00    3.95760   3.19669   -1.000
 6400.00    3.91081   3.19621   -1.000
 6401.00    3.94068   3.21098   -1.000
 6402.00    4.00543   3.23747   -1.000
 6403.00    4.05841   3.26476   -1.000
 6404.00    4.05176   3.28302   -1.000
 6405.00    3.99169   3.28727   -1.000
 6406.00    3.93000   3.27936   -1.000
 6407.00    3.85670   3.26532   -1.000
 6408.00    3.81708   3.25184   -1.000
 6409.00    3.81693   3.24160   -1.000
 6410.00    3.78762   3.23420   -1.000
 6411.00    3.74797   3.22948   -1.000
 6412.00    3.71332   3.22865   -1.000
 6413.00    3.68068   3.23299   -1.000
 6414.00    3.65668   3.24069   -1.000
 6415.00    3.64977   3.24801   -1.000
 6416.00    3.64699   3.25015   -1.000
 6417.00    3.60471   3.24383   -1.000
 6418.00    3.56763   3.23030   -1.000
 6419.00    3.49906   3.21536   -1.000
 6420.00    3.39894   3.20752   -1.000
 6421.00    3.36119   3.21340   -1.000
 6422.00    3.41252   3.23395   -1.000
 6423.00    3.48527   3.26283   -1.000
 6424.00    3.47632   3.29174   -1.000
 6425.00    3.42212   3.31329   -1.000
 6426.00    3.39678   3.32271   -1.000
 6427.00    0.26855   3.31787   -1.000
 6428.00    0.00000   3.29983   -2.000
