###################################################################
## OUTPUT of StarlightChains_v04.for    [Cid@UFSC - 01/Apr/2007] ##
###################################################################

## Some input info
NGC6356_a_1.cxt                          [arq_obs]
Base.BC03.S                              [arq_base]
NGC6356_a_1.msk                          [arq_masks]
StCv04.C11.config                        [arq_config]
  150                                    [N_base]
    0                                    [N_YAV_components = # of components with extra extinction!]
    0                                    [i_FitPowerLaw (1/0 = Yes/No)]
-9.99                                    [alpha_PowerLaw]
CCM                                      [red_law_option]
 1.458241                                [q_norm = A(l_norm)/A(V)]

## (Re)Sampling Parameters
 3359.00                                 [l_ini (A)]
 6428.00                                 [l_fin (A)]
    1.00                                 [dl    (A)]     (OBS: dl_cushion =    50.00 A)

## Normalization info
 4020.00                                 [l_norm (A) - for base]
 4010.00                                 [llow_norm (A) - window for f_obs]
 4060.00                                 [lupp_norm (A) - window for f_obs]
1.105556E-14                             [fobs_norm (in input units)]

## S/N
 4730.00                                 [llow_SN (A) - window for S/N]
 4780.00                                 [lupp_SN (A) - window for S/N]
  43.679                                 [S/N in S/N window]
  28.435                                 [S/N in norm. window]
  64.165                                 [S/N_err in S/N window]
  41.771                                 [S/N_err in norm. window]
  1.0000                                 [fscale_chi2]

## etc...
  2147483612                             [idum_orig]
  3068                                   [NOl_eff]
  1590                                   [Nl_eff]
  1478    NSIGMA                         [Ntot_cliped & clip_method]
  1962310                                [Nglobal_steps]
   7                                     [N_chains]
  31                                     [NEX0s_base = N_base in EX0s-fits]
 0   0   1      257   2.0   8.798E+02    [Clip-Bug, RC-Crash & Burn-In warning-flags, n_censored_weights, wei_nsig_threshold & wei_limit]
    60     60.124     60.107      0.016  [idt_all, wdt_TotTime, wdt_UsrTime & wdt_SysTime (sec)]

## Synthesis Results - Best model ##

 2.86498E+00                             [chi2/Nl_eff]
     1.91378                             [adev (%)]

   101.65421                             [sum-of-x (%)]
 3.07950E-14                             [Flux_tot (units of input spectrum!)]
 1.72723E-09                             [Mini_tot (???)]
 8.66168E-10                             [Mcor_tot (???)]

   6.08                                  [v0_min  (km/s)]
  71.06                                  [vd_min  (km/s)]
 0.7505                                  [AV_min  (mag)]
 0.0000                                  [YAV_min (mag)]

# j     x_j(%)      Mini_j(%)     Mcor_j(%)     age_j(yr)     Z_j      (L/M)_j    YAV?  Mstars   component_j        a/Fe...       SSP_chi2r SSP_adev(%)   SSP_AV   SSP_x(%)
  1      0.8057     1.7317E-03    3.4532E-03    1.000000E+06  0.00010  8.160E-03    0   1.0000   age020_m22            0.0000     1.4969E+03    31.2780   4.0000    77.7609
  2     11.9166     4.3918E-03    8.7577E-03    3.160000E+06  0.00010  4.759E-02    0   1.0000   age045_m22            0.0000     3.0106E+02     7.3983   3.0229    93.7013
  3      1.7375     1.5774E-03    3.0140E-03    5.010000E+06  0.00010  1.932E-02    0   0.9582   age055_m22            0.0000     4.7620E+02    12.3277   3.3769    81.0252
  4      0.0000     0.0000E+00    0.0000E+00    6.610000E+06  0.00010  9.973E-03    0   0.9297   age061_m22            0.0000     1.3962E+03    31.0102   4.0000    79.8776
  5      0.0000     0.0000E+00    0.0000E+00    8.710000E+06  0.00010  7.690E-03    0   0.9030   age067_m22            0.0000     1.3544E+03    30.6748   4.0000    80.3488
  6      0.0000     0.0000E+00    0.0000E+00    1.000000E+07  0.00010  6.375E-03    0   0.8902   age070_m22            0.0000     1.3419E+03    30.8131   4.0000    80.5537
  7      0.0000     0.0000E+00    0.0000E+00    1.445000E+07  0.00010  4.874E-03    0   0.8589   age078_m22            0.0000     1.0106E+03    26.0857   4.0000    83.5393
  8      0.0000     0.0000E+00    0.0000E+00    2.512000E+07  0.00010  4.103E-03    0   0.8174   age090_m22            0.0000     5.5424E+02    15.6530   4.0000    88.8115
  9      0.0000     0.0000E+00    0.0000E+00    4.000000E+07  0.00010  3.654E-03    0   0.7830   age104_m22            0.0000     5.2781E+02     9.1721   4.0000    91.4081
 10      0.0000     0.0000E+00    0.0000E+00    5.500000E+07  0.00010  3.093E-03    0   0.7597   age110_m22            0.0000     5.6387E+02     7.9475   4.0000    92.1375
 11      0.0000     0.0000E+00    0.0000E+00    1.015200E+08  0.00010  2.431E-03    0   0.7138   age116_m22            0.0000     6.8835E+02     8.0280   3.6642    94.3385
 12      0.0000     0.0000E+00    0.0000E+00    1.609000E+08  0.00010  1.319E-03    0   0.6775   age120_m22            0.0000     6.7710E+02     7.9412   3.1793    96.3764
 13      0.0000     0.0000E+00    0.0000E+00    2.861200E+08  0.00010  1.075E-03    0   0.6412   age125_m22            0.0000     1.1384E+03     8.4883   3.2213    99.5977
 14      0.0000     0.0000E+00    0.0000E+00    5.088000E+08  0.00010  7.183E-04    0   0.6083   age130_m22            0.0000     1.2678E+03     8.8715   2.9727   101.4949
 15      0.0000     0.0000E+00    0.0000E+00    9.047900E+08  0.00010  4.524E-04    0   0.5785   age135_m22            0.0000     1.2706E+03     9.0398   2.7649   102.7527
 16      0.0000     0.0000E+00    0.0000E+00    1.278050E+09  0.00010  3.018E-04    0   0.5588   age138_m22            0.0000     7.9657E+02     7.7906   2.2299   101.6855
 17      0.0000     0.0000E+00    0.0000E+00    1.434000E+09  0.00010  2.691E-04    0   0.5532   age139_m22            0.0000     7.0493E+02     7.4845   2.0732   101.3880
 18      0.0000     0.0000E+00    0.0000E+00    2.500000E+09  0.00010  1.582E-04    0   0.5296   age150_m22            0.0000     6.6645E+02     7.6446   1.9668   101.8177
 19      0.0000     0.0000E+00    0.0000E+00    4.250000E+09  0.00010  1.007E-04    0   0.5110   age158_m22            0.0000     4.8445E+02     7.0544   1.8175   100.6974
 20      0.0000     0.0000E+00    0.0000E+00    6.250000E+09  0.00010  6.869E-05    0   0.4985   age166_m22            0.0000     3.3442E+02     6.5823   1.7621    98.6354
 21      0.0000     0.0000E+00    0.0000E+00    7.500000E+09  0.00010  5.873E-05    0   0.4931   age171_m22            0.0000     3.2044E+02     6.6730   1.7553    98.0353
 22      0.0000     0.0000E+00    0.0000E+00    1.000000E+10  0.00010  4.481E-05    0   0.4854   age181_m22            0.0000     3.1383E+02     6.5927   1.7170    97.7247
 23      0.2725     1.3699E-01    1.3088E-01    1.300000E+10  0.00010  3.489E-05    0   0.4791   age193_m22            0.0000     2.9708E+02     6.4289   1.6585    97.3462
 24      0.0000     0.0000E+00    0.0000E+00    1.500000E+10  0.00010  3.035E-05    0   0.4766   age201_m22            0.0000     2.8761E+02     6.3498   1.6201    97.2194
 25      0.0000     0.0000E+00    0.0000E+00    1.800000E+10  0.00010  2.510E-05    0   0.4735   age213_m22            0.0000     2.6480E+02     6.2019   1.5515    96.7765
 26      0.0000     0.0000E+00    0.0000E+00    1.000000E+06  0.00040  8.458E-03    0   1.0000   age020_m32            0.0000     1.4917E+03    31.7154   4.0000    78.2305
 27      0.0000     0.0000E+00    0.0000E+00    3.160000E+06  0.00040  3.973E-02    0   1.0000   age045_m32            0.0000     5.0097E+02    13.1366   4.0000    88.5562
 28      0.0000     0.0000E+00    0.0000E+00    5.010000E+06  0.00040  1.935E-02    0   0.9532   age055_m32            0.0000     7.7598E+02    19.8975   4.0000    83.3793
 29      0.0000     0.0000E+00    0.0000E+00    6.610000E+06  0.00040  1.204E-02    0   0.9243   age061_m32            0.0000     1.1423E+03    27.4449   4.0000    81.9354
 30      0.0000     0.0000E+00    0.0000E+00    8.710000E+06  0.00040  9.433E-03    0   0.9001   age067_m32            0.0000     1.0683E+03    26.5829   4.0000    82.8460
 31      0.0000     0.0000E+00    0.0000E+00    1.000000E+07  0.00040  8.053E-03    0   0.8877   age070_m32            0.0000     1.0126E+03    25.6615   4.0000    83.2982
 32      0.0000     0.0000E+00    0.0000E+00    1.445000E+07  0.00040  7.027E-03    0   0.8578   age078_m32            0.0000     5.0470E+02    12.7363   4.0000    86.8982
 33      0.0000     0.0000E+00    0.0000E+00    2.512000E+07  0.00040  4.707E-03    0   0.8166   age090_m32            0.0000     4.2277E+02     9.1345   3.9904    88.7858
 34      0.0022     1.0157E-05    1.5853E-05    4.000000E+07  0.00040  3.714E-03    0   0.7827   age104_m32            0.0000     4.9024E+02     8.4166   3.7775    91.6582
 35      0.0000     0.0000E+00    0.0000E+00    5.500000E+07  0.00040  2.982E-03    0   0.7593   age110_m32            0.0000     5.3961E+02     8.2465   3.7109    92.6663
 36      0.0000     0.0000E+00    0.0000E+00    1.015200E+08  0.00040  2.188E-03    0   0.7143   age116_m32            0.0000     8.1629E+02     7.9615   3.4295    96.4146
 37      0.0000     0.0000E+00    0.0000E+00    1.609000E+08  0.00040  1.690E-03    0   0.6856   age120_m32            0.0000     1.0210E+03     8.2834   3.2136    98.6673
 38      0.0000     0.0000E+00    0.0000E+00    2.861200E+08  0.00040  1.152E-03    0   0.6509   age125_m32            0.0000     1.1561E+03     8.6167   2.9631   100.8045
 39      0.0000     0.0000E+00    0.0000E+00    5.088000E+08  0.00040  7.331E-04    0   0.6182   age130_m32            0.0000     1.1989E+03     8.7609   2.7863   101.8422
 40      0.0000     0.0000E+00    0.0000E+00    9.047900E+08  0.00040  3.960E-04    0   0.5890   age135_m32            0.0000     8.0460E+02     7.6926   2.3104   101.5802
 41      0.0000     0.0000E+00    0.0000E+00    1.278050E+09  0.00040  2.854E-04    0   0.5687   age138_m32            0.0000     7.3142E+02     7.7082   2.0317   102.7252
 42      0.0000     0.0000E+00    0.0000E+00    1.434000E+09  0.00040  2.531E-04    0   0.5632   age139_m32            0.0000     7.1416E+02     7.6896   1.9696   102.6925
 43      0.4974     5.8631E-02    6.2971E-02    2.500000E+09  0.00040  1.488E-04    0   0.5386   age150_m32            0.0000     5.5219E+02     7.0620   1.7079   101.5095
 44      0.7079     1.3672E-01    1.4174E-01    4.250000E+09  0.00040  9.082E-05    0   0.5199   age158_m32            0.0000     3.1469E+02     6.1389   1.6119    99.2037
 45      1.4570     4.0168E-01    4.0658E-01    6.250000E+09  0.00040  6.362E-05    0   0.5076   age166_m32            0.0000     2.0413E+02     5.8541   1.5809    96.4878
 46      0.0000     0.0000E+00    0.0000E+00    7.500000E+09  0.00040  5.289E-05    0   0.5027   age171_m32            0.0000     1.8292E+02     5.6490   1.5448    95.5274
 47      0.0036     1.5995E-03    1.5782E-03    1.000000E+10  0.00040  3.972E-05    0   0.4948   age181_m32            0.0000     1.6406E+02     5.4078   1.4790    94.5304
 48      0.0000     0.0000E+00    0.0000E+00    1.300000E+10  0.00040  3.283E-05    0   0.4870   age193_m32            0.0000     2.0912E+02     5.4424   1.4301    96.8279
 49      0.0000     0.0000E+00    0.0000E+00    1.500000E+10  0.00040  2.925E-05    0   0.4854   age201_m32            0.0000     2.4761E+02     5.5431   1.4101    98.1236
 50      0.0000     0.0000E+00    0.0000E+00    1.800000E+10  0.00040  2.469E-05    0   0.4819   age213_m32            0.0000     2.6337E+02     5.5269   1.3680    98.5754
 51      0.0000     0.0000E+00    0.0000E+00    1.000000E+06  0.00400  1.114E-02    0   1.0000   age020_m42            0.0000     1.3742E+03    29.9468   4.0000    78.8330
 52      0.0000     0.0000E+00    0.0000E+00    3.160000E+06  0.00400  4.073E-02    0   0.9999   age045_m42            0.0000     3.5331E+02     7.9525   4.0000    89.8385
 53      0.3644     2.5219E-04    4.7715E-04    5.010000E+06  0.00400  2.534E-02    0   0.9488   age055_m42            0.0000     5.8064E+02    15.8033   4.0000    85.7404
 54      3.0146     2.0470E-03    3.7635E-03    6.610000E+06  0.00400  2.583E-02    0   0.9220   age061_m42            0.0000     4.0240E+02     7.9073   3.8315    90.1861
 55      0.1678     1.7250E-04    3.0899E-04    8.710000E+06  0.00400  1.706E-02    0   0.8983   age067_m42            0.0000     3.8513E+02     9.1593   3.6730    88.1855
 56      0.0000     0.0000E+00    0.0000E+00    1.000000E+07  0.00400  1.271E-02    0   0.8862   age070_m42            0.0000     4.1142E+02    10.3480   3.6689    86.5766
 57      0.0000     0.0000E+00    0.0000E+00    1.445000E+07  0.00400  7.666E-03    0   0.8571   age078_m42            0.0000     4.3901E+02    10.6426   4.0000    84.3963
 58      0.0805     2.7848E-04    4.5392E-04    2.512000E+07  0.00400  5.070E-03    0   0.8174   age090_m42            0.0000     3.8524E+02     9.8482   3.5314    88.2456
 59      0.0000     0.0000E+00    0.0000E+00    4.000000E+07  0.00400  3.505E-03    0   0.7851   age104_m42            0.0000     3.4702E+02     8.4177   3.1964    91.4119
 60      0.0000     0.0000E+00    0.0000E+00    5.500000E+07  0.00400  3.059E-03    0   0.7629   age110_m42            0.0000     4.9157E+02     7.1220   3.2308    95.4700
 61      0.0000     0.0000E+00    0.0000E+00    1.015200E+08  0.00400  2.268E-03    0   0.7207   age116_m42            0.0000     9.1719E+02     7.5077   3.1212    99.8420
 62      0.0000     0.0000E+00    0.0000E+00    1.609000E+08  0.00400  1.720E-03    0   0.6930   age120_m42            0.0000     9.4282E+02     7.5926   2.9645   101.7178
 63      0.0000     0.0000E+00    0.0000E+00    2.861200E+08  0.00400  1.079E-03    0   0.6613   age125_m42            0.0000     9.1542E+02     7.5365   2.6009   102.2098
 64      0.0000     0.0000E+00    0.0000E+00    5.088000E+08  0.00400  6.261E-04    0   0.6313   age130_m42            0.0000     1.0054E+03     8.1354   2.4021   104.7407
 65      0.0000     0.0000E+00    0.0000E+00    9.047900E+08  0.00400  3.535E-04    0   0.6024   age135_m42            0.0000     6.8242E+02     7.1630   1.9897   105.8648
 66      0.0000     0.0000E+00    0.0000E+00    1.278050E+09  0.00400  2.677E-04    0   0.5837   age138_m42            0.0000     2.5799E+02     4.5213   1.2802   105.7804
 67      0.0000     0.0000E+00    0.0000E+00    1.434000E+09  0.00400  1.910E-04    0   0.5716   age139_m42            0.0000     3.6068E+02     5.1413   1.4502   106.1508
 68      0.0000     7.4573E-06    8.1238E-06    2.500000E+09  0.00400  9.818E-05    0   0.5463   age150_m42            0.0000     1.0956E+02     3.0554   1.1794   103.0454
 69      0.0000     0.0000E+00    0.0000E+00    4.250000E+09  0.00400  5.491E-05    0   0.5269   age158_m42            0.0000     4.4164E+01     2.4007   1.0623   100.8091
 70      0.0000     0.0000E+00    0.0000E+00    6.250000E+09  0.00400  3.857E-05    0   0.5151   age166_m42            0.0000     2.2450E+01     2.3217   0.9341   100.0581
 71      0.0000     0.0000E+00    0.0000E+00    7.500000E+09  0.00400  3.243E-05    0   0.5110   age171_m42            0.0000     1.5861E+01     2.4243   0.8531    99.8323
 72      0.0000     0.0000E+00    0.0000E+00    1.000000E+10  0.00400  2.424E-05    0   0.5028   age181_m42            0.0000     1.2039E+01     2.6146   0.7704    99.5941
 73      0.0000     0.0000E+00    0.0000E+00    1.300000E+10  0.00400  1.883E-05    0   0.4927   age193_m42            0.0000     1.3942E+01     2.7843   0.7300    99.5235
 74      0.0000     0.0000E+00    0.0000E+00    1.500000E+10  0.00400  1.685E-05    0   0.4919   age201_m42            0.0000     1.2948E+01     2.7039   0.7357    99.4850
 75      0.0000     0.0000E+00    0.0000E+00    1.800000E+10  0.00400  1.452E-05    0   0.4874   age213_m42            0.0000     1.1949E+01     2.5852   0.7523    99.6332
 76      0.0000     0.0000E+00    0.0000E+00    1.000000E+06  0.00800  1.286E-02    0   1.0000   age020_m52            0.0000     1.2729E+03    29.2408   4.0000    80.4686
 77      0.0000     0.0000E+00    0.0000E+00    3.160000E+06  0.00800  3.147E-02    0   0.9966   age045_m52            0.0000     1.1506E+03    27.4345   4.0000    81.8068
 78      0.0000     0.0000E+00    0.0000E+00    5.010000E+06  0.00800  2.664E-02    0   0.9443   age055_m52            0.0000     7.2581E+02    19.0329   4.0000    85.0284
 79      0.0000     0.0000E+00    0.0000E+00    6.610000E+06  0.00800  2.151E-02    0   0.9177   age061_m52            0.0000     3.2506E+02     9.0518   3.2491    89.0087
 80      0.0000     0.0000E+00    0.0000E+00    8.710000E+06  0.00800  1.628E-02    0   0.8948   age067_m52            0.0000     3.9924E+02     9.4717   3.6327    88.5156
 81      0.0000     0.0000E+00    0.0000E+00    1.000000E+07  0.00800  1.215E-02    0   0.8827   age070_m52            0.0000     4.3703E+02    10.0180   3.9828    86.6385
 82      0.0000     0.0000E+00    0.0000E+00    1.445000E+07  0.00800  8.739E-03    0   0.8552   age078_m52            0.0000     4.4995E+02     9.5069   4.0000    87.8803
 83      0.0000     0.0000E+00    0.0000E+00    2.512000E+07  0.00800  5.676E-03    0   0.8162   age090_m52            0.0000     5.0847E+02     8.8427   3.6113    91.6260
 84      0.0000     0.0000E+00    0.0000E+00    4.000000E+07  0.00800  3.939E-03    0   0.7841   age104_m52            0.0000     5.5248E+02     8.0588   3.4345    93.9702
 85      0.0000     0.0000E+00    0.0000E+00    5.500000E+07  0.00800  3.155E-03    0   0.7627   age110_m52            0.0000     6.2498E+02     7.7579   3.3925    95.6783
 86      0.0000     0.0000E+00    0.0000E+00    1.015200E+08  0.00800  2.206E-03    0   0.7226   age116_m52            0.0000     7.8738E+02     7.4535   3.1840    99.6503
 87      0.0000     0.0000E+00    0.0000E+00    1.609000E+08  0.00800  1.596E-03    0   0.6963   age120_m52            0.0000     8.5263E+02     7.4867   2.9571   101.3851
 88      0.0000     0.0000E+00    0.0000E+00    2.861200E+08  0.00800  1.002E-03    0   0.6665   age125_m52            0.0000     1.0463E+03     7.9010   2.6365   104.5038
 89      0.0000     0.0000E+00    0.0000E+00    5.088000E+08  0.00800  5.759E-04    0   0.6377   age130_m52            0.0000     1.0426E+03     8.1339   2.2587   109.1381
 90      0.0000     0.0000E+00    0.0000E+00    9.047900E+08  0.00800  2.972E-04    0   0.6086   age135_m52            0.0000     5.9410E+02     6.8466   1.6859   109.9069
 91      0.0000     0.0000E+00    0.0000E+00    1.278050E+09  0.00800  2.242E-04    0   0.5907   age138_m52            0.0000     2.1541E+02     4.5462   1.0784   109.8350
 92      0.0000     0.0000E+00    0.0000E+00    1.434000E+09  0.00800  1.645E-04    0   0.5787   age139_m52            0.0000     2.0810E+02     4.2238   1.2351   109.0738
 93      0.0000     0.0000E+00    0.0000E+00    2.500000E+09  0.00800  7.723E-05    0   0.5519   age150_m52            0.0000     6.3578E+01     3.0838   0.9034   106.3928
 94      0.0000     0.0000E+00    0.0000E+00    4.250000E+09  0.00800  4.151E-05    0   0.5320   age158_m52            0.0000     3.2256E+01     2.7515   0.8390   104.1062
 95      0.1572     9.1603E-02    9.4931E-02    6.250000E+09  0.00800  3.010E-05    0   0.5197   age166_m52            0.0000     1.7734E+01     3.0624   0.6408   103.4208
 96      0.0637     4.5307E-02    4.6429E-02    7.500000E+09  0.00800  2.467E-05    0   0.5139   age171_m52            0.0000     1.8104E+01     3.2530   0.5973   103.2074
 97     33.5921     3.1642E+01    3.1889E+01    1.000000E+10  0.00800  1.862E-05    0   0.5054   age181_m52            0.0000     2.7165E+01     3.9431   0.4586   103.3729
 98     19.5634     2.3944E+01    2.3816E+01    1.300000E+10  0.00800  1.433E-05    0   0.4988   age193_m52            0.0000     4.5335E+01     4.5446   0.3560   104.5661
 99      4.9194     6.9358E+00    6.8269E+00    1.500000E+10  0.00800  1.244E-05    0   0.4936   age201_m52            0.0000     5.5302E+01     4.7467   0.3241   105.2456
100      7.5563     1.2386E+01    1.2073E+01    1.800000E+10  0.00800  1.070E-05    0   0.4888   age213_m52            0.0000     6.2768E+01     4.9558   0.2861   105.2993
101      0.0000     0.0000E+00    0.0000E+00    1.000000E+06  0.02000  1.989E-02    0   1.0000   age020_m62            0.0000     1.3042E+03    29.1184   4.0000    79.5534
102      0.0000     0.0000E+00    0.0000E+00    3.160000E+06  0.02000  3.772E-02    0   0.9858   age045_m62            0.0000     1.1022E+03    25.9256   4.0000    81.6362
103      0.0000     0.0000E+00    0.0000E+00    5.010000E+06  0.02000  3.227E-02    0   0.9342   age055_m62            0.0000     4.8767E+02    12.1969   4.0000    87.8331
104      0.0000     0.0000E+00    0.0000E+00    6.610000E+06  0.02000  2.387E-02    0   0.9090   age061_m62            0.0000     4.5515E+02    10.7118   4.0000    85.6524
105      0.0000     0.0000E+00    0.0000E+00    8.710000E+06  0.02000  1.102E-02    0   0.8861   age067_m62            0.0000     7.0176E+02    16.0683   3.7250    80.1946
106      0.4043     7.0133E-04    1.2238E-03    1.000000E+07  0.02000  1.011E-02    0   0.8751   age070_m62            0.0000     5.4913E+02    13.7160   3.7273    82.9355
107      0.0000     0.0000E+00    0.0000E+00    1.445000E+07  0.02000  7.331E-03    0   0.8472   age078_m62            0.0000     4.5626E+02    11.7463   3.7296    84.7080
108      0.0000     0.0000E+00    0.0000E+00    2.512000E+07  0.02000  4.206E-03    0   0.8099   age090_m62            0.0000     4.7690E+02    11.7379   3.6437    84.2093
109      0.0000     0.0000E+00    0.0000E+00    4.000000E+07  0.02000  3.373E-03    0   0.7799   age104_m62            0.0000     4.3420E+02     8.4736   3.4080    92.2878
110      0.0000     0.0000E+00    0.0000E+00    5.500000E+07  0.02000  2.747E-03    0   0.7595   age110_m62            0.0000     5.5328E+02     7.8132   3.3244    95.3747
111      0.0000     0.0000E+00    0.0000E+00    1.015200E+08  0.02000  1.878E-03    0   0.7221   age116_m62            0.0000     8.6180E+02     7.6966   3.1677    99.6730
112      0.0000     0.0000E+00    0.0000E+00    1.609000E+08  0.02000  1.378E-03    0   0.6978   age120_m62            0.0000     1.0506E+03     7.9539   2.9955   102.2496
113      0.0000     0.0000E+00    0.0000E+00    2.861200E+08  0.02000  8.869E-04    0   0.6700   age125_m62            0.0000     1.3328E+03     8.7015   2.5995   106.7322
114      0.0000     0.0000E+00    0.0000E+00    5.088000E+08  0.02000  4.834E-04    0   0.6430   age130_m62            0.0000     1.1232E+03     8.4876   2.1153   110.7129
115      0.0000     0.0000E+00    0.0000E+00    9.047900E+08  0.02000  2.312E-04    0   0.6152   age135_m62            0.0000     5.4471E+02     6.6351   1.4858   111.9486
116      0.0000     0.0000E+00    0.0000E+00    1.278050E+09  0.02000  1.387E-04    0   0.5927   age138_m62            0.0000     2.1876E+02     4.3377   1.1145   108.9917
117      0.0000     0.0000E+00    0.0000E+00    1.434000E+09  0.02000  1.168E-04    0   0.5865   age139_m62            0.0000     1.6777E+02     3.9633   1.0899   107.7060
118      0.0000     0.0000E+00    0.0000E+00    2.500000E+09  0.02000  5.505E-05    0   0.5610   age150_m62            0.0000     5.0355E+01     3.5831   0.7139   106.1213
119      0.0000     0.0000E+00    0.0000E+00    4.250000E+09  0.02000  3.070E-05    0   0.5407   age158_m62            0.0000     5.0975E+01     4.8314   0.3997   107.3279
120      0.0000     0.0000E+00    0.0000E+00    6.250000E+09  0.02000  2.104E-05    0   0.5277   age166_m62            0.0000     6.9576E+01     5.4995   0.2579   108.4031
121      0.4809     4.7652E-01    4.9631E-01    7.500000E+09  0.02000  1.770E-05    0   0.5223   age171_m62            0.0000     8.4936E+01     5.9432   0.1620   109.1666
122      3.1925     4.3171E+00    4.4086E+00    1.000000E+10  0.02000  1.297E-05    0   0.5121   age181_m62            0.0000     1.2470E+02     6.8266  -0.0121   110.4739
123      0.5976     1.0816E+00    1.0885E+00    1.300000E+10  0.02000  9.691E-06    0   0.5047   age193_m62            0.0000     1.5890E+02     7.3945  -0.1067   111.4105
124      1.9206     4.0294E+00    4.0167E+00    1.500000E+10  0.02000  8.360E-06    0   0.4999   age201_m62            0.0000     1.9076E+02     7.9383  -0.1889   112.1722
125      3.6924     9.3708E+00    9.2422E+00    1.800000E+10  0.02000  6.911E-06    0   0.4946   age213_m62            0.0000     2.3309E+02     8.6528  -0.2794   113.1186
126      0.0000     0.0000E+00    0.0000E+00    1.000000E+06  0.05000  2.651E-02    0   0.9998   age020_m72            0.0000     1.2686E+03    28.8390   4.0000    80.5998
127      0.0000     0.0000E+00    0.0000E+00    3.160000E+06  0.05000  4.817E-02    0   0.9577   age045_m72            0.0000     8.4774E+02    21.8399   4.0000    84.9113
128      0.0000     0.0000E+00    0.0000E+00    5.010000E+06  0.05000  3.101E-02    0   0.9147   age055_m72            0.0000     5.4635E+02    13.1655   4.0000    86.4405
129      0.0000     0.0000E+00    0.0000E+00    6.610000E+06  0.05000  1.472E-02    0   0.8877   age061_m72            0.0000     6.0869E+02    13.6318   3.9173    82.2472
130      0.0000     0.0000E+00    0.0000E+00    8.710000E+06  0.05000  1.050E-02    0   0.8638   age067_m72            0.0000     5.7922E+02    13.2660   4.0000    84.8295
131      0.0000     0.0000E+00    0.0000E+00    1.000000E+07  0.05000  8.954E-03    0   0.8524   age070_m72            0.0000     6.8898E+02    18.3381   4.0000    86.2786
132      0.0000     0.0000E+00    0.0000E+00    1.445000E+07  0.05000  6.392E-03    0   0.8262   age078_m72            0.0000     6.1137E+02    16.6756   4.0000    87.2908
133      0.0000     0.0000E+00    0.0000E+00    2.512000E+07  0.05000  4.207E-03    0   0.7902   age090_m72            0.0000     4.0246E+02     8.6511   4.0000    89.8137
134      0.0000     0.0000E+00    0.0000E+00    4.000000E+07  0.05000  3.198E-03    0   0.7618   age104_m72            0.0000     6.3659E+02     6.9125   3.5469    96.4617
135      0.0000     0.0000E+00    0.0000E+00    5.500000E+07  0.05000  2.593E-03    0   0.7432   age110_m72            0.0000     7.5174E+02     7.2545   3.4487    97.8834
136      0.0000     0.0000E+00    0.0000E+00    1.015200E+08  0.05000  1.716E-03    0   0.7092   age116_m72            0.0000     9.5932E+02     7.7798   3.2461   100.0049
137      0.0000     0.0000E+00    0.0000E+00    1.609000E+08  0.05000  1.218E-03    0   0.6876   age120_m72            0.0000     1.1601E+03     8.0433   2.9571   102.9796
138      0.0000     0.0000E+00    0.0000E+00    2.861200E+08  0.05000  7.047E-04    0   0.6618   age125_m72            0.0000     1.2728E+03     8.3585   2.3725   108.1374
139      0.0000     0.0000E+00    0.0000E+00    5.088000E+08  0.05000  3.590E-04    0   0.6356   age130_m72            0.0000     9.3577E+02     7.8310   1.7412   112.8058
140      0.0000     0.0000E+00    0.0000E+00    9.047900E+08  0.05000  1.484E-04    0   0.6088   age135_m72            0.0000     2.4327E+02     5.2668   0.9889   109.1064
141      0.0000     0.0000E+00    0.0000E+00    1.278050E+09  0.05000  9.435E-05    0   0.5924   age138_m72            0.0000     1.0547E+02     5.3029   0.5747   107.9706
142      0.0000     0.0000E+00    0.0000E+00    1.434000E+09  0.05000  7.827E-05    0   0.5847   age139_m72            0.0000     8.2333E+01     4.9447   0.5947   107.3561
143      0.0003     1.3884E-04    1.5457E-04    2.500000E+09  0.05000  3.759E-05    0   0.5583   age150_m72            0.0000     7.1068E+01     5.6017   0.2624   107.7720
144      3.1736     3.0218E+00    3.2383E+00    4.250000E+09  0.05000  1.842E-05    0   0.5374   age158_m72            0.0000     1.2204E+02     6.7013  -0.0734   108.3280
145      1.2977     1.8857E+00    1.9711E+00    6.250000E+09  0.05000  1.207E-05    0   0.5242   age166_m72            0.0000     1.8506E+02     8.1902  -0.3447   109.3714
146      0.0143     2.5076E-02    2.5918E-02    7.500000E+09  0.05000  9.993E-06    0   0.5183   age171_m72            0.0000     1.9343E+02     8.4293  -0.3942   109.5702
147      0.0000     0.0000E+00    0.0000E+00    1.000000E+10  0.05000  7.291E-06    0   0.5081   age181_m72            0.0000     2.4564E+02     9.6027  -0.5492   110.6063
148      0.0000     3.1904E-05    3.1925E-05    1.300000E+10  0.05000  5.316E-06    0   0.5018   age193_m72            0.0000     3.3968E+02    11.3446  -0.7869   112.2532
149      0.0000     0.0000E+00    0.0000E+00    1.500000E+10  0.05000  4.497E-06    0   0.4972   age201_m72            0.0000     3.9338E+02    12.2117  -0.8883   113.4072
150      0.0000     0.0000E+00    0.0000E+00    1.800000E+10  0.05000  3.739E-06    0   0.4924   age213_m72            0.0000     4.6672E+02    13.0135  -1.0000   114.4881


## Synthesis Results - Average & Chains ##

# j      x_j: min, <> & last-chain-values for 1 ...  7 chains
  1      0.8057      0.7139      0.6179      0.7741      0.6883      0.7496      0.7699      0.6785      0.7718
  2     11.9166     10.5492     10.6371     11.2016     10.8534     10.4951     11.2155     10.7120     10.7494
  3      1.7375      0.6869      0.9332      0.6858      0.7220      0.7338      0.7088      0.6950      0.7380
  4      0.0000      0.0516      0.1956      0.0760      0.1376      0.0000      0.0619      0.0000      0.0000
  5      0.0000      0.0806      0.2301      0.0000      0.0000      0.0073      0.1244      0.1427      0.0000
  6      0.0000      0.0739      0.1286      0.1786      0.0611      0.0215      0.0194      0.0000      0.0000
  7      0.0000      0.0562      0.0747      0.0000      0.0343      0.1030      0.1057      0.0000      0.0000
  8      0.0000      0.0312      0.0000      0.0000      0.0000      0.2427      0.0262      0.0000      0.0000
  9      0.0000      0.0258      0.0048      0.0000      0.0000      0.0688      0.0000      0.0777      0.0124
 10      0.0000      0.0240      0.0000      0.0000      0.0000      0.0145      0.0000      0.0563      0.0000
 11      0.0000      0.0158      0.0000      0.0000      0.0000      0.0000      0.0213      0.0000      0.0000
 12      0.0000      0.0058      0.0000      0.0000      0.0000      0.0000      0.0000      0.0000      0.0000
 13      0.0000      0.0043      0.0002      0.0000      0.0000      0.0000      0.0000      0.0000      0.0000
 14      0.0000      0.0055      0.0000      0.0000      0.0000      0.0000      0.0000      0.0000      0.0000
 15      0.0000      0.0071      0.0242      0.0000      0.0000      0.0000      0.0972      0.0000      0.0050
 16      0.0000      0.0109      0.0000      0.0000      0.0000      0.0000      0.0000      0.0000      0.0000
 17      0.0000      0.0151      0.0000      0.0000      0.0000      0.0000      0.0000      0.0000      0.0000
 18      0.0000      0.0225      0.0146      0.0000      0.0009      0.0000      0.1123      0.0000      0.0000
 19      0.0000      0.0367      0.0000      0.0122      0.0000      0.0000      0.0935      0.0000      0.0000
 20      0.0000      0.0631      0.0097      0.2147      0.0000      0.2866      0.0340      0.0000      0.0299
 21      0.0000      0.1646      0.0000      0.0000      0.1589      0.0000      0.3918      0.0000      0.0000
 22      0.0000      0.0716      0.0000      0.0196      0.0000      0.2090      0.0000      0.0218      0.1115
 23      0.2725      0.0854      0.0717      0.2383      0.2900      0.4198      0.0000      0.3769      0.0000
 24      0.0000      0.0777      0.0000      0.0000      0.0000      0.2093      0.0000      0.0000      0.0000
 25      0.0000      0.1216      0.0272      0.1155      0.2911      0.0015      0.3256      0.1427      0.0000
 26      0.0000      0.0711      0.0000      0.0366      0.0736      0.0221      0.0000      0.1026      0.1576
 27      0.0000      0.0351      0.0089      0.0000      0.0000      0.1163      0.0000      0.0000      0.0000
 28      0.0000      0.0298      0.1116      0.0217      0.0920      0.1232      0.0000      0.0000      0.0000
 29      0.0000      0.0534      0.0000      0.1687      0.0923      0.0000      0.0000      0.0000      0.0000
 30      0.0000      0.0516      0.0000      0.0000      0.0057      0.2116      0.0000      0.0533      0.1065
 31      0.0000      0.0560      0.0545      0.0000      0.0000      0.0188      0.1016      0.0000      0.0000
 32      0.0000      0.0397      0.0523      0.0000      0.0000      0.0000      0.0000      0.0000      0.0890
 33      0.0000      0.0323      0.0000      0.0000      0.1582      0.0000      0.0000      0.0000      0.0000
 34      0.0022      0.0414      0.0000      0.0000      0.1633      0.1749      0.0000      0.1656      0.1792
 35      0.0000      0.0283      0.0000      0.0000      0.0000      0.0000      0.0043      0.0000      0.0000
 36      0.0000      0.0085      0.0000      0.0000      0.0000      0.0049      0.0000      0.0000      0.0000
 37      0.0000      0.0067      0.0000      0.0000      0.0000      0.0000      0.0000      0.0000      0.0000
 38      0.0000      0.0061      0.0000      0.0000      0.0000      0.0000      0.0250      0.0000      0.0000
 39      0.0000      0.0049      0.0000      0.0000      0.0000      0.0000      0.0000      0.0000      0.0000
 40      0.0000      0.0089      0.0000      0.0000      0.0000      0.0005      0.0000      0.0000      0.0000
 41      0.0000      0.0161      0.0000      0.0000      0.0000      0.1136      0.0438      0.0000      0.0000
 42      0.0000      0.0145      0.0132      0.0000      0.1250      0.0365      0.0000      0.0381      0.0001
 43      0.4974      0.0531      0.0000      0.0000      0.0812      0.0000      0.0000      0.1666      0.0115
 44      0.7079      0.0912      0.0000      0.1635      0.0000      0.0360      0.0000      0.2116      0.5850
 45      1.4570      0.1862      0.2852      0.1503      0.0697      0.0664      0.0000      0.3842      0.3520
 46      0.0000      0.1741      0.4488      0.2779      0.2986      0.0366      0.0000      0.0336      0.1707
 47      0.0036      1.4601      1.8777      1.0990      1.3000      1.2668      0.9794      1.3125      1.4834
 48      0.0000      0.0702      0.1017      0.0000      0.0000      0.0000      0.0000      0.0391      0.0000
 49      0.0000      0.0892      0.0827      0.0000      0.0417      0.1117      0.0719      0.1284      0.1960
 50      0.0000      0.0768      0.0267      0.0000      0.0079      0.1362      0.0000      0.0018      0.1125
 51      0.0000      0.0398      0.0000      0.0370      0.0000      0.0000      0.0000      0.1438      0.0000
 52      0.0000      0.0381      0.1343      0.1684      0.0000      0.0000      0.0000      0.0524      0.0000
 53      0.3644      0.1338      0.0525      0.0132      0.1253      0.2351      0.0108      0.1601      0.3971
 54      3.0146      3.2078      3.2121      3.0789      3.1177      3.2801      3.2819      3.2887      3.1575
 55      0.1678      0.4083      0.4138      0.4196      0.5079      0.3047      0.7322      0.3931      0.3856
 56      0.0000      0.0166      0.0419      0.0000      0.0000      0.0000      0.0880      0.0000      0.0000
 57      0.0000      0.0554      0.0000      0.0000      0.0000      0.0000      0.0000      0.0193      0.1608
 58      0.0805      0.0621      0.3487      0.1767      0.1216      0.0281      0.0026      0.1651      0.0000
 59      0.0000      0.0159      0.0000      0.0000      0.0000      0.0000      0.0000      0.0000      0.0000
 60      0.0000      0.0093      0.0000      0.0000      0.0000      0.0000      0.0066      0.0000      0.0000
 61      0.0000      0.0082      0.0000      0.0000      0.0000      0.0000      0.0000      0.0000      0.0000
 62      0.0000      0.0091      0.0000      0.0000      0.0000      0.0000      0.0000      0.0000      0.0000
 63      0.0000      0.0068      0.0000      0.0000      0.0000      0.0000      0.0000      0.0000      0.0000
 64      0.0000      0.0091      0.0000      0.0000      0.0000      0.0000      0.1360      0.0000      0.0000
 65      0.0000      0.0407      0.0000      0.1496      0.0000      0.0351      0.0000      0.1567      0.2000
 66      0.0000      0.0467      0.0000      0.0431      0.0000      0.0000      0.0000      0.0000      0.1521
 67      0.0000      0.0451      0.1291      0.0517      0.1498      0.0000      0.0000      0.0000      0.0000
 68      0.0000      0.0579      0.1430      0.0000      0.0000      0.2459      0.2538      0.3674      0.0000
 69      0.0000      0.0833      0.0000      0.0782      0.0000      0.0294      0.0000      0.0719      0.0002
 70      0.0000      0.0737      0.2410      0.0000      0.0000      0.0000      0.0000      0.0109      0.0000
 71      0.0000      0.0671      0.0694      0.0000      0.0369      0.0556      0.0000      0.0000      0.0000
 72      0.0000      0.0596      0.0000      0.0000      0.0000      0.0000      0.0000      0.0000      0.0000
 73      0.0000      0.1164      0.0000      0.0000      0.0000      0.0005      0.1401      0.0089      0.1188
 74      0.0000      0.0892      0.0000      0.3035      0.0000      0.0000      0.0000      0.0006      0.0274
 75      0.0000      0.0658      0.0389      0.0525      0.0144      0.0000      0.0009      0.0442      0.0000
 76      0.0000      0.0470      0.0000      0.0000      0.0000      0.1912      0.0000      0.0258      0.0000
 77      0.0000      0.0427      0.0586      0.0000      0.0000      0.0101      0.0000      0.1362      0.1869
 78      0.0000      0.0395      0.0000      0.0870      0.0000      0.0000      0.0557      0.1172      0.1884
 79      0.0000      0.0317      0.0000      0.0000      0.0000      0.0000      0.0000      0.0000      0.0064
 80      0.0000      0.0227      0.0000      0.0110      0.0627      0.0000      0.0116      0.0000      0.0000
 81      0.0000      0.0144      0.0097      0.1188      0.0000      0.0000      0.0000      0.0000      0.0000
 82      0.0000      0.0173      0.0000      0.0000      0.0108      0.0000      0.0000      0.0413      0.0000
 83      0.0000      0.0129      0.0312      0.0000      0.0000      0.0000      0.0000      0.0000      0.0000
 84      0.0000      0.0135      0.0000      0.0000      0.0000      0.0000      0.0000      0.0000      0.0000
 85      0.0000      0.0085      0.0000      0.0000      0.0000      0.0000      0.0000      0.0000      0.0411
 86      0.0000      0.0121      0.0000      0.0000      0.0000      0.0000      0.0000      0.0000      0.0000
 87      0.0000      0.0075      0.0000      0.0000      0.0000      0.0000      0.0331      0.0000      0.0000
 88      0.0000      0.0049      0.0000      0.0000      0.0788      0.0000      0.0000      0.0000      0.0000
 89      0.0000      0.0081      0.0000      0.0000      0.0000      0.0002      0.0000      0.0000      0.0000
 90      0.0000      0.0171      0.0000      0.1709      0.0909      0.0000      0.0000      0.0000      0.0536
 91      0.0000      0.0259      0.0000      0.0000      0.0000      0.0000      0.0000      0.0190      0.0000
 92      0.0000      0.0312      0.0211      0.0000      0.0000      0.0000      0.0894      0.0000      0.0000
 93      0.0000      0.1085      0.0699      0.0000      0.0000      0.0000      0.0000      0.0000      0.0000
 94      0.0000      0.2342      0.7664      0.2565      0.0000      0.1685      0.1221      0.0000      0.0000
 95      0.1572      0.4244      0.4012      1.0584      0.0626      1.3743      0.8215      0.4302      0.7708
 96      0.0637      0.4697      0.0000      0.2513      1.0012      0.5324      0.0000      0.8477      0.0000
 97     33.5921     36.6245     36.9557     36.3536     37.0284     36.3139     37.1717     36.1225     36.8456
 98     19.5634     18.0870     18.1570     18.4506     19.1148     17.9126     18.5315     18.7618     18.4599
 99      4.9194      2.0207      2.3036      1.6522      2.6627      2.4390      1.9430      2.0065      2.1991
100      7.5563      6.6495      6.0783      6.7125      6.4382      7.3612      7.3050      6.9923      7.2998
101      0.0000      0.0841      0.0000      0.0000      0.1173      0.0000      0.0937      0.1535      0.2138
102      0.0000      0.0356      0.0000      0.0686      0.0000      0.0000      0.0512      0.0452      0.0000
103      0.0000      0.0375      0.0000      0.0263      0.0000      0.1444      0.1368      0.0000      0.0000
104      0.0000      0.0369      0.0593      0.0000      0.0000      0.0000      0.0000      0.0000      0.0000
105      0.0000      0.0286      0.0000      0.0000      0.1880      0.0000      0.0446      0.0554      0.0140
106      0.4043      0.0864      0.0786      0.0794      0.1338      0.0000      0.0470      0.2625      0.0063
107      0.0000      0.0363      0.0000      0.0000      0.1589      0.1340      0.0776      0.0000      0.0000
108      0.0000      0.0067      0.0000      0.0000      0.0000      0.0000      0.0000      0.0000      0.0000
109      0.0000      0.0108      0.0000      0.0000      0.0490      0.0000      0.0000      0.0000      0.0000
110      0.0000      0.0078      0.0000      0.0000      0.0000      0.0000      0.0000      0.0000      0.0393
111      0.0000      0.0034      0.0000      0.0000      0.0000      0.0000      0.0000      0.0000      0.0000
112      0.0000      0.0049      0.0000      0.0019      0.0000      0.0000      0.0000      0.0000      0.0000
113      0.0000      0.0056      0.0000      0.0000      0.0000      0.0000      0.0000      0.0000      0.0000
114      0.0000      0.0081      0.1034      0.0000      0.0000      0.0055      0.0000      0.0000      0.0870
115      0.0000      0.0131      0.0000      0.0000      0.0000      0.0000      0.0000      0.0000      0.0000
116      0.0000      0.0169      0.0081      0.0000      0.0000      0.0000      0.0000      0.0000      0.0212
117      0.0000      0.0226      0.0000      0.0000      0.0000      0.0000      0.0000      0.0000      0.0000
118      0.0000      0.0401      0.0000      0.0000      0.0000      0.0000      0.0000      0.0000      0.0000
119      0.0000      0.0883      0.0000      0.0732      0.0000      0.2451      0.0846      0.0000      0.0000
120      0.0000      0.1574      0.3758      0.0000      0.0000      0.0636      0.0000      0.0000      0.0000
121      0.4809      0.1984      0.7128      0.2876      0.1478      0.0000      0.1540      0.4006      0.0667
122      3.1925      3.5276      3.1210      3.4043      3.4963      3.4831      3.4530      4.0727      3.6979
123      0.5976      1.1169      0.5707      1.5956      1.1252      1.0874      1.1309      0.7885      0.8131
124      1.9206      2.3009      2.3404      1.7806      2.3534      2.4004      2.4520      2.0913      2.4128
125      3.6924      5.1823      5.1933      4.9045      4.7907      5.0924      4.9688      4.9278      5.0545
126      0.0000      0.0192      0.0000      0.0000      0.1042      0.0514      0.0000      0.0000      0.0000
127      0.0000      0.0462      0.0662      0.1531      0.0000      0.0117      0.1447      0.0000      0.0000
128      0.0000      0.0411      0.0000      0.1801      0.0000      0.0326      0.2075      0.0000      0.0000
129      0.0000      0.0299      0.0000      0.0886      0.0000      0.0000      0.0000      0.0000      0.0000
130      0.0000      0.0157      0.0000      0.0868      0.0000      0.0546      0.0000      0.0000      0.0000
131      0.0000      0.0141      0.0582      0.0000      0.0000      0.0000      0.0000      0.0000      0.0000
132      0.0000      0.0136      0.0000      0.0000      0.0000      0.0000      0.0000      0.0000      0.0000
133      0.0000      0.0069      0.0000      0.0000      0.0000      0.0305      0.0000      0.0000      0.0000
134      0.0000      0.0046      0.0000      0.0000      0.0000      0.0000      0.0000      0.0000      0.0000
135      0.0000      0.0103      0.0000      0.1371      0.0794      0.0000      0.0000      0.0000      0.0000
136      0.0000      0.0063      0.0000      0.1000      0.0000      0.0000      0.0000      0.0039      0.0000
137      0.0000      0.0045      0.0000      0.0025      0.0666      0.0000      0.0000      0.0000      0.0000
138      0.0000      0.0042      0.0000      0.0000      0.0000      0.0000      0.0000      0.0000      0.0000
139      0.0000      0.0042      0.0000      0.0000      0.0000      0.0000      0.0000      0.0000      0.0000
140      0.0000      0.0176      0.0000      0.0000      0.0000      0.0103      0.0069      0.0000      0.0000
141      0.0000      0.0207      0.0000      0.0000      0.0000      0.0000      0.0000      0.0004      0.0000
142      0.0000      0.0240      0.0000      0.0000      0.0024      0.0000      0.0000      0.0000      0.0000
143      0.0003      0.1135      0.0130      0.0031      0.0000      0.0000      0.0163      0.1679      0.4622
144      3.1736      0.6746      1.2355      1.0852      0.7308      0.3413      1.0268      0.9480      0.7746
145      1.2977      0.8287      0.7720      1.2429      0.8697      1.3679      0.4687      1.3114      1.0750
146      0.0143      0.3098      0.9654      0.5919      0.1565      0.1910      0.1084      0.3527      0.3323
147      0.0000      0.3890      0.3147      0.4525      0.5298      0.4113      0.5128      0.0000      0.0000
148      0.0000      0.5026      0.0000      0.2455      0.2796      0.0000      0.5053      0.1976      0.0416
149      0.0000      0.0847      0.0000      0.0119      0.0000      0.0000      0.0000      0.0000      0.0575
150      0.0000      0.0721      0.0000      0.0000      0.0000      0.0000      0.0000      0.0000      0.0534

# j      m_j: min, <> & last-chain-values for 1 ...  7 chains
  1  3.4532E-03  2.9547E-03  2.6102E-03  3.2444E-03  2.8675E-03  3.1316E-03  3.1941E-03  2.8563E-03  3.2362E-03
  2  8.7577E-03  7.4864E-03  7.7050E-03  8.0503E-03  7.7531E-03  7.5173E-03  7.9779E-03  7.7318E-03  7.7290E-03
  3  3.0140E-03  1.1506E-03  1.5954E-03  1.1633E-03  1.2173E-03  1.2405E-03  1.1901E-03  1.1840E-03  1.2524E-03
  4  0.0000E+00  1.6253E-04  6.2866E-04  2.4243E-04  4.3612E-04  0.0000E+00  1.9533E-04  0.0000E+00  0.0000E+00
  5  0.0000E+00  3.1960E-04  9.3143E-04  0.0000E+00  0.0000E+00  2.9250E-05  4.9452E-04  5.7553E-04  0.0000E+00
  6  0.0000E+00  3.4860E-04  6.1923E-04  8.5306E-04  2.9000E-04  1.0216E-04  9.1699E-05  0.0000E+00  0.0000E+00
  7  0.0000E+00  3.3472E-04  4.5367E-04  0.0000E+00  2.0524E-04  6.1867E-04  6.3029E-04  0.0000E+00  0.0000E+00
  8  0.0000E+00  2.0966E-04  0.0000E+00  0.0000E+00  0.0000E+00  1.6479E-03  1.7644E-04  0.0000E+00  0.0000E+00
  9  0.0000E+00  1.8707E-04  3.5660E-05  0.0000E+00  0.0000E+00  5.0231E-04  0.0000E+00  5.7190E-04  9.1142E-05
 10  0.0000E+00  1.9946E-04  0.0000E+00  0.0000E+00  0.0000E+00  1.2156E-04  0.0000E+00  4.7475E-04  0.0000E+00
 11  0.0000E+00  1.5629E-04  0.0000E+00  0.0000E+00  0.0000E+00  0.0000E+00  2.1207E-04  0.0000E+00  0.0000E+00
 12  0.0000E+00  1.0041E-04  0.0000E+00  0.0000E+00  0.0000E+00  0.0000E+00  0.0000E+00  0.0000E+00  0.0000E+00
 13  0.0000E+00  8.5920E-05  3.1832E-06  0.0000E+00  0.0000E+00  0.0000E+00  0.0000E+00  0.0000E+00  0.0000E+00
 14  0.0000E+00  1.5755E-04  0.0000E+00  0.0000E+00  0.0000E+00  0.0000E+00  0.0000E+00  0.0000E+00  0.0000E+00
 15  0.0000E+00  3.0853E-04  1.0663E-03  0.0000E+00  0.0000E+00  0.0000E+00  4.2068E-03  0.0000E+00  2.1728E-04
 16  0.0000E+00  6.7910E-04  0.0000E+00  0.0000E+00  0.0000E+00  0.0000E+00  0.0000E+00  0.0000E+00  0.0000E+00
 17  0.0000E+00  1.0450E-03  0.0000E+00  0.0000E+00  0.0000E+00  0.0000E+00  0.0000E+00  0.0000E+00  0.0000E+00
 18  0.0000E+00  2.5420E-03  1.6816E-03  0.0000E+00  9.8677E-05  0.0000E+00  1.2726E-02  0.0000E+00  0.0000E+00
 19  0.0000E+00  6.2959E-03  0.0000E+00  2.1117E-03  0.0000E+00  0.0000E+00  1.6061E-02  0.0000E+00  0.0000E+00
 20  0.0000E+00  1.5474E-02  2.4150E-03  5.3278E-02  0.0000E+00  7.0903E-02  8.3475E-03  0.0000E+00  7.4215E-03
 21  0.0000E+00  4.6677E-02  0.0000E+00  0.0000E+00  4.5360E-02  0.0000E+00  1.1136E-01  0.0000E+00  0.0000E+00
 22  0.0000E+00  2.6187E-02  0.0000E+00  7.2738E-03  0.0000E+00  7.7169E-02  0.0000E+00  8.1179E-03  4.1325E-02
 23  1.3088E-01  3.9628E-02  3.3957E-02  1.1191E-01  1.3536E-01  1.9652E-01  0.0000E+00  1.7779E-01  0.0000E+00
 24  0.0000E+00  4.1201E-02  0.0000E+00  0.0000E+00  0.0000E+00  1.1204E-01  0.0000E+00  0.0000E+00  0.0000E+00
 25  0.0000E+00  7.7472E-02  1.7657E-02  7.4550E-02  1.8671E-01  9.4152E-04  2.0791E-01  9.2468E-02  0.0000E+00
 26  0.0000E+00  2.8407E-04  0.0000E+00  1.4816E-04  2.9568E-04  8.8887E-05  0.0000E+00  4.1665E-04  6.3752E-04
 27  0.0000E+00  2.9874E-05  7.6863E-06  0.0000E+00  0.0000E+00  9.9814E-05  0.0000E+00  0.0000E+00  0.0000E+00
 28  0.0000E+00  4.9541E-05  1.8945E-04  3.6630E-05  1.5409E-04  2.0686E-04  0.0000E+00  0.0000E+00  0.0000E+00
 29  0.0000E+00  1.3850E-04  0.0000E+00  4.4291E-04  2.4083E-04  0.0000E+00  0.0000E+00  0.0000E+00  0.0000E+00
 30  0.0000E+00  1.6631E-04  0.0000E+00  0.0000E+00  1.8518E-05  6.8835E-04  0.0000E+00  1.7476E-04  3.4789E-04
 31  0.0000E+00  2.0854E-04  2.0696E-04  0.0000E+00  0.0000E+00  7.0720E-05  3.7917E-04  0.0000E+00  0.0000E+00
 32  0.0000E+00  1.6381E-04  2.1989E-04  0.0000E+00  0.0000E+00  0.0000E+00  0.0000E+00  0.0000E+00  3.7177E-04
 33  0.0000E+00  1.8944E-04  0.0000E+00  0.0000E+00  9.3287E-04  0.0000E+00  0.0000E+00  0.0000E+00  0.0000E+00
 34  1.5853E-05  2.9441E-04  0.0000E+00  0.0000E+00  1.1703E-03  1.2567E-03  0.0000E+00  1.1985E-03  1.2921E-03
 35  0.0000E+00  2.4355E-04  0.0000E+00  0.0000E+00  0.0000E+00  0.0000E+00  3.6845E-05  0.0000E+00  0.0000E+00
 36  0.0000E+00  9.3277E-05  0.0000E+00  0.0000E+00  0.0000E+00  5.4187E-05  0.0000E+00  0.0000E+00  0.0000E+00
 37  0.0000E+00  9.1354E-05  0.0000E+00  0.0000E+00  0.0000E+00  0.0000E+00  0.0000E+00  0.0000E+00  0.0000E+00
 38  0.0000E+00  1.1624E-04  0.0000E+00  0.0000E+00  0.0000E+00  0.0000E+00  4.7770E-04  0.0000E+00  0.0000E+00
 39  0.0000E+00  1.4049E-04  0.0000E+00  0.0000E+00  0.0000E+00  0.0000E+00  0.0000E+00  0.0000E+00  0.0000E+00
 40  0.0000E+00  4.4793E-04  0.0000E+00  0.0000E+00  0.0000E+00  2.5245E-05  0.0000E+00  0.0000E+00  0.0000E+00
 41  0.0000E+00  1.0850E-03  0.0000E+00  0.0000E+00  0.0000E+00  7.7174E-03  2.9516E-03  0.0000E+00  0.0000E+00
 42  0.0000E+00  1.0916E-03  1.0158E-03  0.0000E+00  9.4538E-03  2.7673E-03  0.0000E+00  2.9138E-03  7.5706E-06
 43  6.2971E-02  6.4951E-03  0.0000E+00  0.0000E+00  9.9892E-03  0.0000E+00  0.0000E+00  2.0714E-02  1.4197E-03
 44  1.4174E-01  1.7625E-02  0.0000E+00  3.2009E-02  0.0000E+00  7.0283E-03  0.0000E+00  4.1612E-02  1.1459E-01
 45  4.0658E-01  5.0170E-02  7.8443E-02  4.1004E-02  1.8894E-02  1.8064E-02  0.0000E+00  1.0531E-01  9.6091E-02
 46  0.0000E+00  5.5902E-02  1.4705E-01  9.0341E-02  9.6490E-02  1.1870E-02  0.0000E+00  1.0984E-02  5.5508E-02
 47  1.5782E-03  6.1429E-01  8.0631E-01  4.6824E-01  5.5052E-01  5.3791E-01  4.1301E-01  5.6162E-01  6.3230E-01
 48  0.0000E+00  3.5166E-02  5.1992E-02  0.0000E+00  0.0000E+00  0.0000E+00  0.0000E+00  1.9947E-02  0.0000E+00
 49  0.0000E+00  5.0021E-02  4.7283E-02  0.0000E+00  2.3500E-02  6.3171E-02  4.0406E-02  7.3206E-02  1.1129E-01
 50  0.0000E+00  5.0642E-02  1.7987E-02  0.0000E+00  5.2457E-03  9.0634E-02  0.0000E+00  1.1965E-03  7.5156E-02
 51  0.0000E+00  1.2065E-04  0.0000E+00  1.1358E-04  0.0000E+00  0.0000E+00  0.0000E+00  4.4329E-04  0.0000E+00
 52  0.0000E+00  3.1608E-05  1.1362E-04  1.4136E-04  0.0000E+00  0.0000E+00  0.0000E+00  4.4189E-05  0.0000E+00
 53  4.7715E-04  1.6915E-04  6.7752E-05  1.6908E-05  1.5953E-04  3.0010E-04  1.3653E-05  2.0588E-04  5.0875E-04
 54  3.7635E-03  3.8671E-03  3.9524E-03  3.7588E-03  3.7833E-03  3.9911E-03  3.9657E-03  4.0323E-03  3.8566E-03
 55  3.0899E-04  7.2610E-04  7.5111E-04  7.5569E-04  9.0910E-04  5.4696E-04  1.3051E-03  7.1102E-04  6.9472E-04
 56  0.0000E+00  3.9098E-05  1.0069E-04  0.0000E+00  0.0000E+00  0.0000E+00  2.0769E-04  0.0000E+00  0.0000E+00
 57  0.0000E+00  2.0931E-04  0.0000E+00  0.0000E+00  0.0000E+00  0.0000E+00  0.0000E+00  7.4112E-05  6.1526E-04
 58  4.5392E-04  3.3831E-04  1.9378E-03  9.7454E-04  6.6636E-04  1.5465E-04  1.4055E-05  9.1407E-04  0.0000E+00
 59  0.0000E+00  1.2066E-04  0.0000E+00  0.0000E+00  0.0000E+00  0.0000E+00  0.0000E+00  0.0000E+00  0.0000E+00
 60  0.0000E+00  7.8610E-05  0.0000E+00  0.0000E+00  0.0000E+00  0.0000E+00  5.5736E-05  0.0000E+00  0.0000E+00
 61  0.0000E+00  8.8108E-05  0.0000E+00  0.0000E+00  0.0000E+00  0.0000E+00  0.0000E+00  0.0000E+00  0.0000E+00
 62  0.0000E+00  1.2363E-04  0.0000E+00  0.0000E+00  0.0000E+00  0.0000E+00  0.0000E+00  0.0000E+00  0.0000E+00
 63  0.0000E+00  1.3995E-04  0.0000E+00  0.0000E+00  0.0000E+00  0.0000E+00  0.0000E+00  0.0000E+00  0.0000E+00
 64  0.0000E+00  3.0829E-04  0.0000E+00  0.0000E+00  0.0000E+00  0.0000E+00  4.6435E-03  0.0000E+00  0.0000E+00
 65  0.0000E+00  2.3440E-03  0.0000E+00  8.7196E-03  0.0000E+00  2.0385E-03  0.0000E+00  9.1740E-03  1.1660E-02
 66  0.0000E+00  3.4423E-03  0.0000E+00  3.2113E-03  0.0000E+00  0.0000E+00  0.0000E+00  0.0000E+00  1.1344E-02
 67  0.0000E+00  4.5620E-03  1.3314E-02  5.2965E-03  1.5236E-02  0.0000E+00  0.0000E+00  0.0000E+00  0.0000E+00
 68  8.1238E-06  1.0881E-02  2.7437E-02  0.0000E+00  0.0000E+00  4.6649E-02  4.7805E-02  7.0217E-02  0.0000E+00
 69  0.0000E+00  2.7009E-02  0.0000E+00  2.5668E-02  0.0000E+00  9.6119E-03  0.0000E+00  2.3684E-02  5.6132E-05
 70  0.0000E+00  3.3256E-02  1.1095E-01  0.0000E+00  0.0000E+00  0.0000E+00  0.0000E+00  5.0087E-03  0.0000E+00
 71  0.0000E+00  3.5730E-02  3.7678E-02  0.0000E+00  1.9748E-02  2.9868E-02  0.0000E+00  0.0000E+00  0.0000E+00
 72  0.0000E+00  4.1726E-02  0.0000E+00  0.0000E+00  0.0000E+00  0.0000E+00  0.0000E+00  0.0000E+00  0.0000E+00
 73  0.0000E+00  1.0285E-01  0.0000E+00  0.0000E+00  0.0000E+00  4.6704E-04  1.2405E-01  7.9616E-03  1.0638E-01
 74  0.0000E+00  8.7989E-02  0.0000E+00  3.0305E-01  0.0000E+00  0.0000E+00  0.0000E+00  6.5064E-04  2.7364E-02
 75  0.0000E+00  7.4554E-02  4.5036E-02  6.0271E-02  1.6433E-02  0.0000E+00  1.0651E-03  5.0908E-02  0.0000E+00
 76  0.0000E+00  1.2333E-04  0.0000E+00  0.0000E+00  0.0000E+00  5.0693E-04  0.0000E+00  6.9029E-05  0.0000E+00
 77  0.0000E+00  4.5706E-05  6.3918E-05  0.0000E+00  0.0000E+00  1.0910E-05  0.0000E+00  1.4815E-04  2.0252E-04
 78  0.0000E+00  4.7318E-05  0.0000E+00  1.0551E-04  0.0000E+00  0.0000E+00  6.6890E-05  1.4265E-04  2.2846E-04
 79  0.0000E+00  4.5738E-05  0.0000E+00  0.0000E+00  0.0000E+00  0.0000E+00  0.0000E+00  0.0000E+00  9.3131E-06
 80  0.0000E+00  4.2121E-05  0.0000E+00  2.0663E-05  1.1725E-04  0.0000E+00  2.1580E-05  0.0000E+00  0.0000E+00
 81  0.0000E+00  3.5304E-05  2.4208E-05  2.9525E-04  0.0000E+00  0.0000E+00  0.0000E+00  0.0000E+00  0.0000E+00
 82  0.0000E+00  5.7041E-05  0.0000E+00  0.0000E+00  3.5787E-05  0.0000E+00  0.0000E+00  1.3895E-04  0.0000E+00
 83  0.0000E+00  6.2616E-05  1.5464E-04  0.0000E+00  0.0000E+00  0.0000E+00  0.0000E+00  0.0000E+00  0.0000E+00
 84  0.0000E+00  9.0968E-05  0.0000E+00  0.0000E+00  0.0000E+00  0.0000E+00  0.0000E+00  0.0000E+00  0.0000E+00
 85  0.0000E+00  6.9701E-05  0.0000E+00  0.0000E+00  0.0000E+00  0.0000E+00  0.0000E+00  0.0000E+00  3.3978E-04
 86  0.0000E+00  1.3397E-04  0.0000E+00  0.0000E+00  0.0000E+00  0.0000E+00  0.0000E+00  0.0000E+00  0.0000E+00
 87  0.0000E+00  1.1108E-04  0.0000E+00  0.0000E+00  0.0000E+00  0.0000E+00  4.8952E-04  0.0000E+00  0.0000E+00
 88  0.0000E+00  1.0977E-04  0.0000E+00  0.0000E+00  1.7813E-03  0.0000E+00  0.0000E+00  0.0000E+00  0.0000E+00
 89  0.0000E+00  3.0311E-04  0.0000E+00  0.0000E+00  0.0000E+00  6.0587E-06  0.0000E+00  0.0000E+00  0.0000E+00
 90  0.0000E+00  1.1823E-03  0.0000E+00  1.1970E-02  6.3313E-03  0.0000E+00  0.0000E+00  0.0000E+00  3.7532E-03
 91  0.0000E+00  2.3080E-03  0.0000E+00  0.0000E+00  0.0000E+00  0.0000E+00  0.0000E+00  1.7175E-03  0.0000E+00
 92  0.0000E+00  3.7072E-03  2.5626E-03  0.0000E+00  0.0000E+00  0.0000E+00  1.0645E-02  0.0000E+00  0.0000E+00
 93  0.0000E+00  2.6193E-02  1.7222E-02  0.0000E+00  0.0000E+00  0.0000E+00  0.0000E+00  0.0000E+00  0.0000E+00
 94  0.0000E+00  1.0135E-01  3.3861E-01  1.1242E-01  0.0000E+00  7.3622E-02  5.2984E-02  0.0000E+00  0.0000E+00
 95  9.4931E-02  2.4746E-01  2.3877E-01  6.2500E-01  3.6733E-02  8.0883E-01  4.8014E-01  2.5515E-01  4.5538E-01
 96  4.6429E-02  3.3045E-01  0.0000E+00  1.7907E-01  7.0900E-01  3.7803E-01  0.0000E+00  6.0655E-01  0.0000E+00
 97  3.1889E+01  3.3573E+01  3.4578E+01  3.3748E+01  3.4167E+01  3.3599E+01  3.4155E+01  3.3679E+01  3.4221E+01
 98  2.3816E+01  2.1263E+01  2.1786E+01  2.1965E+01  2.2619E+01  2.1254E+01  2.1836E+01  2.2433E+01  2.1987E+01
 99  6.8269E+00  2.7079E+00  3.1509E+00  2.2421E+00  3.5917E+00  3.2988E+00  2.6098E+00  2.7347E+00  2.9858E+00
100  1.2073E+01  1.0259E+01  9.5718E+00  1.0488E+01  9.9985E+00  1.1463E+01  1.1297E+01  1.0972E+01  1.1411E+01
101  0.0000E+00  1.4276E-04  0.0000E+00  0.0000E+00  2.0044E-04  0.0000E+00  1.5944E-04  2.6503E-04  3.6774E-04
102  0.0000E+00  3.1396E-05  0.0000E+00  6.1347E-05  0.0000E+00  0.0000E+00  4.5340E-05  4.0582E-05  0.0000E+00
103  0.0000E+00  3.6630E-05  0.0000E+00  2.6069E-05  0.0000E+00  1.4248E-04  1.3410E-04  0.0000E+00  0.0000E+00
104  0.0000E+00  4.7468E-05  7.7870E-05  0.0000E+00  0.0000E+00  0.0000E+00  0.0000E+00  0.0000E+00  0.0000E+00
105  0.0000E+00  7.7544E-05  0.0000E+00  0.0000E+00  5.1383E-04  0.0000E+00  1.2130E-04  1.5297E-04  3.8498E-05
106  1.2238E-03  2.5250E-04  2.3466E-04  2.3497E-04  3.9360E-04  0.0000E+00  1.3779E-04  7.8053E-04  1.8605E-05
107  0.0000E+00  1.4168E-04  0.0000E+00  0.0000E+00  6.2429E-04  5.2769E-04  3.0366E-04  0.0000E+00  0.0000E+00
108  0.0000E+00  4.3259E-05  0.0000E+00  0.0000E+00  0.0000E+00  0.0000E+00  0.0000E+00  0.0000E+00  0.0000E+00
109  0.0000E+00  8.4353E-05  0.0000E+00  0.0000E+00  3.8528E-04  0.0000E+00  0.0000E+00  0.0000E+00  0.0000E+00
110  0.0000E+00  7.3015E-05  0.0000E+00  0.0000E+00  0.0000E+00  0.0000E+00  0.0000E+00  0.0000E+00  3.7186E-04
111  0.0000E+00  4.4579E-05  0.0000E+00  0.0000E+00  0.0000E+00  0.0000E+00  0.0000E+00  0.0000E+00  0.0000E+00
112  0.0000E+00  8.3814E-05  0.0000E+00  3.2911E-05  0.0000E+00  0.0000E+00  0.0000E+00  0.0000E+00  0.0000E+00
113  0.0000E+00  1.4347E-04  0.0000E+00  0.0000E+00  0.0000E+00  0.0000E+00  0.0000E+00  0.0000E+00  0.0000E+00
114  0.0000E+00  3.6585E-04  4.7410E-03  0.0000E+00  0.0000E+00  2.4932E-04  0.0000E+00  0.0000E+00  3.9577E-03
115  0.0000E+00  1.1808E-03  0.0000E+00  0.0000E+00  0.0000E+00  0.0000E+00  0.0000E+00  0.0000E+00  0.0000E+00
116  0.0000E+00  2.4415E-03  1.1984E-03  0.0000E+00  0.0000E+00  0.0000E+00  0.0000E+00  0.0000E+00  3.1027E-03
117  0.0000E+00  3.8289E-03  0.0000E+00  0.0000E+00  0.0000E+00  0.0000E+00  0.0000E+00  0.0000E+00  0.0000E+00
118  0.0000E+00  1.3785E-02  0.0000E+00  0.0000E+00  0.0000E+00  0.0000E+00  0.0000E+00  0.0000E+00  0.0000E+00
119  0.0000E+00  5.2551E-02  0.0000E+00  4.4079E-02  0.0000E+00  1.4713E-01  5.0422E-02  0.0000E+00  0.0000E+00
120  0.0000E+00  1.3333E-01  3.2487E-01  0.0000E+00  0.0000E+00  5.4353E-02  0.0000E+00  0.0000E+00  0.0000E+00
121  4.9631E-01  1.9775E-01  7.2510E-01  2.9025E-01  1.4822E-01  0.0000E+00  1.5379E-01  4.0601E-01  6.7332E-02
122  4.4086E+00  4.7039E+00  4.2478E+00  4.5972E+00  4.6930E+00  4.6878E+00  4.6153E+00  5.5236E+00  4.9960E+00
123  1.0885E+00  1.9645E+00  1.0246E+00  2.8421E+00  1.9921E+00  1.9304E+00  1.9938E+00  1.4105E+00  1.4489E+00
124  4.0167E+00  4.6467E+00  4.8242E+00  3.6416E+00  4.7840E+00  4.8927E+00  4.9634E+00  4.2955E+00  4.9369E+00
125  9.2422E+00  1.2526E+01  1.2812E+01  1.2005E+01  1.1656E+01  1.2423E+01  1.2038E+01  1.2114E+01  1.2378E+01
126  0.0000E+00  2.4464E-05  0.0000E+00  0.0000E+00  1.3359E-04  6.6132E-05  0.0000E+00  0.0000E+00  0.0000E+00
127  0.0000E+00  3.1043E-05  4.5363E-05  1.0410E-04  0.0000E+00  7.9290E-06  9.7418E-05  0.0000E+00  0.0000E+00
128  0.0000E+00  4.0947E-05  0.0000E+00  1.8165E-04  0.0000E+00  3.2747E-05  2.0715E-04  0.0000E+00  0.0000E+00
129  0.0000E+00  6.0887E-05  0.0000E+00  1.8283E-04  0.0000E+00  0.0000E+00  0.0000E+00  0.0000E+00  0.0000E+00
130  0.0000E+00  4.3600E-05  0.0000E+00  2.4433E-04  0.0000E+00  1.5314E-04  0.0000E+00  0.0000E+00  0.0000E+00
131  0.0000E+00  4.5298E-05  1.9104E-04  0.0000E+00  0.0000E+00  0.0000E+00  0.0000E+00  0.0000E+00  0.0000E+00
132  0.0000E+00  5.9261E-05  0.0000E+00  0.0000E+00  0.0000E+00  0.0000E+00  0.0000E+00  0.0000E+00  0.0000E+00
133  0.0000E+00  4.3543E-05  0.0000E+00  0.0000E+00  0.0000E+00  1.9508E-04  0.0000E+00  0.0000E+00  0.0000E+00
134  0.0000E+00  3.6624E-05  0.0000E+00  0.0000E+00  0.0000E+00  0.0000E+00  0.0000E+00  0.0000E+00  0.0000E+00
135  0.0000E+00  9.9875E-05  0.0000E+00  1.3435E-03  7.7395E-04  0.0000E+00  0.0000E+00  0.0000E+00  0.0000E+00
136  0.0000E+00  8.8148E-05  0.0000E+00  1.4133E-03  0.0000E+00  0.0000E+00  0.0000E+00  5.4785E-05  0.0000E+00
137  0.0000E+00  8.5003E-05  0.0000E+00  4.7693E-05  1.2776E-03  0.0000E+00  0.0000E+00  0.0000E+00  0.0000E+00
138  0.0000E+00  1.3262E-04  0.0000E+00  0.0000E+00  0.0000E+00  0.0000E+00  0.0000E+00  0.0000E+00  0.0000E+00
139  0.0000E+00  2.4932E-04  0.0000E+00  0.0000E+00  0.0000E+00  0.0000E+00  0.0000E+00  0.0000E+00  0.0000E+00
140  0.0000E+00  2.4406E-03  0.0000E+00  0.0000E+00  0.0000E+00  1.4360E-03  9.6142E-04  0.0000E+00  0.0000E+00
141  0.0000E+00  4.3949E-03  0.0000E+00  0.0000E+00  0.0000E+00  0.0000E+00  0.0000E+00  9.7044E-05  0.0000E+00
142  0.0000E+00  6.0499E-03  0.0000E+00  0.0000E+00  6.1423E-04  0.0000E+00  0.0000E+00  0.0000E+00  0.0000E+00
143  1.5457E-04  5.6922E-02  6.6393E-03  1.5605E-03  0.0000E+00  0.0000E+00  8.2176E-03  8.5640E-02  2.3488E-01
144  3.2383E+00  6.6465E-01  1.2426E+00  1.0829E+00  7.2486E-01  3.3945E-01  1.0141E+00  9.5001E-01  7.7328E-01
145  1.9711E+00  1.2156E+00  1.1557E+00  1.8461E+00  1.2841E+00  2.0251E+00  6.8906E-01  1.9563E+00  1.5975E+00
146  2.5918E-02  5.4268E-01  1.7260E+00  1.0500E+00  2.7588E-01  3.3761E-01  1.9030E-01  6.2836E-01  5.8969E-01
147  0.0000E+00  9.1556E-01  7.5596E-01  1.0786E+00  1.2552E+00  9.7708E-01  1.2098E+00  0.0000E+00  0.0000E+00
148  3.1925E-05  1.6023E+00  0.0000E+00  7.9264E-01  8.9733E-01  0.0000E+00  1.6148E+00  6.4075E-01  1.3438E-01
149  0.0000E+00  3.1615E-01  0.0000E+00  4.4996E-02  0.0000E+00  0.0000E+00  0.0000E+00  0.0000E+00  2.1746E-01
150  0.0000E+00  3.2075E-01  0.0000E+00  0.0000E+00  0.0000E+00  0.0000E+00  0.0000E+00  0.0000E+00  2.4070E-01

# AV, chi2 & Mass for <> & i_chain = 1 ...  7 solutions
AV       0.7505      0.7363      0.7416      0.7416      0.7406      0.7445      0.7421      0.7442      0.7439
chi2 2.8650E+00  2.9326E+00  2.9080E+00  2.9138E+00  2.9160E+00  2.9097E+00  2.9152E+00  2.9041E+00  2.9087E+00
Mass 8.6617E-10  8.8004E-10  8.6840E-10  8.7522E-10  8.7935E-10  8.8162E-10  8.8483E-10  8.7442E-10  8.7753E-10
   6.08                                  [v0_min (km/s) before EX0s...]
  71.06                                  [vd_min (km/s) before EX0s...]


## Synthetic spectrum (Best Model) ##l_obs f_obs f_syn wei
 3070    [Nl_obs]
 3359.00    0.08593   0.41728   -1.000
 3360.00    0.21175   0.38411   -1.000
 3361.00    0.21317   0.38124   -1.000
 3362.00    0.22768   0.40771   -1.000
 3363.00    0.26071   0.44763   -1.000
 3364.00    0.26928   0.47950   -1.000
 3365.00    0.25580   0.48868   -1.000
 3366.00    0.26151   0.47493   -1.000
 3367.00    0.26895   0.45013   -1.000
 3368.00    0.25245   0.42620   -1.000
 3369.00    0.23814   0.40950   -1.000
 3370.00    0.24378   0.39967   -1.000
 3371.00    0.25596   0.39536   -1.000
 3372.00    0.26374   0.40020   -1.000
 3373.00    0.28131   0.41906   -1.000
 3374.00    0.27829   0.45038   -1.000
 3375.00    0.28472   0.48480   -1.000
 3376.00    0.31282   0.50814   -1.000
 3377.00    0.32134   0.50871   -1.000
 3378.00    0.32390   0.48749   -1.000
 3379.00    0.31997   0.46065   -1.000
 3380.00    0.30559   0.44526   -1.000
 3381.00    0.29206   0.44817   -1.000
 3382.00    0.29591   0.46361   -1.000
 3383.00    0.31348   0.48097   -1.000
 3384.00    0.32830   0.49503   -1.000
 3385.00    0.32775   0.50550   -1.000
 3386.00    0.33356   0.51073   -1.000
 3387.00    0.34267   0.51147   -1.000
 3388.00    0.35768   0.51132   -1.000
 3389.00    0.36219   0.51071   -1.000
 3390.00    0.36794   0.50557   -1.000
 3391.00    0.36788   0.49212   -1.000
 3392.00    0.36323   0.47541   -1.000
 3393.00    0.35620   0.46766   -1.000
 3394.00    0.35906   0.47610   -1.000
 3395.00    0.37813   0.49752   -1.000
 3396.00    0.40147   0.52230   -1.000
 3397.00    0.42023   0.54449   -1.000
 3398.00    0.43271   0.56185   -1.000
 3399.00    0.44346   0.57025   -1.000
 3400.00    0.46085   0.56750   -1.000
 3401.00    0.46179   0.55593   -1.000
 3402.00    0.43186   0.53939   -1.000
 3403.00    0.42396   0.52378   -1.000
 3404.00    0.42341   0.51265   -1.000
 3405.00    0.40328   0.50456   -1.000
 3406.00    0.39058   0.49711   -1.000
 3407.00    0.39215   0.49089   -1.000
 3408.00    0.40010   0.48884   -1.000
 3409.00    0.40241   0.49252   -1.000
 3410.00    0.40223   0.49906   -1.000
 3411.00    0.40355   0.49964   -1.000
 3412.00    0.39625   0.48861   -1.000
 3413.00    0.38541   0.47113   -1.000
 3414.00    0.38410   0.45885   -1.000
 3415.00    0.39679   0.46132   -1.000
 3416.00    0.40580   0.47832   -1.000
 3417.00    0.40826   0.50405   -1.000
 3418.00    0.42104   0.53103   -1.000
 3419.00    0.43985   0.55258   -1.000
 3420.00    0.45686   0.56155   -1.000
 3421.00    0.45589   0.55399   -1.000
 3422.00    0.45440   0.53562   -1.000
 3423.00    0.45297   0.52078   -1.000
 3424.00    0.44583   0.51701   -1.000
 3425.00    0.43947   0.52023   -1.000
 3426.00    0.44394   0.52531   -1.000
 3427.00    0.46397   0.53417   -1.000
 3428.00    0.47341   0.55120   -1.000
 3429.00    0.48929   0.57102   -1.000
 3430.00    0.50439   0.57759   -1.000
 3431.00    0.48936   0.56420   -1.000
 3432.00    0.47700   0.54130   -1.000
 3433.00    0.46973   0.52635   -1.000
 3434.00    0.47720   0.52766   -1.000
 3435.00    0.48546   0.53557   -1.000
 3436.00    0.47328   0.53572   -1.000
 3437.00    0.46144   0.52248   -1.000
 3438.00    0.44937   0.49672   -1.000
 3439.00    0.42499   0.46135   -1.000
 3440.00    0.39351   0.42538   -1.000
 3441.00    0.36673   0.40032   -1.000
 3442.00    0.37197   0.39319  139.307
 3443.00    0.38969   0.40221  136.561
 3444.00    0.40546   0.41969  130.198
 3445.00    0.42767   0.43976  123.017
 3446.00    0.44179   0.46219  117.302
 3447.00    0.46450   0.48729   -1.000
 3448.00    0.47908   0.51346   -1.000
 3449.00    0.48511   0.53534   -1.000
 3450.00    0.48637   0.54301   -1.000
 3451.00    0.48783   0.53331   -1.000
 3452.00    0.48151   0.51877   -1.000
 3453.00    0.47950   0.51330   -1.000
 3454.00    0.48720   0.51869   -1.000
 3455.00    0.50255   0.52472   -1.000
 3456.00    0.50447   0.52022   -1.000
 3457.00    0.48881   0.50356   -1.000
 3458.00    0.47050   0.48161  233.042
 3459.00    0.46617   0.46350  112.710
 3460.00    0.46973   0.45428  113.271
 3461.00    0.47058   0.45785  181.172
 3462.00    0.47688   0.47560  879.770
 3463.00    0.49616   0.49863  879.770
 3464.00    0.50648   0.51060  879.770
 3465.00    0.51467   0.50904   -1.000
 3466.00    0.51788   0.50621   -1.000
 3467.00    0.52205   0.51274   -1.000
 3468.00    0.53886   0.52925   -1.000
 3469.00    0.55206   0.54619   -1.000
 3470.00    0.54923   0.55191  879.770
 3471.00    0.54245   0.54119  879.770
 3472.00    0.52371   0.51747   -1.000
 3473.00    0.50829   0.48717   -1.000
 3474.00    0.49814   0.45758   -1.000
 3475.00    0.46912   0.43697   -1.000
 3476.00    0.44462   0.43419  116.161
 3477.00    0.45032   0.45024  184.085
 3478.00    0.47967   0.47591   -1.000
 3479.00    0.51211   0.49971   -1.000
 3480.00    0.53292   0.51448   -1.000
 3481.00    0.54593   0.51727   -1.000
 3482.00    0.55318   0.50970   -1.000
 3483.00    0.54391   0.49981   -1.000
 3484.00    0.53277   0.49881   -1.000
 3485.00    0.54088   0.51231   -1.000
 3486.00    0.54887   0.53137   -1.000
 3487.00    0.55695   0.53975   -1.000
 3488.00    0.55455   0.52776   -1.000
 3489.00    0.52895   0.50120   -1.000
 3490.00    0.50712   0.47607   -1.000
 3491.00    0.49934   0.46521   -1.000
 3492.00    0.50180   0.46983   -1.000
 3493.00    0.51213   0.48098   -1.000
 3494.00    0.51664   0.48747   -1.000
 3495.00    0.50534   0.48356   -1.000
 3496.00    0.49025   0.47628   -1.000
 3497.00    0.49293   0.48102   -1.000
 3498.00    0.52036   0.50419   -1.000
 3499.00    0.55287   0.53459   -1.000
 3500.00    0.58251   0.55628   -1.000
 3501.00    0.58879   0.56778   -1.000
 3502.00    0.58454   0.57581   -1.000
 3503.00    0.58750   0.57933   -1.000
 3504.00    0.58299   0.57361   -1.000
 3505.00    0.57231   0.56066   -1.000
 3506.00    0.57083   0.54890   -1.000
 3507.00    0.56908   0.54411   -1.000
 3508.00    0.57323   0.54147   -1.000
 3509.00    0.56729   0.53340   -1.000
 3510.00    0.55843   0.52053   -1.000
 3511.00    0.55724   0.50616   -1.000
 3512.00    0.54586   0.49106   -1.000
 3513.00    0.51702   0.47778   -1.000
 3514.00    0.50096   0.47553   -1.000
 3515.00    0.51398   0.49414   -1.000
 3516.00    0.53964   0.52941   -1.000
 3517.00    0.56940   0.56246   -1.000
 3518.00    0.58556   0.57573   -1.000
 3519.00    0.57408   0.56442   -1.000
 3520.00    0.54966   0.53827   -1.000
 3521.00    0.52366   0.50982   -1.000
 3522.00    0.50351   0.48515   -1.000
 3523.00    0.48822   0.46279   -1.000
 3524.00    0.46136   0.44274  113.732
 3525.00    0.43867   0.43338  115.742
 3526.00    0.45302   0.44498  186.818
 3527.00    0.48524   0.47632   -1.000
 3528.00    0.51360   0.51477  879.770
 3529.00    0.53912   0.54390   -1.000
 3530.00    0.55429   0.55468  879.770
 3531.00    0.56010   0.55108   -1.000
 3532.00    0.56019   0.54703   -1.000
 3533.00    0.56428   0.55191   -1.000
 3534.00    0.56409   0.56285  879.770
 3535.00    0.57186   0.57227  879.770
 3536.00    0.58030   0.57733   -1.000
 3537.00    0.58427   0.58310  879.770
 3538.00    0.59330   0.59283  879.770
 3539.00    0.60435   0.59989   -1.000
 3540.00    0.59877   0.59764  879.770
 3541.00    0.57629   0.58928   -1.000
 3542.00    0.56880   0.58504   -1.000
 3543.00    0.57428   0.59020   -1.000
 3544.00    0.58141   0.59899   -1.000
 3545.00    0.57756   0.60281   -1.000
 3546.00    0.57491   0.59895   -1.000
 3547.00    0.57181   0.59256   -1.000
 3548.00    0.56147   0.58975   -1.000
 3549.00    0.56529   0.59071   -1.000
 3550.00    0.56962   0.58999   -1.000
 3551.00    0.55663   0.58210   -1.000
 3552.00    0.54248   0.56721   -1.000
 3553.00    0.53637   0.55190   -1.000
 3554.00    0.52716   0.54454   -1.000
 3555.00    0.53067   0.54696   -1.000
 3556.00    0.53653   0.55223   -1.000
 3557.00    0.52921   0.55357   -1.000
 3558.00    0.52740   0.55054   -1.000
 3559.00    0.52670   0.54895   -1.000
 3560.00    0.52238   0.55457   -1.000
 3561.00    0.52439   0.56642   -1.000
 3562.00    0.53622   0.57377   -1.000
 3563.00    0.53732   0.56105   -1.000
 3564.00    0.51374   0.52555  228.483
 3565.00    0.47810   0.48447  115.142
 3566.00    0.45390   0.45994  117.204
 3567.00    0.45198   0.45474  116.121
 3568.00    0.45201   0.45289  117.474
 3569.00    0.44064   0.44467  120.723
 3570.00    0.42996   0.43711  120.244
 3571.00    0.43273   0.44042  115.703
 3572.00    0.45426   0.45517  184.688
 3573.00    0.47312   0.47233  879.770
 3574.00    0.48588   0.48535  879.770
 3575.00    0.50254   0.49362   -1.000
 3576.00    0.51270   0.49605   -1.000
 3577.00    0.50222   0.48877   -1.000
 3578.00    0.48043   0.46966   -1.000
 3579.00    0.45641   0.44097  120.872
 3580.00    0.42344   0.41186  129.263
 3581.00    0.39645   0.39336  133.587
 3582.00    0.38934   0.39079  134.271
 3583.00    0.39268   0.39630  136.063
 3584.00    0.38468   0.39639  139.990
 3585.00    0.37256   0.38883  143.466
 3586.00    0.37183   0.38320  141.254
 3587.00    0.38218   0.38920  133.868
 3588.00    0.40178   0.40981  127.027
 3589.00    0.42554   0.44238  118.452
 3590.00    0.46628   0.47926  184.097
 3591.00    0.51405   0.50936   -1.000
 3592.00    0.52486   0.52495  879.770
 3593.00    0.51818   0.53072   -1.000
 3594.00    0.52537   0.53923   -1.000
 3595.00    0.55043   0.55717   -1.000
 3596.00    0.57367   0.57978   -1.000
 3597.00    0.58599   0.59830   -1.000
 3598.00    0.59676   0.61124   -1.000
 3599.00    0.60710   0.61940   -1.000
 3600.00    0.60541   0.61660   -1.000
 3601.00    0.59374   0.59681  879.770
 3602.00    0.56900   0.56523   -1.000
 3603.00    0.53908   0.53390   -1.000
 3604.00    0.52780   0.51342   -1.000
 3605.00    0.52673   0.50548   -1.000
 3606.00    0.52037   0.50173   -1.000
 3607.00    0.50733   0.49220   -1.000
 3608.00    0.49104   0.47753   -1.000
 3609.00    0.48023   0.46956   -1.000
 3610.00    0.48962   0.47734   -1.000
 3611.00    0.51040   0.49715   -1.000
 3612.00    0.52923   0.51723   -1.000
 3613.00    0.53507   0.53345  879.770
 3614.00    0.54248   0.54900   -1.000
 3615.00    0.56529   0.55963   -1.000
 3616.00    0.56459   0.55169   -1.000
 3617.00    0.53459   0.51969   -1.000
 3618.00    0.48694   0.48001  224.258
 3619.00    0.45961   0.46205  183.661
 3620.00    0.48302   0.47881   -1.000
 3621.00    0.53119   0.51848   -1.000
 3622.00    0.56097   0.55869  879.770
 3623.00    0.57689   0.58716   -1.000
 3624.00    0.59674   0.61020   -1.000
 3625.00    0.61270   0.63764   -1.000
 3626.00    0.64242   0.66605   -1.000
 3627.00    0.65870   0.68139   -1.000
 3628.00    0.64675   0.66941   -1.000
 3629.00    0.60572   0.62607   -1.000
 3630.00    0.54710   0.56570   -1.000
 3631.00    0.50160   0.51704   -1.000
 3632.00    0.49017   0.49868   -1.000
 3633.00    0.50763   0.50856  879.770
 3634.00    0.52842   0.53184  879.770
 3635.00    0.53946   0.55496   -1.000
 3636.00    0.55189   0.57411   -1.000
 3637.00    0.57163   0.59437   -1.000
 3638.00    0.61255   0.61854   -1.000
 3639.00    0.64336   0.64007  809.349
 3640.00    0.64292   0.64943   -1.000
 3641.00    0.62052   0.64172   -1.000
 3642.00    0.59525   0.62025   -1.000
 3643.00    0.57451   0.59360   -1.000
 3644.00    0.55179   0.56857   -1.000
 3645.00    0.53638   0.54728   -1.000
 3646.00    0.53326   0.52907   -1.000
 3647.00    0.52716   0.51602   -1.000
 3648.00    0.51859   0.51468   -1.000
 3649.00    0.53323   0.52889   -1.000
 3650.00    0.56070   0.55692   -1.000
 3651.00    0.58501   0.59203   -1.000
 3652.00    0.61030   0.62502   -1.000
 3653.00    0.63532   0.64788   -1.000
 3654.00    0.64738   0.66105   -1.000
 3655.00    0.64858   0.67100   -1.000
 3656.00    0.65616   0.68339   -1.000
 3657.00    0.66532   0.69812   -1.000
 3658.00    0.67127   0.70957   -1.000
 3659.00    0.67628   0.71399   -1.000
 3660.00    0.67923   0.71057   -1.000
 3661.00    0.67307   0.69924   -1.000
 3662.00    0.65281   0.68294   -1.000
 3663.00    0.64293   0.66922   -1.000
 3664.00    0.64577   0.66351   -1.000
 3665.00    0.64888   0.66388   -1.000
 3666.00    0.65342   0.66294   -1.000
 3667.00    0.64605   0.65451   -1.000
 3668.00    0.63664   0.64066   -1.000
 3669.00    0.62816   0.63167   -1.000
 3670.00    0.62343   0.63744   -1.000
 3671.00    0.63975   0.65571   -1.000
 3672.00    0.65871   0.67417   -1.000
 3673.00    0.66620   0.68406   -1.000
 3674.00    0.66493   0.68395   -1.000
 3675.00    0.65497   0.67353   -1.000
 3676.00    0.64185   0.65272   -1.000
 3677.00    0.62753   0.62539  849.822
 3678.00    0.60179   0.59893  873.738
 3679.00    0.57262   0.58206   -1.000
 3680.00    0.57043   0.58126   -1.000
 3681.00    0.59924   0.59476   -1.000
 3682.00    0.62627   0.61225   -1.000
 3683.00    0.62843   0.62146   -1.000
 3684.00    0.61421   0.61391  863.384
 3685.00    0.59222   0.59037  879.770
 3686.00    0.56974   0.56344   -1.000
 3687.00    0.55649   0.55212   -1.000
 3688.00    0.56468   0.56728  879.770
 3689.00    0.59624   0.60483   -1.000
 3690.00    0.63654   0.64785   -1.000
 3691.00    0.66815   0.67690   -1.000
 3692.00    0.67288   0.68228   -1.000
 3693.00    0.65554   0.67075   -1.000
 3694.00    0.64638   0.65736   -1.000
 3695.00    0.65939   0.65128   -1.000
 3696.00    0.66451   0.65472   -1.000
 3697.00    0.66002   0.66882   -1.000
 3698.00    0.67745   0.69227   -1.000
 3699.00    0.71329   0.71578   -1.000
 3700.00    0.72928   0.72649  737.423
 3701.00    0.71025   0.71445   -1.000
 3702.00    0.67934   0.67610  812.646
 3703.00    0.62769   0.61875   -1.000
 3704.00    0.56815   0.56142   -1.000
 3705.00    0.53936   0.52239   -1.000
 3706.00    0.54171   0.50883   -1.000
 3707.00    0.54568   0.51387   -1.000
 3708.00    0.54118   0.52772   -1.000
 3709.00    0.55979   0.54824   -1.000
 3710.00    0.59704   0.57715   -1.000
 3711.00    0.63002   0.61343   -1.000
 3712.00    0.66743   0.65319   -1.000
 3713.00    0.70741   0.68874   -1.000
 3714.00    0.73130   0.71029   -1.000
 3715.00    0.72290   0.71204   -1.000
 3716.00    0.69915   0.69412  759.366
 3717.00    0.67539   0.65623   -1.000
 3718.00    0.62426   0.59791   -1.000
 3719.00    0.54108   0.52764   -1.000
 3720.00    0.47926   0.46697   -1.000
 3721.00    0.46981   0.44041   -1.000
 3722.00    0.49589   0.45647   -1.000
 3723.00    0.54485   0.50471   -1.000
 3724.00    0.59855   0.56356   -1.000
 3725.00    0.62666   0.60647   -1.000
 3726.00    0.62677   0.61928   -1.000
 3727.00    0.61688   0.61379  845.475
 3728.00    0.61396   0.61017   -1.000
 3729.00    0.61581   0.61139   -1.000
 3730.00    0.60821   0.60371   -1.000
 3731.00    0.58546   0.57268   -1.000
 3732.00    0.54879   0.51744   -1.000
 3733.00    0.49479   0.45422   -1.000
 3734.00    0.44017   0.40328   -1.000
 3735.00    0.41289   0.38027   -1.000
 3736.00    0.42471   0.39237   -1.000
 3737.00    0.46296   0.43641   -1.000
 3738.00    0.51805   0.49970   -1.000
 3739.00    0.58102   0.56391   -1.000
 3740.00    0.62228   0.60836   -1.000
 3741.00    0.62760   0.61991   -1.000
 3742.00    0.60666   0.60041   -1.000
 3743.00    0.57304   0.56420   -1.000
 3744.00    0.53849   0.52651   -1.000
 3745.00    0.51058   0.49569   -1.000
 3746.00    0.48990   0.46908   -1.000
 3747.00    0.46629   0.44080   -1.000
 3748.00    0.43678   0.41547  121.182
 3749.00    0.42414   0.40881   -1.000
 3750.00    0.45903   0.43454   -1.000
 3751.00    0.53033   0.48986   -1.000
 3752.00    0.59379   0.55677   -1.000
 3753.00    0.64428   0.61881   -1.000
 3754.00    0.69083   0.66368   -1.000
 3755.00    0.70419   0.67664   -1.000
 3756.00    0.67128   0.65046   -1.000
 3757.00    0.61115   0.59801   -1.000
 3758.00    0.55414   0.54920   -1.000
 3759.00    0.53635   0.52931   -1.000
 3760.00    0.55333   0.53751   -1.000
 3761.00    0.58518   0.55521   -1.000
 3762.00    0.60859   0.56752   -1.000
 3763.00    0.60806   0.57262   -1.000
 3764.00    0.59750   0.57430   -1.000
 3765.00    0.59834   0.57199   -1.000
 3766.00    0.59838   0.56541   -1.000
 3767.00    0.59504   0.56019   -1.000
 3768.00    0.59787   0.56016   -1.000
 3769.00    0.59711   0.56351   -1.000
 3770.00    0.59805   0.57121   -1.000
 3771.00    0.62052   0.58897   -1.000
 3772.00    0.65800   0.61600   -1.000
 3773.00    0.68820   0.64212   -1.000
 3774.00    0.69381   0.65861   -1.000
 3775.00    0.68594   0.66648   -1.000
 3776.00    0.67894   0.67294   -1.000
 3777.00    0.67831   0.68359   -1.000
 3778.00    0.68992   0.69951   -1.000
 3779.00    0.70877   0.71814   -1.000
 3780.00    0.72721   0.73527   -1.000
 3781.00    0.73595   0.74720   -1.000
 3782.00    0.74062   0.75303   -1.000
 3783.00    0.74467   0.75126   -1.000
 3784.00    0.73198   0.73521  741.383
 3785.00    0.69361   0.70112   -1.000
 3786.00    0.64850   0.65724   -1.000
 3787.00    0.61641   0.61775  868.857
 3788.00    0.59674   0.59368   -1.000
 3789.00    0.58822   0.58879  868.752
 3790.00    0.60081   0.59719   -1.000
 3791.00    0.61980   0.60624   -1.000
 3792.00    0.61328   0.60411   -1.000
 3793.00    0.58895   0.58718  879.770
 3794.00    0.57520   0.56198   -1.000
 3795.00    0.56792   0.53553   -1.000
 3796.00    0.54898   0.50864   -1.000
 3797.00    0.52376   0.48325   -1.000
 3798.00    0.51191   0.47167   -1.000
 3799.00    0.53035   0.48848   -1.000
 3800.00    0.57261   0.53356   -1.000
 3801.00    0.60886   0.59074   -1.000
 3802.00    0.64065   0.64200  799.710
 3803.00    0.66660   0.67594   -1.000
 3804.00    0.67629   0.68762   -1.000
 3805.00    0.66686   0.67826   -1.000
 3806.00    0.64710   0.65972   -1.000
 3807.00    0.63556   0.64982   -1.000
 3808.00    0.63939   0.65820   -1.000
 3809.00    0.65497   0.67820   -1.000
 3810.00    0.67353   0.69249   -1.000
 3811.00    0.66545   0.68554   -1.000
 3812.00    0.63540   0.65405   -1.000
 3813.00    0.59711   0.60903   -1.000
 3814.00    0.56302   0.56775  879.770
 3815.00    0.54478   0.54495  879.770
 3816.00    0.54036   0.54349  879.770
 3817.00    0.55213   0.55041   -1.000
 3818.00    0.55492   0.54611   -1.000
 3819.00    0.52896   0.52514   -1.000
 3820.00    0.49431   0.50480   -1.000
 3821.00    0.49376   0.50236   -1.000
 3822.00    0.51419   0.51251   -1.000
 3823.00    0.51318   0.51348  879.770
 3824.00    0.48208   0.49441  224.274
 3825.00    0.45255   0.46754  118.208
 3826.00    0.44304   0.44977  119.028
 3827.00    0.44044   0.44671  117.526
 3828.00    0.44272   0.45394  115.596
 3829.00    0.45506   0.46274  115.279
 3830.00    0.46064   0.46274  118.558
 3831.00    0.44325   0.44781  125.942
 3832.00    0.41460   0.42199  133.204
 3833.00    0.40000   0.39747  133.959
 3834.00    0.40505   0.38545  129.864
 3835.00    0.42037   0.38710   -1.000
 3836.00    0.43281   0.39566   -1.000
 3837.00    0.42671   0.40317   -1.000
 3838.00    0.41350   0.40804  129.033
 3839.00    0.41264   0.41769  124.148
 3840.00    0.43209   0.44202  205.807
 3841.00    0.47744   0.48338   -1.000
 3842.00    0.53037   0.53208  879.770
 3843.00    0.56518   0.57399   -1.000
 3844.00    0.58948   0.60020   -1.000
 3845.00    0.59639   0.61259   -1.000
 3846.00    0.58839   0.61825   -1.000
 3847.00    0.58679   0.61888   -1.000
 3848.00    0.57424   0.61161   -1.000
 3849.00    0.54860   0.60005   -1.000
 3850.00    0.54178   0.59452   -1.000
 3851.00    0.56136   0.60050   -1.000
 3852.00    0.58225   0.61078   -1.000
 3853.00    0.58111   0.61341   -1.000
 3854.00    0.56375   0.60420   -1.000
 3855.00    0.54386   0.58780   -1.000
 3856.00    0.52949   0.56941   -1.000
 3857.00    0.51382   0.54889   -1.000
 3858.00    0.48526   0.52702   -1.000
 3859.00    0.45942   0.51365   -1.000
 3860.00    0.46337   0.52201   -1.000
 3861.00    0.50184   0.55383   -1.000
 3862.00    0.55554   0.59304   -1.000
 3863.00    0.59414   0.61863   -1.000
 3864.00    0.60418   0.62361   -1.000
 3865.00    0.59127   0.61706   -1.000
 3866.00    0.57295   0.61042   -1.000
 3867.00    0.56614   0.60633   -1.000
 3868.00    0.55655   0.59967   -1.000
 3869.00    0.53468   0.58502   -1.000
 3870.00    0.50440   0.56300   -1.000
 3871.00    0.48574   0.54291   -1.000
 3872.00    0.49511   0.53755   -1.000
 3873.00    0.53526   0.55519   -1.000
 3874.00    0.58538   0.58814  879.770
 3875.00    0.60251   0.61315   -1.000
 3876.00    0.58876   0.61090   -1.000
 3877.00    0.55827   0.58708   -1.000
 3878.00    0.52683   0.56519   -1.000
 3879.00    0.51879   0.55849   -1.000
 3880.00    0.52294   0.56188   -1.000
 3881.00    0.51831   0.56663   -1.000
 3882.00    0.53004   0.57119   -1.000
 3883.00    0.56242   0.57634   -1.000
 3884.00    0.58762   0.57326   -1.000
 3885.00    0.58438   0.55209   -1.000
 3886.00    0.56173   0.51896   -1.000
 3887.00    0.55139   0.49087   -1.000
 3888.00    0.55308   0.48314   -1.000
 3889.00    0.56526   0.50261   -1.000
 3890.00    0.60931   0.54575   -1.000
 3891.00    0.66759   0.59883   -1.000
 3892.00    0.70807   0.64178   -1.000
 3893.00    0.71148   0.66161   -1.000
 3894.00    0.69380   0.66406   -1.000
 3895.00    0.69148   0.66468   -1.000
 3896.00    0.70634   0.67081   -1.000
 3897.00    0.72482   0.67766   -1.000
 3898.00    0.72458   0.67890   -1.000
 3899.00    0.71656   0.67629   -1.000
 3900.00    0.71758   0.67648   -1.000
 3901.00    0.71802   0.67994   -1.000
 3902.00    0.71413   0.67968   -1.000
 3903.00    0.69689   0.67051   -1.000
 3904.00    0.66969   0.65508   -1.000
 3905.00    0.64928   0.64383   -1.000
 3906.00    0.64704   0.64928  784.720
 3907.00    0.68417   0.67520   -1.000
 3908.00    0.73495   0.71085   -1.000
 3909.00    0.76032   0.74137   -1.000
 3910.00    0.76740   0.76079   -1.000
 3911.00    0.77996   0.77089   -1.000
 3912.00    0.78745   0.77270   -1.000
 3913.00    0.78217   0.76636   -1.000
 3914.00    0.77103   0.75479   -1.000
 3915.00    0.75518   0.74282   -1.000
 3916.00    0.74634   0.73188   -1.000
 3917.00    0.73436   0.71875   -1.000
 3918.00    0.70525   0.69881   -1.000
 3919.00    0.67502   0.67138   -1.000
 3920.00    0.64368   0.64431  835.324
 3921.00    0.62212   0.62843   -1.000
 3922.00    0.62476   0.62764  828.088
 3923.00    0.64375   0.63435   -1.000
 3924.00    0.64748   0.63548   -1.000
 3925.00    0.62156   0.62094   -1.000
 3926.00    0.57958   0.58717   -1.000
 3927.00    0.51739   0.53885   -1.000
 3928.00    0.44697   0.48490   -1.000
 3929.00    0.38597   0.43285   -1.000
 3930.00    0.32910   0.38469   -1.000
 3931.00    0.28116   0.33854   -1.000
 3932.00    0.24533   0.29664   -1.000
 3933.00    0.22201   0.26921   -1.000
 3934.00    0.22500   0.26780   -1.000
 3935.00    0.24976   0.29445   -1.000
 3936.00    0.28940   0.34098   -1.000
 3937.00    0.35224   0.39752   -1.000
 3938.00    0.42091   0.45620   -1.000
 3939.00    0.47160   0.50889   -1.000
 3940.00    0.51317   0.54894   -1.000
 3941.00    0.54239   0.57200   -1.000
 3942.00    0.55299   0.58061   -1.000
 3943.00    0.55838   0.58726   -1.000
 3944.00    0.57794   0.60436   -1.000
 3945.00    0.62062   0.63257   -1.000
 3946.00    0.66829   0.66142   -1.000
 3947.00    0.69444   0.68203   -1.000
 3948.00    0.69712   0.69677  743.901
 3949.00    0.71349   0.71240  717.740
 3950.00    0.74337   0.72717   -1.000
 3951.00    0.75771   0.73438   -1.000
 3952.00    0.75852   0.73703   -1.000
 3953.00    0.76039   0.74268   -1.000
 3954.00    0.76740   0.74853   -1.000
 3955.00    0.76213   0.74669   -1.000
 3956.00    0.74172   0.73737  728.689
 3957.00    0.73001   0.72818  728.019
 3958.00    0.72958   0.72109   -1.000
 3959.00    0.72021   0.70292   -1.000
 3960.00    0.67146   0.66095   -1.000
 3961.00    0.59237   0.60437   -1.000
 3962.00    0.53260   0.55279   -1.000
 3963.00    0.50178   0.51387  216.655
 3964.00    0.47156   0.47790  125.596
 3965.00    0.41569   0.43086  150.815
 3966.00    0.34440   0.37096   -1.000
 3967.00    0.27778   0.31129   -1.000
 3968.00    0.24422   0.27167   -1.000
 3969.00    0.25933   0.26564  191.486
 3970.00    0.30392   0.29379  157.417
 3971.00    0.36128   0.34680  130.581
 3972.00    0.42821   0.41236   -1.000
 3973.00    0.50465   0.48077   -1.000
 3974.00    0.57190   0.54661   -1.000
 3975.00    0.63242   0.60674   -1.000
 3976.00    0.68701   0.66119   -1.000
 3977.00    0.72641   0.71142   -1.000
 3978.00    0.76587   0.75712   -1.000
 3979.00    0.81253   0.79359   -1.000
 3980.00    0.84806   0.81347   -1.000
 3981.00    0.84408   0.81591   -1.000
 3982.00    0.82834   0.80958   -1.000
 3983.00    0.83265   0.80780   -1.000
 3984.00    0.84644   0.81764   -1.000
 3985.00    0.85803   0.83493   -1.000
 3986.00    0.86976   0.85333   -1.000
 3987.00    0.88711   0.86970   -1.000
 3988.00    0.90194   0.88104   -1.000
 3989.00    0.91136   0.88681   -1.000
 3990.00    0.90982   0.89202   -1.000
 3991.00    0.91947   0.90162   -1.000
 3992.00    0.94278   0.91378   -1.000
 3993.00    0.94645   0.92060   -1.000
 3994.00    0.93206   0.91499   -1.000
 3995.00    0.91675   0.89770   -1.000
 3996.00    0.90063   0.87935   -1.000
 3997.00    0.87287   0.87381  605.462
 3998.00    0.87814   0.88715   -1.000
 3999.00    0.92555   0.91339   -1.000
 4000.00    0.96231   0.94011   -1.000
 4001.00    0.98337   0.95796   -1.000
 4002.00    1.00182   0.96027   -1.000
 4003.00    0.98518   0.94129   -1.000
 4004.00    0.92443   0.90444   -1.000
 4005.00    0.87022   0.87100  611.353
 4006.00    0.86189   0.86534   -1.000
 4007.00    0.90617   0.89079   -1.000
 4008.00    0.95717   0.92839   -1.000
 4009.00    0.98482   0.95781   -1.000
 4010.00    0.98879   0.97353   -1.000
 4011.00    1.00366   0.97946   -1.000
 4012.00    1.01349   0.98163   -1.000
 4013.00    1.00243   0.98555   -1.000
 4014.00    1.00310   0.99128   -1.000
 4015.00    1.00112   0.99439  532.752
 4016.00    0.99542   0.99355  538.587
 4017.00    0.98855   0.99324   -1.000
 4018.00    0.99197   0.99807   -1.000
 4019.00    1.00654   1.00600  531.324
 4020.00    1.00743   1.01069   -1.000
 4021.00    1.00032   1.00813   -1.000
 4022.00    0.99742   0.99942  544.975
 4023.00    0.99398   0.98823  548.912
 4024.00    0.98963   0.98077   -1.000
 4025.00    0.99574   0.98579   -1.000
 4026.00    1.01714   1.00555   -1.000
 4027.00    1.04472   1.02630   -1.000
 4028.00    1.05552   1.02612   -1.000
 4029.00    1.02018   0.99421   -1.000
 4030.00    0.95692   0.94211   -1.000
 4031.00    0.90966   0.89411   -1.000
 4032.00    0.90107   0.86789   -1.000
 4033.00    0.91038   0.86897   -1.000
 4034.00    0.93187   0.89577   -1.000
 4035.00    0.97532   0.94233   -1.000
 4036.00    1.02195   0.99641   -1.000
 4037.00    1.06506   1.04126   -1.000
 4038.00    1.08504   1.06247   -1.000
 4039.00    1.06852   1.05912   -1.000
 4040.00    1.04799   1.04375  524.668
 4041.00    1.04255   1.02700   -1.000
 4042.00    1.03826   1.00146   -1.000
 4043.00    1.00000   0.95127   -1.000
 4044.00    0.90835   0.88192   -1.000
 4045.00    0.82728   0.82970  644.608
 4046.00    0.83327   0.83135  597.608
 4047.00    0.91138   0.88562   -1.000
 4048.00    0.99129   0.95688   -1.000
 4049.00    1.03893   1.01180   -1.000
 4050.00    1.05571   1.03767   -1.000
 4051.00    1.04912   1.03845   -1.000
 4052.00    1.02848   1.02295  538.362
 4053.00    1.00450   1.00013  549.496
 4054.00    0.98105   0.97821  555.834
 4055.00    0.96891   0.96064   -1.000
 4056.00    0.96186   0.94700   -1.000
 4057.00    0.95208   0.94097   -1.000
 4058.00    0.95686   0.95000  550.116
 4059.00    0.98112   0.97076   -1.000
 4060.00    1.01079   0.98298   -1.000
 4061.00    1.01024   0.96506   -1.000
 4062.00    0.95610   0.91918   -1.000
 4063.00    0.89131   0.87542   -1.000
 4064.00    0.87881   0.85998   -1.000
 4065.00    0.91093   0.87341   -1.000
 4066.00    0.94304   0.90205   -1.000
 4067.00    0.97109   0.93377   -1.000
 4068.00    1.00803   0.95895   -1.000
 4069.00    1.02611   0.96553   -1.000
 4070.00    1.00293   0.94789   -1.000
 4071.00    0.96466   0.92297   -1.000
 4072.00    0.95424   0.91691   -1.000
 4073.00    0.97837   0.93143   -1.000
 4074.00    0.99221   0.94108   -1.000
 4075.00    0.97477   0.92326   -1.000
 4076.00    0.92216   0.88592   -1.000
 4077.00    0.87030   0.86096   -1.000
 4078.00    0.87787   0.87309  593.516
 4079.00    0.93333   0.92104   -1.000
 4080.00    1.00176   0.97843   -1.000
 4081.00    1.04641   1.01533   -1.000
 4082.00    1.03826   1.01922   -1.000
 4083.00    1.00891   1.00123   -1.000
 4084.00    0.99197   0.98512  549.222
 4085.00    0.99432   0.98947  535.298
 4086.00    1.03087   1.01668   -1.000
 4087.00    1.07781   1.05360   -1.000
 4088.00    1.10646   1.08253   -1.000
 4089.00    1.11636   1.09203   -1.000
 4090.00    1.10255   1.08313   -1.000
 4091.00    1.07649   1.06690   -1.000
 4092.00    1.06246   1.05272   -1.000
 4093.00    1.06018   1.03872   -1.000
 4094.00    1.05293   1.01761   -1.000
 4095.00    1.02443   0.98745   -1.000
 4096.00    0.98509   0.95509   -1.000
 4097.00    0.95945   0.92738   -1.000
 4098.00    0.94566   0.89842   -1.000
 4099.00    0.91454   0.85649   -1.000
 4100.00    0.84678   0.80489   -1.000
 4101.00    0.78760   0.76607   -1.000
 4102.00    0.79037   0.76408   -1.000
 4103.00    0.84550   0.80478   -1.000
 4104.00    0.90962   0.86917   -1.000
 4105.00    0.95877   0.93047   -1.000
 4106.00    0.99780   0.97270   -1.000
 4107.00    1.01723   0.99261   -1.000
 4108.00    1.01669   0.99419   -1.000
 4109.00    1.00560   0.98638   -1.000
 4110.00    0.98563   0.98014  565.049
 4111.00    0.97745   0.98387   -1.000
 4112.00    0.99151   0.99916   -1.000
 4113.00    1.01614   1.02143   -1.000
 4114.00    1.03061   1.04288   -1.000
 4115.00    1.03624   1.05545   -1.000
 4116.00    1.04592   1.05302   -1.000
 4117.00    1.04311   1.03580   -1.000
 4118.00    1.02067   1.01317   -1.000
 4119.00    1.00027   0.99801  561.120
 4120.00    0.99847   0.99594  554.475
 4121.00    1.00509   1.00167  552.032
 4122.00    1.00494   1.00875  549.318
 4123.00    1.01327   1.01703  541.244
 4124.00    1.03297   1.02656  535.593
 4125.00    1.04327   1.03198   -1.000
 4126.00    1.03385   1.02697   -1.000
 4127.00    1.01490   1.01271  556.525
 4128.00    0.99885   0.99716  560.059
 4129.00    0.99378   0.98379   -1.000
 4130.00    0.98781   0.96714   -1.000
 4131.00    0.96451   0.94459   -1.000
 4132.00    0.93522   0.92580   -1.000
 4133.00    0.92182   0.92637   -1.000
 4134.00    0.94113   0.95178   -1.000
 4135.00    0.98230   0.99195   -1.000
 4136.00    1.02008   1.03148   -1.000
 4137.00    1.04794   1.06133   -1.000
 4138.00    1.06323   1.07928   -1.000
 4139.00    1.06422   1.08265   -1.000
 4140.00    1.05870   1.06386  544.899
 4141.00    1.01976   1.01836  582.916
 4142.00    0.94868   0.95927   -1.000
 4143.00    0.89491   0.91760   -1.000
 4144.00    0.89690   0.91704   -1.000
 4145.00    0.95268   0.95265  565.611
 4146.00    1.00681   0.99642   -1.000
 4147.00    1.01916   1.02203  555.683
 4148.00    1.00421   1.02403   -1.000
 4149.00    0.98306   1.01403   -1.000
 4150.00    0.96736   1.00501   -1.000
 4151.00    0.97198   1.00049   -1.000
 4152.00    0.97903   0.99607   -1.000
 4153.00    0.96077   0.98821   -1.000
 4154.00    0.99932   0.97982   -1.000
 4155.00    1.16561   0.97770   -1.000
 4156.00    1.14839   0.98650   -1.000
 4157.00    0.86111   1.00547   -1.000
 4158.00    0.81735   1.02977   -1.000
 4159.00    0.99820   1.05308   -1.000
 4160.00    1.05248   1.07115   -1.000
 4161.00    1.05073   1.08377   -1.000
 4162.00    1.06562   1.09176   -1.000
 4163.00    1.06890   1.09353   -1.000
 4164.00    1.05337   1.08660   -1.000
 4165.00    1.02467   1.07135   -1.000
 4166.00    0.99627   1.05313   -1.000
 4167.00    0.98068   1.04147   -1.000
 4168.00    0.99334   1.04033   -1.000
 4169.00    1.01186   1.03990   -1.000
 4170.00    1.00117   1.02366   -1.000
 4171.00    0.95651   0.98717   -1.000
 4172.00    0.90419   0.94784   -1.000
 4173.00    0.88786   0.92886   -1.000
 4174.00    0.91538   0.93701   -1.000
 4175.00    0.95036   0.95836   -1.000
 4176.00    0.96397   0.97534   -1.000
 4177.00    0.96150   0.98445   -1.000
 4178.00    0.96197   0.99261   -1.000
 4179.00    0.97169   1.00282   -1.000
 4180.00    0.98234   1.01052   -1.000
 4181.00    0.98418   1.01271   -1.000
 4182.00    0.98261   1.01557   -1.000
 4183.00    0.99562   1.02633   -1.000
 4184.00    1.01889   1.03897   -1.000
 4185.00    1.01740   1.04000   -1.000
 4186.00    0.99400   1.02570   -1.000
 4187.00    0.96843   1.00930   -1.000
 4188.00    0.96111   1.00649   -1.000
 4189.00    0.98691   1.01677   -1.000
 4190.00    1.00924   1.03057   -1.000
 4191.00    1.01343   1.04460   -1.000
 4192.00    1.03865   1.05831   -1.000
 4193.00    1.06627   1.06425  546.286
 4194.00    1.04487   1.05111   -1.000
 4195.00    0.99345   1.01767   -1.000
 4196.00    0.95443   0.97832   -1.000
 4197.00    0.93523   0.94892   -1.000
 4198.00    0.93001   0.93507   -1.000
 4199.00    0.93929   0.93292   -1.000
 4200.00    0.95064   0.93673   -1.000
 4201.00    0.95420   0.94361   -1.000
 4202.00    0.95943   0.95551  587.470
 4203.00    0.97247   0.97647  580.785
 4204.00    0.98921   1.00542   -1.000
 4205.00    1.00930   1.03607   -1.000
 4206.00    1.02930   1.06353   -1.000
 4207.00    1.04642   1.08405   -1.000
 4208.00    1.05751   1.09313   -1.000
 4209.00    1.06076   1.09205   -1.000
 4210.00    1.06550   1.08906   -1.000
 4211.00    1.07013   1.08934   -1.000
 4212.00    1.06489   1.08634   -1.000
 4213.00    1.05335   1.06819   -1.000
 4214.00    1.01418   1.03715   -1.000
 4215.00    0.97198   1.01414   -1.000
 4216.00    0.97851   1.02024   -1.000
 4217.00    1.02858   1.05723   -1.000
 4218.00    1.08863   1.10430   -1.000
 4219.00    1.12536   1.13933   -1.000
 4220.00    1.14363   1.15136   -1.000
 4221.00    1.14293   1.13641  514.402
 4222.00    1.10838   1.09205   -1.000
 4223.00    1.04536   1.01959   -1.000
 4224.00    0.95974   0.92866   -1.000
 4225.00    0.84793   0.84350  732.204
 4226.00    0.76230   0.79897   -1.000
 4227.00    0.78213   0.82137   -1.000
 4228.00    0.89424   0.90307   -1.000
 4229.00    1.00799   1.00225  534.448
 4230.00    1.06967   1.07227   -1.000
 4231.00    1.09826   1.09546  524.763
 4232.00    1.09549   1.08399   -1.000
 4233.00    1.06510   1.05829  547.534
 4234.00    1.04893   1.03305   -1.000
 4235.00    1.03213   1.01574   -1.000
 4236.00    1.01027   1.00864  570.839
 4237.00    1.01569   1.01315  561.237
 4238.00    1.03347   1.02931  550.688
 4239.00    1.04411   1.05299   -1.000
 4240.00    1.06072   1.07819   -1.000
 4241.00    1.07724   1.10117   -1.000
 4242.00    1.09005   1.12194   -1.000
 4243.00    1.10998   1.14160   -1.000
 4244.00    1.13405   1.15536   -1.000
 4245.00    1.12702   1.15072   -1.000
 4246.00    1.09625   1.12055   -1.000
 4247.00    1.06112   1.07476   -1.000
 4248.00    1.02854   1.03234  574.243
 4249.00    1.00497   1.00818  576.062
 4250.00    0.99468   1.00694   -1.000
 4251.00    1.02388   1.02181  549.903
 4252.00    1.05609   1.03616   -1.000
 4253.00    1.05581   1.03867   -1.000
 4254.00    1.02822   1.03709   -1.000
 4255.00    1.02951   1.04725   -1.000
 4256.00    1.07392   1.06808   -1.000
 4257.00    1.09620   1.07612   -1.000
 4258.00    1.07366   1.05379   -1.000
 4259.00    1.02108   1.01508   -1.000
 4260.00    0.97647   0.99411   -1.000
 4261.00    0.98868   1.01436   -1.000
 4262.00    1.04785   1.06933   -1.000
 4263.00    1.11166   1.13102   -1.000
 4264.00    1.15249   1.17245   -1.000
 4265.00    1.16621   1.18413   -1.000
 4266.00    1.15675   1.17119   -1.000
 4267.00    1.12979   1.13972   -1.000
 4268.00    1.09730   1.09193   -1.000
 4269.00    1.05766   1.03113   -1.000
 4270.00    0.99696   0.96666   -1.000
 4271.00    0.93478   0.91568   -1.000
 4272.00    0.91111   0.89362   -1.000
 4273.00    0.92508   0.90380   -1.000
 4274.00    0.94866   0.93890   -1.000
 4275.00    0.98117   0.99095   -1.000
 4276.00    1.03903   1.05080   -1.000
 4277.00    1.09691   1.10005  518.318
 4278.00    1.11828   1.11888  531.301
 4279.00    1.09020   1.10671   -1.000
 4280.00    1.04934   1.08402   -1.000
 4281.00    1.04209   1.07295   -1.000
 4282.00    1.05095   1.07600   -1.000
 4283.00    1.05952   1.07846   -1.000
 4284.00    1.05924   1.06993   -1.000
 4285.00    1.03313   1.05232   -1.000
 4286.00    1.00355   1.03139   -1.000
 4287.00    0.98365   1.00677   -1.000
 4288.00    0.95328   0.97492   -1.000
 4289.00    0.92221   0.94382   -1.000
 4290.00    0.90861   0.93347   -1.000
 4291.00    0.93270   0.95406   -1.000
 4292.00    0.99306   0.99088  572.101
 4293.00    1.02897   1.01679   -1.000
 4294.00    1.02307   1.01837   -1.000
 4295.00    1.00947   1.00025   -1.000
 4296.00    0.98930   0.96775   -1.000
 4297.00    0.94314   0.92055   -1.000
 4298.00    0.87578   0.86400   -1.000
 4299.00    0.81806   0.81386   -1.000
 4300.00    0.78593   0.78564  729.341
 4301.00    0.78837   0.78213   -1.000
 4302.00    0.80712   0.79366   -1.000
 4303.00    0.82718   0.80827   -1.000
 4304.00    0.84946   0.81696   -1.000
 4305.00    0.84987   0.81198   -1.000
 4306.00    0.82697   0.79065   -1.000
 4307.00    0.79024   0.76249   -1.000
 4308.00    0.76071   0.74612   -1.000
 4309.00    0.76230   0.75603   -1.000
 4310.00    0.80094   0.79220   -1.000
 4311.00    0.85367   0.84387   -1.000
 4312.00    0.90055   0.90184  621.599
 4313.00    0.94649   0.96760   -1.000
 4314.00    1.00445   1.04782   -1.000
 4315.00    1.09305   1.13928   -1.000
 4316.00    1.18897   1.22444   -1.000
 4317.00    1.25146   1.28080   -1.000
 4318.00    1.26526   1.29826   -1.000
 4319.00    1.25051   1.28400   -1.000
 4320.00    1.22691   1.24936   -1.000
 4321.00    1.18167   1.19728   -1.000
 4322.00    1.12133   1.12572  550.117
 4323.00    1.05114   1.04026   -1.000
 4324.00    0.97293   0.96557   -1.000
 4325.00    0.92559   0.93839   -1.000
 4326.00    0.95114   0.97880   -1.000
 4327.00    1.05114   1.06754   -1.000
 4328.00    1.15550   1.15881  493.404
 4329.00    1.19890   1.21602   -1.000
 4330.00    1.19690   1.23697   -1.000
 4331.00    1.19839   1.24255   -1.000
 4332.00    1.21424   1.25062   -1.000
 4333.00    1.22842   1.26166   -1.000
 4334.00    1.23860   1.26205   -1.000
 4335.00    1.23401   1.23480  500.399
 4336.00    1.18757   1.16975   -1.000
 4337.00    1.09639   1.07444   -1.000
 4338.00    0.99298   0.97556   -1.000
 4339.00    0.90720   0.90737  678.987
 4340.00    0.87244   0.89219   -1.000
 4341.00    0.91213   0.93078   99.597
 4342.00    0.99811   1.00348   54.971
 4343.00    1.07956   1.08090   52.581
 4344.00    1.13526   1.14248   51.092
 4345.00    1.17086   1.18575   50.003
 4346.00    1.18898   1.21832   49.351
 4347.00    1.20634   1.24491   48.672
 4348.00    1.23515   1.25856   48.388
 4349.00    1.23859   1.24314   49.961
 4350.00    1.18178   1.19395   53.374
 4351.00    1.09482   1.13447   55.597
 4352.00    1.05643   1.10190   54.525
 4353.00    1.09187   1.11481   52.072
 4354.00    1.14198   1.15795   50.137
 4355.00    1.18338   1.20252   48.897
 4356.00    1.21935   1.23048   48.479
 4357.00    1.22729   1.23816   49.115
 4358.00    1.21381   1.23243   49.960
 4359.00    1.20057   1.22893   49.658
 4360.00    1.20808   1.24099   48.331
 4361.00    1.23628   1.26655   47.373
 4362.00    1.26112   1.29404   47.065
 4363.00    1.27454   1.31520   46.688
 4364.00    1.28137   1.32576   46.425
 4365.00    1.28269   1.31974   47.231
 4366.00    1.25554   1.29354   48.899
 4367.00    1.20660   1.25698   49.995
 4368.00    1.18510   1.22890   49.913
 4369.00    1.19763   1.21724   49.496
 4370.00    1.20293   1.21329   49.346
 4371.00    1.20348   1.20308   49.614
 4372.00    1.20347   1.17811   50.990
 4373.00    1.16713   1.14113   53.102
 4374.00    1.11432   1.10924   54.033
 4375.00    1.10035   1.10506   52.691
 4376.00    1.13558   1.13508   50.174
 4377.00    1.19021   1.18078   48.574
 4378.00    1.22726   1.21285   48.414
 4379.00    1.22745   1.21246   49.063
 4380.00    1.20660   1.17410   50.770
 4381.00    1.16630   1.09905   -1.000
 4382.00    1.06500   1.00292   -1.000
 4383.00    0.94816   0.92474   64.709
 4384.00    0.90995   0.90516   61.261
 4385.00    0.97250   0.95119   55.367
 4386.00    1.07462   1.02839   52.109
 4387.00    1.13537   1.09050   51.490
 4388.00    1.14601   1.11810   51.873
 4389.00    1.14040   1.12306   52.226
 4390.00    1.13869   1.12594   51.700
 4391.00    1.15005   1.13657   50.566
 4392.00    1.17491   1.15033   50.267
 4393.00    1.18968   1.15869   51.100
 4394.00    1.16859   1.16385   51.502
 4395.00    1.16620   1.17903   49.999
 4396.00    1.20887   1.20794   48.128
 4397.00    1.25394   1.23278   47.936
 4398.00    1.26112   1.23286   49.303
 4399.00    1.21938   1.20933   50.966
 4400.00    1.17803   1.18383   51.251
 4401.00    1.18214   1.16874   50.396
 4402.00    1.20248   1.15208   50.994
 4403.00    1.17599   1.11947   53.562
 4404.00    1.11006   1.07986   55.205
 4405.00    1.07545   1.05993   54.223
 4406.00    1.10057   1.07252   52.931
 4407.00    1.12293   1.10533   52.367
 4408.00    1.13162   1.14541   51.006
 4409.00    1.17367   1.19303   48.866
 4410.00    1.23839   1.24611   47.019
 4411.00    1.29179   1.28727   46.037
 4412.00    1.31242   1.29409   46.544
 4413.00    1.28930   1.26129   48.676
 4414.00    1.22262   1.20881   50.946
 4415.00    1.16196   1.16992   51.520
 4416.00    1.15422   1.17065   50.279
 4417.00    1.19271   1.20970   48.280
 4418.00    1.24220   1.26202   46.639
 4419.00    1.28251   1.29952   46.254
 4420.00    1.29318   1.30697   47.123
 4421.00    1.25946   1.28858   48.178
 4422.00    1.22360   1.26439   48.374
 4423.00    1.21352   1.25290   48.086
 4424.00    1.22121   1.25603   48.094
 4425.00    1.22657   1.26447   48.315
 4426.00    1.21564   1.27136   48.217
 4427.00    1.21679   1.27584   47.945
 4428.00    1.23583   1.27702   48.148
 4429.00    1.23628   1.27395   48.470
 4430.00    1.22450   1.26959   48.194
 4431.00    1.23293   1.26677   47.712
 4432.00    1.24818   1.25950   48.466
 4433.00    1.22814   1.23868   50.588
 4434.00    1.17353   1.21170   51.994
 4435.00    1.14377   1.20342   -1.000
 4436.00    1.17455   1.23212   48.175
 4437.00    1.24711   1.28800   45.729
 4438.00    1.31534   1.33833   44.871
 4439.00    1.34055   1.35416   45.689
 4440.00    1.31712   1.32988   47.623
 4441.00    1.26191   1.28511   49.787
 4442.00    1.21062   1.25025   50.764
 4443.00    1.19692   1.24777   49.654
 4444.00    1.22986   1.27930   47.581
 4445.00    1.28563   1.32606   46.202
 4446.00    1.31925   1.36341   45.878
 4447.00    1.32134   1.37974   45.963
 4448.00    1.32070   1.38066   46.298
 4449.00    1.31527   1.37550   46.795
 4450.00    1.30532   1.36707   46.778
 4451.00    1.30696   1.35349   46.786
 4452.00    1.29958   1.32995   47.939
 4453.00    1.26250   1.29213   50.020
 4454.00    1.20161   1.24645   51.615
 4455.00    1.16398   1.21137   51.505
 4456.00    1.17832   1.19933   50.549
 4457.00    1.20358   1.20341   50.191
 4458.00    1.20791   1.20826   50.385
 4459.00    1.20311   1.20636   50.808
 4460.00    1.19210   1.20267   51.305
 4461.00    1.18252   1.20829   50.896
 4462.00    1.19928   1.23065   49.250
 4463.00    1.24727   1.26536   47.737
 4464.00    1.28662   1.29768   47.251
 4465.00    1.29608   1.31538   47.272
 4466.00    1.28952   1.31701   47.601
 4467.00    1.28120   1.30839   48.382
 4468.00    1.26974   1.29778   48.957
 4469.00    1.25442   1.29499   48.657
 4470.00    1.25758   1.30882   47.443
 4471.00    1.29622   1.34037   45.835
 4472.00    1.34798   1.37977   44.446
 4473.00    1.37966   1.41447   43.734
 4474.00    1.39426   1.43898   43.651
 4475.00    1.39893   1.45625   43.474
 4476.00    1.41168   1.46995   43.151
 4477.00    1.43510   1.47294   43.277
 4478.00    1.42568   1.45093   44.390
 4479.00    1.37447   1.40178   46.298
 4480.00    1.31579   1.34605   47.959
 4481.00    1.27319   1.31472   48.179
 4482.00    1.27405   1.32577   46.692
 4483.00    1.32048   1.37245   44.799
 4484.00    1.38083   1.42947   43.545
 4485.00    1.42380   1.46928   43.216
 4486.00    1.43462   1.47600   43.845
 4487.00    1.41113   1.45004   45.276
 4488.00    1.36165   1.40781   46.639
 4489.00    1.31293   1.37464   46.761
 4490.00    1.30926   1.36815   45.764
 4491.00    1.35325   1.38325   44.809
 4492.00    1.38559   1.39643   44.917
 4493.00    1.37271   1.38876   46.047
 4494.00    1.33129   1.36584   47.241
 4495.00    1.29684   1.35103   47.345
 4496.00    1.30189   1.36091   46.117
 4497.00    1.34370   1.39123   44.666
 4498.00    1.38628   1.42311   43.891
 4499.00    1.39778   1.44067   44.033
 4500.00    1.38860   1.44396   44.419
 4501.00    1.38406   1.44786   43.826
 4502.00    1.40335   1.46658   42.427
 4503.00    1.44697   1.49891   41.375
 4504.00    1.48555   1.53064   41.256
 4505.00    1.49058   1.54735   41.899
 4506.00    1.47409   1.54492   -1.000
 4507.00    1.45891   1.53180   -1.000
 4508.00    1.45010   1.52094   -1.000
 4509.00    1.46103   1.51850   42.183
 4510.00    1.47196   1.51957   42.272
 4511.00    1.45785   1.51392   42.933
 4512.00    1.43115   1.49636   43.752
 4513.00    1.40414   1.47238   -1.000
 4514.00    1.38450   1.45223   -1.000
 4515.00    1.39031   1.44133   44.077
 4516.00    1.40250   1.43774   44.387
 4517.00    1.38984   1.43709   44.781
 4518.00    1.37768   1.44004   44.428
 4519.00    1.39711   1.45031   43.570
 4520.00    1.43325   1.46431   43.289
 4521.00    1.44812   1.47082   43.974
 4522.00    1.42252   1.46219   44.959
 4523.00    1.38469   1.44070   45.557
 4524.00    1.36808   1.41281   46.151
 4525.00    1.34821   1.38036   47.314
 4526.00    1.30738   1.34206   48.721
 4527.00    1.27288   1.30176   49.630
 4528.00    1.24920   1.27094   49.638
 4529.00    1.24289   1.26136   48.946
 4530.00    1.26869   1.27431   48.050
 4531.00    1.30159   1.29746   47.550
 4532.00    1.31109   1.31283   48.250
 4533.00    1.28459   1.31104   49.823
 4534.00    1.24382   1.30166   50.139
 4535.00    1.23799   1.30708   -1.000
 4536.00    1.29226   1.34173   45.230
 4537.00    1.37924   1.39468   43.421
 4538.00    1.43476   1.43806   43.222
 4539.00    1.43656   1.45374   44.053
 4540.00    1.41612   1.44681   44.483
 4541.00    1.39659   1.43575   44.240
 4542.00    1.43669   1.43227   44.003
 4543.00    1.25896   1.43324   -1.000
 4544.00    0.48735   1.43041   -1.000
 4545.00   -0.02818   1.42195    0.000
 4546.00    0.18057   1.41187   -1.000
 4547.00    0.78469   1.40156   -1.000
 4548.00    0.65950   1.38908   -1.000
 4549.00    0.84092   1.37780   -1.000
 4550.00    1.32440   1.37582   48.148
 4551.00    1.35848   1.38387   45.958
 4552.00    1.36611   1.39099   46.501
 4553.00    1.35842   1.38785   47.066
 4554.00    1.34463   1.38055   46.814
 4555.00    1.34963   1.38498   45.476
 4556.00    1.37947   1.41057   43.684
 4557.00    1.42718   1.45094   42.508
 4558.00    1.46645   1.48938   42.366
 4559.00    1.48015   1.51434   42.473
 4560.00    1.48459   1.52474   42.464
 4561.00    1.47889   1.52153   43.052
 4562.00    1.45980   1.50370   44.127
 4563.00    1.41936   1.47442   45.028
 4564.00    1.37788   1.44653   -1.000
 4565.00    1.37779   1.43655   44.123
 4566.00    1.41619   1.45122   42.957
 4567.00    1.46292   1.48107   42.237
 4568.00    1.48356   1.50672   42.354
 4569.00    1.47711   1.51272   43.203
 4570.00    1.44039   1.49855   44.344
 4571.00    1.39684   1.47803   -1.000
 4572.00    1.39376   1.46910   -1.000
 4573.00    1.43523   1.47979   42.720
 4574.00    1.47053   1.50090   42.504
 4575.00    1.46715   1.51625   42.646
 4576.00    1.46343   1.51770   42.877
 4577.00    1.46772   1.50539   43.413
 4578.00    1.44560   1.48081   44.500
 4579.00    1.40315   1.44774   45.609
 4580.00    1.36975   1.41633   45.907
 4581.00    1.37038   1.39827   45.442
 4582.00    1.39082   1.39641   44.969
 4583.00    1.40406   1.40305   44.920
 4584.00    1.40346   1.40970   45.155
 4585.00    1.39118   1.41584   44.902
 4586.00    1.39146   1.42816   43.922
 4587.00    1.42224   1.45164   42.886
 4588.00    1.45519   1.48040   42.481
 4589.00    1.47087   1.50043   42.844
 4590.00    1.47090   1.50196   43.593
 4591.00    1.44381   1.48629   44.383
 4592.00    1.41171   1.46327   44.725
 4593.00    1.40623   1.44420   44.496
 4594.00    1.41454   1.43417   44.124
 4595.00    1.42086   1.43121   43.914
 4596.00    1.42821   1.43316   43.817
 4597.00    1.43709   1.43957   43.722
 4598.00    1.44031   1.44731   43.909
 4599.00    1.42987   1.45188   44.315
 4600.00    1.41203   1.45241   44.551
 4601.00    1.40469   1.45216   44.312
 4602.00    1.41278   1.45407   43.810
 4603.00    1.42851   1.45745   43.652
 4604.00    1.44359   1.46076   43.653
 4605.00    1.44968   1.46713   43.335
 4606.00    1.45643   1.48312   42.622
 4607.00    1.47768   1.51098   41.726
 4608.00    1.51398   1.54383   41.070
 4609.00    1.54079   1.56882   40.992
 4610.00    1.53442   1.57604   41.420
 4611.00    1.51443   1.56617   41.935
 4612.00    1.49596   1.54947   42.283
 4613.00    1.48579   1.53777   42.264
 4614.00    1.49325   1.53728   41.942
 4615.00    1.50498   1.54534   41.687
 4616.00    1.50574   1.55369   41.791
 4617.00    1.50189   1.55662   42.101
 4618.00    1.49364   1.55480   42.204
 4619.00    1.48619   1.55298   41.937
 4620.00    1.49381   1.55578   41.366
 4621.00    1.51403   1.56334   41.086
 4622.00    1.52752   1.57062   41.160
 4623.00    1.52917   1.57247   41.253
 4624.00    1.52590   1.56878   41.512
 4625.00    1.51772   1.56333   41.735
 4626.00    1.50894   1.55915   41.755
 4627.00    1.51179   1.55696   41.905
 4628.00    1.51191   1.55643   42.076
 4629.00    1.50005   1.55751   41.980
 4630.00    1.50717   1.56029   41.596
 4631.00    1.52762   1.56265   41.506
 4632.00    1.52671   1.56008   41.962
 4633.00    1.50285   1.55023   42.498
 4634.00    1.49101   1.53608   42.658
 4635.00    1.48773   1.52212   42.837
 4636.00    1.48035   1.50906   43.328
 4637.00    1.46282   1.49565   43.672
 4638.00    1.44556   1.48395   43.696
 4639.00    1.45579   1.47923   43.217
 4640.00    1.47551   1.48600   42.267
 4641.00    1.49558   1.50270   41.498
 4642.00    1.51516   1.51928   41.382
 4643.00    1.52151   1.52280   41.930
 4644.00    1.50854   1.50673   42.969
 4645.00    1.47536   1.47477   44.182
 4646.00    1.43514   1.43910   44.785
 4647.00    1.41174   1.41627   44.353
 4648.00    1.41704   1.41813   43.389
 4649.00    1.44230   1.44332   42.621
 4650.00    1.47756   1.47961   42.354
 4651.00    1.50265   1.51122   42.285
 4652.00    1.50240   1.52615   42.550
 4653.00    1.48859   1.52152   43.363
 4654.00    1.46960   1.50440   44.081
 4655.00    1.44770   1.48916   44.039
 4656.00    1.44150   1.49113   43.013
 4657.00    1.47022   1.51702   41.444
 4658.00    1.52144   1.55904   40.248
 4659.00    1.56952   1.59812   39.880
 4660.00    1.59298   1.61593   40.184
 4661.00    1.57395   1.60678   40.992
 4662.00    1.53282   1.57899   41.895
 4663.00    1.50693   1.54479   42.276
 4664.00    1.49830   1.50892   42.714
 4665.00    1.47815   1.46798   44.113
 4666.00    1.42160   1.42190   46.012
 4667.00    1.35743   1.38399   46.800
 4668.00    1.34091   1.37317   45.892
 4669.00    1.37975   1.39637   44.128
 4670.00    1.44722   1.44025   42.666
 4671.00    1.50221   1.48223   42.074
 4672.00    1.51475   1.50850   42.017
 4673.00    1.50630   1.52035   42.010
 4674.00    1.50660   1.52808   41.657
 4675.00    1.52084   1.53888   41.049
 4676.00    1.54054   1.54867   40.926
 4677.00    1.55001   1.54700   41.567
 4678.00    1.53116   1.52919   42.442
 4679.00    1.49664   1.50194   43.196
 4680.00    1.46469   1.47753   43.728
 4681.00    1.44525   1.46614   43.554
 4682.00    1.45556   1.47137   42.644
 4683.00    1.48013   1.48837   41.867
 4684.00    1.50922   1.50696   41.751
 4685.00    1.52645   1.51854   41.835
 4686.00    1.52657   1.52102   41.983
 4687.00    1.51743   1.51749   42.085
 4688.00    1.51700   1.51234   42.082
 4689.00    1.51973   1.50826   42.268
 4690.00    1.50427   1.50576   42.450
 4691.00    1.49604   1.50556   42.170
 4692.00    1.50556   1.51046   41.576
 4693.00    1.53145   1.52293   40.763
 4694.00    1.56157   1.54031   40.083
 4695.00    1.58367   1.55422   40.012
 4696.00    1.58692   1.55513   40.807
 4697.00    1.55601   1.53841   42.049
 4698.00    1.50665   1.50927   42.848
 4699.00    1.48336   1.48011   42.811
 4700.00    1.48412   1.45935   42.849
 4701.00    1.47724   1.44606   43.456
 4702.00    1.45614   1.43821   43.908
 4703.00    1.44115   1.43906   43.470
 4704.00    1.45905   1.44990   42.730
 4705.00    1.49245   1.46340   42.848
 4706.00    1.49063   1.46896   43.641
 4707.00    1.46328   1.46335   44.249
 4708.00    1.44506   1.45495   44.261
 4709.00    1.44065   1.45606   43.349
 4710.00    1.46131   1.47133   42.099
 4711.00    1.50894   1.49308   41.398
 4712.00    1.54204   1.50778   41.498
 4713.00    1.53403   1.50864   42.155
 4714.00    1.51359   1.50358   42.478
 4715.00    1.51114   1.50804   41.937
 4716.00    1.53250   1.52912   41.099
 4717.00    1.56275   1.56066   40.637
 4718.00    1.57956   1.59146   40.466
 4719.00    1.58383   1.61316   40.327
 4720.00    1.58579   1.62281   40.484
 4721.00    1.57591   1.62185   40.807
 4722.00    1.55744   1.61586   40.771
 4723.00    1.55397   1.61220   40.393
 4724.00    1.57302   1.61178   40.255
 4725.00    1.57605   1.60445   40.888
 4726.00    1.54923   1.57885   42.251
 4727.00    1.50988   1.53605   43.476
 4728.00    1.47266   1.49159   43.737
 4729.00    1.45968   1.46425   43.371
 4730.00    1.46925   1.46163   42.983
 4731.00    1.48412   1.47797   42.537
 4732.00    1.50156   1.50268   42.107
 4733.00    1.51871   1.52646   41.823
 4734.00    1.53331   1.54263   41.591
 4735.00    1.54168   1.54835   41.775
 4736.00    1.52852   1.54752   42.000
 4737.00    1.52248   1.54848   41.674
 4738.00    1.54032   1.55603   41.461
 4739.00    1.55357   1.56660   41.631
 4740.00    1.54136   1.57327   41.764
 4741.00    1.52679   1.57493   41.574
 4742.00    1.53507   1.57645   41.155
 4743.00    1.55428   1.58067   41.029
 4744.00    1.56644   1.58699   41.098
 4745.00    1.56853   1.59581   40.920
 4746.00    1.56823   1.60749   40.538
 4747.00    1.58092   1.62000   40.325
 4748.00    1.59049   1.63077   40.339
 4749.00    1.58890   1.63803   40.382
 4750.00    1.58549   1.64047   40.572
 4751.00    1.58198   1.63639   40.977
 4752.00    1.56823   1.62472   41.373
 4753.00    1.55183   1.60759   41.678
 4754.00    1.53681   1.59036   41.741
 4755.00    1.53266   1.57880   41.803
 4756.00    1.52833   1.57635   42.064
 4757.00    1.51936   1.58275   42.217
 4758.00    1.52333   1.59433   42.010
 4759.00    1.53689   1.60507   41.819
 4760.00    1.54206   1.60727   42.198
 4761.00    1.52419   1.59467   43.123
 4762.00    1.49005   1.56841   -1.000
 4763.00    1.46586   1.53774   -1.000
 4764.00    1.45929   1.51268   44.093
 4765.00    1.46053   1.49833   43.863
 4766.00    1.46821   1.49672   43.363
 4767.00    1.48553   1.51082   42.515
 4768.00    1.51261   1.54049   41.771
 4769.00    1.53824   1.57630   41.601
 4770.00    1.54636   1.60318   41.862
 4771.00    1.53687   1.61348   -1.000
 4772.00    1.52843   1.61472   -1.000
 4773.00    1.53846   1.62106   -1.000
 4774.00    1.56413   1.63799   -1.000
 4775.00    1.58502   1.65863   40.713
 4776.00    1.58430   1.67347   -1.000
 4777.00    1.57528   1.67944   -1.000
 4778.00    1.56775   1.67792   -1.000
 4779.00    1.55173   1.66992   -1.000
 4780.00    1.53615   1.65708   -1.000
 4781.00    1.53452   1.64224   -1.000
 4782.00    1.52984   1.62731   -1.000
 4783.00    1.52763   1.61359   -1.000
 4784.00    1.53131   1.60265   -1.000
 4785.00    1.52151   1.59421   -1.000
 4786.00    1.50843   1.58597   -1.000
 4787.00    1.50164   1.57799   -1.000
 4788.00    1.49704   1.57373   -1.000
 4789.00    1.49380   1.57544   -1.000
 4790.00    1.50965   1.58340   -1.000
 4791.00    1.52554   1.59943   -1.000
 4792.00    1.54294   1.62561   -1.000
 4793.00    1.57416   1.66020   -1.000
 4794.00    1.60617   1.69530   -1.000
 4795.00    1.62406   1.71918   -1.000
 4796.00    1.61575   1.72245   -1.000
 4797.00    1.58550   1.70360   -1.000
 4798.00    1.55331   1.67115   -1.000
 4799.00    1.53745   1.64180   -1.000
 4800.00    1.54165   1.63148   -1.000
 4801.00    1.56700   1.64422   -1.000
 4802.00    1.59559   1.66912   40.537
 4803.00    1.60582   1.68785   -1.000
 4804.00    1.58712   1.68762   -1.000
 4805.00    1.56172   1.67048   -1.000
 4806.00    1.54795   1.64884   -1.000
 4807.00    1.54083   1.63342   -1.000
 4808.00    1.54385   1.62848   -1.000
 4809.00    1.55288   1.63351   -1.000
 4810.00    1.56303   1.64508   -1.000
 4811.00    1.58013   1.65748   -1.000
 4812.00    1.58962   1.66627   -1.000
 4813.00    1.58864   1.67135   -1.000
 4814.00    1.59498   1.67646   -1.000
 4815.00    1.60250   1.68573   -1.000
 4816.00    1.60659   1.70016   -1.000
 4817.00    1.62034   1.71695   -1.000
 4818.00    1.63437   1.73160   -1.000
 4819.00    1.63396   1.74016   -1.000
 4820.00    1.62827   1.73908   -1.000
 4821.00    1.61846   1.72444   -1.000
 4822.00    1.58833   1.69559   -1.000
 4823.00    1.54375   1.66161   -1.000
 4824.00    1.53216   1.63873   -1.000
 4825.00    1.56755   1.63719   40.835
 4826.00    1.59822   1.65164   40.703
 4827.00    1.60035   1.66608   41.085
 4828.00    1.58581   1.66892   -1.000
 4829.00    1.56840   1.66081   -1.000
 4830.00    1.56040   1.64786   -1.000
 4831.00    1.55285   1.63472   -1.000
 4832.00    1.55155   1.62606   41.549
 4833.00    1.56428   1.62759   40.937
 4834.00    1.58514   1.64049   40.641
 4835.00    1.60202   1.65775   40.634
 4836.00    1.60403   1.66932   40.785
 4837.00    1.60245   1.66966   41.209
 4838.00    1.58464   1.65925   41.891
 4839.00    1.55342   1.64219   -1.000
 4840.00    1.54038   1.62545   -1.000
 4841.00    1.55365   1.61544   41.964
 4842.00    1.56214   1.61367   41.687
 4843.00    1.56300   1.61894   41.307
 4844.00    1.57458   1.63156   40.743
 4845.00    1.60137   1.64966   40.365
 4846.00    1.61621   1.66409   40.804
 4847.00    1.60110   1.66479   41.521
 4848.00    1.57337   1.65312   -1.000
 4849.00    1.56356   1.64210   -1.000
 4850.00    1.57572   1.64186   41.074
 4851.00    1.58794   1.64850   41.194
 4852.00    1.58476   1.64946   41.509
 4853.00    1.57324   1.63443   42.414
 4854.00    1.53971   1.60214   43.666
 4855.00    1.49543   1.56323   44.071
 4856.00    1.48308   1.53275   43.726
 4857.00    1.49538   1.51303   44.286
 4858.00    1.47754   1.48562   47.115
 4859.00    1.38803   1.42743   52.153
 4860.00    1.24977   1.34028   -1.000
 4861.00    1.16350   1.26114   -1.000
 4862.00    1.18943   1.23456   50.421
 4863.00    1.29346   1.27411   46.864
 4864.00    1.39584   1.35431   44.819
 4865.00    1.45372   1.43713   43.651
 4866.00    1.49025   1.50099   43.066
 4867.00    1.52045   1.54211   42.813
 4868.00    1.52872   1.56113   42.977
 4869.00    1.51028   1.55685   43.882
 4870.00    1.47506   1.53045   45.041
 4871.00    1.43618   1.49415   45.215
 4872.00    1.42735   1.47137   44.229
 4873.00    1.46565   1.47952   43.259
 4874.00    1.50648   1.51308   42.777
 4875.00    1.51786   1.55117   42.514
 4876.00    1.52446   1.58076   42.339
 4877.00    1.53561   1.60457   41.901
 4878.00    1.55175   1.62880   -1.000
 4879.00    1.57236   1.65123   -1.000
 4880.00    1.56995   1.66263   -1.000
 4881.00    1.54878   1.65798   -1.000
 4882.00    1.53745   1.64237   -1.000
 4883.00    1.54046   1.62452   -1.000
 4884.00    1.54185   1.60678   43.037
 4885.00    1.52054   1.58677   43.442
 4886.00    1.50315   1.56733   43.376
 4887.00    1.50829   1.55497   43.243
 4888.00    1.51854   1.54801   43.620
 4889.00    1.50233   1.53652   44.483
 4890.00    1.46289   1.51790   44.680
 4891.00    1.45765   1.50779   43.415
 4892.00    1.50371   1.52929   41.468
 4893.00    1.57726   1.58879   39.975
 4894.00    1.64036   1.66716   39.074
 4895.00    1.67538   1.73580   38.686
 4896.00    1.68994   1.77654   -1.000
 4897.00    1.69143   1.78751   -1.000
 4898.00    1.67681   1.77641   -1.000
 4899.00    1.64167   1.75343   -1.000
 4900.00    1.61409   1.72867   -1.000
 4901.00    1.61473   1.70908   -1.000
 4902.00    1.61163   1.69561   -1.000
 4903.00    1.59867   1.68790   -1.000
 4904.00    1.59918   1.69027   -1.000
 4905.00    1.62595   1.70590   -1.000
 4906.00    1.65605   1.72573   39.889
 4907.00    1.65450   1.73118   40.638
 4908.00    1.61876   1.71111   -1.000
 4909.00    1.57467   1.67253   -1.000
 4910.00    1.54673   1.63490   -1.000
 4911.00    1.54439   1.61709   41.686
 4912.00    1.57172   1.62588   41.041
 4913.00    1.61417   1.65365   40.498
 4914.00    1.64544   1.68596   40.076
 4915.00    1.66112   1.70851   40.062
 4916.00    1.65312   1.70741   41.007
 4917.00    1.60770   1.67097   42.968
 4918.00    1.53457   1.60017   45.161
 4919.00    1.45840   1.51701   46.304
 4920.00    1.42170   1.45626   45.530
 4921.00    1.45265   1.44253   43.908
 4922.00    1.51057   1.47202   42.898
 4923.00    1.54515   1.51848   42.645
 4924.00    1.55838   1.55968   42.299
 4925.00    1.56806   1.59380   41.393
 4926.00    1.60241   1.63002   40.515
 4927.00    1.64070   1.67078   40.009
 4928.00    1.66432   1.70977   39.702
 4929.00    1.67984   1.74049   39.451
 4930.00    1.68903   1.75751   39.602
 4931.00    1.68746   1.75459   40.429
 4932.00    1.65191   1.72976   41.776
 4933.00    1.60032   1.69207   -1.000
 4934.00    1.57431   1.65924   -1.000
 4935.00    1.59757   1.64191   41.650
 4936.00    1.61098   1.63127   42.409
 4937.00    1.57508   1.61124   43.636
 4938.00    1.53109   1.58322   43.853
 4939.00    1.52028   1.56939   42.745
 4940.00    1.54962   1.58953   41.323
 4941.00    1.61089   1.63970   40.350
 4942.00    1.65613   1.69607   39.846
 4943.00    1.67985   1.73595   39.731
 4944.00    1.68378   1.75186   39.925
 4945.00    1.66717   1.75080   -1.000
 4946.00    1.66454   1.74614   39.894
 4947.00    1.67749   1.74907   39.456
 4948.00    1.69150   1.76193   39.204
 4949.00    1.70154   1.77841   39.061
 4950.00    1.71544   1.79013   39.125
 4951.00    1.71779   1.79266   39.375
 4952.00    1.70546   1.78611   39.763
 4953.00    1.68354   1.77164   -1.000
 4954.00    1.67077   1.74623   41.108
 4955.00    1.64085   1.70177   42.850
 4956.00    1.56367   1.63620   44.790
 4957.00    1.48570   1.56951   -1.000
 4958.00    1.48722   1.53899   42.884
 4959.00    1.55805   1.56601   41.021
 4960.00    1.62597   1.63249   40.304
 4961.00    1.65853   1.69849   40.318
 4962.00    1.66096   1.73573   40.597
 4963.00    1.64972   1.73993   -1.000
 4964.00    1.62623   1.72069   -1.000
 4965.00    1.59338   1.69012   -1.000
 4966.00    1.56992   1.66067   -1.000
 4967.00    1.56778   1.64248   -1.000
 4968.00    1.57766   1.63797   42.314
 4969.00    1.58332   1.64406   41.910
 4970.00    1.59465   1.65850   41.458
 4971.00    1.62055   1.68037   40.981
 4972.00    1.64052   1.70673   40.555
 4973.00    1.65064   1.73135   -1.000
 4974.00    1.65942   1.74707   -1.000
 4975.00    1.67043   1.74960   40.804
 4976.00    1.65813   1.73840   -1.000
 4977.00    1.63215   1.71601   -1.000
 4978.00    1.60769   1.68787   -1.000
 4979.00    1.58519   1.65897   43.102
 4980.00    1.56909   1.62826   44.218
 4981.00    1.52712   1.59002   45.677
 4982.00    1.46366   1.54452   -1.000
 4983.00    1.44015   1.50586   45.670
 4984.00    1.46324   1.49379   44.531
 4985.00    1.51550   1.51637   43.169
 4986.00    1.55841   1.56389   41.985
 4987.00    1.59907   1.61663   41.620
 4988.00    1.62582   1.65533   42.031
 4989.00    1.61966   1.67014   42.543
 4990.00    1.59996   1.66613   42.717
 4991.00    1.59280   1.65793   42.478
 4992.00    1.60608   1.65635   42.219
 4993.00    1.61315   1.66211   42.143
 4994.00    1.61191   1.67093   42.000
 4995.00    1.61570   1.68011   41.786
 4996.00    1.62074   1.68736   41.867
 4997.00    1.61858   1.68679   42.319
 4998.00    1.60245   1.67165   43.073
 4999.00    1.57487   1.64210   43.742
 5000.00    1.54988   1.60797   43.963
 5001.00    1.54045   1.58225   43.704
 5002.00    1.55011   1.56991   43.363
 5003.00    1.56304   1.56383   43.646
 5004.00    1.56078   1.55271   44.591
 5005.00    1.52501   1.53404   45.182
 5006.00    1.49469   1.51968   44.562
 5007.00    1.51878   1.52625   43.282
 5008.00    1.57250   1.55687   42.498
 5009.00    1.60625   1.59356   42.687
 5010.00    1.59757   1.61082   43.712
 5011.00    1.55883   1.59606   45.243
 5012.00    1.50414   1.55720   46.548
 5013.00    1.45940   1.51505   46.802
 5014.00    1.44893   1.48953   46.045
 5015.00    1.47028   1.48806   45.049
 5016.00    1.50502   1.50243   44.581
 5017.00    1.52223   1.51865   44.526
 5018.00    1.53066   1.53046   44.211
 5019.00    1.54807   1.54123   43.790
 5020.00    1.55972   1.55371   43.782
 5021.00    1.56461   1.56497   43.922
 5022.00    1.55725   1.57368   43.797
 5023.00    1.55931   1.58462   43.407
 5024.00    1.58247   1.60088   43.050
 5025.00    1.58736   1.61662   43.075
 5026.00    1.58251   1.62321   43.288
 5027.00    1.58113   1.62109   43.114
 5028.00    1.58611   1.62125   42.444
 5029.00    1.60281   1.63384   41.762
 5030.00    1.62758   1.65927   41.115
 5031.00    1.65045   1.69059   40.569
 5032.00    1.67688   1.71850   40.441
 5033.00    1.68836   1.73240   41.286
 5034.00    1.65881   1.72302   42.831
 5035.00    1.59166   1.69088   -1.000
 5036.00    1.54785   1.64994   -1.000
 5037.00    1.54748   1.61462   44.666
 5038.00    1.53568   1.58330   45.981
 5039.00    1.48816   1.54392   47.853
 5040.00    1.42834   1.49709   48.585
 5041.00    1.40379   1.46605   47.050
 5042.00    1.45387   1.47825   44.329
 5043.00    1.54069   1.53793   42.179
 5044.00    1.66211   1.62114   41.003
 5045.00    1.07278   1.69488   -1.000
 5046.00    0.28172   1.73575   -1.000
 5047.00   -0.00254   1.73617    0.000
 5048.00    0.52875   1.70371   -1.000
 5049.00    1.33891   1.65764   -1.000
 5050.00    1.58090   1.61993   43.296
 5051.00    1.57060   1.60434   42.993
 5052.00    1.60213   1.61357   41.938
 5053.00    1.63708   1.64309   41.065
 5054.00    1.67276   1.68274   40.549
 5055.00    1.69189   1.71908   40.330
 5056.00    1.69777   1.74317   40.334
 5057.00    1.70833   1.75583   40.412
 5058.00    1.71477   1.76386   40.429
 5059.00    1.70983   1.77337   40.244
 5060.00    1.70853   1.78562   40.156
 5061.00    1.71488   1.79460   40.514
 5062.00    1.71235   1.78877   41.472
 5063.00    1.67740   1.75976   -1.000
 5064.00    1.61646   1.71291   -1.000
 5065.00    1.57814   1.66721   -1.000
 5066.00    1.58758   1.64074   42.937
 5067.00    1.60978   1.63617   42.614
 5068.00    1.61295   1.64452   42.443
 5069.00    1.62980   1.65713   42.189
 5070.00    1.64265   1.66824   42.306
 5071.00    1.64129   1.67279   42.654
 5072.00    1.63219   1.66996   42.435
 5073.00    1.62885   1.66593   42.022
 5074.00    1.64182   1.66722   41.871
 5075.00    1.65234   1.67310   41.834
 5076.00    1.64990   1.67597   42.083
 5077.00    1.63716   1.66579   43.175
 5078.00    1.60828   1.63550   45.057
 5079.00    1.54470   1.58983   46.175
 5080.00    1.49859   1.54914   45.706
 5081.00    1.51503   1.53470   44.711
 5082.00    1.54982   1.54896   43.985
 5083.00    1.57004   1.57857   43.243
 5084.00    1.60177   1.61171   42.470
 5085.00    1.63821   1.64338   42.018
 5086.00    1.66530   1.67017   41.880
 5087.00    1.67418   1.68927   41.727
 5088.00    1.67335   1.70158   41.454
 5089.00    1.67762   1.71130   41.199
 5090.00    1.68322   1.72242   40.982
 5091.00    1.69676   1.73667   40.600
 5092.00    1.72327   1.75315   40.194
 5093.00    1.74170   1.76689   40.304
 5094.00    1.73460   1.76898   40.991
 5095.00    1.70725   1.75127   41.875
 5096.00    1.66873   1.71314   42.853
 5097.00    1.62655   1.66409   43.805
 5098.00    1.58860   1.62040   44.218
 5099.00    1.56952   1.59892   43.544
 5100.00    1.58849   1.60858   42.327
 5101.00    1.64011   1.64188   41.652
 5102.00    1.67171   1.67763   41.696
 5103.00    1.66056   1.69684   42.149
 5104.00    1.65121   1.69535   42.696
 5105.00    1.64356   1.68030   43.225
 5106.00    1.61849   1.65944   43.763
 5107.00    1.59409   1.63777   43.913
 5108.00    1.59041   1.62000   43.696
 5109.00    1.59561   1.61159   43.390
 5110.00    1.60134   1.61724   42.873
 5111.00    1.62351   1.63752   42.310
 5112.00    1.65273   1.66680   41.795
 5113.00    1.67361   1.69616   41.372
 5114.00    1.68578   1.72008   41.100
 5115.00    1.70433   1.73924   40.741
 5116.00    1.72331   1.75637   40.366
 5117.00    1.73772   1.77101   40.327
 5118.00    1.74143   1.77835   40.721
 5119.00    1.72465   1.77248   41.314
 5120.00    1.70132   1.75110   41.978
 5121.00    1.67329   1.71684   42.925
 5122.00    1.63065   1.67507   44.163
 5123.00    1.59221   1.63341   44.833
 5124.00    1.57231   1.60144   44.660
 5125.00    1.57545   1.58572   44.369
 5126.00    1.58846   1.58453   44.123
 5127.00    1.59388   1.58985   44.073
 5128.00    1.58891   1.59566   44.075
 5129.00    1.58398   1.60264   43.680
 5130.00    1.59852   1.61501   42.984
 5131.00    1.63110   1.63441   42.500
 5132.00    1.65440   1.65759   42.122
 5133.00    1.66008   1.67965   41.739
 5134.00    1.67745   1.69702   41.542
 5135.00    1.69981   1.70578   41.999
 5136.00    1.68718   1.70010   42.947
 5137.00    1.65176   1.67730   43.764
 5138.00    1.61967   1.64573   44.037
 5139.00    1.59860   1.62106   43.785
 5140.00    1.60371   1.61126   43.855
 5141.00    1.60899   1.61065   44.451
 5142.00    1.58872   1.61085   44.536
 5143.00    1.58487   1.61171   43.932
 5144.00    1.60883   1.61638   43.570
 5145.00    1.61573   1.62092   43.797
 5146.00    1.59775   1.61864   44.020
 5147.00    1.59303   1.61230   43.692
 5148.00    1.61495   1.61082   43.335
 5149.00    1.62911   1.61571   43.610
 5150.00    1.62033   1.61884   44.336
 5151.00    1.59958   1.61362   44.811
 5152.00    1.58427   1.60351   44.751
 5153.00    1.57782   1.59836   44.096
 5154.00    1.59269   1.60648   43.055
 5155.00    1.63186   1.63071   41.955
 5156.00    1.68738   1.66681   41.075
 5157.00    1.72996   1.70460   40.620
 5158.00    1.74858   1.73351   40.522
 5159.00    1.75446   1.74821   40.615
 5160.00    1.74993   1.74856   40.818
 5161.00    1.73477   1.73622   41.204
 5162.00    1.71376   1.71214   41.790
 5163.00    1.68616   1.67417   43.063
 5164.00    1.64130   1.61552   45.969
 5165.00    1.54371   1.52955   50.473
 5166.00    1.39457   1.42303   54.565
 5167.00    1.27742   1.32615   55.014
 5168.00    1.27522   1.27653   52.420
 5169.00    1.35266   1.28194   -1.000
 5170.00    1.39085   1.30637   -1.000
 5171.00    1.33238   1.30543   56.482
 5172.00    1.23934   1.27843   56.182
 5173.00    1.23645   1.27170   51.147
 5174.00    1.36518   1.32496   46.442
 5175.00    1.51967   1.42840   -1.000
 5176.00    1.61058   1.53651   -1.000
 5177.00    1.64434   1.61211   42.980
 5178.00    1.65607   1.64714   43.241
 5179.00    1.65258   1.64713   44.396
 5180.00    1.61352   1.61096   47.060
 5181.00    1.51169   1.53262   51.847
 5182.00    1.35321   1.42180   -1.000
 5183.00    1.22325   1.31817   -1.000
 5184.00    1.22665   1.27568   50.977
 5185.00    1.37139   1.32167   46.107
 5186.00    1.53988   1.42985   -1.000
 5187.00    1.62920   1.54302   -1.000
 5188.00    1.65616   1.62045   42.954
 5189.00    1.66617   1.65416   43.207
 5190.00    1.66195   1.65129   44.290
 5191.00    1.62031   1.62165   45.600
 5192.00    1.57147   1.58270   45.778
 5193.00    1.57218   1.55794   45.100
 5194.00    1.60010   1.55905   44.389
 5195.00    1.61798   1.57863   43.741
 5196.00    1.64015   1.60557   42.938
 5197.00    1.67009   1.63638   42.159
 5198.00    1.69906   1.66983   41.695
 5199.00    1.72473   1.70052   41.563
 5200.00    1.73382   1.72049   41.780
 5201.00    1.71157   1.72341   42.408
 5202.00    1.69499   1.70605   43.323
 5203.00    1.66800   1.66844   44.569
 5204.00    1.61220   1.61573   45.963
 5205.00    1.56524   1.55965   46.539
 5206.00    1.54733   1.51428   46.734
 5207.00    1.54029   1.48808   47.010
 5208.00    1.52354   1.48243   46.638
 5209.00    1.53039   1.49824   45.363
 5210.00    1.58078   1.53832   43.628
 5211.00    1.65615   1.59883   41.898
 5212.00    1.72989   1.66315   40.782
 5213.00    1.77304   1.70910   40.825
 5214.00    1.76702   1.72296   41.653
 5215.00    1.73121   1.70931   42.330
 5216.00    1.70391   1.68890   42.247
 5217.00    1.70447   1.68414   41.494
 5218.00    1.73344   1.70323   40.767
 5219.00    1.76966   1.73697   40.361
 5220.00    1.78826   1.76876   40.158
 5221.00    1.79238   1.78452   40.459
 5222.00    1.78538   1.77589   41.478
 5223.00    1.75007   1.73971   43.064
 5224.00    1.68518   1.67871   45.017
 5225.00    1.60788   1.60545   46.556
 5226.00    1.55169   1.54445   46.272
 5227.00    1.56441   1.52307   44.137
 5228.00    1.64450   1.55301   -1.000
 5229.00    1.72407   1.61864   -1.000
 5230.00    1.76419   1.68441   -1.000
 5231.00    1.77486   1.71838   41.345
 5232.00    1.76001   1.71335   42.137
 5233.00    1.73230   1.68892   42.312
 5234.00    1.72232   1.67487   41.598
 5235.00    1.75070   1.68905   40.597
 5236.00    1.79047   1.72716   39.977
 5237.00    1.81369   1.77091   39.820
 5238.00    1.83430   1.80326   39.904
 5239.00    1.83362   1.81857   39.899
 5240.00    1.82554   1.82143   39.711
 5241.00    1.82555   1.81928   39.674
 5242.00    1.82501   1.81779   39.644
 5243.00    1.82412   1.81921   39.572
 5244.00    1.83185   1.81958   40.092
 5245.00    1.81687   1.80916   41.227
 5246.00    1.76876   1.78177   42.306
 5247.00    1.71665   1.74430   42.685
 5248.00    1.70951   1.71138   42.753
 5249.00    1.70946   1.69126   42.967
 5250.00    1.69842   1.68334   42.919
 5251.00    1.70569   1.68587   42.434
 5252.00    1.72631   1.69644   41.952
 5253.00    1.74799   1.70862   41.830
 5254.00    1.74604   1.71798   41.635
 5255.00    1.75249   1.73047   40.862
 5256.00    1.79105   1.75703   39.787
 5257.00    1.84300   1.79752   39.206
 5258.00    1.86856   1.83456   39.364
 5259.00    1.86088   1.84651   40.235
 5260.00    1.82223   1.82231   41.767
 5261.00    1.75940   1.76468   43.705
 5262.00    1.67795   1.68635   45.407
 5263.00    1.61145   1.60456   46.533
 5264.00    1.57920   1.53668   46.908
 5265.00    1.56734   1.49566   -1.000
 5266.00    1.58075   1.48329   -1.000
 5267.00    1.60680   1.48505   -1.000
 5268.00    1.59425   1.47917   -1.000
 5269.00    1.53865   1.46117   -1.000
 5270.00    1.52930   1.45477   -1.000
 5271.00    1.61569   1.48642   -1.000
 5272.00    1.70867   1.55209   -1.000
 5273.00    1.73698   1.61853   -1.000
 5274.00    1.73475   1.65970   -1.000
 5275.00    1.74174   1.68252   41.525
 5276.00    1.77306   1.71113   40.276
 5277.00    1.82866   1.75549   -1.000
 5278.00    1.86770   1.80060   -1.000
 5279.00    1.87122   1.82248   40.015
 5280.00    1.84304   1.81086   41.052
 5281.00    1.80176   1.77544   41.905
 5282.00    1.76232   1.73642   42.278
 5283.00    1.74455   1.71446   41.735
 5284.00    1.76825   1.72414   40.564
 5285.00    1.83087   1.76608   39.287
 5286.00    1.89637   1.82300   -1.000
 5287.00    1.92680   1.87089   38.773
 5288.00    1.91659   1.89834   38.843
 5289.00    1.91541   1.91049   38.678
 5290.00    1.92355   1.91605   38.546
 5291.00    1.92441   1.91703   38.681
 5292.00    1.92138   1.91111   39.012
 5293.00    1.90883   1.89719   39.488
 5294.00    1.89474   1.87382   40.394
 5295.00    1.85233   1.83611   41.821
 5296.00    1.78159   1.78292   43.109
 5297.00    1.71038   1.72752   43.263
 5298.00    1.69628   1.69321   42.380
 5299.00    1.74267   1.69345   41.487
 5300.00    1.78908   1.71970   -1.000
 5301.00    1.80714   1.75385   40.654
 5302.00    1.82935   1.78833   39.729
 5303.00    1.87592   1.82636   38.881
 5304.00    1.91781   1.86706   38.602
 5305.00    1.93348   1.89933   38.847
 5306.00    1.92491   1.91313   39.209
 5307.00    1.91120   1.91210   39.132
 5308.00    1.90643   1.90995   38.754
 5309.00    1.91986   1.91577   38.455
 5310.00    1.94225   1.92631   38.410
 5311.00    1.94979   1.93205   38.579
 5312.00    1.93854   1.92784   38.766
 5313.00    1.92311   1.91538   39.011
 5314.00    1.91683   1.89830   39.370
 5315.00    1.90456   1.87936   39.735
 5316.00    1.88884   1.86219   39.849
 5317.00    1.88347   1.85209   39.638
 5318.00    1.88725   1.85175   39.424
 5319.00    1.89827   1.85698   39.478
 5320.00    1.90367   1.85955   39.723
 5321.00    1.89608   1.85290   40.137
 5322.00    1.87580   1.83448   40.777
 5323.00    1.84513   1.80652   41.263
 5324.00    1.82250   1.77450   41.358
 5325.00    1.81130   1.73918   -1.000
 5326.00    1.77255   1.69278   -1.000
 5327.00    1.67982   1.63332   46.312
 5328.00    1.60556   1.58221   45.439
 5329.00    1.63469   1.57423   -1.000
 5330.00    1.74189   1.62253   -1.000
 5331.00    1.83020   1.70090   -1.000
 5332.00    1.85469   1.77074   -1.000
 5333.00    1.86252   1.81638   39.678
 5334.00    1.88846   1.84533   39.417
 5335.00    1.90540   1.86620   39.551
 5336.00    1.90346   1.87740   39.817
 5337.00    1.89298   1.87265   40.200
 5338.00    1.87326   1.84910   41.049
 5339.00    1.83291   1.81141   41.882
 5340.00    1.79092   1.77409   41.848
 5341.00    1.78907   1.75702   40.918
 5342.00    1.83539   1.76942   -1.000
 5343.00    1.87829   1.79906   -1.000
 5344.00    1.88954   1.82396   -1.000
 5345.00    1.87936   1.83208   40.315
 5346.00    1.86713   1.82568   40.531
 5347.00    1.86302   1.81256   40.847
 5348.00    1.85308   1.79999   41.030
 5349.00    1.84792   1.79606   40.602
 5350.00    1.86698   1.80828   39.731
 5351.00    1.90104   1.83618   -1.000
 5352.00    1.92899   1.87028   38.883
 5353.00    1.94175   1.90152   38.638
 5354.00    1.95652   1.92787   38.193
 5355.00    1.97762   1.95107   37.842
 5356.00    1.99173   1.97002   37.788
 5357.00    1.99694   1.98103   37.847
 5358.00    1.99508   1.98226   37.962
 5359.00    1.99087   1.97393   38.319
 5360.00    1.97387   1.95653   38.914
 5361.00    1.94625   1.93202   39.515
 5362.00    1.92523   1.90513   39.879
 5363.00    1.89917   1.88063   40.117
 5364.00    1.88088   1.86081   40.356
 5365.00    1.87337   1.84594   40.339
 5366.00    1.87994   1.83528   40.292
 5367.00    1.88453   1.82488   -1.000
 5368.00    1.87264   1.80570   -1.000
 5369.00    1.83639   1.77087   -1.000
 5370.00    1.77856   1.72852   43.122
 5371.00    1.74397   1.70294   41.996
 5372.00    1.78962   1.71682   -1.000
 5373.00    1.87653   1.77017   -1.000
 5374.00    1.94362   1.83862   -1.000
 5375.00    1.97036   1.89347   -1.000
 5376.00    1.97795   1.92139   38.500
 5377.00    1.97518   1.92763   38.555
 5378.00    1.97128   1.92434   38.738
 5379.00    1.95825   1.91820   39.081
 5380.00    1.94406   1.90867   39.471
 5381.00    1.92811   1.89458   39.720
 5382.00    1.91945   1.87983   39.752
 5383.00    1.91259   1.87177   39.604
 5384.00    1.92070   1.87465   39.241
 5385.00    1.94661   1.88532   -1.000
 5386.00    1.95723   1.89500   -1.000
 5387.00    1.94384   1.89510   39.502
 5388.00    1.92016   1.88215   40.049
 5389.00    1.89500   1.85909   40.552
 5390.00    1.87749   1.83311   40.806
 5391.00    1.86170   1.81155   40.865
 5392.00    1.85884   1.79775   -1.000
 5393.00    1.86525   1.78968   -1.000
 5394.00    1.86270   1.78107   -1.000
 5395.00    1.83763   1.76546   -1.000
 5396.00    1.79757   1.74385   42.739
 5397.00    1.78178   1.72860   41.804
 5398.00    1.81179   1.73398   -1.000
 5399.00    1.86728   1.76118   -1.000
 5400.00    1.90132   1.79621   -1.000
 5401.00    1.90845   1.82100   -1.000
 5402.00    1.90091   1.82232   -1.000
 5403.00    1.85846   1.79483   -1.000
 5404.00    1.78999   1.74556   43.507
 5405.00    1.74212   1.69631   43.330
 5406.00    1.75599   1.67224   -1.000
 5407.00    1.80515   1.68049   -1.000
 5408.00    1.83333   1.70485   -1.000
 5409.00    1.82285   1.72643   -1.000
 5410.00    1.81369   1.74405   -1.000
 5411.00    1.84745   1.76934   -1.000
 5412.00    1.89507   1.80567   -1.000
 5413.00    1.92351   1.84150   -1.000
 5414.00    1.91993   1.86635   39.619
 5415.00    1.92760   1.88281   39.407
 5416.00    1.95137   1.89861   39.135
 5417.00    1.96339   1.91331   39.185
 5418.00    1.96099   1.91891   39.523
 5419.00    1.93729   1.91185   39.809
 5420.00    1.92244   1.89828   39.753
 5421.00    1.93240   1.88625   39.583
 5422.00    1.93622   1.87714   -1.000
 5423.00    1.91676   1.86843   40.382
 5424.00    1.89770   1.86369   40.162
 5425.00    1.90967   1.87138   39.528
 5426.00    1.95099   1.88916   -1.000
 5427.00    1.96074   1.89776   -1.000
 5428.00    1.91154   1.87920   41.549
 5429.00    1.84501   1.83919   41.973
 5430.00    1.82797   1.80345   41.406
 5431.00    1.85801   1.78931   -1.000
 5432.00    1.87423   1.78924   -1.000
 5433.00    1.85184   1.78561   -1.000
 5434.00    1.82704   1.77439   42.157
 5435.00    1.83012   1.76971   -1.000
 5436.00    1.85769   1.78759   -1.000
 5437.00    1.90215   1.83027   -1.000
 5438.00    1.95418   1.88526   -1.000
 5439.00    1.98864   1.93548   38.486
 5440.00    2.00689   1.96998   38.357
 5441.00    2.02524   1.98677   38.345
 5442.00    2.02248   1.98761   38.641
 5443.00    1.99693   1.97095   39.515
 5444.00    1.95418   1.93249   41.009
 5445.00    1.87944   1.87522   42.478
 5446.00    1.81025   1.81751   42.618
 5447.00    1.79679   1.78582   41.475
 5448.00    1.84437   1.79482   40.243
 5449.00    1.90469   1.83487   -1.000
 5450.00    1.93508   1.87958   39.590
 5451.00    1.94660   1.90502   39.849
 5452.00    1.94434   1.90185   40.629
 5453.00    1.91344   1.87290   41.758
 5454.00    1.84960   1.82918   42.752
 5455.00    1.80299   1.79094   42.535
 5456.00    1.81859   1.78159   41.239
 5457.00    1.88917   1.80988   -1.000
 5458.00    1.94717   1.85870   -1.000
 5459.00    1.95656   1.89729   39.870
 5460.00    1.93683   1.90567   40.565
 5461.00    1.91401   1.88587   41.180
 5462.00    1.87967   1.85549   41.488
 5463.00    1.86420   1.83459   41.158
 5464.00    1.89102   1.83404   40.649
 5465.00    1.92301   1.85043   -1.000
 5466.00    1.93732   1.87207   -1.000
 5467.00    1.94659   1.88939   39.761
 5468.00    1.95481   1.89837   40.001
 5469.00    1.94432   1.89796   40.424
 5470.00    1.92949   1.88933   40.641
 5471.00    1.92652   1.87595   40.825
 5472.00    1.91617   1.86091   41.191
 5473.00    1.89315   1.84359   41.740
 5474.00    1.87636   1.82035   -1.000
 5475.00    1.84409   1.79004   -1.000
 5476.00    1.79869   1.76092   43.177
 5477.00    1.79774   1.74944   42.062
 5478.00    1.85426   1.76476   -1.000
 5479.00    1.90541   1.79413   -1.000
 5480.00    1.90464   1.81391   -1.000
 5481.00    1.87012   1.81591   41.724
 5482.00    1.85561   1.81488   41.143
 5483.00    1.88657   1.82920   40.314
 5484.00    1.93234   1.85902   -1.000
 5485.00    1.95227   1.88640   -1.000
 5486.00    1.93863   1.89455   40.595
 5487.00    1.90958   1.88337   40.927
 5488.00    1.88659   1.86748   40.984
 5489.00    1.89425   1.86145   40.765
 5490.00    1.92354   1.86838   40.462
 5491.00    1.93808   1.88077   40.276
 5492.00    1.93829   1.88965   40.308
 5493.00    1.94260   1.89207   40.349
 5494.00    1.94785   1.89076   40.345
 5495.00    1.95385   1.88848   -1.000
 5496.00    1.94055   1.88547   40.861
 5497.00    1.92351   1.88340   40.770
 5498.00    1.92318   1.88610   40.354
 5499.00    1.94871   1.89187   40.469
 5500.00    1.94982   1.89143   -1.000
 5501.00    1.92050   1.87907   41.294
 5502.00    1.91250   1.86089   41.039
 5503.00    1.91951   1.84739   -1.000
 5504.00    1.92126   1.84066   -1.000
 5505.00    1.90567   1.83477   -1.000
 5506.00    1.87684   1.82807   41.559
 5507.00    1.88279   1.82733   40.938
 5508.00    1.92213   1.83726   -1.000
 5509.00    1.94422   1.85067   -1.000
 5510.00    1.92522   1.85330   -1.000
 5511.00    1.89488   1.83813   -1.000
 5512.00    1.86452   1.81261   42.669
 5513.00    1.85015   1.79246   -1.000
 5514.00    1.86338   1.78962   -1.000
 5515.00    1.88265   1.80526   -1.000
 5516.00    1.91282   1.83299   -1.000
 5517.00    1.95594   1.86565   -1.000
 5518.00    1.99051   1.89767   -1.000
 5519.00    2.00983   1.92352   -1.000
 5520.00    2.01060   1.93848   -1.000
 5521.00    2.00375   1.94239   -1.000
 5522.00    1.99428   1.93989   39.668
 5523.00    1.98601   1.93477   39.861
 5524.00    1.98115   1.92510   -1.000
 5525.00    1.96315   1.90529   -1.000
 5526.00    1.92076   1.87328   42.226
 5527.00    1.87045   1.83701   42.685
 5528.00    1.85028   1.81294   42.025
 5529.00    1.87568   1.81467   -1.000
 5530.00    1.92148   1.84015   -1.000
 5531.00    1.95249   1.87217   -1.000
 5532.00    1.96028   1.89270   -1.000
 5533.00    1.95382   1.89598   -1.000
 5534.00    1.93998   1.88848   40.715
 5535.00    1.93833   1.88020   -1.000
 5536.00    1.94776   1.87769   -1.000
 5537.00    1.97144   1.88274   -1.000
 5538.00    1.98747   1.89447   -1.000
 5539.00    1.99561   1.91103   -1.000
 5540.00    2.01306   1.92830   -1.000
 5541.00    2.01850   1.93908   -1.000
 5542.00    1.99751   1.93807   -1.000
 5543.00    1.98014   1.92752   40.277
 5544.00    1.97484   1.91583   -1.000
 5545.00    1.97595   1.91042   -1.000
 5546.00    1.97510   1.91405   -1.000
 5547.00    1.98779   1.92642   -1.000
 5548.00    2.01429   1.94510   -1.000
 5549.00    2.03193   1.96442   -1.000
 5550.00    2.03490   1.97729   39.173
 5551.00    2.03553   1.97918   39.491
 5552.00    2.02626   1.97002   -1.000
 5553.00    2.00278   1.95422   40.185
 5554.00    1.98264   1.93926   40.179
 5555.00    1.98103   1.93132   40.061
 5556.00    1.99275   1.93082   -1.000
 5557.00    1.99363   1.93359   -1.000
 5558.00    1.99474   1.93594   -1.000
 5559.00    2.00850   1.93687   -1.000
 5560.00    2.00545   1.93554   -1.000
 5561.00    1.99074   1.92964   -1.000
 5562.00    1.97489   1.91844   -1.000
 5563.00    1.96024   1.90510   -1.000
 5564.00    1.95245   1.89400   -1.000
 5565.00    1.94830   1.88684   -1.000
 5566.00    1.94376   1.88250   -1.000
 5567.00    1.94936   1.87988   -1.000
 5568.00    1.95992   1.87934   -1.000
 5569.00    1.95897   1.88129   -1.000
 5570.00    1.96283   1.88440   -1.000
 5571.00    1.96394   1.88621   -1.000
 5572.00    1.93784   1.88616   41.011
 5573.00    1.89649   1.88755   40.626
 5574.00    1.75538   1.89473   -1.000
 5575.00    1.40736   1.90768   -1.000
 5576.00    1.11956   1.92144   -1.000
 5577.00    1.25694   1.93200   -1.000
 5578.00    1.71609   1.93972   -1.000
 5579.00    2.05829   1.94602   -1.000
 5580.00    2.04458   1.94986   -1.000
 5581.00    2.01162   1.94899   -1.000
 5582.00    2.00253   1.94265   -1.000
 5583.00    1.99301   1.93121   -1.000
 5584.00    1.98841   1.91260   -1.000
 5585.00    1.95947   1.88212   -1.000
 5586.00    1.90261   1.83946   -1.000
 5587.00    1.84951   1.79490   -1.000
 5588.00    1.83233   1.76479   -1.000
 5589.00    1.83965   1.76007   -1.000
 5590.00    1.87224   1.77826   -1.000
 5591.00    1.90157   1.80604   -1.000
 5592.00    1.90723   1.82991   -1.000
 5593.00    1.90483   1.84610   -1.000
 5594.00    1.91990   1.86089   -1.000
 5595.00    1.94450   1.88014   -1.000
 5596.00    1.96926   1.89896   -1.000
 5597.00    1.96107   1.90508   -1.000
 5598.00    1.91604   1.89257   42.318
 5599.00    1.89749   1.86760   42.394
 5600.00    1.89452   1.84103   -1.000
 5601.00    1.88466   1.82142   -1.000
 5602.00    1.87075   1.81617   42.291
 5603.00    1.89160   1.83255   -1.000
 5604.00    1.94158   1.87168   -1.000
 5605.00    2.00073   1.92253   -1.000
 5606.00    2.03957   1.96775   -1.000
 5607.00    2.04244   1.99603   39.506
 5608.00    2.03804   2.00765   39.586
 5609.00    2.04491   2.01020   39.575
 5610.00    2.03808   2.01106   39.466
 5611.00    2.03161   2.01073   39.579
 5612.00    2.03989   2.00073   40.259
 5613.00    2.01511   1.97005   41.551
 5614.00    1.94826   1.91859   42.651
 5615.00    1.89304   1.86506   42.597
 5616.00    1.88682   1.83538   41.687
 5617.00    1.92027   1.84025   -1.000
 5618.00    1.95623   1.86725   -1.000
 5619.00    1.97119   1.89641   -1.000
 5620.00    1.97975   1.91772   -1.000
 5621.00    2.00033   1.92983   -1.000
 5622.00    2.00461   1.92958   -1.000
 5623.00    1.96595   1.91337   -1.000
 5624.00    1.91749   1.88757   42.044
 5625.00    1.90851   1.86915   41.422
 5626.00    1.94267   1.87203   -1.000
 5627.00    1.97901   1.89514   -1.000
 5628.00    1.99428   1.92654   -1.000
 5629.00    2.00926   1.95535   39.809
 5630.00    2.02835   1.97626   39.664
 5631.00    2.02867   1.98700   39.658
 5632.00    2.02723   1.98686   39.915
 5633.00    2.01446   1.97714   40.217
 5634.00    2.01260   1.96079   40.476
 5635.00    2.00354   1.94126   -1.000
 5636.00    1.98268   1.92237   -1.000
 5637.00    1.96440   1.90842   -1.000
 5638.00    1.96628   1.90199   -1.000
 5639.00    1.97480   1.90094   -1.000
 5640.00    1.97272   1.90022   -1.000
 5641.00    1.95728   1.89778   -1.000
 5642.00    1.96156   1.89695   -1.000
 5643.00    1.97027   1.90171   -1.000
 5644.00    1.97818   1.91167   -1.000
 5645.00    1.98919   1.92311   -1.000
 5646.00    1.99290   1.93249   -1.000
 5647.00    2.00421   1.93752   -1.000
 5648.00    1.99972   1.93738   -1.000
 5649.00    1.99461   1.93451   -1.000
 5650.00    2.00480   1.93412   -1.000
 5651.00    2.01393   1.93904   -1.000
 5652.00    2.02240   1.94554   -1.000
 5653.00    2.03030   1.94637   -1.000
 5654.00    2.01213   1.93782   -1.000
 5655.00    1.97629   1.92068   -1.000
 5656.00    1.95660   1.89572   -1.000
 5657.00    1.91789   1.86430   -1.000
 5658.00    1.87111   1.83437   43.074
 5659.00    1.87977   1.81931   -1.000
 5660.00    1.92291   1.82510   -1.000
 5661.00    1.93985   1.84288   -1.000
 5662.00    1.93249   1.86104   -1.000
 5663.00    1.94749   1.87838   -1.000
 5664.00    1.98015   1.89802   -1.000
 5665.00    1.99287   1.91599   -1.000
 5666.00    1.99083   1.92400   -1.000
 5667.00    1.97803   1.92040   -1.000
 5668.00    1.96272   1.91284   41.094
 5669.00    1.96828   1.91064   -1.000
 5670.00    1.98210   1.91810   -1.000
 5671.00    1.99947   1.93446   -1.000
 5672.00    2.02293   1.95598   -1.000
 5673.00    2.03888   1.97662   -1.000
 5674.00    2.04405   1.99083   39.771
 5675.00    2.04553   1.99727   39.704
 5676.00    2.04618   1.99842   39.619
 5677.00    2.05373   1.99640   -1.000
 5678.00    2.04994   1.99058   -1.000
 5679.00    2.03706   1.97972   -1.000
 5680.00    2.02630   1.96409   -1.000
 5681.00    2.00496   1.94503   -1.000
 5682.00    1.97532   1.92531   41.255
 5683.00    1.96535   1.91053   -1.000
 5684.00    1.97288   1.90502   -1.000
 5685.00    1.97644   1.90598   -1.000
 5686.00    1.97130   1.90630   -1.000
 5687.00    1.96036   1.90376   -1.000
 5688.00    1.95380   1.90398   41.289
 5689.00    1.96788   1.91371   40.568
 5690.00    1.99064   1.93312   -1.000
 5691.00    2.02477   1.95578   -1.000
 5692.00    2.04872   1.97426   -1.000
 5693.00    2.05307   1.98446   -1.000
 5694.00    2.04541   1.98660   -1.000
 5695.00    2.04250   1.98311   -1.000
 5696.00    2.03956   1.97548   -1.000
 5697.00    2.01946   1.96348   -1.000
 5698.00    1.98905   1.94744   41.072
 5699.00    1.97716   1.92973   41.494
 5700.00    1.97067   1.91322   -1.000
 5701.00    1.95530   1.90101   -1.000
 5702.00    1.94693   1.89679   41.099
 5703.00    1.95629   1.90093   -1.000
 5704.00    1.97146   1.90669   -1.000
 5705.00    1.97088   1.90406   -1.000
 5706.00    1.95044   1.88805   -1.000
 5707.00    1.92177   1.86276   -1.000
 5708.00    1.89227   1.83701   -1.000
 5709.00    1.86731   1.81866   -1.000
 5710.00    1.86651   1.81271   -1.000
 5711.00    1.88836   1.82187   -1.000
 5712.00    1.92386   1.84687   -1.000
 5713.00    1.97690   1.88400   -1.000
 5714.00    2.01470   1.92334   -1.000
 5715.00    2.02363   1.95493   -1.000
 5716.00    2.02939   1.97553   -1.000
 5717.00    2.03633   1.98839   39.853
 5718.00    2.04020   1.99836   39.605
 5719.00    2.05165   2.00874   39.404
 5720.00    2.07101   2.02063   39.294
 5721.00    2.08484   2.03306   39.229
 5722.00    2.09648   2.04387   39.180
 5723.00    2.09170   2.05027   39.246
 5724.00    2.08394   2.04901   39.535
 5725.00    2.07055   2.03826   39.945
 5726.00    2.04467   2.02122   40.286
 5727.00    2.02118   2.00630   40.172
 5728.00    2.02753   2.00056   39.919
 5729.00    2.05201   2.00237   39.960
 5730.00    2.05148   2.00447   40.157
 5731.00    2.03877   2.00396   40.079
 5732.00    2.04844   2.00574   39.723
 5733.00    2.06438   2.01506   39.438
 5734.00    2.07187   2.02899   39.422
 5735.00    2.07363   2.03903   39.475
 5736.00    2.06550   2.04008   39.580
 5737.00    2.06438   2.03446   39.629
 5738.00    2.06855   2.02800   39.702
 5739.00    2.06126   2.02402   39.768
 5740.00    2.05954   2.02196   39.852
 5741.00    2.05998   2.02030   39.794
 5742.00    2.05344   2.01976   39.740
 5743.00    2.05308   2.02312   39.498
 5744.00    2.06099   2.03086   39.261
 5745.00    2.07094   2.03795   39.396
 5746.00    2.06880   2.03748   39.768
 5747.00    2.05567   2.02882   39.972
 5748.00    2.05312   2.02022   39.803
 5749.00    2.06130   2.01891   39.649
 5750.00    2.06429   2.02114   39.881
 5751.00    2.05966   2.01482   40.348
 5752.00    2.03462   1.99387   40.773
 5753.00    2.00004   1.96827   40.843
 5754.00    1.99399   1.95639   40.408
 5755.00    2.02539   1.96890   -1.000
 5756.00    2.06929   1.99908   -1.000
 5757.00    2.10638   2.02900   -1.000
 5758.00    2.10912   2.04274   -1.000
 5759.00    2.08478   2.03500   -1.000
 5760.00    2.05310   2.01147   40.630
 5761.00    2.01865   1.98422   40.902
 5762.00    1.99732   1.96704   40.575
 5763.00    2.00698   1.97011   39.886
 5764.00    2.04552   1.99393   39.348
 5765.00    2.08435   2.02700   -1.000
 5766.00    2.10269   2.05479   39.117
 5767.00    2.09611   2.06995   39.057
 5768.00    2.09624   2.07360   39.107
 5769.00    2.09647   2.06984   39.232
 5770.00    2.07478   2.06211   39.435
 5771.00    2.06387   2.05260   39.678
 5772.00    2.06794   2.04280   39.806
 5773.00    2.05631   2.03414   39.860
 5774.00    2.04887   2.02834   39.801
 5775.00    2.04552   2.02696   39.620
 5776.00    2.03419   2.02911   39.548
 5777.00    2.02741   2.02928   39.646
 5778.00    2.00663   2.01929   40.140
 5779.00    1.96644   1.99382   41.000
 5780.00    1.93615   1.95654   41.622
 5781.00    1.92723   1.91897   41.656
 5782.00    1.94699   1.89305   -1.000
 5783.00    1.96332   1.88248   -1.000
 5784.00    1.96013   1.88338   -1.000
 5785.00    1.96848   1.89341   -1.000
 5786.00    1.99620   1.91417   -1.000
 5787.00    2.02021   1.94318   -1.000
 5788.00    2.04866   1.97127   -1.000
 5789.00    2.06194   1.98909   -1.000
 5790.00    2.04619   1.99552   40.037
 5791.00    2.03974   1.99809   39.752
 5792.00    2.05101   2.00609   39.462
 5793.00    2.05768   2.02240   39.220
 5794.00    2.06628   2.04108   39.152
 5795.00    2.08205   2.05258   39.341
 5796.00    2.07943   2.05167   39.597
 5797.00    2.05524   2.04348   39.495
 5798.00    2.05939   2.04001   39.040
 5799.00    2.09512   2.04966   38.502
 5800.00    2.12438   2.06950   -1.000
 5801.00    2.14262   2.08748   -1.000
 5802.00    2.13944   2.09229   38.894
 5803.00    2.12007   2.08118   39.208
 5804.00    2.09430   2.06161   39.412
 5805.00    2.08661   2.04496   39.370
 5806.00    2.09065   2.03852   -1.000
 5807.00    2.08714   2.04222   39.102
 5808.00    2.09192   2.05153   39.078
 5809.00    2.10546   2.06209   39.051
 5810.00    2.11643   2.07129   38.923
 5811.00    2.12551   2.07699   38.799
 5812.00    2.12521   2.07689   38.840
 5813.00    2.11396   2.06926   39.122
 5814.00    2.10190   2.05520   39.337
 5815.00    2.08852   2.04004   39.205
 5816.00    2.08338   2.03273   38.939
 5817.00    2.09705   2.03976   -1.000
 5818.00    2.11519   2.05881   -1.000
 5819.00    2.12890   2.08037   38.381
 5820.00    2.13950   2.09500   38.408
 5821.00    2.13963   2.09940   38.535
 5822.00    2.13276   2.09633   38.507
 5823.00    2.12873   2.09127   38.442
 5824.00    2.12975   2.08838   38.374
 5825.00    2.13470   2.08876   38.330
 5826.00    2.13413   2.09135   38.333
 5827.00    2.13943   2.09501   38.399
 5828.00    2.14074   2.09927   38.353
 5829.00    2.14316   2.10333   38.343
 5830.00    2.14399   2.10557   38.305
 5831.00    2.14556   2.10468   38.355
 5832.00    2.14451   2.10036   38.583
 5833.00    2.14391   2.09324   38.687
 5834.00    2.13718   2.08529   38.589
 5835.00    2.14267   2.07972   -1.000
 5836.00    2.13922   2.07801   -1.000
 5837.00    2.12827   2.07887   38.688
 5838.00    2.13129   2.08166   38.603
 5839.00    2.14140   2.08773   38.342
 5840.00    2.13992   2.09749   38.123
 5841.00    2.14499   2.10805   38.095
 5842.00    2.15222   2.11461   38.205
 5843.00    2.15685   2.11383   38.352
 5844.00    2.13571   2.10500   38.590
 5845.00    2.11846   2.09005   38.798
 5846.00    2.10896   2.07284   38.988
 5847.00    2.10734   2.05849   38.989
 5848.00    2.10028   2.05054   39.026
 5849.00    2.09548   2.04800   39.223
 5850.00    2.09783   2.04471   -1.000
 5851.00    2.09270   2.03472   -1.000
 5852.00    2.07039   2.01845   -1.000
 5853.00    2.05468   2.00212   -1.000
 5854.00    2.05741   1.99053   -1.000
 5855.00    2.05862   1.98066   -1.000
 5856.00    2.03226   1.96659   -1.000
 5857.00    2.00050   1.95024   40.774
 5858.00    1.99962   1.94180   -1.000
 5859.00    2.02643   1.94953   -1.000
 5860.00    2.06070   1.96995   -1.000
 5861.00    2.07768   1.99235   -1.000
 5862.00    2.07358   2.00864   -1.000
 5863.00    2.07702   2.01761   -1.000
 5864.00    2.08319   2.02089   -1.000
 5865.00    2.07354   2.01945   -1.000
 5866.00    2.06386   2.01548   39.928
 5867.00    2.07162   2.01506   -1.000
 5868.00    2.08904   2.02329   -1.000
 5869.00    2.10541   2.03817   -1.000
 5870.00    2.12071   2.05236   -1.000
 5871.00    2.11965   2.05962   -1.000
 5872.00    2.10944   2.05978   39.138
 5873.00    2.10871   2.05667   39.087
 5874.00    2.10448   2.05387   39.170
 5875.00    2.10312   2.05155   39.334
 5876.00    2.09729   2.04689   39.413
 5877.00    2.08379   2.03720   39.674
 5878.00    2.08358   2.02255   -1.000
 5879.00    2.08083   2.00636   -1.000
 5880.00    2.06020   1.99342   -1.000
 5881.00    2.06576   1.98683   -1.000
 5882.00    2.06844   1.98504   -1.000
 5883.00    2.06092   1.98375   -1.000
 5884.00    2.04053   1.98033   -1.000
 5885.00    1.99097   1.97052   40.630
 5886.00    1.87636   1.94163   41.921
 5887.00    1.64530   1.87732   -1.000
 5888.00    1.35547   1.77511   -1.000
 5889.00    1.18996   1.66378   -1.000
 5890.00    1.28223   1.58998   -1.000
 5891.00    1.51534   1.58254   45.788
 5892.00    1.65355   1.62564   44.723
 5893.00    1.61352   1.67220   45.022
 5894.00    1.45604   1.68556   -1.000
 5895.00    1.37293   1.66804   -1.000
 5896.00    1.47426   1.65731   -1.000
 5897.00    1.68524   1.68549   43.561
 5898.00    1.85551   1.74987   -1.000
 5899.00    1.94598   1.82468   -1.000
 5900.00    1.99608   1.88797   -1.000
 5901.00    2.03172   1.93255   -1.000
 5902.00    2.05522   1.96055   -1.000
 5903.00    2.06524   1.97613   -1.000
 5904.00    2.05775   1.98327   -1.000
 5905.00    2.05104   1.98632   -1.000
 5906.00    2.04719   1.98980   -1.000
 5907.00    2.05004   1.99637   40.038
 5908.00    2.06588   2.00491   -1.000
 5909.00    2.07369   2.01277   -1.000
 5910.00    2.07004   2.01734   40.258
 5911.00    2.06363   2.01577   40.391
 5912.00    2.05038   2.00527   40.910
 5913.00    2.01863   1.98639   41.277
 5914.00    2.00065   1.96557   41.252
 5915.00    2.00550   1.95253   -1.000
 5916.00    2.01142   1.95272   -1.000
 5917.00    2.02879   1.96496   -1.000
 5918.00    2.04522   1.98275   -1.000
 5919.00    2.04564   1.99893   40.445
 5920.00    2.05499   2.00892   40.431
 5921.00    2.05741   2.01225   40.471
 5922.00    2.04434   2.01244   40.339
 5923.00    2.04379   2.01398   40.201
 5924.00    2.06276   2.01880   40.122
 5925.00    2.07512   2.02518   40.086
 5926.00    2.07733   2.02899   40.146
 5927.00    2.08073   2.02617   -1.000
 5928.00    2.06587   2.01627   40.727
 5929.00    2.04600   2.00432   40.745
 5930.00    2.04647   1.99836   40.390
 5931.00    2.05382   2.00164   40.162
 5932.00    2.06382   2.00812   -1.000
 5933.00    2.07339   2.00987   -1.000
 5934.00    2.06415   2.00610   -1.000
 5935.00    2.05516   2.00411   40.567
 5936.00    2.06625   2.01013   -1.000
 5937.00    2.07911   2.02191   -1.000
 5938.00    2.08166   2.03163   40.151
 5939.00    2.07212   2.03235   40.534
 5940.00    2.05209   2.02332   40.794
 5941.00    2.03739   2.01038   40.799
 5942.00    2.03320   2.00249   40.585
 5943.00    2.05253   2.00476   40.342
 5944.00    2.07599   2.01487   -1.000
 5945.00    2.08344   2.02529   -1.000
 5946.00    2.07784   2.02818   40.578
 5947.00    2.07122   2.02098   -1.000
 5948.00    2.05282   2.00848   41.149
 5949.00    2.04221   1.99940   40.976
 5950.00    2.04793   1.99712   40.808
 5951.00    2.05963   1.99779   -1.000
 5952.00    2.05623   1.99751   -1.000
 5953.00    2.05086   1.99707   -1.000
 5954.00    2.04970   1.99820   -1.000
 5955.00    2.05102   1.99937   -1.000
 5956.00    2.05396   1.99834   -1.000
 5957.00    2.04350   1.99763   40.888
 5958.00    2.04707   2.00274   40.456
 5959.00    2.07651   2.01559   -1.000
 5960.00    2.09746   2.03264   -1.000
 5961.00    2.11683   2.04764   -1.000
 5962.00    2.11802   2.05610   -1.000
 5963.00    2.11278   2.05690   -1.000
 5964.00    2.10110   2.05190   40.236
 5965.00    2.08806   2.04509   40.378
 5966.00    2.07489   2.04164   40.320
 5967.00    2.07409   2.04430   40.037
 5968.00    2.09726   2.05155   39.905
 5969.00    2.11931   2.06019   -1.000
 5970.00    2.12551   2.06778   -1.000
 5971.00    2.12654   2.07259   -1.000
 5972.00    2.11251   2.07283   39.940
 5973.00    2.11146   2.06649   40.250
 5974.00    2.09754   2.05251   40.561
 5975.00    2.07250   2.03285   40.853
 5976.00    2.05839   2.01370   41.052
 5977.00    2.05563   2.00235   -1.000
 5978.00    2.06208   2.00295   -1.000
 5979.00    2.07599   2.01333   -1.000
 5980.00    2.09313   2.02551   -1.000
 5981.00    2.09643   2.02959   -1.000
 5982.00    2.08352   2.02031   -1.000
 5983.00    2.06230   2.00178   -1.000
 5984.00    2.04445   1.98532   -1.000
 5985.00    2.04670   1.98154   -1.000
 5986.00    2.06498   1.99158   -1.000
 5987.00    2.08300   2.00857   -1.000
 5988.00    2.09336   2.02455   -1.000
 5989.00    2.09823   2.03506   -1.000
 5990.00    2.10017   2.03981   -1.000
 5991.00    2.10382   2.04254   -1.000
 5992.00    2.11381   2.04838   -1.000
 5993.00    2.12655   2.05770   -1.000
 5994.00    2.13218   2.06499   -1.000
 5995.00    2.12441   2.06366   -1.000
 5996.00    2.11192   2.05293   -1.000
 5997.00    2.09355   2.03907   -1.000
 5998.00    2.08576   2.03017   -1.000
 5999.00    2.10033   2.02936   -1.000
 6000.00    2.10869   2.03279   -1.000
 6001.00    2.10140   2.03450   -1.000
 6002.00    2.07930   2.03190   40.876
 6003.00    2.07292   2.02777   40.774
 6004.00    2.07883   2.02459   -1.000
 6005.00    2.07675   2.01944   -1.000
 6006.00    2.06479   2.00849   -1.000
 6007.00    2.04771   1.99475   -1.000
 6008.00    2.03889   1.98813   -1.000
 6009.00    2.05290   1.99565   -1.000
 6010.00    2.07508   2.01148   -1.000
 6011.00    2.08468   2.02280   -1.000
 6012.00    2.08795   2.02315   -1.000
 6013.00    2.07719   2.01654   -1.000
 6014.00    2.07289   2.01084   -1.000
 6015.00    2.07670   2.00874   -1.000
 6016.00    2.07307   2.00804   -1.000
 6017.00    2.08146   2.00678   -1.000
 6018.00    2.08278   2.00378   -1.000
 6019.00    2.07054   1.99825   -1.000
 6020.00    2.06551   1.99241   -1.000
 6021.00    2.06240   1.99056   -1.000
 6022.00    2.06950   1.99526   -1.000
 6023.00    2.07934   2.00577   -1.000
 6024.00    2.09360   2.01961   -1.000
 6025.00    2.10362   2.03428   -1.000
 6026.00    2.11191   2.04772   -1.000
 6027.00    2.11931   2.05962   -1.000
 6028.00    2.13449   2.07067   -1.000
 6029.00    2.14542   2.08031   -1.000
 6030.00    2.14396   2.08780   -1.000
 6031.00    2.14220   2.09384   -1.000
 6032.00    2.14489   2.09976   39.912
 6033.00    2.15644   2.10587   -1.000
 6034.00    2.16002   2.11133   -1.000
 6035.00    2.15706   2.11489   39.707
 6036.00    2.15212   2.11547   39.732
 6037.00    2.15217   2.11266   39.938
 6038.00    2.13647   2.10691   40.043
 6039.00    2.13727   2.09980   40.160
 6040.00    2.13000   2.09377   40.105
 6041.00    2.13168   2.09087   40.042
 6042.00    2.14333   2.09240   -1.000
 6043.00    2.15700   2.09898   -1.000
 6044.00    2.16844   2.10887   -1.000
 6045.00    2.16350   2.11871   39.545
 6046.00    2.16634   2.12597   39.488
 6047.00    2.16882   2.13026   39.511
 6048.00    2.17099   2.13223   39.639
 6049.00    2.17024   2.13256   39.737
 6050.00    2.15974   2.13117   39.779
 6051.00    2.16118   2.12682   39.848
 6052.00    2.15931   2.11844   40.001
 6053.00    2.14973   2.10667   40.131
 6054.00    2.14186   2.09369   -1.000
 6055.00    2.13030   2.08233   -1.000
 6056.00    2.12432   2.07593   -1.000
 6057.00    2.13074   2.07671   -1.000
 6058.00    2.14183   2.08377   -1.000
 6059.00    2.15023   2.09296   -1.000
 6060.00    2.14506   2.09838   -1.000
 6061.00    2.11434   2.09521   40.637
 6062.00    2.15376   2.08185   -1.000
 6063.00    1.69213   2.06180   -1.000
 6064.00    0.98962   2.04360   -1.000
 6065.00    1.33726   2.03787   -1.000
 6066.00    1.98092   2.05023   26.449
 6067.00    2.10022   2.07642   41.658
 6068.00    2.21626   2.10528   -1.000
 6069.00    1.54321   2.12743   -1.000
 6070.00    0.83399   2.14001   -1.000
 6071.00    1.85835   2.14474   -1.000
 6072.00    2.19941   2.14346   -1.000
 6073.00    2.17809   2.13984   39.696
 6074.00    2.18035   2.13606   39.814
 6075.00    2.17385   2.12982   -1.000
 6076.00    2.16644   2.11824   -1.000
 6077.00    2.14534   2.10163   -1.000
 6078.00    2.12332   2.08450   40.803
 6079.00    2.11441   2.07128   40.856
 6080.00    2.11064   2.06209   -1.000
 6081.00    2.10400   2.05517   -1.000
 6082.00    2.10398   2.05065   -1.000
 6083.00    2.11151   2.04953   -1.000
 6084.00    2.11717   2.05172   -1.000
 6085.00    2.11199   2.05633   -1.000
 6086.00    2.12009   2.06198   -1.000
 6087.00    2.12916   2.06633   -1.000
 6088.00    2.12870   2.06616   -1.000
 6089.00    2.10727   2.06012   -1.000
 6090.00    2.08377   2.05149   41.137
 6091.00    2.08711   2.04610   40.902
 6092.00    2.09920   2.04795   -1.000
 6093.00    2.12053   2.05715   -1.000
 6094.00    2.13572   2.07024   -1.000
 6095.00    2.14638   2.08236   -1.000
 6096.00    2.14594   2.09066   -1.000
 6097.00    2.14187   2.09566   -1.000
 6098.00    2.14272   2.09751   -1.000
 6099.00    2.14306   2.09164   -1.000
 6100.00    2.12338   2.07163   -1.000
 6101.00    2.08299   2.03775   -1.000
 6102.00    2.03610   2.00441   42.317
 6103.00    2.03850   1.99039   -1.000
 6104.00    2.08153   2.00209   -1.000
 6105.00    2.11931   2.02933   -1.000
 6106.00    2.13068   2.05619   -1.000
 6107.00    2.12312   2.07430   -1.000
 6108.00    2.11666   2.08479   40.928
 6109.00    2.12305   2.09102   40.847
 6110.00    2.14330   2.09447   -1.000
 6111.00    2.13360   2.09672   40.644
 6112.00    2.13219   2.10013   40.461
 6113.00    2.15500   2.10524   -1.000
 6114.00    2.16591   2.10910   -1.000
 6115.00    2.14979   2.10864   40.723
 6116.00    2.13289   2.10423   40.812
 6117.00    2.12781   2.09650   40.985
 6118.00    2.11643   2.08304   41.528
 6119.00    2.09142   2.06083   42.085
 6120.00    2.06830   2.03190   42.505
 6121.00    2.04611   2.00580   42.590
 6122.00    2.03572   1.99497   41.994
 6123.00    2.05478   2.00431   -1.000
 6124.00    2.09169   2.02543   -1.000
 6125.00    2.11638   2.04445   -1.000
 6126.00    2.10448   2.05342   -1.000
 6127.00    2.08936   2.05424   41.453
 6128.00    2.09553   2.05532   41.149
 6129.00    2.11347   2.06390   -1.000
 6130.00    2.12743   2.07982   -1.000
 6131.00    2.13233   2.09561   40.696
 6132.00    2.12870   2.10081   41.041
 6133.00    2.11720   2.08607   41.901
 6134.00    2.09448   2.04769   -1.000
 6135.00    2.03184   1.99324   -1.000
 6136.00    1.96542   1.94397   44.501
 6137.00    1.95503   1.92327   43.538
 6138.00    1.99994   1.93845   -1.000
 6139.00    2.06626   1.97461   -1.000
 6140.00    2.09452   2.00840   -1.000
 6141.00    2.09097   2.02984   -1.000
 6142.00    2.09035   2.04504   -1.000
 6143.00    2.10006   2.06185   40.967
 6144.00    2.12420   2.07966   -1.000
 6145.00    2.13481   2.09165   -1.000
 6146.00    2.12330   2.09278   41.263
 6147.00    2.11196   2.08390   41.558
 6148.00    2.10388   2.07024   41.810
 6149.00    2.08715   2.05811   41.845
 6150.00    2.07107   2.05227   41.708
 6151.00    2.06798   2.05342   41.432
 6152.00    2.08635   2.05744   41.346
 6153.00    2.09744   2.05826   41.648
 6154.00    2.08752   2.05322   41.889
 6155.00    2.07800   2.04497   41.940
 6156.00    2.07012   2.03671   42.092
 6157.00    2.06690   2.02723   42.507
 6158.00    2.04531   2.00970   43.276
 6159.00    2.00701   1.97597   44.532
 6160.00    1.95435   1.92601   45.845
 6161.00    1.89224   1.87330   46.407
 6162.00    1.85757   1.83944   45.853
 6163.00    1.86679   1.83818   44.640
 6164.00    1.91708   1.86567   -1.000
 6165.00    1.96369   1.90401   -1.000
 6166.00    1.98089   1.93352   -1.000
 6167.00    1.97941   1.94312   44.231
 6168.00    1.95029   1.93480   44.706
 6169.00    1.92130   1.92267   44.476
 6170.00    1.92364   1.92258   43.665
 6171.00    1.96364   1.93978   43.016
 6172.00    1.99637   1.96575   42.979
 6173.00    2.01629   1.98852   43.026
 6174.00    2.02308   2.00240   42.936
 6175.00    2.01402   2.00884   42.849
 6176.00    2.00658   2.01278   42.738
 6177.00    2.01906   2.01828   42.537
 6178.00    2.02705   2.02623   42.374
 6179.00    2.03984   2.03525   42.238
 6180.00    2.05339   2.04436   42.049
 6181.00    2.05368   2.05312   41.930
 6182.00    2.06187   2.05976   41.992
 6183.00    2.05887   2.06142   42.136
 6184.00    2.04525   2.05567   42.451
 6185.00    2.02883   2.04223   42.905
 6186.00    2.01635   2.02363   43.354
 6187.00    1.99707   2.00331   43.770
 6188.00    1.98052   1.98254   44.098
 6189.00    1.96252   1.96073   44.645
 6190.00    1.94757   1.94071   44.973
 6191.00    1.92848   1.93135   44.560
 6192.00    1.93796   1.94059   43.507
 6193.00    1.97449   1.96699   42.744
 6194.00    2.01031   1.99973   42.437
 6195.00    2.03830   2.02646   42.357
 6196.00    2.03534   2.03973   42.596
 6197.00    2.02529   2.03796   43.074
 6198.00    2.00835   2.02540   43.446
 6199.00    1.98468   2.01184   43.449
 6200.00    1.97099   2.00788   43.047
 6201.00    1.98017   2.01716   42.511
 6202.00    2.00450   2.03485   42.342
 6203.00    2.02785   2.05244   42.340
 6204.00    2.04188   2.06445   42.278
 6205.00    2.05203   2.07105   42.266
 6206.00    2.05820   2.07465   42.414
 6207.00    2.05906   2.07628   42.432
 6208.00    2.05720   2.07451   42.594
 6209.00    2.04220   2.06695   42.967
 6210.00    2.03154   2.05170   43.312
 6211.00    2.01432   2.02785   43.726
 6212.00    1.98711   1.99690   44.370
 6213.00    1.95367   1.96517   44.848
 6214.00    1.92821   1.94144   44.999
 6215.00    1.93219   1.93170   44.483
 6216.00    1.94171   1.93455   44.215
 6217.00    1.95594   1.94199   44.499
 6218.00    1.96238   1.94613   44.400
 6219.00    1.95395   1.94565   44.078
 6220.00    1.96465   1.94592   44.282
 6221.00    1.75256   1.95154   -1.000
 6222.00    1.80619   1.96188   -1.000
 6223.00    1.97339   1.97289   44.130
 6224.00    2.00415   1.98135   43.795
 6225.00    1.99424   1.98599   43.843
 6226.00    1.99349   1.98481   44.062
 6227.00    1.98244   1.97411   44.629
 6228.00    1.95942   1.95148   45.363
 6229.00    1.92828   1.92098   45.964
 6230.00    1.90379   1.89505   45.857
 6231.00    1.89478   1.88697   45.236
 6232.00    1.92353   1.90189   44.395
 6233.00    1.95952   1.93374   43.657
 6234.00    1.98474   1.96899   43.398
 6235.00    1.99860   1.99386   43.641
 6236.00    1.99511   2.00063   44.074
 6237.00    1.98697   1.99048   44.524
 6238.00    1.96991   1.97055   44.997
 6239.00    1.94838   1.94948   45.218
 6240.00    1.93231   1.93281   45.220
 6241.00    1.92565   1.92065   45.508
 6242.00    1.91630   1.91024   45.819
 6243.00    1.89886   1.90118   45.828
 6244.00    1.89740   1.89666   45.560
 6245.00    1.91679   1.90093   45.123
 6246.00    1.94177   1.91637   44.559
 6247.00    1.96121   1.93984   44.081
 6248.00    1.97158   1.96269   43.988
 6249.00    1.98396   1.97483   44.350
 6250.00    1.97401   1.96988   45.131
 6251.00    1.94580   1.94953   45.729
 6252.00    1.91911   1.92320   46.066
 6253.00    1.89575   1.90103   46.213
 6254.00    1.89567   1.88677   46.209
 6255.00    1.89377   1.87752   46.575
 6256.00    1.87652   1.86938   47.000
 6257.00    1.86509   1.86404   46.874
 6258.00    1.87291   1.86773   46.216
 6259.00    1.89815   1.88498   45.514
 6260.00    1.93248   1.91400   44.890
 6261.00    1.96576   1.94723   44.204
 6262.00    1.98401   1.97543   43.925
 6263.00    1.98509   1.99204   44.214
 6264.00    1.97962   1.99703   44.524
 6265.00    1.97117   1.99622   44.384
 6266.00    1.96842   1.99599   44.066
 6267.00    1.97554   1.99773   44.162
 6268.00    1.97411   1.99896   44.387
 6269.00    1.96987   1.99902   44.364
 6270.00    1.96395   2.00011   44.217
 6271.00    1.97080   2.00424   44.106
 6272.00    1.98167   2.00979   44.196
 6273.00    1.98001   2.01231   44.496
 6274.00    1.95269   2.00824   44.855
 6275.00    1.91979   1.99688   45.531
 6276.00    1.89897   1.97932   46.641
 6277.00    1.87324   1.95778   47.536
 6278.00    1.85760   1.93558   47.899
 6279.00    1.85361   1.91777   47.767
 6280.00    1.84137   1.91050   47.076
 6281.00    1.82982   1.91718   46.263
 6282.00    1.84331   1.93639   -1.000
 6283.00    1.87359   1.96228   44.972
 6284.00    1.89685   1.98843   44.583
 6285.00    1.92896   2.01135   44.183
 6286.00    1.95836   2.02990   43.862
 6287.00    1.97990   2.04308   43.749
 6288.00    1.99063   2.04852   43.946
 6289.00    1.99880   2.04459   44.308
 6290.00    1.99515   2.03323   44.646
 6291.00    1.98707   2.01949   44.763
 6292.00    1.97420   2.00835   44.812
 6293.00    1.96274   2.00078   44.888
 6294.00    1.95832   1.99362   45.204
 6295.00    1.94753   1.98325   45.513
 6296.00    1.93523   1.97044   45.610
 6297.00    1.92170   1.95978   45.555
 6298.00    1.91981   1.95392   45.377
 6299.00    1.92685   1.95092   45.174
 6300.00    1.93501   1.94757   45.483
 6301.00    1.93637   1.94501   45.998
 6302.00    1.93507   1.94839   45.731
 6303.00    1.94686   1.96073   45.032
 6304.00    1.95315   1.98040   44.455
 6305.00    1.96643   2.00297   44.057
 6306.00    1.98102   2.02433   43.662
 6307.00    1.99991   2.04096   43.548
 6308.00    2.00974   2.04937   43.713
 6309.00    1.99756   2.04829   44.002
 6310.00    1.98501   2.03990   44.189
 6311.00    1.97382   2.02836   44.367
 6312.00    1.96815   2.01628   44.427
 6313.00    1.95512   2.00353   44.789
 6314.00    1.94063   1.98939   44.989
 6315.00    1.92644   1.97563   44.978
 6316.00    1.92171   1.96477   44.934
 6317.00    1.92011   1.95911   44.983
 6318.00    1.92228   1.96148   44.849
 6319.00    1.93577   1.97316   44.350
 6320.00    1.95592   1.99146   43.896
 6321.00    1.97838   2.01165   43.696
 6322.00    1.98772   2.03055   43.551
 6323.00    1.99474   2.04689   43.326
 6324.00    2.00805   2.06011   43.176
 6325.00    2.02355   2.06903   43.140
 6326.00    2.01486   2.07333   42.949
 6327.00    2.00896   2.07463   42.954
 6328.00    2.01032   2.07502   42.990
 6329.00    2.01570   2.07575   43.020
 6330.00    2.01778   2.07779   42.887
 6331.00    2.02446   2.08050   42.801
 6332.00    2.02290   2.07958   42.895
 6333.00    1.99813   2.06955   43.007
 6334.00    1.98253   2.04944   43.897
 6335.00    1.96390   2.02648   44.136
 6336.00    1.96220   2.01209   43.808
 6337.00    1.97289   2.01275   43.366
 6338.00    1.99049   2.02653   42.891
 6339.00    1.99785   2.04587   42.647
 6340.00    2.02203   2.06182   42.442
 6341.00    2.02358   2.06816   42.443
 6342.00    2.01000   2.06437   42.787
 6343.00    1.99429   2.05612   42.897
 6344.00    1.98881   2.05189   42.796
 6345.00    1.98902   2.05694   42.576
 6346.00    2.00831   2.07025   42.284
 6347.00    2.01712   2.08722   42.104
 6348.00    2.02772   2.10306   42.094
 6349.00    2.02983   2.11449   42.017
 6350.00    2.02911   2.11983   42.037
 6351.00    2.02952   2.11782   42.202
 6352.00    2.02051   2.10819   42.397
 6353.00    2.00601   2.09261   42.848
 6354.00    1.98736   2.07513   43.240
 6355.00    1.96778   2.05962   43.304
 6356.00    1.97107   2.04592   43.410
 6357.00    1.96365   2.03150   43.861
 6358.00    1.94384   2.01554   44.097
 6359.00    1.93087   2.00011   43.962
 6360.00    1.92187   1.98797   43.810
 6361.00    1.92721   1.98115   43.757
 6362.00    1.93341   1.98120   43.622
 6363.00    1.93575   1.98915   43.349
 6364.00    1.95969   2.00476   43.069
 6365.00    1.96178   2.02576   42.833
 6366.00    1.96656   2.04843   42.566
 6367.00    1.98252   2.06881   42.283
 6368.00    1.99465   2.08407   42.150
 6369.00    2.00424   2.09401   42.165
 6370.00    1.98764   2.10153   -1.000
 6371.00    1.99711   2.10949   -1.000
 6372.00    2.00492   2.11863   -1.000
 6373.00    1.99594   2.12662   -1.000
 6374.00    1.98726   2.13073   -1.000
 6375.00    1.99272   2.12984   -1.000
 6376.00    1.98082   2.12424   -1.000
 6377.00    1.97610   2.11515   -1.000
 6378.00    1.96866   2.10496   -1.000
 6379.00    1.95591   2.09659   -1.000
 6380.00    1.94339   2.09220   -1.000
 6381.00    1.94948   2.09240   -1.000
 6382.00    1.95449   2.09555   -1.000
 6383.00    1.95061   2.09958   -1.000
 6384.00    1.94822   2.10370   -1.000
 6385.00    1.94864   2.10840   -1.000
 6386.00    1.94508   2.11370   -1.000
 6387.00    1.94189   2.11823   -1.000
 6388.00    1.94050   2.11977   -1.000
 6389.00    1.91736   2.11561   -1.000
 6390.00    1.89483   2.10330   -1.000
 6391.00    1.88382   2.08315   -1.000
 6392.00    1.84697   2.06133   -1.000
 6393.00    1.81758   2.04858   -1.000
 6394.00    1.81441   2.05283   -1.000
 6395.00    1.84264   2.07030   -1.000
 6396.00    1.85938   2.08736   -1.000
 6397.00    1.85462   2.09064   -1.000
 6398.00    1.82424   2.07686   -1.000
 6399.00    1.77732   2.05757   -1.000
 6400.00    1.76108   2.04982   -1.000
 6401.00    1.77966   2.06298   -1.000
 6402.00    1.79622   2.09085   -1.000
 6403.00    1.80705   2.11837   -1.000
 6404.00    1.80771   2.13282   -1.000
 6405.00    1.79069   2.13041   -1.000
 6406.00    1.77183   2.11676   -1.000
 6407.00    1.74866   2.10116   -1.000
 6408.00    1.72758   2.09091   -1.000
 6409.00    1.72242   2.08655   -1.000
 6410.00    1.70618   2.08490   -1.000
 6411.00    1.67458   2.08415   -1.000
 6412.00    1.66795   2.08523   -1.000
 6413.00    1.67299   2.08934   -1.000
 6414.00    1.65897   2.09573   -1.000
 6415.00    1.64459   2.10173   -1.000
 6416.00    1.64353   2.10393   -1.000
 6417.00    1.63439   2.09900   -1.000
 6418.00    1.61304   2.08613   -1.000
 6419.00    1.58576   2.06979   -1.000
 6420.00    1.55353   2.05921   -1.000
 6421.00    1.53442   2.06277   -1.000
 6422.00    1.54023   2.08108   -1.000
 6423.00    1.55436   2.10624   -1.000
 6424.00    1.54916   2.12930   -1.000
 6425.00    1.54324   2.14494   -1.000
 6426.00    1.52769   2.15153   -1.000
 6427.00    1.50264   2.14747   -1.000
 6428.00    1.48865   2.13139   -1.000
