###################################################################
## OUTPUT of StarlightChains_v04.for    [Cid@UFSC - 01/Apr/2007] ##
###################################################################

## Some input info
NGC6723_a_1.cxt                          [arq_obs]
Base.BC03.S                              [arq_base]
NGC6723_a_1.msk                          [arq_masks]
StCv04.C11.config                        [arq_config]
  150                                    [N_base]
    0                                    [N_YAV_components = # of components with extra extinction!]
    0                                    [i_FitPowerLaw (1/0 = Yes/No)]
-9.99                                    [alpha_PowerLaw]
CCM                                      [red_law_option]
 1.458241                                [q_norm = A(l_norm)/A(V)]

## (Re)Sampling Parameters
 3359.00                                 [l_ini (A)]
 6428.00                                 [l_fin (A)]
    1.00                                 [dl    (A)]     (OBS: dl_cushion =    50.00 A)

## Normalization info
 4020.00                                 [l_norm (A) - for base]
 4010.00                                 [llow_norm (A) - window for f_obs]
 4060.00                                 [lupp_norm (A) - window for f_obs]
2.195815E-14                             [fobs_norm (in input units)]

## S/N
 4730.00                                 [llow_SN (A) - window for S/N]
 4780.00                                 [lupp_SN (A) - window for S/N]
  66.760                                 [S/N in S/N window]
  58.282                                 [S/N in norm. window]
  95.225                                 [S/N_err in S/N window]
  83.132                                 [S/N_err in norm. window]
  1.0000                                 [fscale_chi2]

## etc...
  2147483590                             [idum_orig]
  3065                                   [NOl_eff]
  1839                                   [Nl_eff]
  1226    NSIGMA                         [Ntot_cliped & clip_method]
  1737400                                [Nglobal_steps]
   7                                     [N_chains]
  31                                     [NEX0s_base = N_base in EX0s-fits]
 0   0   1      119   2.0   1.985E+02    [Clip-Bug, RC-Crash & Burn-In warning-flags, n_censored_weights, wei_nsig_threshold & wei_limit]
    48     47.927     47.923      0.004  [idt_all, wdt_TotTime, wdt_UsrTime & wdt_SysTime (sec)]

## Synthesis Results - Best model ##

 2.49322E+00                             [chi2/Nl_eff]
     1.71786                             [adev (%)]

   101.11618                             [sum-of-x (%)]
 2.61632E-14                             [Flux_tot (units of input spectrum!)]
 5.23639E-10                             [Mini_tot (???)]
 2.67476E-10                             [Mcor_tot (???)]

   0.83                                  [v0_min  (km/s)]
  16.61                                  [vd_min  (km/s)]
 0.1222                                  [AV_min  (mag)]
 0.0000                                  [YAV_min (mag)]

# j     x_j(%)      Mini_j(%)     Mcor_j(%)     age_j(yr)     Z_j      (L/M)_j    YAV?  Mstars   component_j        a/Fe...       SSP_chi2r SSP_adev(%)   SSP_AV   SSP_x(%)
  1      0.0000     0.0000E+00    0.0000E+00    1.000000E+06  0.00010  8.160E-03    0   1.0000   age020_m22            0.0000     1.6257E+02    13.6296   3.7332    79.3033
  2      5.8473     6.0712E-03    1.1886E-02    3.160000E+06  0.00010  4.759E-02    0   1.0000   age045_m22            0.0000     3.6407E+01     6.1051   1.7522    97.6638
  3      0.0000     0.0000E+00    0.0000E+00    5.010000E+06  0.00010  1.932E-02    0   0.9582   age055_m22            0.0000     1.5018E+02    13.2595   2.0399    85.0810
  4      0.0000     0.0000E+00    0.0000E+00    6.610000E+06  0.00010  9.973E-03    0   0.9297   age061_m22            0.0000     1.6483E+02    13.8019   3.7026    81.7184
  5      0.0000     0.0000E+00    0.0000E+00    8.710000E+06  0.00010  7.690E-03    0   0.9030   age067_m22            0.0000     1.5637E+02    13.4614   3.6967    82.1100
  6      0.0000     0.0000E+00    0.0000E+00    1.000000E+07  0.00010  6.375E-03    0   0.8902   age070_m22            0.0000     1.4898E+02    13.1310   3.7095    82.3006
  7      0.0000     0.0000E+00    0.0000E+00    1.445000E+07  0.00010  4.874E-03    0   0.8589   age078_m22            0.0000     1.1423E+02    11.6315   3.5359    84.9954
  8      0.0000     0.0000E+00    0.0000E+00    2.512000E+07  0.00010  4.103E-03    0   0.8174   age090_m22            0.0000     6.2375E+01     8.5499   3.1391    91.0631
  9      0.0000     0.0000E+00    0.0000E+00    4.000000E+07  0.00010  3.654E-03    0   0.7830   age104_m22            0.0000     5.1278E+01     6.6087   2.8530    95.3815
 10      0.0000     0.0000E+00    0.0000E+00    5.500000E+07  0.00010  3.093E-03    0   0.7597   age110_m22            0.0000     5.1021E+01     6.1292   2.7539    96.8588
 11      0.7619     1.5486E-02    2.1641E-02    1.015200E+08  0.00010  2.431E-03    0   0.7138   age116_m22            0.0000     6.2984E+01     6.1611   2.4109    99.6173
 12      0.0000     0.0000E+00    0.0000E+00    1.609000E+08  0.00010  1.319E-03    0   0.6775   age120_m22            0.0000     6.0951E+01     5.9646   1.9335   101.8782
 13      0.0000     0.0000E+00    0.0000E+00    2.861200E+08  0.00010  1.075E-03    0   0.6412   age125_m22            0.0000     1.3654E+02     8.1950   2.0075   105.2529
 14      0.0000     0.0000E+00    0.0000E+00    5.088000E+08  0.00010  7.183E-04    0   0.6083   age130_m22            0.0000     1.6427E+02     9.0917   1.7773   106.9883
 15      0.0000     0.0000E+00    0.0000E+00    9.047900E+08  0.00010  4.524E-04    0   0.5785   age135_m22            0.0000     1.6525E+02     9.2553   1.5809   108.1418
 16      0.0000     0.0000E+00    0.0000E+00    1.278050E+09  0.00010  3.018E-04    0   0.5588   age138_m22            0.0000     8.0867E+01     6.6726   1.0377   106.4252
 17      0.0000     0.0000E+00    0.0000E+00    1.434000E+09  0.00010  2.691E-04    0   0.5532   age139_m22            0.0000     6.6150E+01     6.1212   0.8802   105.8524
 18      0.0000     0.0000E+00    0.0000E+00    2.500000E+09  0.00010  1.582E-04    0   0.5296   age150_m22            0.0000     5.7967E+01     5.9224   0.7678   106.5180
 19      0.0000     0.0000E+00    0.0000E+00    4.250000E+09  0.00010  1.007E-04    0   0.5110   age158_m22            0.0000     3.3127E+01     4.6180   0.6111   104.9024
 20      0.0000     0.0000E+00    0.0000E+00    6.250000E+09  0.00010  6.869E-05    0   0.4985   age166_m22            0.0000     1.7921E+01     3.5603   0.5485   102.2488
 21      0.0000     0.0000E+00    0.0000E+00    7.500000E+09  0.00010  5.873E-05    0   0.4931   age171_m22            0.0000     1.7440E+01     3.5942   0.5358   101.7231
 22      0.0000     1.1983E-05    1.1387E-05    1.000000E+10  0.00010  4.481E-05    0   0.4854   age181_m22            0.0000     1.6472E+01     3.5145   0.4968   101.3786
 23      0.0000     3.6950E-05    3.4657E-05    1.300000E+10  0.00010  3.489E-05    0   0.4791   age193_m22            0.0000     1.4530E+01     3.3293   0.4387   100.8561
 24      0.0000     0.0000E+00    0.0000E+00    1.500000E+10  0.00010  3.035E-05    0   0.4766   age201_m22            0.0000     1.3591E+01     3.2473   0.3985   100.6829
 25      0.0010     1.8745E-03    1.7376E-03    1.800000E+10  0.00010  2.510E-05    0   0.4735   age213_m22            0.0000     1.1815E+01     3.0962   0.3283   100.0931
 26      0.0000     0.0000E+00    0.0000E+00    1.000000E+06  0.00040  8.458E-03    0   1.0000   age020_m32            0.0000     1.6083E+02    13.5622   3.7501    79.8667
 27      0.0000     0.0000E+00    0.0000E+00    3.160000E+06  0.00040  3.973E-02    0   1.0000   age045_m32            0.0000     6.8300E+01     9.0281   3.0325    91.1112
 28      0.0000     0.0000E+00    0.0000E+00    5.010000E+06  0.00040  1.935E-02    0   0.9532   age055_m32            0.0000     1.3024E+02    12.5386   3.2536    85.3879
 29      0.0000     0.0000E+00    0.0000E+00    6.610000E+06  0.00040  1.204E-02    0   0.9243   age061_m32            0.0000     1.4038E+02    12.8511   3.5661    83.6016
 30      0.0000     0.0000E+00    0.0000E+00    8.710000E+06  0.00040  9.433E-03    0   0.9001   age067_m32            0.0000     1.2725E+02    12.2738   3.5410    84.4422
 31      0.0000     0.0000E+00    0.0000E+00    1.000000E+07  0.00040  8.053E-03    0   0.8877   age070_m32            0.0000     1.2220E+02    12.0462   3.5062    84.8776
 32      0.0000     0.0000E+00    0.0000E+00    1.445000E+07  0.00040  7.027E-03    0   0.8578   age078_m32            0.0000     8.3604E+01    10.0704   2.9905    89.7953
 33      0.0000     0.0000E+00    0.0000E+00    2.512000E+07  0.00040  4.707E-03    0   0.8166   age090_m32            0.0000     5.9065E+01     8.1851   2.7000    93.5112
 34      0.0000     0.0000E+00    0.0000E+00    4.000000E+07  0.00040  3.714E-03    0   0.7827   age104_m32            0.0000     4.9587E+01     6.6879   2.5040    96.6430
 35      0.0000     0.0000E+00    0.0000E+00    5.500000E+07  0.00040  2.982E-03    0   0.7593   age110_m32            0.0000     5.0471E+01     6.3271   2.4456    97.7467
 36      0.5469     1.2351E-02    1.7272E-02    1.015200E+08  0.00040  2.188E-03    0   0.7143   age116_m32            0.0000     7.9963E+01     6.4835   2.1870   101.8652
 37      0.0000     0.0000E+00    0.0000E+00    1.609000E+08  0.00040  1.690E-03    0   0.6856   age120_m32            0.0000     1.1262E+02     7.4902   1.9837   104.4204
 38      0.0000     0.0000E+00    0.0000E+00    2.861200E+08  0.00040  1.152E-03    0   0.6509   age125_m32            0.0000     1.4258E+02     8.4031   1.7590   106.3942
 39      0.0000     0.0000E+00    0.0000E+00    5.088000E+08  0.00040  7.331E-04    0   0.6182   age130_m32            0.0000     1.5334E+02     8.8030   1.5959   107.1460
 40      0.0000     0.0000E+00    0.0000E+00    9.047900E+08  0.00040  3.960E-04    0   0.5890   age135_m32            0.0000     8.2609E+01     6.7439   1.1300   105.8048
 41      0.0000     0.0000E+00    0.0000E+00    1.278050E+09  0.00040  2.854E-04    0   0.5687   age138_m32            0.0000     6.5653E+01     6.2032   0.8367   107.4698
 42      0.0000     0.0000E+00    0.0000E+00    1.434000E+09  0.00040  2.531E-04    0   0.5632   age139_m32            0.0000     6.3854E+01     6.1533   0.7741   107.4503
 43      2.5583     8.4955E-01    8.9579E-01    2.500000E+09  0.00040  1.488E-04    0   0.5386   age150_m32            0.0000     4.3243E+01     5.1589   0.5098   105.8181
 44     29.6831     1.6150E+01    1.6437E+01    4.250000E+09  0.00040  9.082E-05    0   0.5199   age158_m32            0.0000     1.4784E+01     3.1549   0.4028   102.5871
 45      8.9311     6.9366E+00    6.8931E+00    6.250000E+09  0.00040  6.362E-05    0   0.5076   age166_m32            0.0000     9.8049E+00     2.9634   0.3562    99.2586
 46     10.5991     9.9023E+00    9.7452E+00    7.500000E+09  0.00040  5.289E-05    0   0.5027   age171_m32            0.0000     9.5626E+00     2.9980   0.3180    98.0567
 47      0.0001     1.4880E-04    1.4414E-04    1.000000E+10  0.00040  3.972E-05    0   0.4948   age181_m32            0.0000     9.0188E+00     2.9116   0.2546    96.7586
 48      0.0000     0.0000E+00    0.0000E+00    1.300000E+10  0.00040  3.283E-05    0   0.4870   age193_m32            0.0000     6.9985E+00     2.4619   0.2126    99.4303
 49      0.0000     0.0000E+00    0.0000E+00    1.500000E+10  0.00040  2.925E-05    0   0.4854   age201_m32            0.0000     8.2937E+00     2.5401   0.1957   100.9803
 50      0.0000     0.0000E+00    0.0000E+00    1.800000E+10  0.00040  2.469E-05    0   0.4819   age213_m32            0.0000     8.9752E+00     2.6063   0.1549   101.4928
 51      0.0000     0.0000E+00    0.0000E+00    1.000000E+06  0.00400  1.114E-02    0   1.0000   age020_m42            0.0000     1.5482E+02    13.2755   3.6825    80.2617
 52      0.0000     0.0000E+00    0.0000E+00    3.160000E+06  0.00400  4.073E-02    0   0.9999   age045_m42            0.0000     4.8166E+01     7.3906   2.7288    93.7398
 53      0.0000     0.0000E+00    0.0000E+00    5.010000E+06  0.00400  2.534E-02    0   0.9488   age055_m42            0.0000     8.9915E+01    10.4317   3.1332    87.6204
 54      0.0000     0.0000E+00    0.0000E+00    6.610000E+06  0.00400  2.583E-02    0   0.9220   age061_m42            0.0000     4.5599E+01     6.8527   2.5515    94.4241
 55      0.0000     0.0000E+00    0.0000E+00    8.710000E+06  0.00400  1.706E-02    0   0.8983   age067_m42            0.0000     6.2666E+01     8.7275   2.3702    92.5696
 56      0.0000     0.0000E+00    0.0000E+00    1.000000E+07  0.00400  1.271E-02    0   0.8862   age070_m42            0.0000     8.4564E+01    10.3489   2.3533    91.0368
 57      0.0000     0.0000E+00    0.0000E+00    1.445000E+07  0.00400  7.666E-03    0   0.8571   age078_m42            0.0000     1.0408E+02    11.2883   2.7553    88.0034
 58      0.0000     0.0000E+00    0.0000E+00    2.512000E+07  0.00400  5.070E-03    0   0.8174   age090_m42            0.0000     7.2840E+01     9.6847   2.2181    92.7109
 59      0.0000     0.0000E+00    0.0000E+00    4.000000E+07  0.00400  3.505E-03    0   0.7851   age104_m42            0.0000     4.7131E+01     7.7662   1.8974    95.7001
 60      0.0000     0.0000E+00    0.0000E+00    5.500000E+07  0.00400  3.059E-03    0   0.7629   age110_m42            0.0000     3.9024E+01     5.4630   1.9631   100.1898
 61      0.0000     0.0000E+00    0.0000E+00    1.015200E+08  0.00400  2.268E-03    0   0.7207   age116_m42            0.0000     9.4601E+01     6.6552   1.8892   105.1752
 62      1.4104     4.0518E-02    5.4971E-02    1.609000E+08  0.00400  1.720E-03    0   0.6930   age120_m42            0.0000     1.0300E+02     6.8862   1.7508   106.7825
 63      0.0000     0.0000E+00    0.0000E+00    2.861200E+08  0.00400  1.079E-03    0   0.6613   age125_m42            0.0000     1.0260E+02     7.1736   1.3931   107.3473
 64      0.0000     0.0000E+00    0.0000E+00    5.088000E+08  0.00400  6.261E-04    0   0.6313   age130_m42            0.0000     1.1687E+02     7.8042   1.2026   110.1462
 65      0.0000     0.0000E+00    0.0000E+00    9.047900E+08  0.00400  3.535E-04    0   0.6024   age135_m42            0.0000     6.5342E+01     6.0400   0.7955   110.3394
 66      0.0000     0.0000E+00    0.0000E+00    1.278050E+09  0.00400  2.677E-04    0   0.5837   age138_m42            0.0000     2.1037E+01     4.1498   0.0916   107.8032
 67      0.0000     0.0000E+00    0.0000E+00    1.434000E+09  0.00400  1.910E-04    0   0.5716   age139_m42            0.0000     2.7185E+01     4.3404   0.2643   108.6869
 68      5.8173     2.9278E+00    3.1312E+00    2.500000E+09  0.00400  9.818E-05    0   0.5463   age150_m42            0.0000     8.7351E+00     2.9833  -0.0122   103.8450
 69      0.0000     4.2810E-06    4.4159E-06    4.250000E+09  0.00400  5.491E-05    0   0.5269   age158_m42            0.0000     1.1258E+01     3.1955  -0.1401   101.0533
 70      9.3827     1.2020E+01    1.2121E+01    6.250000E+09  0.00400  3.857E-05    0   0.5151   age166_m42            0.0000     1.8735E+01     3.9039  -0.2680    99.6986
 71      9.8719     1.5042E+01    1.5047E+01    7.500000E+09  0.00400  3.243E-05    0   0.5110   age171_m42            0.0000     2.4539E+01     4.3665  -0.3471    99.1234
 72      7.5483     1.5387E+01    1.5146E+01    1.000000E+10  0.00400  2.424E-05    0   0.5028   age181_m42            0.0000     3.3901E+01     4.9933  -0.4272    98.4683
 73      0.0000     3.5081E-05    3.3838E-05    1.300000E+10  0.00400  1.883E-05    0   0.4927   age193_m42            0.0000     4.2464E+01     5.4799  -0.4680    98.1407
 74      0.0000     0.0000E+00    0.0000E+00    1.500000E+10  0.00400  1.685E-05    0   0.4919   age201_m42            0.0000     4.0191E+01     5.3513  -0.4640    98.1725
 75      0.0000     0.0000E+00    0.0000E+00    1.800000E+10  0.00400  1.452E-05    0   0.4874   age213_m42            0.0000     3.6209E+01     5.1211  -0.4501    98.4586
 76      0.0000     0.0000E+00    0.0000E+00    1.000000E+06  0.00800  1.286E-02    0   1.0000   age020_m52            0.0000     1.3757E+02    12.6140   3.6642    81.8826
 77      0.0000     0.0000E+00    0.0000E+00    3.160000E+06  0.00800  3.147E-02    0   0.9966   age045_m52            0.0000     1.3501E+02    12.5317   3.5802    83.2598
 78      0.0000     0.0000E+00    0.0000E+00    5.010000E+06  0.00800  2.664E-02    0   0.9443   age055_m52            0.0000     1.0282E+02    11.0504   3.2536    86.6627
 79      0.0000     0.0000E+00    0.0000E+00    6.610000E+06  0.00800  2.151E-02    0   0.9177   age061_m52            0.0000     6.4183E+01     9.0600   1.9394    92.9424
 80      0.0000     0.0000E+00    0.0000E+00    8.710000E+06  0.00800  1.628E-02    0   0.8948   age067_m52            0.0000     6.8556E+01     9.3167   2.3208    93.0544
 81      0.0000     0.0000E+00    0.0000E+00    1.000000E+07  0.00800  1.215E-02    0   0.8827   age070_m52            0.0000     8.2932E+01    10.1912   2.6630    91.1882
 82      0.0000     0.0000E+00    0.0000E+00    1.445000E+07  0.00800  8.739E-03    0   0.8552   age078_m52            0.0000     7.2133E+01     9.3242   2.7073    92.4296
 83      0.0000     1.3138E-07    2.0993E-07    2.512000E+07  0.00800  5.676E-03    0   0.8162   age090_m52            0.0000     6.0181E+01     7.9085   2.3104    96.9142
 84      0.0000     0.0000E+00    0.0000E+00    4.000000E+07  0.00800  3.939E-03    0   0.7841   age104_m52            0.0000     5.4436E+01     6.7618   2.1514    99.3869
 85      0.0000     0.0000E+00    0.0000E+00    5.500000E+07  0.00800  3.155E-03    0   0.7627   age110_m52            0.0000     5.7023E+01     6.1523   2.1258   101.1093
 86      0.0000     0.0000E+00    0.0000E+00    1.015200E+08  0.00800  2.206E-03    0   0.7226   age116_m52            0.0000     7.5192E+01     6.0582   1.9468   104.9435
 87      0.0000     0.0000E+00    0.0000E+00    1.609000E+08  0.00800  1.596E-03    0   0.6963   age120_m52            0.0000     8.6114E+01     6.4434   1.7325   106.6750
 88      0.0000     0.0000E+00    0.0000E+00    2.861200E+08  0.00800  1.002E-03    0   0.6665   age125_m52            0.0000     1.2444E+02     7.9527   1.4375   109.5572
 89      0.0000     0.0000E+00    0.0000E+00    5.088000E+08  0.00800  5.759E-04    0   0.6377   age130_m52            0.0000     1.2996E+02     8.5301   1.0852   113.5879
 90      0.0000     0.0000E+00    0.0000E+00    9.047900E+08  0.00800  2.972E-04    0   0.6086   age135_m52            0.0000     6.8821E+01     6.7864   0.5422   112.2740
 91      0.0000     0.0000E+00    0.0000E+00    1.278050E+09  0.00800  2.242E-04    0   0.5907   age138_m52            0.0000     2.8753E+01     4.8012  -0.0795   110.5053
 92      0.0000     0.0000E+00    0.0000E+00    1.434000E+09  0.00800  1.645E-04    0   0.5787   age139_m52            0.0000     2.2405E+01     4.2648   0.0696   109.9226
 93      0.0000     0.0000E+00    0.0000E+00    2.500000E+09  0.00800  7.723E-05    0   0.5519   age150_m52            0.0000     2.2139E+01     4.3426  -0.2712   106.0312
 94      0.0000     0.0000E+00    0.0000E+00    4.250000E+09  0.00800  4.151E-05    0   0.5320   age158_m52            0.0000     2.4440E+01     4.5114  -0.3420   103.4799
 95      0.0020     3.3448E-03    3.4031E-03    6.250000E+09  0.00800  3.010E-05    0   0.5197   age166_m52            0.0000     4.0162E+01     5.4991  -0.5360   102.0184
 96      0.7315     1.4651E+00    1.4740E+00    7.500000E+09  0.00800  2.467E-05    0   0.5139   age171_m52            0.0000     4.4978E+01     5.7621  -0.5774   101.6009
 97      2.4700     6.5549E+00    6.4855E+00    1.000000E+10  0.00800  1.862E-05    0   0.5054   age181_m52            0.0000     6.0643E+01     6.5936  -0.7082   101.1763
 98      2.1817     7.5230E+00    7.3462E+00    1.300000E+10  0.00800  1.433E-05    0   0.4988   age193_m52            0.0000     8.0602E+01     7.4654  -0.8039   101.7228
 99      0.0000     0.0000E+00    0.0000E+00    1.500000E+10  0.00800  1.244E-05    0   0.4936   age201_m52            0.0000     8.9116E+01     7.7801  -0.8328   102.1371
100      0.8582     3.9634E+00    3.7927E+00    1.800000E+10  0.00800  1.070E-05    0   0.4888   age213_m52            0.0000     9.4825E+01     8.0206  -0.8687   101.9854
101      0.0000     0.0000E+00    0.0000E+00    1.000000E+06  0.02000  1.989E-02    0   1.0000   age020_m62            0.0000     1.5709E+02    13.2152   3.6470    80.9052
102      0.0000     0.0000E+00    0.0000E+00    3.160000E+06  0.02000  3.772E-02    0   0.9858   age045_m62            0.0000     1.4516E+02    12.8545   3.5085    82.9947
103      0.0000     0.0000E+00    0.0000E+00    5.010000E+06  0.02000  3.227E-02    0   0.9342   age055_m62            0.0000     6.8782E+01     8.9892   2.9941    90.4001
104      0.0000     0.0000E+00    0.0000E+00    6.610000E+06  0.02000  2.387E-02    0   0.9090   age061_m62            0.0000     9.9797E+01    11.1253   2.7384    89.7127
105      0.0000     0.0000E+00    0.0000E+00    8.710000E+06  0.02000  1.102E-02    0   0.8861   age067_m62            0.0000     2.4108E+02    17.0789   2.3569    84.8308
106      0.0000     0.0000E+00    0.0000E+00    1.000000E+07  0.02000  1.011E-02    0   0.8751   age070_m62            0.0000     1.7222E+02    14.5585   2.3761    87.4562
107      0.0000     0.0000E+00    0.0000E+00    1.445000E+07  0.02000  7.331E-03    0   0.8472   age078_m62            0.0000     1.2499E+02    12.4758   2.3925    89.0701
108      0.0000     0.0000E+00    0.0000E+00    2.512000E+07  0.02000  4.206E-03    0   0.8099   age090_m62            0.0000     1.2547E+02    12.5176   2.3016    88.6092
109      0.0000     0.0000E+00    0.0000E+00    4.000000E+07  0.02000  3.373E-03    0   0.7799   age104_m62            0.0000     5.0400E+01     7.5360   2.1080    97.3842
110      0.0000     0.0000E+00    0.0000E+00    5.500000E+07  0.02000  2.747E-03    0   0.7595   age110_m62            0.0000     4.9992E+01     6.3000   2.0459   100.8371
111      0.0000     0.0000E+00    0.0000E+00    1.015200E+08  0.02000  1.878E-03    0   0.7221   age116_m62            0.0000     8.6662E+01     6.6404   1.9134   105.6374
112      0.0000     0.0000E+00    0.0000E+00    1.609000E+08  0.02000  1.378E-03    0   0.6978   age120_m62            0.0000     1.1931E+02     7.6019   1.7641   108.2129
113      0.0000     0.0000E+00    0.0000E+00    2.861200E+08  0.02000  8.869E-04    0   0.6700   age125_m62            0.0000     1.7513E+02     9.2449   1.3926   112.5668
114      0.0000     0.0000E+00    0.0000E+00    5.088000E+08  0.02000  4.834E-04    0   0.6430   age130_m62            0.0000     1.4591E+02     9.0036   0.9524   115.0211
115      0.0000     0.0000E+00    0.0000E+00    9.047900E+08  0.02000  2.312E-04    0   0.6152   age135_m62            0.0000     5.9460E+01     6.2392   0.3428   113.9806
116      0.0000     0.0000E+00    0.0000E+00    1.278050E+09  0.02000  1.387E-04    0   0.5927   age138_m62            0.0000     2.3186E+01     4.3879  -0.0465   109.4789
117      0.0000     0.0000E+00    0.0000E+00    1.434000E+09  0.02000  1.168E-04    0   0.5865   age139_m62            0.0000     2.0062E+01     4.1857  -0.0727   107.8522
118      0.0000     0.0000E+00    0.0000E+00    2.500000E+09  0.02000  5.505E-05    0   0.5610   age150_m62            0.0000     3.2379E+01     5.2381  -0.4501   104.7746
119      0.0000     0.0000E+00    0.0000E+00    4.250000E+09  0.02000  3.070E-05    0   0.5407   age158_m62            0.0000     6.6309E+01     7.0629  -0.7465   104.5877
120      0.0000     0.0000E+00    0.0000E+00    6.250000E+09  0.02000  2.104E-05    0   0.5277   age166_m62            0.0000     8.9763E+01     7.9850  -0.8785   104.9393
121      0.0000     0.0000E+00    0.0000E+00    7.500000E+09  0.02000  1.770E-05    0   0.5223   age171_m62            0.0000     1.0191E+02     8.4714  -0.9675   105.3005
122      0.0000     0.0000E+00    0.0000E+00    1.000000E+10  0.02000  1.297E-05    0   0.5121   age181_m62            0.0000     1.3482E+02     8.9830  -1.0000   102.8751
123      0.0000     0.0000E+00    0.0000E+00    1.300000E+10  0.02000  9.691E-06    0   0.5047   age193_m62            0.0000     1.6391E+02     9.7033  -1.0000   101.2259
124      0.0000     0.0000E+00    0.0000E+00    1.500000E+10  0.02000  8.360E-06    0   0.4999   age201_m62            0.0000     1.9190E+02    10.5057  -1.0000    99.7350
125      0.0000     0.0000E+00    0.0000E+00    1.800000E+10  0.02000  6.911E-06    0   0.4946   age213_m62            0.0000     2.2771E+02    11.5431  -1.0000    98.1517
126      0.0000     0.0000E+00    0.0000E+00    1.000000E+06  0.05000  2.651E-02    0   0.9998   age020_m72            0.0000     1.4664E+02    12.6825   3.6517    81.7658
127      0.0000     0.0000E+00    0.0000E+00    3.160000E+06  0.05000  4.817E-02    0   0.9577   age045_m72            0.0000     1.0923E+02    11.1618   3.3696    86.2215
128      0.0000     0.0000E+00    0.0000E+00    5.010000E+06  0.05000  3.101E-02    0   0.9147   age055_m72            0.0000     1.0211E+02    11.0057   3.0133    88.7341
129      0.0000     0.0000E+00    0.0000E+00    6.610000E+06  0.05000  1.472E-02    0   0.8877   age061_m72            0.0000     1.9081E+02    14.9512   2.5735    86.5000
130      0.0000     0.0000E+00    0.0000E+00    8.710000E+06  0.05000  1.050E-02    0   0.8638   age067_m72            0.0000     1.3575E+02    12.5363   2.9681    87.2263
131      0.0000     0.0000E+00    0.0000E+00    1.000000E+07  0.05000  8.954E-03    0   0.8524   age070_m72            0.0000     1.0178E+02    10.6871   3.2477    87.5090
132      0.0000     0.0000E+00    0.0000E+00    1.445000E+07  0.05000  6.392E-03    0   0.8262   age078_m72            0.0000     8.7549E+01     9.9146   3.1924    88.6047
133      0.0000     0.0000E+00    0.0000E+00    2.512000E+07  0.05000  4.207E-03    0   0.7902   age090_m72            0.0000     5.5961E+01     7.9747   2.8078    93.1428
134      0.0000     0.0000E+00    0.0000E+00    4.000000E+07  0.05000  3.198E-03    0   0.7618   age104_m72            0.0000     5.4749E+01     5.6509   2.2861   101.3649
135      0.0000     0.0000E+00    0.0000E+00    5.500000E+07  0.05000  2.593E-03    0   0.7432   age110_m72            0.0000     7.0233E+01     6.0352   2.1929   103.1965
136      0.0000     0.0000E+00    0.0000E+00    1.015200E+08  0.05000  1.716E-03    0   0.7092   age116_m72            0.0000     1.0296E+02     7.0353   2.0007   105.8526
137      0.0000     0.0000E+00    0.0000E+00    1.609000E+08  0.05000  1.218E-03    0   0.6876   age120_m72            0.0000     1.3781E+02     7.9791   1.7325   108.7222
138      0.0000     0.0000E+00    0.0000E+00    2.861200E+08  0.05000  7.047E-04    0   0.6618   age125_m72            0.0000     1.6459E+02     9.1852   1.1834   112.9057
139      0.0000     0.0000E+00    0.0000E+00    5.088000E+08  0.05000  3.590E-04    0   0.6356   age130_m72            0.0000     1.1952E+02     8.4714   0.5977   115.5765
140      0.0000     0.0000E+00    0.0000E+00    9.047900E+08  0.05000  1.484E-04    0   0.6088   age135_m72            0.0000     3.6680E+01     5.6124  -0.1504   109.0078
141      0.1019     5.3371E-02    6.1896E-02    1.278050E+09  0.05000  9.435E-05    0   0.5924   age138_m72            0.0000     4.8825E+01     6.5136  -0.5585   105.9040
142      1.8111     1.1434E+00    1.3088E+00    1.434000E+09  0.05000  7.827E-05    0   0.5847   age139_m72            0.0000     4.8249E+01     6.3786  -0.5449   105.2675
143      0.0000     0.0000E+00    0.0000E+00    2.500000E+09  0.05000  3.759E-05    0   0.5583   age150_m72            0.0000     8.3830E+01     7.8812  -0.8735   104.4105
144      0.0000     0.0000E+00    0.0000E+00    4.250000E+09  0.05000  1.842E-05    0   0.5374   age158_m72            0.0000     1.3545E+02     9.1824  -1.0000    99.5475
145      0.0000     0.0000E+00    0.0000E+00    6.250000E+09  0.05000  1.207E-05    0   0.5242   age166_m72            0.0000     2.2440E+02    12.0373  -1.0000    93.5068
146      0.0000     0.0000E+00    0.0000E+00    7.500000E+09  0.05000  9.993E-06    0   0.5183   age171_m72            0.0000     2.4297E+02    12.6457  -1.0000    92.3741
147      0.0000     2.2523E-04    2.2404E-04    1.000000E+10  0.05000  7.291E-06    0   0.5081   age181_m72            0.0000     3.1210E+02    14.5915  -1.0000    89.2065
148      0.0000     0.0000E+00    0.0000E+00    1.300000E+10  0.05000  5.316E-06    0   0.5018   age193_m72            0.0000     4.3331E+02    17.4302  -1.0000    84.4466
149      0.0002     1.9933E-03    1.9403E-03    1.500000E+10  0.05000  4.497E-06    0   0.4972   age201_m72            0.0000     4.9012E+02    18.5660  -1.0000    82.7804
150      0.0000     0.0000E+00    0.0000E+00    1.800000E+10  0.05000  3.739E-06    0   0.4924   age213_m72            0.0000     5.7225E+02    20.0610  -1.0000    80.2256


## Synthesis Results - Average & Chains ##

# j      x_j: min, <> & last-chain-values for 1 ...  7 chains
  1      0.0000      0.0024      0.0000      0.0000      0.0000      0.0000      0.0000      0.0000      0.0000
  2      5.8473      0.8945      0.9693      1.4749      2.4176      1.4037      1.2160      0.8359      0.8264
  3      0.0000      0.0072      0.0497      0.0000      0.0000      0.0000      0.0000      0.0000      0.0000
  4      0.0000      0.0012      0.0000      0.0000      0.0000      0.0000      0.0000      0.0000      0.0000
  5      0.0000      0.0010      0.0000      0.0000      0.0000      0.0000      0.0000      0.0000      0.0000
  6      0.0000      0.0006      0.0000      0.0000      0.0000      0.0000      0.0000      0.0000      0.0000
  7      0.0000      0.0022      0.0000      0.0000      0.0000      0.0000      0.0000      0.0000      0.0000
  8      0.0000      0.0155      0.0000      0.0000      0.0000      0.0000      0.0000      0.0000      0.0000
  9      0.0000      0.1173      0.2515      0.2791      0.0989      0.2723      0.0000      0.2193      0.1764
 10      0.0000      0.1185      0.0898      0.3249      0.0669      0.3130      0.1710      0.0000      0.0680
 11      0.7619      0.2307      0.5747      0.0008      0.3073      0.2694      0.4048      0.2898      0.0000
 12      0.0000      0.0208      0.0000      0.0000      0.0000      0.0000      0.0143      0.0000      0.0000
 13      0.0000      0.0310      0.0000      0.1721      0.0837      0.0000      0.1513      0.0000      0.0000
 14      0.0000      0.0122      0.0000      0.0000      0.0000      0.0000      0.0000      0.0000      0.0087
 15      0.0000      0.0096      0.0000      0.0265      0.0000      0.0000      0.0049      0.0035      0.0000
 16      0.0000      0.0233      0.0000      0.0000      0.0000      0.0000      0.0000      0.0000      0.0000
 17      0.0000      0.0289      0.0000      0.0645      0.0000      0.0000      0.0000      0.0000      0.0000
 18      0.0000      0.0320      0.0327      0.0000      0.0000      0.0094      0.0000      0.0000      0.0000
 19      0.0000      0.0759      0.0000      0.0000      0.0000      0.0000      0.0000      0.0000      0.0000
 20      0.0000      0.1692      0.0000      0.0000      0.0000      0.0000      0.0080      0.8915      0.0000
 21      0.0000      0.2639      0.0000      0.0000      0.0000      0.3889      0.0000      0.6688      0.2207
 22      0.0000      0.2870      0.2921      0.1430      0.4395      0.0711      0.6735      0.5607      0.0000
 23      0.0000      0.2967      0.0000      0.5992      0.3755      0.3123      0.0000      0.0667      0.3813
 24      0.0000      0.2257      0.8453      0.1720      0.0000      0.2832      0.3428      0.0000      0.0000
 25      0.0010      0.6839      0.2060      0.2167      0.9733      0.1474      3.5419      0.9438      0.4419
 26      0.0000      0.0016      0.0000      0.0000      0.0000      0.0000      0.0000      0.0000      0.0000
 27      0.0000      0.0141      0.0305      0.0000      0.0000      0.0174      0.0000      0.0000      0.0851
 28      0.0000      0.0035      0.0000      0.0000      0.0000      0.0000      0.0000      0.0000      0.0000
 29      0.0000      0.0027      0.0000      0.0000      0.0000      0.0000      0.0000      0.0000      0.0000
 30      0.0000      0.0015      0.0000      0.0000      0.0000      0.0000      0.0000      0.0014      0.0000
 31      0.0000      0.0035      0.0000      0.0000      0.0000      0.0000      0.0000      0.0000      0.0000
 32      0.0000      0.0276      0.0000      0.1208      0.0000      0.0000      0.0000      0.0000      0.0000
 33      0.0000      0.0236      0.0000      0.0000      0.0245      0.0277      0.0000      0.0000      0.0000
 34      0.0000      0.0830      0.0000      0.0000      0.0893      0.1915      0.0993      0.0608      0.1301
 35      0.0000      0.1434      0.2467      0.1910      0.0472      0.0000      0.1880      0.1585      0.3457
 36      0.5469      0.1620      0.0000      0.0000      0.2942      0.2482      0.0000      0.1296      0.3359
 37      0.0000      0.0730      0.0457      0.0859      0.0866      0.0000      0.0000      0.0000      0.0906
 38      0.0000      0.0150      0.0000      0.0076      0.0000      0.0000      0.0000      0.0140      0.0699
 39      0.0000      0.0183      0.0000      0.0000      0.0248      0.0000      0.0000      0.0000      0.0000
 40      0.0000      0.0133      0.0000      0.0000      0.0000      0.0000      0.0000      0.0000      0.0000
 41      0.0000      0.0350      0.0000      0.3017      0.0000      0.0000      0.0126      0.0000      0.0000
 42      0.0000      0.0479      0.0000      0.0769      0.0000      0.0325      0.0747      0.0000      0.0670
 43      2.5583      2.1585      2.0258      1.5051      2.7176      2.2925      2.6498      1.8105      1.9533
 44     29.6831     26.5085     26.0979     28.4083     27.2007     27.1761     25.9587     26.8831     26.0080
 45      8.9311     11.3457     12.0056     11.4040     10.1057     11.7376     10.5864     11.5653     12.3573
 46     10.5991     12.9716     13.8695     13.3759     13.1104     13.4878     12.5453     13.0227     13.3059
 47      0.0001      0.6659      0.4512      0.0915      0.8149      0.0000      0.0000      0.0000      0.2629
 48      0.0000      0.5224      0.4139      0.5275      0.1743      0.3886      0.1488      0.0000      0.4612
 49      0.0000      0.5521      0.1269      0.2004      0.0777      0.2146      0.0000      0.0000      0.6682
 50      0.0000      0.6700      0.5708      0.0000      0.0000      0.7700      0.2830      0.8317      0.1209
 51      0.0000      0.0013      0.0000      0.0000      0.0000      0.0000      0.0000      0.0000      0.0000
 52      0.0000      0.0782      0.0000      0.0000      0.0000      0.0051      0.1873      0.2199      0.0000
 53      0.0000      0.0101      0.0075      0.0000      0.0000      0.0268      0.0000      0.0000      0.0000
 54      0.0000      0.2806      0.3290      0.3240      0.1557      0.3974      0.4408      0.3254      0.2940
 55      0.0000      0.1688      0.0000      0.3172      0.0440      0.0000      0.1893      0.0000      0.1732
 56      0.0000      0.0351      0.0000      0.0000      0.0784      0.0000      0.0000      0.0000      0.0441
 57      0.0000      0.0071      0.0000      0.0000      0.0000      0.0000      0.0000      0.0000      0.0000
 58      0.0000      0.0199      0.0000      0.0000      0.0399      0.0000      0.0000      0.0000      0.0000
 59      0.0000      0.0163      0.0000      0.0101      0.0000      0.0000      0.0000      0.0000      0.0000
 60      0.0000      0.0250      0.2635      0.0000      0.0000      0.0000      0.0000      0.0000      0.1661
 61      0.0000      0.0832      0.0000      0.0239      0.0100      0.0000      0.0135      0.2039      0.3415
 62      1.4104      0.1577      0.6650      0.2633      0.2694      0.2726      0.0000      0.0000      0.1000
 63      0.0000      0.0105      0.0000      0.0098      0.0000      0.0000      0.0000      0.0607      0.0000
 64      0.0000      0.0545      0.0112      0.0000      0.0000      0.0000      0.0278      0.0000      0.0402
 65      0.0000      0.0419      0.1318      0.0000      0.0019      0.4181      0.1869      0.0000      0.1516
 66      0.0000      0.0637      0.0000      0.0000      0.0000      0.0079      0.0000      0.0000      0.0000
 67      0.0000      0.1382      0.0000      0.2724      0.0000      0.1488      0.2302      0.0491      0.0050
 68      5.8173     10.1017      9.9973      9.7689     10.5275      9.4736     10.2643     10.8548     11.6186
 69      0.0000      0.2790      0.7395      0.0000      0.1922      0.2494      0.0000      0.4039      0.2535
 70      9.3827      5.7751      5.6575      5.4003      6.0892      6.4012      6.5312      5.9102      5.8934
 71      9.8719      6.8477      7.7708      8.3597      7.6910      7.5683      6.8369      7.6325      7.1600
 72      7.5483      7.7178      7.6945      8.4702      7.9109      8.2016      8.0292      8.0838      7.1857
 73      0.0000      1.3613      1.0960      1.1124      0.8494      1.4081      1.6645      1.3960      1.6208
 74      0.0000      0.5928      0.5623      0.2419      0.4741      0.6711      0.2242      0.6602      0.2618
 75      0.0000      0.2785      0.2594      0.0000      0.1343      0.0939      0.0000      0.1276      0.0169
 76      0.0000      0.0025      0.0000      0.0000      0.0000      0.0003      0.0000      0.0000      0.0000
 77      0.0000      0.0017      0.0000      0.0000      0.0000      0.0000      0.0000      0.0000      0.0000
 78      0.0000      0.0033      0.0000      0.0000      0.0000      0.0000      0.0000      0.0000      0.0000
 79      0.0000      0.0137      0.0039      0.0000      0.0000      0.0000      0.0000      0.0000      0.0000
 80      0.0000      0.0176      0.0000      0.0000      0.0000      0.0000      0.0000      0.0730      0.0000
 81      0.0000      0.0077      0.0000      0.0000      0.0000      0.0000      0.0000      0.0000      0.0077
 82      0.0000      0.0213      0.0000      0.0000      0.0000      0.0000      0.0000      0.0000      0.0000
 83      0.0000      0.0754      0.0000      0.0000      0.2361      0.0000      0.3880      0.0000      0.0611
 84      0.0000      0.0414      0.0000      0.0000      0.0458      0.0000      0.0000      0.1826      0.0000
 85      0.0000      0.0412      0.1571      0.0000      0.0000      0.1036      0.0456      0.0000      0.0000
 86      0.0000      0.0416      0.0000      0.1006      0.0000      0.0115      0.0000      0.0000      0.2717
 87      0.0000      0.0422      0.0343      0.0000      0.1558      0.0000      0.0000      0.0000      0.2922
 88      0.0000      0.0253      0.0000      0.0000      0.0000      0.0000      0.0147      0.0000      0.0223
 89      0.0000      0.0189      0.0000      0.2197      0.0000      0.0400      0.0000      0.0000      0.1322
 90      0.0000      0.0157      0.0000      0.0000      0.0000      0.0996      0.0000      0.0000      0.0000
 91      0.0000      0.0168      0.0000      0.0000      0.0000      0.0000      0.0000      0.0000      0.0000
 92      0.0000      0.0197      0.0000      0.0000      0.0000      0.0094      0.0000      0.0000      0.0000
 93      0.0000      0.1020      0.2121      0.0863      0.0000      0.0000      0.1255      0.0854      0.0000
 94      0.0000      0.4420      0.4758      0.3559      0.2096      0.2611      0.6104      0.3158      0.9581
 95      0.0020      0.8093      0.6761      0.0000      0.9356      0.4884      0.8189      0.8296      0.8185
 96      0.7315      0.7061      0.5203      0.7701      0.6661      0.0000      0.6447      1.1739      1.4608
 97      2.4700      0.8962      1.4699      1.1719      1.1052      0.4477      0.9016      0.7992      0.7454
 98      2.1817      0.6146      0.4202      0.7033      1.3118      0.7270      0.4845      0.6711      0.5462
 99      0.0000      0.3200      0.0000      0.3483      0.1070      0.9052      0.5988      0.3341      0.0000
100      0.8582      0.5268      0.5717      0.6019      0.6288      0.7724      0.8251      0.0000      0.2587
101      0.0000      0.0021      0.0000      0.0000      0.0000      0.0000      0.0000      0.0000      0.0000
102      0.0000      0.0011      0.0000      0.0000      0.0000      0.0000      0.0000      0.0000      0.0000
103      0.0000      0.0169      0.0000      0.0000      0.0000      0.0000      0.0000      0.0000      0.0000
104      0.0000      0.0175      0.0000      0.0000      0.0665      0.0000      0.0000      0.0058      0.0000
105      0.0000      0.0041      0.0000      0.0000      0.0000      0.0000      0.0000      0.0000      0.0577
106      0.0000      0.0050      0.0000      0.0000      0.0000      0.0000      0.0000      0.0000      0.0094
107      0.0000      0.0074      0.0000      0.0301      0.0000      0.0000      0.0033      0.0000      0.0000
108      0.0000      0.0012      0.0000      0.0000      0.0000      0.0000      0.0210      0.0000      0.0000
109      0.0000      0.0056      0.0000      0.0000      0.0000      0.0000      0.0000      0.0000      0.0000
110      0.0000      0.0097      0.0000      0.0000      0.0000      0.0000      0.0000      0.0066      0.0000
111      0.0000      0.0154      0.0839      0.0000      0.0000      0.0000      0.0000      0.0000      0.0000
112      0.0000      0.0140      0.0000      0.0000      0.0000      0.0000      0.0000      0.0000      0.0000
113      0.0000      0.0090      0.0000      0.0000      0.0000      0.0000      0.0000      0.0000      0.0000
114      0.0000      0.0083      0.0000      0.0000      0.0000      0.0000      0.0000      0.0000      0.0000
115      0.0000      0.0125      0.0568      0.0000      0.0000      0.0000      0.0000      0.0000      0.0000
116      0.0000      0.0344      0.0000      0.0000      0.0000      0.0157      0.0000      0.0000      0.0000
117      0.0000      0.0308      0.0000      0.0000      0.0000      0.0000      0.0000      0.0000      0.0000
118      0.0000      0.0494      0.0000      0.0388      0.0055      0.0000      0.0000      0.0000      0.0000
119      0.0000      0.0666      0.0000      0.0000      0.0000      0.0000      0.0000      0.0000      0.0000
120      0.0000      0.0629      0.0000      0.2432      0.0000      0.0000      0.2146      0.0000      0.0000
121      0.0000      0.0387      0.0000      0.0413      0.0000      0.0000      0.1166      0.0000      0.0000
122      0.0000      0.0131      0.0000      0.0000      0.0000      0.0000      0.0136      0.0000      0.0000
123      0.0000      0.0588      0.0000      0.0367      0.0000      0.0000      0.0000      0.0000      0.0000
124      0.0000      0.0139      0.0000      0.0000      0.0000      0.0227      0.0000      0.0000      0.0096
125      0.0000      0.0088      0.0000      0.0000      0.0000      0.0000      0.0000      0.0000      0.0000
126      0.0000      0.0017      0.0000      0.0000      0.0000      0.0000      0.0000      0.0000      0.0000
127      0.0000      0.0062      0.0000      0.0000      0.0000      0.0000      0.0000      0.0000      0.0010
128      0.0000      0.0069      0.0000      0.0000      0.0000      0.0000      0.0000      0.0000      0.0000
129      0.0000      0.0032      0.0000      0.0000      0.0000      0.0005      0.0000      0.0000      0.0000
130      0.0000      0.0023      0.0000      0.0000      0.0000      0.0000      0.0000      0.0000      0.0000
131      0.0000      0.0023      0.0000      0.0000      0.0000      0.0000      0.0000      0.0000      0.0000
132      0.0000      0.0019      0.0000      0.0000      0.0000      0.0000      0.0000      0.0000      0.0000
133      0.0000      0.0062      0.0000      0.0000      0.0000      0.0000      0.0000      0.0000      0.0000
134      0.0000      0.0113      0.0000      0.0000      0.0090      0.0000      0.0000      0.0000      0.0000
135      0.0000      0.0120      0.0000      0.0000      0.0000      0.0000      0.0000      0.0000      0.0000
136      0.0000      0.0171      0.0000      0.0000      0.0000      0.0000      0.0000      0.0000      0.0000
137      0.0000      0.0123      0.0000      0.0002      0.0000      0.0000      0.0000      0.0028      0.0000
138      0.0000      0.0189      0.0000      0.0839      0.0000      0.0209      0.0585      0.0000      0.0000
139      0.0000      0.0191      0.0000      0.1205      0.0000      0.0018      0.0000      0.0000      0.0000
140      0.0000      0.0395      0.0000      0.0344      0.0000      0.0000      0.0000      0.0562      0.0000
141      0.1019      0.2250      0.1791      0.1566      0.2212      0.7876      0.0000      0.0000      0.0000
142      1.8111      0.3233      0.4064      0.0000      0.3145      0.0000      0.0000      0.7150      0.3591
143      0.0000      0.3290      0.5949      0.5840      0.1161      0.1912      0.2949      0.2576      0.5078
144      0.0000      0.1360      0.2820      0.1667      0.0000      0.1383      0.3906      0.0000      0.0000
145      0.0000      0.0621      0.0000      0.0000      0.1394      0.0872      0.0701      0.2399      0.0000
146      0.0000      0.0955      0.0000      0.2432      0.0000      0.0000      0.0000      0.0000      0.0000
147      0.0000      0.1986      0.2225      0.1852      0.2220      0.1602      0.2392      0.0494      0.3648
148      0.0000      0.1008      0.0000      0.0956      0.0000      0.0036      0.1148      0.3066      0.1294
149      0.0002      0.2184      0.1646      0.2115      0.2748      0.2150      0.1920      0.0000      0.2991
150      0.0000      0.1636      0.1599      0.1429      0.3022      0.1903      0.0000      0.0301      0.1096

# j      m_j: min, <> & last-chain-values for 1 ...  7 chains
  1  0.0000E+00  2.6093E-05  0.0000E+00  0.0000E+00  0.0000E+00  0.0000E+00  0.0000E+00  0.0000E+00  0.0000E+00
  2  1.1886E-02  1.6720E-03  1.8654E-03  2.7975E-03  4.5361E-03  2.6451E-03  2.2500E-03  1.6273E-03  1.6026E-03
  3  0.0000E+00  3.1813E-05  2.2581E-04  0.0000E+00  0.0000E+00  0.0000E+00  0.0000E+00  0.0000E+00  0.0000E+00
  4  0.0000E+00  1.0121E-05  0.0000E+00  0.0000E+00  0.0000E+00  0.0000E+00  0.0000E+00  0.0000E+00  0.0000E+00
  5  0.0000E+00  1.0185E-05  0.0000E+00  0.0000E+00  0.0000E+00  0.0000E+00  0.0000E+00  0.0000E+00  0.0000E+00
  6  0.0000E+00  8.0060E-06  0.0000E+00  0.0000E+00  0.0000E+00  0.0000E+00  0.0000E+00  0.0000E+00  0.0000E+00
  7  0.0000E+00  3.5138E-05  0.0000E+00  0.0000E+00  0.0000E+00  0.0000E+00  0.0000E+00  0.0000E+00  0.0000E+00
  8  0.0000E+00  2.7522E-04  0.0000E+00  0.0000E+00  0.0000E+00  0.0000E+00  0.0000E+00  0.0000E+00  0.0000E+00
  9  0.0000E+00  2.2356E-03  4.9358E-03  5.3987E-03  1.8930E-03  5.2322E-03  0.0000E+00  4.3534E-03  3.4889E-03
 10  0.0000E+00  2.5887E-03  2.0194E-03  7.2038E-03  1.4668E-03  6.8947E-03  3.6988E-03  0.0000E+00  1.5413E-03
 11  2.1641E-02  6.0252E-03  1.5455E-02  2.1468E-05  8.0579E-03  7.0941E-03  1.0466E-02  7.8837E-03  0.0000E+00
 12  0.0000E+00  9.5202E-04  0.0000E+00  0.0000E+00  0.0000E+00  0.0000E+00  6.4854E-04  0.0000E+00  0.0000E+00
 13  0.0000E+00  1.6456E-03  0.0000E+00  9.2634E-03  4.4581E-03  0.0000E+00  7.9443E-03  0.0000E+00  0.0000E+00
 14  0.0000E+00  9.1578E-04  0.0000E+00  0.0000E+00  0.0000E+00  0.0000E+00  0.0000E+00  0.0000E+00  6.8039E-04
 15  0.0000E+00  1.0870E-03  0.0000E+00  3.0586E-03  0.0000E+00  0.0000E+00  5.5609E-04  4.1010E-04  0.0000E+00
 16  0.0000E+00  3.8415E-03  0.0000E+00  0.0000E+00  0.0000E+00  0.0000E+00  0.0000E+00  0.0000E+00  0.0000E+00
 17  0.0000E+00  5.2756E-03  0.0000E+00  1.1972E-02  0.0000E+00  0.0000E+00  0.0000E+00  0.0000E+00  0.0000E+00
 18  0.0000E+00  9.5327E-03  1.0038E-02  0.0000E+00  0.0000E+00  2.8196E-03  0.0000E+00  0.0000E+00  0.0000E+00
 19  0.0000E+00  3.4256E-02  0.0000E+00  0.0000E+00  0.0000E+00  0.0000E+00  0.0000E+00  0.0000E+00  0.0000E+00
 20  0.0000E+00  1.0920E-01  0.0000E+00  0.0000E+00  0.0000E+00  0.0000E+00  5.1065E-03  5.9942E-01  0.0000E+00
 21  0.0000E+00  1.9706E-01  0.0000E+00  0.0000E+00  0.0000E+00  2.9281E-01  0.0000E+00  5.2028E-01  1.7103E-01
 22  1.1387E-05  2.7658E-01  2.8981E-01  1.3982E-01  4.2506E-01  6.9053E-02  6.4240E-01  5.6276E-01  0.0000E+00
 23  3.4657E-05  3.6238E-01  0.0000E+00  7.4276E-01  4.6047E-01  3.8459E-01  0.0000E+00  8.4865E-02  4.8317E-01
 24  0.0000E+00  3.1530E-01  1.2158E+00  2.4384E-01  0.0000E+00  3.9886E-01  4.7403E-01  0.0000E+00  0.0000E+00
 25  1.7376E-03  1.1476E+00  3.5585E-01  3.6896E-01  1.6394E+00  2.4940E-01  5.8837E+00  1.6496E+00  7.6936E-01
 26  0.0000E+00  1.7016E-05  0.0000E+00  0.0000E+00  0.0000E+00  0.0000E+00  0.0000E+00  0.0000E+00  0.0000E+00
 27  0.0000E+00  3.1500E-05  7.0271E-05  0.0000E+00  0.0000E+00  3.9259E-05  0.0000E+00  0.0000E+00  1.9771E-04
 28  0.0000E+00  1.5146E-05  0.0000E+00  0.0000E+00  0.0000E+00  0.0000E+00  0.0000E+00  0.0000E+00  0.0000E+00
 29  0.0000E+00  1.8262E-05  0.0000E+00  0.0000E+00  0.0000E+00  0.0000E+00  0.0000E+00  0.0000E+00  0.0000E+00
 30  0.0000E+00  1.2963E-05  0.0000E+00  0.0000E+00  0.0000E+00  0.0000E+00  0.0000E+00  1.2308E-05  0.0000E+00
 31  0.0000E+00  3.4695E-05  0.0000E+00  0.0000E+00  0.0000E+00  0.0000E+00  0.0000E+00  0.0000E+00  0.0000E+00
 32  0.0000E+00  2.9938E-04  0.0000E+00  1.3308E-03  0.0000E+00  0.0000E+00  0.0000E+00  0.0000E+00  0.0000E+00
 33  0.0000E+00  3.6377E-04  0.0000E+00  0.0000E+00  3.7997E-04  4.3039E-04  0.0000E+00  0.0000E+00  0.0000E+00
 34  0.0000E+00  1.5555E-03  0.0000E+00  0.0000E+00  1.6804E-03  3.6197E-03  1.8429E-03  1.1866E-03  2.5311E-03
 35  0.0000E+00  3.2482E-03  5.7543E-03  4.3904E-03  1.0723E-03  0.0000E+00  4.2156E-03  3.7404E-03  8.1239E-03
 36  1.7272E-02  4.7030E-03  0.0000E+00  0.0000E+00  8.5762E-03  7.2680E-03  0.0000E+00  3.9202E-03  1.0120E-02
 37  0.0000E+00  2.6347E-03  1.6965E-03  3.1448E-03  3.1365E-03  0.0000E+00  0.0000E+00  0.0000E+00  3.3928E-03
 38  0.0000E+00  7.5221E-04  0.0000E+00  3.8954E-04  0.0000E+00  0.0000E+00  0.0000E+00  7.3094E-04  3.6438E-03
 39  0.0000E+00  1.3701E-03  0.0000E+00  0.0000E+00  1.8687E-03  0.0000E+00  0.0000E+00  0.0000E+00  0.0000E+00
 40  0.0000E+00  1.7588E-03  0.0000E+00  0.0000E+00  0.0000E+00  0.0000E+00  0.0000E+00  0.0000E+00  0.0000E+00
 41  0.0000E+00  6.2016E-03  0.0000E+00  5.4275E-02  0.0000E+00  0.0000E+00  2.2177E-03  0.0000E+00  0.0000E+00
 42  0.0000E+00  9.4890E-03  0.0000E+00  1.5440E-02  0.0000E+00  6.4869E-03  1.4632E-02  0.0000E+00  1.3768E-02
 43  8.9579E-01  6.9498E-01  6.7161E-01  4.9177E-01  8.7835E-01  7.4417E-01  8.4459E-01  6.0716E-01  6.5249E-01
 44  1.6437E+01  1.3498E+01  1.3683E+01  1.4680E+01  1.3904E+01  1.3951E+01  1.3085E+01  1.4258E+01  1.3740E+01
 45  6.8931E+00  8.0521E+00  8.7733E+00  8.2132E+00  7.1995E+00  8.3985E+00  7.4377E+00  8.5494E+00  9.0990E+00
 46  9.7452E+00  1.0967E+01  1.2074E+01  1.1476E+01  1.1127E+01  1.1497E+01  1.0500E+01  1.1468E+01  1.1671E+01
 47  1.4414E-04  7.3786E-01  5.1475E-01  1.0287E-01  9.0639E-01  0.0000E+00  0.0000E+00  0.0000E+00  3.0219E-01
 48  0.0000E+00  6.8930E-01  5.6239E-01  7.0634E-01  2.3093E-01  5.1698E-01  1.9441E-01  0.0000E+00  6.3137E-01
 49  0.0000E+00  8.1498E-01  1.9293E-01  3.0018E-01  1.1514E-01  3.1931E-01  0.0000E+00  0.0000E+00  1.0233E+00
 50  0.0000E+00  1.1632E+00  1.0204E+00  0.0000E+00  0.0000E+00  1.3478E+00  4.8636E-01  1.5040E+00  2.1775E-01
 51  0.0000E+00  1.0241E-05  0.0000E+00  0.0000E+00  0.0000E+00  0.0000E+00  0.0000E+00  0.0000E+00  0.0000E+00
 52  0.0000E+00  1.7075E-04  0.0000E+00  0.0000E+00  0.0000E+00  1.1133E-05  4.0499E-04  5.0027E-04  0.0000E+00
 53  0.0000E+00  3.3697E-05  2.5635E-05  0.0000E+00  0.0000E+00  9.0130E-05  0.0000E+00  0.0000E+00  0.0000E+00
 54  0.0000E+00  8.9078E-04  1.0756E-03  1.0440E-03  4.9616E-04  1.2720E-03  1.3855E-03  1.0762E-03  9.6833E-04
 55  0.0000E+00  7.9049E-04  0.0000E+00  1.5077E-03  2.0699E-04  0.0000E+00  8.7773E-04  0.0000E+00  8.4150E-04
 56  0.0000E+00  2.1767E-04  0.0000E+00  0.0000E+00  4.8839E-04  0.0000E+00  0.0000E+00  0.0000E+00  2.8399E-04
 57  0.0000E+00  7.0479E-05  0.0000E+00  0.0000E+00  0.0000E+00  0.0000E+00  0.0000E+00  0.0000E+00  0.0000E+00
 58  0.0000E+00  2.8520E-04  0.0000E+00  0.0000E+00  5.7404E-04  0.0000E+00  0.0000E+00  0.0000E+00  0.0000E+00
 59  0.0000E+00  3.2496E-04  0.0000E+00  2.0370E-04  0.0000E+00  0.0000E+00  0.0000E+00  0.0000E+00  0.0000E+00
 60  0.0000E+00  5.5463E-04  6.0187E-03  0.0000E+00  0.0000E+00  0.0000E+00  0.0000E+00  0.0000E+00  3.8231E-03
 61  0.0000E+00  2.3515E-03  0.0000E+00  6.8482E-04  2.8268E-04  0.0000E+00  3.7713E-04  6.0027E-03  1.0014E-02
 62  5.4971E-02  5.6509E-03  2.4541E-02  9.5745E-03  9.6925E-03  9.8514E-03  0.0000E+00  0.0000E+00  3.7191E-03
 63  0.0000E+00  5.7433E-04  0.0000E+00  5.4372E-04  0.0000E+00  0.0000E+00  0.0000E+00  3.4451E-03  0.0000E+00
 64  0.0000E+00  4.8845E-03  1.0311E-03  0.0000E+00  0.0000E+00  0.0000E+00  2.4725E-03  0.0000E+00  3.7380E-03
 65  0.0000E+00  6.3576E-03  2.0570E-02  0.0000E+00  2.8845E-04  6.3900E-02  2.8046E-02  0.0000E+00  2.3842E-02
 66  0.0000E+00  1.2345E-02  0.0000E+00  0.0000E+00  0.0000E+00  1.5409E-03  0.0000E+00  0.0000E+00  0.0000E+00
 67  0.0000E+00  3.6782E-02  0.0000E+00  7.3574E-02  0.0000E+00  3.9925E-02  6.0651E-02  1.3604E-02  1.3756E-03
 68  3.1312E+00  4.9998E+00  5.0950E+00  4.9066E+00  5.2305E+00  4.7273E+00  5.0292E+00  5.5960E+00  5.9662E+00
 69  4.4159E-06  2.3810E-01  6.4993E-01  0.0000E+00  1.6466E-01  2.1462E-01  0.0000E+00  3.5911E-01  2.2451E-01
 70  1.2121E+01  6.8605E+00  6.9201E+00  6.5101E+00  7.2613E+00  7.6664E+00  7.6806E+00  7.3130E+00  7.2636E+00
 71  1.5047E+01  9.5978E+00  1.1215E+01  1.1890E+01  1.0821E+01  1.0695E+01  9.4863E+00  1.1143E+01  1.0412E+01
 72  1.5146E+01  1.4240E+01  1.4618E+01  1.5859E+01  1.4652E+01  1.5257E+01  1.4665E+01  1.5536E+01  1.3755E+01
 73  3.3838E-05  3.1684E+00  2.6267E+00  2.6274E+00  1.9844E+00  3.3041E+00  3.8350E+00  3.3843E+00  3.9138E+00
 74  0.0000E+00  1.5394E+00  1.5034E+00  6.3735E-01  1.2359E+00  1.7570E+00  5.7628E-01  1.7858E+00  7.0519E-01
 75  0.0000E+00  8.3162E-01  7.9746E-01  0.0000E+00  4.0250E-01  2.8279E-01  0.0000E+00  3.9679E-01  5.2216E-02
 76  0.0000E+00  1.6953E-05  0.0000E+00  0.0000E+00  0.0000E+00  1.9905E-06  0.0000E+00  0.0000E+00  0.0000E+00
 77  0.0000E+00  4.9130E-06  0.0000E+00  0.0000E+00  0.0000E+00  0.0000E+00  0.0000E+00  0.0000E+00  0.0000E+00
 78  0.0000E+00  1.0447E-05  0.0000E+00  0.0000E+00  0.0000E+00  0.0000E+00  0.0000E+00  0.0000E+00  0.0000E+00
 79  0.0000E+00  5.1977E-05  1.5197E-05  0.0000E+00  0.0000E+00  0.0000E+00  0.0000E+00  0.0000E+00  0.0000E+00
 80  0.0000E+00  8.6207E-05  0.0000E+00  0.0000E+00  0.0000E+00  0.0000E+00  0.0000E+00  3.7156E-04  0.0000E+00
 81  0.0000E+00  4.9789E-05  0.0000E+00  0.0000E+00  0.0000E+00  0.0000E+00  0.0000E+00  0.0000E+00  5.1427E-05
 82  0.0000E+00  1.8554E-04  0.0000E+00  0.0000E+00  0.0000E+00  0.0000E+00  0.0000E+00  0.0000E+00  0.0000E+00
 83  2.0993E-07  9.6471E-04  0.0000E+00  0.0000E+00  3.0315E-03  0.0000E+00  4.9132E-03  0.0000E+00  8.1068E-04
 84  0.0000E+00  7.3370E-04  0.0000E+00  0.0000E+00  8.1419E-04  0.0000E+00  0.0000E+00  3.3676E-03  0.0000E+00
 85  0.0000E+00  8.8536E-04  3.4785E-03  0.0000E+00  0.0000E+00  2.2460E-03  9.7169E-04  0.0000E+00  0.0000E+00
 86  0.0000E+00  1.2129E-03  0.0000E+00  2.9744E-03  0.0000E+00  3.3652E-04  0.0000E+00  0.0000E+00  8.2132E-03
 87  0.0000E+00  1.6381E-03  1.3691E-03  0.0000E+00  6.0678E-03  0.0000E+00  0.0000E+00  0.0000E+00  1.1763E-02
 88  0.0000E+00  1.4967E-03  0.0000E+00  0.0000E+00  0.0000E+00  0.0000E+00  8.6045E-04  0.0000E+00  1.3700E-03
 89  0.0000E+00  1.8610E-03  0.0000E+00  2.1956E-02  0.0000E+00  3.9696E-03  0.0000E+00  0.0000E+00  1.3506E-02
 90  0.0000E+00  2.8510E-03  0.0000E+00  0.0000E+00  0.0000E+00  1.8293E-02  0.0000E+00  0.0000E+00  0.0000E+00
 91  0.0000E+00  3.9486E-03  0.0000E+00  0.0000E+00  0.0000E+00  0.0000E+00  0.0000E+00  0.0000E+00  0.0000E+00
 92  0.0000E+00  6.1639E-03  0.0000E+00  0.0000E+00  0.0000E+00  2.9647E-03  0.0000E+00  0.0000E+00  0.0000E+00
 93  0.0000E+00  6.4841E-02  1.3884E-01  5.5678E-02  0.0000E+00  0.0000E+00  7.8961E-02  5.6516E-02  0.0000E+00
 94  0.0000E+00  5.0388E-01  5.5847E-01  4.1170E-01  2.3989E-01  3.0004E-01  6.8883E-01  3.7503E-01  1.1332E+00
 95  3.4031E-03  1.2430E+00  1.0692E+00  0.0000E+00  1.4424E+00  7.5630E-01  1.2450E+00  1.3271E+00  1.3042E+00
 96  1.4740E+00  1.3084E+00  9.9269E-01  1.4481E+00  1.2389E+00  0.0000E+00  1.1826E+00  2.2656E+00  2.8082E+00
 97  6.4855E+00  2.1638E+00  3.6541E+00  2.8712E+00  2.6786E+00  1.0897E+00  2.1550E+00  2.0099E+00  1.8671E+00
 98  7.3462E+00  1.9030E+00  1.3395E+00  2.2098E+00  4.0773E+00  2.2693E+00  1.4851E+00  2.1644E+00  1.7547E+00
 99  0.0000E+00  1.1295E+00  0.0000E+00  1.2474E+00  3.7913E-01  3.2210E+00  2.0923E+00  1.2284E+00  0.0000E+00
100  3.7927E+00  2.1407E+00  2.3920E+00  2.4820E+00  2.5648E+00  3.1641E+00  3.3189E+00  0.0000E+00  1.0906E+00
101  0.0000E+00  9.4897E-06  0.0000E+00  0.0000E+00  0.0000E+00  0.0000E+00  0.0000E+00  0.0000E+00  0.0000E+00
102  0.0000E+00  2.5600E-06  0.0000E+00  0.0000E+00  0.0000E+00  0.0000E+00  0.0000E+00  0.0000E+00  0.0000E+00
103  0.0000E+00  4.3588E-05  0.0000E+00  0.0000E+00  0.0000E+00  0.0000E+00  0.0000E+00  0.0000E+00  0.0000E+00
104  0.0000E+00  5.9274E-05  0.0000E+00  0.0000E+00  2.2618E-04  0.0000E+00  0.0000E+00  2.0629E-05  0.0000E+00
105  0.0000E+00  2.9425E-05  0.0000E+00  0.0000E+00  0.0000E+00  0.0000E+00  0.0000E+00  0.0000E+00  4.2834E-04
106  0.0000E+00  3.8812E-05  0.0000E+00  0.0000E+00  0.0000E+00  0.0000E+00  0.0000E+00  0.0000E+00  7.5078E-05
107  0.0000E+00  7.6448E-05  0.0000E+00  3.1393E-04  0.0000E+00  0.0000E+00  3.3132E-05  0.0000E+00  0.0000E+00
108  0.0000E+00  2.0663E-05  0.0000E+00  0.0000E+00  0.0000E+00  0.0000E+00  3.5570E-04  0.0000E+00  0.0000E+00
109  0.0000E+00  1.1449E-04  0.0000E+00  0.0000E+00  0.0000E+00  0.0000E+00  0.0000E+00  0.0000E+00  0.0000E+00
110  0.0000E+00  2.3759E-04  0.0000E+00  0.0000E+00  0.0000E+00  0.0000E+00  0.0000E+00  1.6917E-04  0.0000E+00
111  0.0000E+00  5.2618E-04  2.9549E-03  0.0000E+00  0.0000E+00  0.0000E+00  0.0000E+00  0.0000E+00  0.0000E+00
112  0.0000E+00  6.3166E-04  0.0000E+00  0.0000E+00  0.0000E+00  0.0000E+00  0.0000E+00  0.0000E+00  0.0000E+00
113  0.0000E+00  6.0727E-04  0.0000E+00  0.0000E+00  0.0000E+00  0.0000E+00  0.0000E+00  0.0000E+00  0.0000E+00
114  0.0000E+00  9.8282E-04  0.0000E+00  0.0000E+00  0.0000E+00  0.0000E+00  0.0000E+00  0.0000E+00  0.0000E+00
115  0.0000E+00  2.9695E-03  1.3844E-02  0.0000E+00  0.0000E+00  0.0000E+00  0.0000E+00  0.0000E+00  0.0000E+00
116  0.0000E+00  1.3075E-02  0.0000E+00  0.0000E+00  0.0000E+00  6.0355E-03  0.0000E+00  0.0000E+00  0.0000E+00
117  0.0000E+00  1.3756E-02  0.0000E+00  0.0000E+00  0.0000E+00  0.0000E+00  0.0000E+00  0.0000E+00  0.0000E+00
118  0.0000E+00  4.4756E-02  0.0000E+00  3.5681E-02  5.0008E-03  0.0000E+00  0.0000E+00  0.0000E+00  0.0000E+00
119  0.0000E+00  1.0427E-01  0.0000E+00  0.0000E+00  0.0000E+00  0.0000E+00  0.0000E+00  0.0000E+00  0.0000E+00
120  0.0000E+00  1.4025E-01  0.0000E+00  5.5065E-01  0.0000E+00  0.0000E+00  4.7385E-01  0.0000E+00  0.0000E+00
121  0.0000E+00  1.0159E-01  0.0000E+00  1.0989E-01  0.0000E+00  0.0000E+00  3.0306E-01  0.0000E+00  0.0000E+00
122  0.0000E+00  4.5916E-02  0.0000E+00  0.0000E+00  0.0000E+00  0.0000E+00  4.7315E-02  0.0000E+00  0.0000E+00
123  0.0000E+00  2.7234E-01  0.0000E+00  1.7250E-01  0.0000E+00  0.0000E+00  0.0000E+00  0.0000E+00  0.0000E+00
124  0.0000E+00  7.4077E-02  0.0000E+00  0.0000E+00  0.0000E+00  1.2150E-01  0.0000E+00  0.0000E+00  5.2812E-02
125  0.0000E+00  5.6091E-02  0.0000E+00  0.0000E+00  0.0000E+00  0.0000E+00  0.0000E+00  0.0000E+00  0.0000E+00
126  0.0000E+00  5.5677E-06  0.0000E+00  0.0000E+00  0.0000E+00  0.0000E+00  0.0000E+00  0.0000E+00  0.0000E+00
127  0.0000E+00  1.0939E-05  0.0000E+00  0.0000E+00  0.0000E+00  0.0000E+00  0.0000E+00  0.0000E+00  1.8752E-06
128  0.0000E+00  1.8127E-05  0.0000E+00  0.0000E+00  0.0000E+00  0.0000E+00  0.0000E+00  0.0000E+00  0.0000E+00
129  0.0000E+00  1.7382E-05  0.0000E+00  0.0000E+00  0.0000E+00  2.8129E-06  0.0000E+00  0.0000E+00  0.0000E+00
130  0.0000E+00  1.7122E-05  0.0000E+00  0.0000E+00  0.0000E+00  0.0000E+00  0.0000E+00  0.0000E+00  0.0000E+00
131  0.0000E+00  1.9431E-05  0.0000E+00  0.0000E+00  0.0000E+00  0.0000E+00  0.0000E+00  0.0000E+00  0.0000E+00
132  0.0000E+00  2.1571E-05  0.0000E+00  0.0000E+00  0.0000E+00  0.0000E+00  0.0000E+00  0.0000E+00  0.0000E+00
133  0.0000E+00  1.0392E-04  0.0000E+00  0.0000E+00  0.0000E+00  0.0000E+00  0.0000E+00  0.0000E+00  0.0000E+00
134  0.0000E+00  2.4038E-04  0.0000E+00  0.0000E+00  1.9226E-04  0.0000E+00  0.0000E+00  0.0000E+00  0.0000E+00
135  0.0000E+00  3.0617E-04  0.0000E+00  0.0000E+00  0.0000E+00  0.0000E+00  0.0000E+00  0.0000E+00  0.0000E+00
136  0.0000E+00  6.2779E-04  0.0000E+00  0.0000E+00  0.0000E+00  0.0000E+00  0.0000E+00  0.0000E+00  0.0000E+00
137  0.0000E+00  6.1694E-04  0.0000E+00  8.9038E-06  0.0000E+00  0.0000E+00  0.0000E+00  1.4541E-04  0.0000E+00
138  0.0000E+00  1.5815E-03  0.0000E+00  7.1096E-03  0.0000E+00  1.7613E-03  4.8409E-03  0.0000E+00  0.0000E+00
139  0.0000E+00  3.0042E-03  0.0000E+00  1.9264E-02  0.0000E+00  2.8837E-04  0.0000E+00  0.0000E+00  0.0000E+00
140  0.0000E+00  1.4424E-02  0.0000E+00  1.2738E-02  0.0000E+00  0.0000E+00  0.0000E+00  2.1351E-02  0.0000E+00
141  6.1896E-02  1.2568E-01  1.0302E-01  8.8779E-02  1.2400E-01  4.4350E-01  0.0000E+00  0.0000E+00  0.0000E+00
142  1.3088E+00  2.1483E-01  2.7804E-01  0.0000E+00  2.0976E-01  0.0000E+00  0.0000E+00  4.9490E-01  2.4758E-01
143  0.0000E+00  4.3459E-01  8.0925E-01  7.8302E-01  1.5399E-01  2.5469E-01  3.8573E-01  3.5445E-01  6.9606E-01
144  0.0000E+00  3.5284E-01  7.5357E-01  4.3907E-01  0.0000E+00  3.6192E-01  1.0035E+00  0.0000E+00  0.0000E+00
145  0.0000E+00  2.3982E-01  0.0000E+00  0.0000E+00  5.4054E-01  3.3966E-01  2.6822E-01  9.6513E-01  0.0000E+00
146  0.0000E+00  4.4077E-01  0.0000E+00  1.1384E+00  0.0000E+00  0.0000E+00  0.0000E+00  0.0000E+00  0.0000E+00
147  2.2404E-04  1.2314E+00  1.4202E+00  1.1650E+00  1.3815E+00  1.0013E+00  1.4676E+00  3.1918E-01  2.3462E+00
148  0.0000E+00  8.4629E-01  0.0000E+00  8.1494E-01  0.0000E+00  3.0248E-02  9.5424E-01  2.6810E+00  1.1274E+00
149  1.9403E-03  2.1484E+00  1.6663E+00  2.1108E+00  2.7133E+00  2.1317E+00  1.8690E+00  0.0000E+00  3.0524E+00
150  0.0000E+00  1.9163E+00  1.9284E+00  1.6989E+00  3.5536E+00  2.2472E+00  0.0000E+00  3.6734E-01  1.3320E+00

# AV, chi2 & Mass for <> & i_chain = 1 ...  7 solutions
AV       0.1222      0.0870      0.0913      0.0886      0.0930      0.0920      0.0881      0.0876      0.0954
chi2 2.4932E+00  2.5771E+00  2.5599E+00  2.5630E+00  2.5452E+00  2.5570E+00  2.5643E+00  2.5689E+00  2.5671E+00
Mass 2.6748E-10  2.7747E-10  2.7101E-10  2.7400E-10  2.7863E-10  2.7705E-10  2.8069E-10  2.6657E-10  2.7047E-10
   0.83                                  [v0_min (km/s) before EX0s...]
  16.61                                  [vd_min (km/s) before EX0s...]


## Synthetic spectrum (Best Model) ##l_obs f_obs f_syn wei
 3070    [Nl_obs]
 3359.00    0.00000   0.44008   -2.000
 3360.00    0.00000   0.40888   -2.000
 3361.00    0.17466   0.41325   -1.000
 3362.00    0.27792   0.44449   -1.000
 3363.00    0.29886   0.48885   -1.000
 3364.00    0.31380   0.52055   -1.000
 3365.00    0.30912   0.52299   -1.000
 3366.00    0.31307   0.50992   -1.000
 3367.00    0.32348   0.49167   -1.000
 3368.00    0.32087   0.47327   -1.000
 3369.00    0.31352   0.46206   -1.000
 3370.00    0.29704   0.44318   -1.000
 3371.00    0.29629   0.42949   -1.000
 3372.00    0.30661   0.42981   -1.000
 3373.00    0.31900   0.45072   -1.000
 3374.00    0.33359   0.48178   -1.000
 3375.00    0.35461   0.51828   -1.000
 3376.00    0.37977   0.54028   -1.000
 3377.00    0.37667   0.53725   -1.000
 3378.00    0.36212   0.51504   -1.000
 3379.00    0.36792   0.49121   -1.000
 3380.00    0.38975   0.48198   -1.000
 3381.00    0.39461   0.48737   -1.000
 3382.00    0.39021   0.50188   -1.000
 3383.00    0.38014   0.51536   -1.000
 3384.00    0.41363   0.52375   -1.000
 3385.00    0.39555   0.53470   -1.000
 3386.00    0.39417   0.53447   -1.000
 3387.00    0.42470   0.52356   -1.000
 3388.00    0.44855   0.51563   -1.000
 3389.00    0.44738   0.52152   -1.000
 3390.00    0.44218   0.52906   -1.000
 3391.00    0.44121   0.53141   -1.000
 3392.00    0.43691   0.51621   -1.000
 3393.00    0.42455   0.50281   -1.000
 3394.00    0.40414   0.50939   -1.000
 3395.00    0.44948   0.52913   41.414
 3396.00    0.47291   0.55452   27.620
 3397.00    0.46976   0.57496   26.176
 3398.00    0.49561   0.58953   25.180
 3399.00    0.52511   0.59300   24.420
 3400.00    0.52164   0.58502   23.556
 3401.00    0.50082   0.57188   23.052
 3402.00    0.50724   0.54778   23.091
 3403.00    0.50837   0.53340   23.833
 3404.00    0.49032   0.52569   24.358
 3405.00    0.48533   0.52884   24.721
 3406.00    0.48738   0.52690   25.168
 3407.00    0.46490   0.51863   25.595
 3408.00    0.44748   0.51015   25.813
 3409.00    0.45464   0.51252   26.125
 3410.00    0.47096   0.52787   26.364
 3411.00    0.47410   0.53025   26.301
 3412.00    0.47996   0.52186   25.711
 3413.00    0.47412   0.50607   25.310
 3414.00    0.47449   0.50042   25.962
 3415.00    0.47875   0.51186   26.674
 3416.00    0.47869   0.52891   26.796
 3417.00    0.47628   0.54443   26.328
 3418.00    0.49165   0.55936   25.349
 3419.00    0.50332   0.57269   24.182
 3420.00    0.50617   0.58191   22.985
 3421.00    0.51726   0.57947   22.524
 3422.00    0.51947   0.56287   22.398
 3423.00    0.51415   0.54397   22.433
 3424.00    0.51950   0.53770   22.913
 3425.00    0.51593   0.54320   23.489
 3426.00    0.50687   0.55058   23.224
 3427.00    0.50733   0.56080   22.586
 3428.00    0.54407   0.58210   22.301
 3429.00    0.55718   0.60331   52.338
 3430.00    0.56174   0.61096   -1.000
 3431.00    0.54350   0.59092   -1.000
 3432.00    0.52030   0.56471   -1.000
 3433.00    0.51317   0.55063   -1.000
 3434.00    0.51805   0.55942   33.103
 3435.00    0.51978   0.57917   22.254
 3436.00    0.55160   0.58376   51.865
 3437.00    0.54942   0.57223  198.451
 3438.00    0.52023   0.55078   32.933
 3439.00    0.50196   0.52476   22.851
 3440.00    0.49121   0.49560   24.120
 3441.00    0.47871   0.47023   25.871
 3442.00    0.46266   0.46184   27.290
 3443.00    0.45011   0.46797   27.707
 3444.00    0.46337   0.48269   27.643
 3445.00    0.48404   0.50000   26.885
 3446.00    0.50108   0.52462   25.548
 3447.00    0.52358   0.55483   24.138
 3448.00    0.54883   0.58009   23.124
 3449.00    0.55305   0.59478   52.514
 3450.00    0.55931   0.58717   -1.000
 3451.00    0.56214   0.56427  198.451
 3452.00    0.55153   0.54128   -1.000
 3453.00    0.53636   0.53462  198.451
 3454.00    0.53304   0.54283  198.451
 3455.00    0.54316   0.55630  198.451
 3456.00    0.54094   0.56210  198.451
 3457.00    0.55543   0.55423  198.451
 3458.00    0.56273   0.54035   -1.000
 3459.00    0.54746   0.52685   -1.000
 3460.00    0.53463   0.51195   33.384
 3461.00    0.54311   0.50604   22.449
 3462.00    0.55733   0.52283   22.465
 3463.00    0.56072   0.54314   51.107
 3464.00    0.55843   0.55262  198.451
 3465.00    0.57146   0.54664   -1.000
 3466.00    0.57317   0.54227   -1.000
 3467.00    0.56660   0.55249   -1.000
 3468.00    0.58062   0.57108   -1.000
 3469.00    0.59643   0.58850  196.324
 3470.00    0.60501   0.59482   -1.000
 3471.00    0.60727   0.58743   -1.000
 3472.00    0.60159   0.57135   -1.000
 3473.00    0.56823   0.54520   -1.000
 3474.00    0.54767   0.51696   -1.000
 3475.00    0.51823   0.49878   -1.000
 3476.00    0.50603   0.49865   33.932
 3477.00    0.51654   0.52040   22.967
 3478.00    0.53319   0.54604   22.967
 3479.00    0.55281   0.56584   50.963
 3480.00    0.56669   0.57900  198.451
 3481.00    0.59573   0.58069   -1.000
 3482.00    0.61157   0.57304   -1.000
 3483.00    0.60001   0.56329   -1.000
 3484.00    0.59060   0.55849   -1.000
 3485.00    0.60477   0.56812   -1.000
 3486.00    0.61827   0.58828   -1.000
 3487.00    0.62103   0.59473   -1.000
 3488.00    0.61346   0.58257   -1.000
 3489.00    0.60068   0.55689   -1.000
 3490.00    0.57654   0.53516   -1.000
 3491.00    0.55551   0.53394   -1.000
 3492.00    0.54927   0.54573  198.451
 3493.00    0.55492   0.55321  198.451
 3494.00    0.56182   0.55097   -1.000
 3495.00    0.56275   0.53959   -1.000
 3496.00    0.54362   0.52670   -1.000
 3497.00    0.53675   0.53081  198.451
 3498.00    0.55320   0.54727  198.451
 3499.00    0.57009   0.56610  198.451
 3500.00    0.60576   0.57271   -1.000
 3501.00    0.62191   0.57359   -1.000
 3502.00    0.61886   0.57994   -1.000
 3503.00    0.62763   0.58668   -1.000
 3504.00    0.62390   0.58618   -1.000
 3505.00    0.61538   0.57519   -1.000
 3506.00    0.60699   0.56420   -1.000
 3507.00    0.59220   0.56016   -1.000
 3508.00    0.60064   0.55985   -1.000
 3509.00    0.61701   0.56016   -1.000
 3510.00    0.60677   0.55505   -1.000
 3511.00    0.59506   0.54864   -1.000
 3512.00    0.57251   0.54081   -1.000
 3513.00    0.56726   0.52841   -1.000
 3514.00    0.57296   0.52605   -1.000
 3515.00    0.58150   0.54076   -1.000
 3516.00    0.60277   0.57291   -1.000
 3517.00    0.61826   0.60181   -1.000
 3518.00    0.62713   0.60869   -1.000
 3519.00    0.61453   0.59115   -1.000
 3520.00    0.59639   0.56541   -1.000
 3521.00    0.59016   0.54598   -1.000
 3522.00    0.57667   0.53449   -1.000
 3523.00    0.56492   0.52092   -1.000
 3524.00    0.54168   0.50419   -1.000
 3525.00    0.51685   0.49294   34.591
 3526.00    0.51510   0.50181   22.729
 3527.00    0.53320   0.52596   22.960
 3528.00    0.57207   0.55613   49.418
 3529.00    0.61138   0.57956   -1.000
 3530.00    0.61933   0.59012   -1.000
 3531.00    0.61899   0.59133   -1.000
 3532.00    0.61620   0.58540   -1.000
 3533.00    0.61575   0.57624   -1.000
 3534.00    0.62672   0.57406   -1.000
 3535.00    0.63744   0.57705   -1.000
 3536.00    0.62450   0.58885   -1.000
 3537.00    0.61714   0.60511  179.037
 3538.00    0.63125   0.61892  178.574
 3539.00    0.62852   0.62852  177.813
 3540.00    0.63211   0.62567  175.642
 3541.00    0.64831   0.61707   -1.000
 3542.00    0.63573   0.61553   -1.000
 3543.00    0.62381   0.62284  180.603
 3544.00    0.63362   0.63194  180.507
 3545.00    0.63696   0.63201  178.372
 3546.00    0.62852   0.62573  176.962
 3547.00    0.62304   0.61809  178.730
 3548.00    0.61644   0.61477  182.553
 3549.00    0.60210   0.61831  184.667
 3550.00    0.60023   0.62462   -1.000
 3551.00    0.60420   0.62888   -1.000
 3552.00    0.60156   0.62010   -1.000
 3553.00    0.58450   0.60420   -1.000
 3554.00    0.57113   0.59366   -1.000
 3555.00    0.59162   0.59564  198.451
 3556.00    0.60404   0.60473  198.451
 3557.00    0.59107   0.61272   -1.000
 3558.00    0.59038   0.61368   -1.000
 3559.00    0.59397   0.61082   -1.000
 3560.00    0.60107   0.61198  198.451
 3561.00    0.60673   0.62060  198.451
 3562.00    0.61642   0.62633  195.891
 3563.00    0.60912   0.61686  193.899
 3564.00    0.58353   0.58222  193.861
 3565.00    0.55464   0.54559   -1.000
 3566.00    0.52139   0.53024   35.631
 3567.00    0.51272   0.53180   23.010
 3568.00    0.51920   0.53554   23.236
 3569.00    0.51490   0.52645   23.044
 3570.00    0.51004   0.51063   23.452
 3571.00    0.51569   0.50748   24.042
 3572.00    0.52175   0.51589   23.767
 3573.00    0.53809   0.52679   22.824
 3574.00    0.54563   0.53436   46.858
 3575.00    0.55262   0.54106   -1.000
 3576.00    0.55799   0.54971  198.451
 3577.00    0.55474   0.55579  198.451
 3578.00    0.55179   0.55456  198.451
 3579.00    0.55237   0.53776   -1.000
 3580.00    0.53703   0.51420   37.194
 3581.00    0.50044   0.49509   24.277
 3582.00    0.48936   0.48864   25.871
 3583.00    0.49578   0.49687   26.555
 3584.00    0.49453   0.49544   26.684
 3585.00    0.47716   0.47852   27.122
 3586.00    0.45792   0.46069   27.933
 3587.00    0.46620   0.45668   28.550
 3588.00    0.48338   0.47422   27.847
 3589.00    0.49467   0.50552   26.384
 3590.00    0.52484   0.53846   25.056
 3591.00    0.55935   0.56260   23.220
 3592.00    0.58347   0.57108   45.867
 3593.00    0.58991   0.57077   -1.000
 3594.00    0.58897   0.57354   -1.000
 3595.00    0.59868   0.58925  196.297
 3596.00    0.61349   0.60713  191.240
 3597.00    0.63015   0.61856  183.207
 3598.00    0.64366   0.62589   -1.000
 3599.00    0.65058   0.62974   -1.000
 3600.00    0.64653   0.62732   -1.000
 3601.00    0.63415   0.60846   -1.000
 3602.00    0.60138   0.58430   -1.000
 3603.00    0.57214   0.56470  182.827
 3604.00    0.56611   0.56015  192.021
 3605.00    0.57175   0.56591  197.625
 3606.00    0.57443   0.56702  198.451
 3607.00    0.57259   0.56016  198.451
 3608.00    0.55992   0.54660   -1.000
 3609.00    0.55308   0.53762   -1.000
 3610.00    0.54909   0.54272  198.451
 3611.00    0.55545   0.55477  198.451
 3612.00    0.56566   0.56581  198.451
 3613.00    0.56699   0.57522  198.451
 3614.00    0.57164   0.58749  193.612
 3615.00    0.58704   0.60684   -1.000
 3616.00    0.59628   0.60893  184.186
 3617.00    0.58242   0.58157  181.531
 3618.00    0.56152   0.54741   -1.000
 3619.00    0.54662   0.53225   -1.000
 3620.00    0.54748   0.54856   36.361
 3621.00    0.56612   0.57706   44.627
 3622.00    0.58784   0.60004  197.156
 3623.00    0.61452   0.61226  183.311
 3624.00    0.63095   0.62179  176.389
 3625.00    0.63710   0.64352  173.380
 3626.00    0.65357   0.66941  168.759
 3627.00    0.66202   0.69130   -1.000
 3628.00    0.64369   0.68744   -1.000
 3629.00    0.60989   0.65061   -1.000
 3630.00    0.57783   0.59639  165.137
 3631.00    0.56039   0.55817  180.602
 3632.00    0.55743   0.55387  198.451
 3633.00    0.55911   0.57361  198.451
 3634.00    0.56405   0.59314   -1.000
 3635.00    0.58047   0.60039   -1.000
 3636.00    0.60556   0.60292  191.978
 3637.00    0.61780   0.61731  185.967
 3638.00    0.62684   0.63771  177.924
 3639.00    0.64530   0.65621  169.733
 3640.00    0.64854   0.66262  163.210
 3641.00    0.64789   0.65341  160.738
 3642.00    0.63311   0.63315  162.967
 3643.00    0.60439   0.61212  167.898
 3644.00    0.59345   0.59743  175.512
 3645.00    0.59067   0.59018  182.644
 3646.00    0.58261   0.58271  186.707
 3647.00    0.57249   0.57738  189.691
 3648.00    0.56868   0.57759  192.921
 3649.00    0.57432   0.58172  194.570
 3650.00    0.59841   0.59164  191.591
 3651.00    0.62419   0.60857   -1.000
 3652.00    0.63729   0.63001  176.521
 3653.00    0.64629   0.64826  168.604
 3654.00    0.65339   0.66126  163.198
 3655.00    0.65886   0.67064  160.191
 3656.00    0.66537   0.68137  158.925
 3657.00    0.67346   0.68995  157.666
 3658.00    0.67575   0.69257  155.938
 3659.00    0.67688   0.69270  153.729
 3660.00    0.67457   0.69019  152.654
 3661.00    0.66591   0.68100  152.744
 3662.00    0.65553   0.66915  153.681
 3663.00    0.64454   0.65842  155.374
 3664.00    0.63265   0.65634   -1.000
 3665.00    0.63711   0.66125   -1.000
 3666.00    0.65691   0.66431  158.911
 3667.00    0.65803   0.66213  158.081
 3668.00    0.64481   0.64915  159.999
 3669.00    0.62923   0.63815  162.517
 3670.00    0.62761   0.63946  165.529
 3671.00    0.64616   0.65301  166.783
 3672.00    0.65944   0.66902  162.714
 3673.00    0.66163   0.67642  158.137
 3674.00    0.66309   0.67438  156.441
 3675.00    0.65861   0.66456  156.199
 3676.00    0.64132   0.64650  156.387
 3677.00    0.63461   0.62678  159.213
 3678.00    0.62529   0.60951  164.219
 3679.00    0.61086   0.60444  169.262
 3680.00    0.62020   0.60827  173.945
 3681.00    0.62859   0.61598  175.656
 3682.00    0.63036   0.62647  172.824
 3683.00    0.63909   0.63193  167.990
 3684.00    0.63493   0.62963  164.948
 3685.00    0.61321   0.61273  166.477
 3686.00    0.60230   0.59506  172.113
 3687.00    0.60860   0.59011   -1.000
 3688.00    0.61751   0.60619  184.348
 3689.00    0.62800   0.63498  182.895
 3690.00    0.64429   0.66123  173.721
 3691.00    0.66619   0.67423  162.142
 3692.00    0.67458   0.67224  154.632
 3693.00    0.67011   0.66644  153.197
 3694.00    0.67049   0.66319  156.101
 3695.00    0.67751   0.66255  159.284
 3696.00    0.67743   0.65973   -1.000
 3697.00    0.68021   0.65996   -1.000
 3698.00    0.69582   0.67655   -1.000
 3699.00    0.71005   0.70123  153.298
 3700.00    0.72860   0.72163  148.857
 3701.00    0.73050   0.71648  146.071
 3702.00    0.69990   0.67716   -1.000
 3703.00    0.64894   0.62436   -1.000
 3704.00    0.60603   0.57828   -1.000
 3705.00    0.58403   0.55746   -1.000
 3706.00    0.57803   0.56323   -1.000
 3707.00    0.59520   0.57981   -1.000
 3708.00    0.60755   0.59567  191.230
 3709.00    0.61267   0.60226  187.811
 3710.00    0.62372   0.60116   -1.000
 3711.00    0.63534   0.60331   -1.000
 3712.00    0.64991   0.62208   -1.000
 3713.00    0.66935   0.65478  159.629
 3714.00    0.69815   0.69089  151.313
 3715.00    0.72405   0.71537  145.987
 3716.00    0.72908   0.72095  144.110
 3717.00    0.71521   0.70824  145.961
 3718.00    0.67769   0.67459  151.318
 3719.00    0.61965   0.61116  162.120
 3720.00    0.55837   0.54030   -1.000
 3721.00    0.51840   0.49986   -1.000
 3722.00    0.53064   0.50634   39.413
 3723.00    0.57320   0.55122   42.401
 3724.00    0.62804   0.61800  197.181
 3725.00    0.68345   0.66550   -1.000
 3726.00    0.69696   0.67775   -1.000
 3727.00    0.68857   0.67725  161.229
 3728.00    0.69075   0.68064  164.690
 3729.00    0.69373   0.68687  168.014
 3730.00    0.68328   0.68485  167.123
 3731.00    0.65847   0.65510  166.690
 3732.00    0.61271   0.59111   -1.000
 3733.00    0.55063   0.52244   -1.000
 3734.00    0.49756   0.46783   38.644
 3735.00    0.47340   0.44890   23.496
 3736.00    0.49434   0.47360   25.338
 3737.00    0.54335   0.52871   25.089
 3738.00    0.59478   0.59367   23.216
 3739.00    0.64868   0.65909   40.918
 3740.00    0.69036   0.70003  185.054
 3741.00    0.69914   0.71059  170.706
 3742.00    0.68719   0.69362  165.558
 3743.00    0.66718   0.66447  168.555
 3744.00    0.64213   0.63346  177.376
 3745.00    0.61806   0.60762   -1.000
 3746.00    0.59200   0.58234  198.451
 3747.00    0.55778   0.54952  198.451
 3748.00    0.51753   0.50734   39.836
 3749.00    0.49387   0.47652   23.219
 3750.00    0.51284   0.47911   24.083
 3751.00    0.57201   0.52551   44.448
 3752.00    0.63752   0.59227   -1.000
 3753.00    0.68338   0.66196   -1.000
 3754.00    0.71825   0.71305  164.766
 3755.00    0.75022   0.73760  154.379
 3756.00    0.74664   0.72756   -1.000
 3757.00    0.69827   0.69051  151.848
 3758.00    0.65997   0.65178  166.271
 3759.00    0.65459   0.63694   -1.000
 3760.00    0.66388   0.64542   -1.000
 3761.00    0.69103   0.66424   -1.000
 3762.00    0.70942   0.67841   -1.000
 3763.00    0.70976   0.68536   -1.000
 3764.00    0.70874   0.68533   -1.000
 3765.00    0.69551   0.67614   -1.000
 3766.00    0.67204   0.65974  169.738
 3767.00    0.65462   0.63814   -1.000
 3768.00    0.64764   0.60838   -1.000
 3769.00    0.63110   0.57895   -1.000
 3770.00    0.61885   0.55681   -1.000
 3771.00    0.63045   0.56502   -1.000
 3772.00    0.65866   0.60445   -1.000
 3773.00    0.69961   0.65418   -1.000
 3774.00    0.71666   0.68727   -1.000
 3775.00    0.72465   0.70508   -1.000
 3776.00    0.74421   0.71546   -1.000
 3777.00    0.75392   0.73188   -1.000
 3778.00    0.77278   0.75700   -1.000
 3779.00    0.79857   0.78242   -1.000
 3780.00    0.82185   0.80527   -1.000
 3781.00    0.83127   0.81642  143.742
 3782.00    0.82389   0.81916  141.631
 3783.00    0.82879   0.81611  140.750
 3784.00    0.82970   0.80637   -1.000
 3785.00    0.80316   0.78169   -1.000
 3786.00    0.77435   0.75231   -1.000
 3787.00    0.74939   0.72422   -1.000
 3788.00    0.72825   0.70781   -1.000
 3789.00    0.72632   0.70497   -1.000
 3790.00    0.72937   0.70930   -1.000
 3791.00    0.73558   0.71158   -1.000
 3792.00    0.73292   0.70173   -1.000
 3793.00    0.70171   0.67777   -1.000
 3794.00    0.67004   0.64282   -1.000
 3795.00    0.64449   0.60312   -1.000
 3796.00    0.60792   0.56365   -1.000
 3797.00    0.56905   0.52069   -1.000
 3798.00    0.55211   0.49918   -1.000
 3799.00    0.57758   0.52343   -1.000
 3800.00    0.62891   0.58745   -1.000
 3801.00    0.67801   0.65870   -1.000
 3802.00    0.72663   0.71800  174.793
 3803.00    0.75632   0.74905  164.051
 3804.00    0.76972   0.76316  158.735
 3805.00    0.78107   0.75969   -1.000
 3806.00    0.77112   0.74747   -1.000
 3807.00    0.76029   0.74804  161.611
 3808.00    0.77070   0.76663  166.341
 3809.00    0.79064   0.79430  165.686
 3810.00    0.81395   0.81373  160.169
 3811.00    0.81963   0.81015  156.136
 3812.00    0.79275   0.78123  156.832
 3813.00    0.75949   0.74258   -1.000
 3814.00    0.73458   0.70831   -1.000
 3815.00    0.72058   0.69681   -1.000
 3816.00    0.72674   0.71100  192.403
 3817.00    0.74511   0.73111  195.044
 3818.00    0.75224   0.73553  189.437
 3819.00    0.73142   0.71235   -1.000
 3820.00    0.70348   0.68438   -1.000
 3821.00    0.69484   0.67875   -1.000
 3822.00    0.70796   0.69299   -1.000
 3823.00    0.71485   0.69711   -1.000
 3824.00    0.69116   0.67306   -1.000
 3825.00    0.65807   0.64195   -1.000
 3826.00    0.63774   0.62228   43.261
 3827.00    0.63000   0.61322   23.486
 3828.00    0.63168   0.61032   23.637
 3829.00    0.63123   0.60571   23.336
 3830.00    0.62049   0.59577   22.953
 3831.00    0.59802   0.57169   22.901
 3832.00    0.55619   0.53629   23.563
 3833.00    0.51024   0.48782   25.041
 3834.00    0.48646   0.45107   26.467
 3835.00    0.48478   0.44080   26.599
 3836.00    0.49419   0.45209   25.780
 3837.00    0.51123   0.47493   24.965
 3838.00    0.52845   0.50135   24.949
 3839.00    0.55348   0.52811   25.533
 3840.00    0.58538   0.56362   25.623
 3841.00    0.62001   0.61085   24.643
 3842.00    0.66383   0.65966   41.447
 3843.00    0.71374   0.70624  198.451
 3844.00    0.75013   0.73422   -1.000
 3845.00    0.76639   0.74832   -1.000
 3846.00    0.77205   0.76070  180.242
 3847.00    0.77594   0.77447  180.229
 3848.00    0.78327   0.77756  180.340
 3849.00    0.76886   0.77000  182.640
 3850.00    0.74482   0.76428   -1.000
 3851.00    0.74965   0.77289   -1.000
 3852.00    0.77081   0.79217   -1.000
 3853.00    0.78323   0.80582   -1.000
 3854.00    0.78302   0.79922   -1.000
 3855.00    0.76398   0.78308   -1.000
 3856.00    0.74723   0.76566   -1.000
 3857.00    0.74291   0.74860  198.451
 3858.00    0.72653   0.72896  198.451
 3859.00    0.70041   0.71562   41.862
 3860.00    0.69026   0.72350   22.656
 3861.00    0.71840   0.75022   23.157
 3862.00    0.76695   0.78514   39.140
 3863.00    0.79610   0.80467  194.353
 3864.00    0.80184   0.80396  179.915
 3865.00    0.79856   0.79817  176.362
 3866.00    0.80223   0.79512  178.788
 3867.00    0.80122   0.79694  181.981
 3868.00    0.78670   0.80086   -1.000
 3869.00    0.76910   0.79502   -1.000
 3870.00    0.74549   0.77479   -1.000
 3871.00    0.71897   0.74645   -1.000
 3872.00    0.70974   0.72256   42.968
 3873.00    0.72367   0.71767   38.186
 3874.00    0.74977   0.73834  198.451
 3875.00    0.76876   0.76198  186.978
 3876.00    0.76409   0.76038  174.844
 3877.00    0.73307   0.73396  174.012
 3878.00    0.69611   0.70873  183.867
 3879.00    0.68840   0.70090  198.137
 3880.00    0.69894   0.70844  198.451
 3881.00    0.69649   0.71266  198.451
 3882.00    0.68448   0.70486   -1.000
 3883.00    0.68178   0.69451  198.451
 3884.00    0.69082   0.67800   -1.000
 3885.00    0.66963   0.64510   -1.000
 3886.00    0.62019   0.59300   -1.000
 3887.00    0.58360   0.54047   -1.000
 3888.00    0.55413   0.50771   -1.000
 3889.00    0.55026   0.51023   -1.000
 3890.00    0.57519   0.54834   -1.000
 3891.00    0.63086   0.61052   -1.000
 3892.00    0.69138   0.66419   -1.000
 3893.00    0.71813   0.68822   -1.000
 3894.00    0.72844   0.69560   -1.000
 3895.00    0.73515   0.70436   -1.000
 3896.00    0.75222   0.72333   -1.000
 3897.00    0.77654   0.74232   -1.000
 3898.00    0.78651   0.75291   -1.000
 3899.00    0.77932   0.75400   -1.000
 3900.00    0.77835   0.75975  148.085
 3901.00    0.79249   0.77191   -1.000
 3902.00    0.80392   0.77790   -1.000
 3903.00    0.78655   0.77451  146.320
 3904.00    0.76427   0.76021  150.011
 3905.00    0.75378   0.75207  155.274
 3906.00    0.76605   0.75760  159.430
 3907.00    0.79003   0.78124  161.428
 3908.00    0.80921   0.81810  156.099
 3909.00    0.83412   0.84739  146.156
 3910.00    0.84983   0.86138  139.251
 3911.00    0.85893   0.86758  136.979
 3912.00    0.85821   0.86766  135.739
 3913.00    0.83951   0.85971  134.668
 3914.00    0.81550   0.84627   -1.000
 3915.00    0.80295   0.83586   -1.000
 3916.00    0.80973   0.83230   -1.000
 3917.00    0.81863   0.82772  142.832
 3918.00    0.82096   0.81559  144.664
 3919.00    0.80314   0.79918  147.645
 3920.00    0.77438   0.78407  153.015
 3921.00    0.76831   0.77669  160.097
 3922.00    0.77799   0.78018  165.804
 3923.00    0.78221   0.78971  166.890
 3924.00    0.77877   0.79078  164.576
 3925.00    0.75671   0.77857   -1.000
 3926.00    0.72033   0.74766   -1.000
 3927.00    0.68228   0.70236   -1.000
 3928.00    0.62707   0.64629   -1.000
 3929.00    0.55517   0.58673   48.630
 3930.00    0.48596   0.51854   26.327
 3931.00    0.42354   0.43656   30.841
 3932.00    0.36334   0.35346   36.249
 3933.00    0.31046   0.29470   42.704
 3934.00    0.30514   0.28971   48.539
 3935.00    0.34695   0.34281   50.013
 3936.00    0.40898   0.42840   45.695
 3937.00    0.48250   0.51698   38.703
 3938.00    0.55735   0.60173   31.882
 3939.00    0.62624   0.66497   26.481
 3940.00    0.67468   0.71116   39.398
 3941.00    0.69680   0.73616   -1.000
 3942.00    0.71532   0.74515   -1.000
 3943.00    0.72425   0.74654   -1.000
 3944.00    0.73542   0.75324   -1.000
 3945.00    0.76213   0.77143  184.369
 3946.00    0.79233   0.79318  171.386
 3947.00    0.81116   0.80418  158.234
 3948.00    0.80358   0.80535  152.454
 3949.00    0.79979   0.80751  151.132
 3950.00    0.81812   0.81201  148.015
 3951.00    0.82878   0.81190  142.778
 3952.00    0.82006   0.80987  140.468
 3953.00    0.81796   0.81724  141.817
 3954.00    0.83610   0.82582  141.877
 3955.00    0.83358   0.82195  138.829
 3956.00    0.80746   0.80727  137.523
 3957.00    0.80220   0.79513  140.641
 3958.00    0.81465   0.79530   -1.000
 3959.00    0.80396   0.79082  144.736
 3960.00    0.75786   0.76069  144.681
 3961.00    0.70630   0.71379  153.188
 3962.00    0.67171   0.66665  171.276
 3963.00    0.63446   0.62916  191.962
 3964.00    0.57751   0.59049  198.451
 3965.00    0.50922   0.52852   47.297
 3966.00    0.43587   0.44022   24.728
 3967.00    0.35581   0.34318   29.610
 3968.00    0.29026   0.27791   36.439
 3969.00    0.27724   0.26252   42.805
 3970.00    0.31867   0.30459   43.846
 3971.00    0.39519   0.38270   38.464
 3972.00    0.48293   0.47289   31.627
 3973.00    0.56021   0.55094   26.209
 3974.00    0.62961   0.62150   37.977
 3975.00    0.69343   0.67672  194.082
 3976.00    0.73954   0.72556  172.987
 3977.00    0.77289   0.76408  157.491
 3978.00    0.81106   0.80015  146.547
 3979.00    0.84151   0.83090  138.373
 3980.00    0.86001   0.84492  131.035
 3981.00    0.86979   0.84452   -1.000
 3982.00    0.86660   0.84047   -1.000
 3983.00    0.86974   0.84352   -1.000
 3984.00    0.88467   0.85882   -1.000
 3985.00    0.90242   0.87566   -1.000
 3986.00    0.90851   0.88846  124.214
 3987.00    0.91813   0.90053  121.958
 3988.00    0.93697   0.91216  119.831
 3989.00    0.94422   0.91809  118.019
 3990.00    0.94228   0.92193  117.578
 3991.00    0.95698   0.93061   -1.000
 3992.00    0.96829   0.94355  115.899
 3993.00    0.96946   0.95343  113.115
 3994.00    0.95731   0.95042  112.112
 3995.00    0.94070   0.93435  114.116
 3996.00    0.93294   0.91153  116.851
 3997.00    0.91514   0.89944  119.351
 3998.00    0.91596   0.90621  121.087
 3999.00    0.93909   0.92553  120.461
 4000.00    0.96588   0.94732  116.435
 4001.00    0.98441   0.96366  111.634
 4002.00    0.99319   0.96809  108.733
 4003.00    0.98241   0.95784  107.107
 4004.00    0.95464   0.93283  107.112
 4005.00    0.92101   0.90183  111.435
 4006.00    0.91422   0.89848  118.414
 4007.00    0.94005   0.92161  121.513
 4008.00    0.98094   0.95403  117.768
 4009.00    0.99680   0.97473  111.766
 4010.00    0.99740   0.98252  108.635
 4011.00    1.00735   0.98379  107.365
 4012.00    1.00133   0.98215  106.547
 4013.00    0.98472   0.98180  106.678
 4014.00    0.97348   0.98498  107.391
 4015.00    0.99273   0.98923  107.385
 4016.00    1.02604   0.99136   -1.000
 4017.00    1.00096   0.99094  105.732
 4018.00    0.99528   0.99685  106.863
 4019.00    1.00206   1.00433  107.425
 4020.00    1.01105   1.01023  106.383
 4021.00    1.00502   1.00723  105.503
 4022.00    0.99453   1.00021  106.335
 4023.00    0.99402   0.99273  107.538
 4024.00    0.98726   0.98531  108.180
 4025.00    0.99563   0.98741  108.949
 4026.00    1.01619   1.00218  108.302
 4027.00    1.02860   1.02301  105.040
 4028.00    1.02688   1.02368  101.943
 4029.00    1.00195   1.00054  101.142
 4030.00    0.96830   0.96475  103.445
 4031.00    0.94981   0.93369  108.942
 4032.00    0.94354   0.92112  115.341
 4033.00    0.94351   0.92412  118.719
 4034.00    0.94699   0.94070  118.858
 4035.00    0.98315   0.96775  116.289
 4036.00    1.02445   1.00224  111.602
 4037.00    1.04517   1.03726  106.043
 4038.00    1.05604   1.05265  101.439
 4039.00    1.04365   1.04429   99.206
 4040.00    1.02019   1.02999   99.903
 4041.00    1.00961   1.02097  102.194
 4042.00    1.01317   1.01424  104.105
 4043.00    0.99899   0.99172  104.955
 4044.00    0.95235   0.94069  107.272
 4045.00    0.89808   0.90093  114.649
 4046.00    0.90006   0.89828  125.134
 4047.00    0.95171   0.93561  128.597
 4048.00    1.00457   0.98431  119.919
 4049.00    1.02546   1.01863  109.961
 4050.00    1.02448   1.03017  104.813
 4051.00    1.02973   1.02905  102.606
 4052.00    1.02412   1.01803  102.218
 4053.00    1.00567   1.00074  103.808
 4054.00    0.99291   0.98932  106.653
 4055.00    0.98568   0.98414  108.972
 4056.00    0.97836   0.97876  110.311
 4057.00    0.97336   0.97550  111.120
 4058.00    0.98083   0.98110  112.037
 4059.00    1.00000   1.00042  112.209
 4060.00    1.00811   1.01582  109.695
 4061.00    1.00042   1.00466  106.384
 4062.00    0.97158   0.96793  105.877
 4063.00    0.93438   0.92914  110.090
 4064.00    0.92784   0.91351  118.178
 4065.00    0.94988   0.91972   -1.000
 4066.00    0.96946   0.93657   -1.000
 4067.00    0.98584   0.95301   -1.000
 4068.00    1.00252   0.96840   -1.000
 4069.00    1.01249   0.97522   -1.000
 4070.00    1.00440   0.96230   -1.000
 4071.00    0.97123   0.93641   -1.000
 4072.00    0.95702   0.92526   -1.000
 4073.00    0.97747   0.93763   -1.000
 4074.00    0.98709   0.95044   -1.000
 4075.00    0.96185   0.94013  108.140
 4076.00    0.91539   0.90894  109.882
 4077.00    0.89296   0.88147  116.916
 4078.00    0.89581   0.87866  124.541
 4079.00    0.92714   0.90667  124.997
 4080.00    0.97579   0.95035   -1.000
 4081.00    1.00248   0.97751  110.590
 4082.00    1.00466   0.97843  104.669
 4083.00    0.98505   0.96025  103.497
 4084.00    0.96626   0.94304  106.058
 4085.00    0.96706   0.94139   -1.000
 4086.00    0.98732   0.95654   -1.000
 4087.00    1.02218   0.98014   -1.000
 4088.00    1.03577   0.99804   -1.000
 4089.00    1.02949   1.00148   -1.000
 4090.00    1.01471   0.99135   97.421
 4091.00    0.99986   0.97836   98.552
 4092.00    0.98667   0.96912  100.560
 4093.00    0.98114   0.95615   -1.000
 4094.00    0.96987   0.94074   -1.000
 4095.00    0.94189   0.91565   -1.000
 4096.00    0.91433   0.88779   -1.000
 4097.00    0.89327   0.86016   -1.000
 4098.00    0.87604   0.82703   -1.000
 4099.00    0.83564   0.78053   -1.000
 4100.00    0.75378   0.70974   -1.000
 4101.00    0.69251   0.65411   -1.000
 4102.00    0.68663   0.64243   -1.000
 4103.00    0.73666   0.68944   -1.000
 4104.00    0.81225   0.76553   -1.000
 4105.00    0.87457   0.83473   -1.000
 4106.00    0.91111   0.87356   -1.000
 4107.00    0.93001   0.89628   -1.000
 4108.00    0.94124   0.90563   -1.000
 4109.00    0.93528   0.90870   -1.000
 4110.00    0.92708   0.91502  109.970
 4111.00    0.93549   0.92470  111.955
 4112.00    0.95390   0.94037  112.427
 4113.00    0.96919   0.95669  110.511
 4114.00    0.98248   0.97605  108.214
 4115.00    0.99016   0.99097  106.443
 4116.00    0.99527   0.99424  105.039
 4117.00    0.99198   0.98462  104.613
 4118.00    0.98708   0.97087  105.813
 4119.00    0.97520   0.95900  108.618
 4120.00    0.96914   0.95932  111.436
 4121.00    0.97572   0.96678  111.652
 4122.00    0.97276   0.97254  110.283
 4123.00    0.97426   0.97791  109.621
 4124.00    0.98826   0.98632  109.272
 4125.00    0.99894   0.99485  107.770
 4126.00    1.00331   0.99427  106.419
 4127.00    0.99189   0.98538  106.769
 4128.00    0.98004   0.97734  108.581
 4129.00    0.97402   0.97680  110.415
 4130.00    0.97182   0.97181  111.161
 4131.00    0.96750   0.95558  112.026
 4132.00    0.94239   0.93739  114.250
 4133.00    0.92815   0.93329  117.924
 4134.00    0.94339   0.95163  120.385
 4135.00    0.97683   0.97867  118.989
 4136.00    1.00354   1.00674  114.159
 4137.00    1.02008   1.02630  109.108
 4138.00    1.03211   1.04132  106.274
 4139.00    1.03771   1.05147  104.617
 4140.00    1.02558   1.04533  103.436
 4141.00    1.00648   1.01659  103.985
 4142.00    0.96468   0.97943  107.398
 4143.00    0.92710   0.94710  114.384
 4144.00    0.92742   0.94541  122.903
 4145.00    0.96189   0.97113  125.156
 4146.00    0.99686   1.00127  119.193
 4147.00    1.00737   1.01401  112.963
 4148.00    1.00933   1.01011  109.933
 4149.00    1.00084   1.00537  110.037
 4150.00    0.98787   1.00698  112.581
 4151.00    0.98540   1.00992   -1.000
 4152.00    0.98973   1.00577  115.686
 4153.00    0.98614   0.99336  114.853
 4154.00    0.97124   0.98110  114.829
 4155.00    0.95875   0.97800  116.250
 4156.00    0.96023   0.98651   -1.000
 4157.00    0.96673   0.99911   -1.000
 4158.00    1.00272   1.01480  114.041
 4159.00    1.16210   1.02724   -1.000
 4160.00    1.27952   1.03468   -1.000
 4161.00    0.97975   1.03830   -1.000
 4162.00    0.73395   1.04228   -1.000
 4163.00    0.98351   1.04870   -1.000
 4164.00    1.07944   1.05330  105.973
 4165.00    1.00914   1.05041   -1.000
 4166.00    0.99375   1.03713   -1.000
 4167.00    0.99278   1.02557   -1.000
 4168.00    0.99997   1.02238  112.956
 4169.00    0.99752   1.02269   -1.000
 4170.00    0.98280   1.01137   -1.000
 4171.00    0.95038   0.98159   -1.000
 4172.00    0.91483   0.94617   -1.000
 4173.00    0.90385   0.93289   -1.000
 4174.00    0.92117   0.94509   -1.000
 4175.00    0.94236   0.97273   -1.000
 4176.00    0.95597   0.98585   -1.000
 4177.00    0.95325   0.98844   -1.000
 4178.00    0.95328   0.99259   -1.000
 4179.00    0.97386   1.00275   -1.000
 4180.00    0.98238   1.01293   -1.000
 4181.00    0.97421   1.00854   -1.000
 4182.00    0.97466   0.99965   -1.000
 4183.00    0.98351   1.00432  114.501
 4184.00    0.99108   1.01507   -1.000
 4185.00    0.98777   1.01650   -1.000
 4186.00    0.97363   1.00446   -1.000
 4187.00    0.96110   0.98875   -1.000
 4188.00    0.96297   0.98567   -1.000
 4189.00    0.97953   0.99450  116.310
 4190.00    0.98994   1.00336  114.585
 4191.00    0.98753   1.01024   -1.000
 4192.00    0.99570   1.01927   -1.000
 4193.00    1.01020   1.02826  109.837
 4194.00    1.01430   1.02894  107.750
 4195.00    0.99024   1.01216  107.925
 4196.00    0.95941   0.98559   -1.000
 4197.00    0.94637   0.96262  117.350
 4198.00    0.93693   0.94836  120.539
 4199.00    0.92799   0.94103  121.962
 4200.00    0.93593   0.94389  121.609
 4201.00    0.94245   0.95000  120.007
 4202.00    0.94852   0.95311  118.618
 4203.00    0.96129   0.96187  118.190
 4204.00    0.96948   0.97855  117.022
 4205.00    0.96848   0.99454   -1.000
 4206.00    0.97655   1.00905   -1.000
 4207.00    0.98925   1.02219   -1.000
 4208.00    0.99621   1.02832   -1.000
 4209.00    0.99705   1.02687   -1.000
 4210.00    0.98577   1.02490   -1.000
 4211.00    0.99023   1.02890   -1.000
 4212.00    0.99683   1.03856   -1.000
 4213.00    0.99138   1.03407   -1.000
 4214.00    0.96942   1.00995   -1.000
 4215.00    0.94402   0.98698   -1.000
 4216.00    0.92901   0.97477   -1.000
 4217.00    0.95867   0.98758   -1.000
 4218.00    0.98827   1.01411   -1.000
 4219.00    1.00985   1.03513  105.910
 4220.00    1.02024   1.04564  101.885
 4221.00    1.02994   1.04454   99.693
 4222.00    1.01308   1.02800   99.339
 4223.00    0.97597   0.99106  101.366
 4224.00    0.93508   0.93442  106.631
 4225.00    0.87515   0.87727  115.234
 4226.00    0.81772   0.84068   -1.000
 4227.00    0.81997   0.85051   -1.000
 4228.00    0.88369   0.91040   -1.000
 4229.00    0.96790   0.97949  133.792
 4230.00    1.02213   1.01902  117.035
 4231.00    1.01894   1.02250  107.206
 4232.00    0.99852   1.00946  103.374
 4233.00    0.98059   0.99278  103.749
 4234.00    0.96981   0.97835  106.327
 4235.00    0.97221   0.97276  108.559
 4236.00    0.96303   0.97093  110.065
 4237.00    0.95463   0.97122  112.519
 4238.00    0.96087   0.98213  113.571
 4239.00    0.96859   0.99533   -1.000
 4240.00    0.98520   1.01079   -1.000
 4241.00    0.99122   1.02389   -1.000
 4242.00    0.99599   1.03205   -1.000
 4243.00    1.00039   1.03694   -1.000
 4244.00    1.00966   1.03931   -1.000
 4245.00    1.00039   1.03657   -1.000
 4246.00    0.97674   1.01643   -1.000
 4247.00    0.94882   0.98868   -1.000
 4248.00    0.93955   0.96896   -1.000
 4249.00    0.94022   0.96141  111.662
 4250.00    0.94024   0.96697   -1.000
 4251.00    0.95239   0.98149   -1.000
 4252.00    0.97978   0.99655  113.215
 4253.00    0.98846   0.99684  109.859
 4254.00    0.97786   0.98632  107.983
 4255.00    0.96730   0.98566  109.494
 4256.00    0.99202   1.00142  111.125
 4257.00    1.00306   1.01386  108.543
 4258.00    0.98167   1.00160  105.288
 4259.00    0.94276   0.97191   -1.000
 4260.00    0.92226   0.95371   -1.000
 4261.00    0.93970   0.96326   -1.000
 4262.00    0.97585   0.99726  116.628
 4263.00    1.00460   1.03030  111.009
 4264.00    1.02284   1.05072  104.533
 4265.00    1.02991   1.05149  100.461
 4266.00    1.03029   1.04516   98.878
 4267.00    1.01357   1.03398   99.306
 4268.00    0.99791   1.01561  101.540
 4269.00    0.98228   0.98818  104.896
 4270.00    0.93823   0.95354  108.343
 4271.00    0.90592   0.92248  113.483
 4272.00    0.89715   0.90653  120.983
 4273.00    0.90621   0.91152  126.467
 4274.00    0.91450   0.92908  126.210
 4275.00    0.93401   0.95232  123.121
 4276.00    0.96846   0.98590  119.217
 4277.00    0.99932   1.01993  112.973
 4278.00    1.00294   1.03305   -1.000
 4279.00    0.97689   1.02158   -1.000
 4280.00    0.95735   1.00097   -1.000
 4281.00    0.94848   0.98794   -1.000
 4282.00    0.94899   0.99061   -1.000
 4283.00    0.96476   0.99339   -1.000
 4284.00    0.96372   0.98903  109.760
 4285.00    0.94431   0.98095   -1.000
 4286.00    0.92885   0.96691   -1.000
 4287.00    0.91934   0.94886   -1.000
 4288.00    0.89432   0.92540   -1.000
 4289.00    0.87196   0.89545   -1.000
 4290.00    0.86597   0.88406  125.008
 4291.00    0.87684   0.90154   -1.000
 4292.00    0.91478   0.93138  127.293
 4293.00    0.93236   0.95144  120.088
 4294.00    0.93123   0.94773  114.059
 4295.00    0.92259   0.93813  113.084
 4296.00    0.91194   0.92529  114.504
 4297.00    0.88639   0.90211  116.655
 4298.00    0.84835   0.86599  120.334
 4299.00    0.80283   0.82739   -1.000
 4300.00    0.77916   0.80238   -1.000
 4301.00    0.78542   0.79687  146.399
 4302.00    0.79487   0.80485  145.945
 4303.00    0.80779   0.81811  142.042
 4304.00    0.82244   0.83471  139.967
 4305.00    0.83081   0.84129  137.972
 4306.00    0.82060   0.82834  137.015
 4307.00    0.80197   0.80706  138.954
 4308.00    0.77995   0.78944  144.770
 4309.00    0.77780   0.79382  151.465
 4310.00    0.80734   0.81616  152.956
 4311.00    0.83289   0.84449  147.996
 4312.00    0.84504   0.86585   -1.000
 4313.00    0.86298   0.88976   -1.000
 4314.00    0.89337   0.92389   -1.000
 4315.00    0.94594   0.97186   -1.000
 4316.00    1.00036   1.02653  110.871
 4317.00    1.03770   1.06409  101.477
 4318.00    1.04545   1.07428   95.148
 4319.00    1.03590   1.06593   92.953
 4320.00    1.01452   1.05118   -1.000
 4321.00    0.99426   1.02953   -1.000
 4322.00    0.97755   0.99582   97.751
 4323.00    0.93708   0.95070  101.562
 4324.00    0.89188   0.90537  107.376
 4325.00    0.86703   0.88213  115.952
 4326.00    0.88492   0.89876  124.827
 4327.00    0.94123   0.94836  125.497
 4328.00    0.99099   0.99629  115.243
 4329.00    1.01157   1.01882  104.059
 4330.00    1.00161   1.01755   98.390
 4331.00    0.98907   1.01326   97.401
 4332.00    0.99072   1.01556   97.624
 4333.00    0.99466   1.01674   96.680
 4334.00    0.98731   1.00901   95.142
 4335.00    0.96651   0.98446   94.433
 4336.00    0.93241   0.93849   94.800
 4337.00    0.87288   0.86540   97.800
 4338.00    0.80455   0.78063  105.241
 4339.00    0.74092   0.71397   -1.000
 4340.00    0.69596   0.68446  125.933
 4341.00    0.71303   0.70871  134.167
 4342.00    0.78096   0.78152  133.005
 4343.00    0.85324   0.85966  121.634
 4344.00    0.90856   0.91259  110.879
 4345.00    0.94140   0.94907  105.235
 4346.00    0.96316   0.97529  102.181
 4347.00    0.97980   1.00020   99.727
 4348.00    0.99250   1.01825   98.272
 4349.00    0.99973   1.01916   97.091
 4350.00    0.97518   0.99200   96.007
 4351.00    0.93238   0.95588   97.795
 4352.00    0.91807   0.93796  104.040
 4353.00    0.93950   0.95190  110.143
 4354.00    0.98211   0.98931  109.562
 4355.00    1.01006   1.02062  104.676
 4356.00    1.01369   1.03636  100.360
 4357.00    1.02146   1.04089   97.633
 4358.00    1.02056   1.03792   96.242
 4359.00    1.00741   1.03343   96.972
 4360.00    1.01793   1.03943   98.931
 4361.00    1.03543   1.05532   99.184
 4362.00    1.05189   1.07019   96.796
 4363.00    1.06060   1.07932   94.330
 4364.00    1.05277   1.08593   93.569
 4365.00    1.05911   1.08537   93.020
 4366.00    1.04615   1.07129   92.211
 4367.00    1.01298   1.05062   -1.000
 4368.00    1.00589   1.03673   -1.000
 4369.00    1.00940   1.03034   99.056
 4370.00    1.01351   1.02772   99.432
 4371.00    1.01564   1.02447   98.460
 4372.00    1.01183   1.01302   98.022
 4373.00    0.99638   0.99306   98.262
 4374.00    0.95790   0.96801  100.141
 4375.00    0.94872   0.95920  104.383
 4376.00    0.97185   0.97943  107.376
 4377.00    1.01544   1.01424  105.932
 4378.00    1.03414   1.04090  101.068
 4379.00    1.04033   1.04703   96.882
 4380.00    1.03276   1.03555   95.964
 4381.00    1.02366   1.00159   96.963
 4382.00    0.97039   0.94724   99.531
 4383.00    0.90077   0.89032  106.061
 4384.00    0.87467   0.86992  118.317
 4385.00    0.90758   0.89669  128.391
 4386.00    0.95987   0.94709  125.188
 4387.00    0.99173   0.98216  113.024
 4388.00    0.99644   0.99361  104.320
 4389.00    1.00193   0.99415  102.192
 4390.00    0.99452   0.99380  102.702
 4391.00    1.00250   0.99953  103.656
 4392.00    1.01757   1.01014  103.287
 4393.00    1.02383   1.01188  101.074
 4394.00    1.00621   1.00064   99.593
 4395.00    0.99373   0.99594  100.844
 4396.00    1.01658   1.01316  102.451
 4397.00    1.04028   1.03319  100.705
 4398.00    1.04343   1.03515   96.345
 4399.00    1.01871   1.02029   94.759
 4400.00    0.99130   1.00498   96.889
 4401.00    1.00465   1.00382  100.417
 4402.00    1.02005   1.00860  102.215
 4403.00    1.01404   1.00172  100.622
 4404.00    0.98887   0.98167  100.193
 4405.00    0.98202   0.96910  104.644
 4406.00    0.99894   0.97501  109.505
 4407.00    1.00213   0.99003  108.840
 4408.00    0.99729   0.99953  105.523
 4409.00    1.01042   1.01530  104.266
 4410.00    1.02490   1.04641  102.511
 4411.00    1.05276   1.07342   98.293
 4412.00    1.07934   1.07912   94.300
 4413.00    1.06543   1.06248   91.707
 4414.00    1.04034   1.03025   91.665
 4415.00    1.00641   0.99467   95.074
 4416.00    0.98807   0.98432  100.209
 4417.00    1.01548   1.00350  102.583
 4418.00    1.04417   1.03738  100.960
 4419.00    1.06976   1.07031   97.099
 4420.00    1.07036   1.08528   93.380
 4421.00    1.05564   1.07761   91.648
 4422.00    1.05447   1.06341   92.844
 4423.00    1.05774   1.05724   95.210
 4424.00    1.05845   1.05774   96.285
 4425.00    1.04807   1.05612   95.642
 4426.00    1.04044   1.04954   95.399
 4427.00    1.03957   1.04992   95.828
 4428.00    1.04800   1.05619   95.988
 4429.00    1.04705   1.06242   95.335
 4430.00    1.03444   1.06636   -1.000
 4431.00    1.03723   1.06766   -1.000
 4432.00    1.04999   1.06628   96.090
 4433.00    1.03579   1.05341   94.977
 4434.00    1.00838   1.02835   95.244
 4435.00    1.00063   1.01153   99.023
 4436.00    1.01703   1.02324  103.013
 4437.00    1.05589   1.06160  102.548
 4438.00    1.09280   1.09680   97.588
 4439.00    1.09651   1.11148   91.968
 4440.00    1.07782   1.09677   89.123
 4441.00    1.04041   1.06300   89.829
 4442.00    1.00635   1.02901   93.227
 4443.00    0.99672   1.01771   97.673
 4444.00    1.00818   1.03569   -1.000
 4445.00    1.03541   1.06783   -1.000
 4446.00    1.05652   1.09328   -1.000
 4447.00    1.06707   1.10021   92.255
 4448.00    1.07062   1.09937   91.071
 4449.00    1.07355   1.09786   91.236
 4450.00    1.06506   1.09517   91.624
 4451.00    1.06336   1.09069   92.666
 4452.00    1.06335   1.08452   93.163
 4453.00    1.04910   1.06577   92.700
 4454.00    1.01788   1.03407   94.094
 4455.00    0.99658   1.01126   97.959
 4456.00    1.00984   1.01044  101.927
 4457.00    1.02393   1.02500  102.924
 4458.00    1.02652   1.03570  100.961
 4459.00    1.02151   1.03719   99.627
 4460.00    1.02343   1.03597   99.903
 4461.00    1.01360   1.03684  100.574
 4462.00    1.02374   1.04412  101.622
 4463.00    1.04396   1.05937  101.789
 4464.00    1.05821   1.07402   99.109
 4465.00    1.06894   1.08065   95.490
 4466.00    1.06610   1.07661   93.846
 4467.00    1.05714   1.06475   93.868
 4468.00    1.04251   1.05164   94.182
 4469.00    1.02717   1.04714   95.498
 4470.00    1.02875   1.05675   -1.000
 4471.00    1.05516   1.08103   97.117
 4472.00    1.08136   1.10629   95.233
 4473.00    1.10978   1.12622   92.073
 4474.00    1.11348   1.13303   89.042
 4475.00    1.11471   1.13276   87.063
 4476.00    1.11334   1.13214   86.628
 4477.00    1.11659   1.13372   86.612
 4478.00    1.12145   1.12998   85.860
 4479.00    1.09453   1.11098   85.679
 4480.00    1.06160   1.07894   87.086
 4481.00    1.03697   1.05506   90.635
 4482.00    1.03503   1.05378   94.442
 4483.00    1.06197   1.07577   96.125
 4484.00    1.09513   1.10899   94.117
 4485.00    1.11546   1.13567   90.090
 4486.00    1.11894   1.14466   87.066
 4487.00    1.10528   1.13435   85.748
 4488.00    1.08391   1.11328   86.405
 4489.00    1.05666   1.09411   -1.000
 4490.00    1.06040   1.08983   91.979
 4491.00    1.07651   1.10243   93.280
 4492.00    1.08658   1.11746   -1.000
 4493.00    1.08316   1.11786   -1.000
 4494.00    1.07123   1.10389   -1.000
 4495.00    1.07026   1.09402   90.517
 4496.00    1.07306   1.09604   93.194
 4497.00    1.09028   1.10633   94.445
 4498.00    1.11917   1.11680   92.725
 4499.00    1.12289   1.12188   89.545
 4500.00    1.10838   1.11535   87.433
 4501.00    1.08959   1.11066   87.070
 4502.00    1.09310   1.12150   88.080
 4503.00    1.11672   1.14212   87.878
 4504.00    1.13388   1.16292   85.280
 4505.00    1.13564   1.17057   82.636
 4506.00    1.13646   1.16667   81.711
 4507.00    1.12913   1.15592   82.626
 4508.00    1.12569   1.14934   84.188
 4509.00    1.13275   1.15059   84.789
 4510.00    1.13875   1.15572   84.654
 4511.00    1.13976   1.15598   83.978
 4512.00    1.12310   1.14779   83.688
 4513.00    1.11090   1.13845   84.684
 4514.00    1.11221   1.13037   86.384
 4515.00    1.10904   1.12478   87.691
 4516.00    1.11028   1.12357   87.961
 4517.00    1.10384   1.12240   87.557
 4518.00    1.08683   1.11625   87.767
 4519.00    1.09506   1.11342   88.781
 4520.00    1.11021   1.11808   88.810
 4521.00    1.09796   1.12258   87.137
 4522.00    1.08257   1.11885   -1.000
 4523.00    1.07287   1.10651   86.598
 4524.00    1.07079   1.09692   88.691
 4525.00    1.07304   1.08994   90.242
 4526.00    1.05728   1.07805   91.119
 4527.00    1.04350   1.05970   92.967
 4528.00    1.04010   1.03953   95.848
 4529.00    1.03345   1.03452   98.205
 4530.00    1.03802   1.04098   98.883
 4531.00    1.05762   1.05386   97.841
 4532.00    1.06450   1.05713   96.054
 4533.00    1.04327   1.04317   94.574
 4534.00    1.01648   1.02603   94.837
 4535.00    1.02320   1.02392   97.796
 4536.00    1.06333   1.04819  100.155
 4537.00    1.09770   1.08649   97.617
 4538.00    1.12273   1.12227   91.793
 4539.00    1.12221   1.13602   87.010
 4540.00    1.11230   1.13169   85.484
 4541.00    1.10589   1.12305   86.736
 4542.00    1.10530   1.12042   88.437
 4543.00    1.10468   1.12349   88.107
 4544.00    1.08968   1.12054   87.505
 4545.00    1.07523   1.11044   -1.000
 4546.00    1.09001   1.10361   88.983
 4547.00    1.07554   1.09716   45.230
 4548.00    0.72706   1.08159   -1.000
 4549.00    0.03157   1.06219   -1.000
 4550.00    0.02391   1.05638   -1.000
 4551.00    0.38742   1.07283   -1.000
 4552.00    0.84957   1.08863   -1.000
 4553.00    0.38281   1.08483   -1.000
 4554.00    0.97901   1.07271   -1.000
 4555.00    1.06837   1.06648   93.187
 4556.00    1.07588   1.07811   93.544
 4557.00    1.09879   1.10529   91.599
 4558.00    1.10481   1.12876   88.079
 4559.00    1.11386   1.14189   84.929
 4560.00    1.13130   1.14895   83.933
 4561.00    1.13168   1.15058   84.391
 4562.00    1.11876   1.14296   84.326
 4563.00    1.10316   1.12591   84.750
 4564.00    1.09070   1.10897   86.857
 4565.00    1.08892   1.10442   88.898
 4566.00    1.10132   1.11447   89.876
 4567.00    1.11893   1.13373   88.498
 4568.00    1.13392   1.14632   86.168
 4569.00    1.13156   1.14595   84.169
 4570.00    1.11215   1.13169   83.744
 4571.00    1.08208   1.11169   84.992
 4572.00    1.07743   1.09977   87.233
 4573.00    1.10354   1.11047   88.951
 4574.00    1.11887   1.13163   87.744
 4575.00    1.12082   1.14169   85.270
 4576.00    1.11452   1.14107   84.373
 4577.00    1.10839   1.13645   84.549
 4578.00    1.10382   1.12833   84.975
 4579.00    1.09308   1.11217   85.659
 4580.00    1.07776   1.09397   87.391
 4581.00    1.07176   1.08059   89.919
 4582.00    1.07568   1.07749   91.322
 4583.00    1.07590   1.07902   90.762
 4584.00    1.07921   1.08341   89.549
 4585.00    1.08477   1.08771   89.098
 4586.00    1.09467   1.09324   89.466
 4587.00    1.10772   1.10272   89.696
 4588.00    1.12339   1.11565   88.146
 4589.00    1.11888   1.12427   85.863
 4590.00    1.10953   1.12496   84.384
 4591.00    1.10035   1.11884   84.596
 4592.00    1.09246   1.10819   85.970
 4593.00    1.09482   1.10254   87.575
 4594.00    1.09078   1.10660   88.832
 4595.00    1.10819   1.11285   88.684
 4596.00    1.12488   1.11903   87.900
 4597.00    1.11945   1.12425   87.298
 4598.00    1.11975   1.12573   87.098
 4599.00    1.11675   1.12178   86.914
 4600.00    1.10990   1.11434   86.896
 4601.00    1.10225   1.10620   87.714
 4602.00    1.10048   1.10355   88.402
 4603.00    1.10542   1.10630   88.402
 4604.00    1.11422   1.11191   87.395
 4605.00    1.12013   1.11741   86.618
 4606.00    1.12078   1.12107   86.766
 4607.00    1.13860   1.12859   86.456
 4608.00    1.14025   1.13827   85.332
 4609.00    1.14358   1.14906   83.580
 4610.00    1.14655   1.15501   81.930
 4611.00    1.13970   1.14722   81.245
 4612.00    1.13235   1.13949   81.810
 4613.00    1.13142   1.13436   82.938
 4614.00    1.13717   1.13380   83.779
 4615.00    1.13488   1.13578   84.129
 4616.00    1.13060   1.13531   83.605
 4617.00    1.12193   1.13245   82.917
 4618.00    1.11845   1.12828   82.764
 4619.00    1.12098   1.12599   83.375
 4620.00    1.12890   1.13001   83.873
 4621.00    1.13608   1.14120   83.629
 4622.00    1.14428   1.15105   82.697
 4623.00    1.14362   1.15190   81.581
 4624.00    1.14158   1.14606   81.664
 4625.00    1.14186   1.14226   81.872
 4626.00    1.12838   1.13814   82.134
 4627.00    1.13600   1.13700   82.826
 4628.00    1.13411   1.13630   82.955
 4629.00    1.12288   1.13506   83.001
 4630.00    1.12942   1.13546   83.508
 4631.00    1.14014   1.14125   83.562
 4632.00    1.14490   1.14631   83.016
 4633.00    1.13645   1.14283   82.256
 4634.00    1.12891   1.13514   82.838
 4635.00    1.12542   1.13084   84.045
 4636.00    1.12278   1.12936   84.783
 4637.00    1.12352   1.12522   84.784
 4638.00    1.11664   1.12160   85.589
 4639.00    1.12125   1.12085   86.617
 4640.00    1.13308   1.12726   86.848
 4641.00    1.15426   1.13883   86.470
 4642.00    1.16113   1.14959   84.819
 4643.00    1.16017   1.15319   82.862
 4644.00    1.14556   1.14530   82.020
 4645.00    1.13616   1.13279   82.627
 4646.00    1.12341   1.11489   84.364
 4647.00    1.10573   1.09891   86.785
 4648.00    1.11382   1.09884   88.848
 4649.00    1.12345   1.11214   88.790
 4650.00    1.12901   1.12795   87.034
 4651.00    1.12820   1.13751   85.112
 4652.00    1.12629   1.13707   84.157
 4653.00    1.12578   1.13262   84.058
 4654.00    1.11243   1.12297   84.071
 4655.00    1.10019   1.11398   85.290
 4656.00    1.09647   1.11133   87.167
 4657.00    1.10725   1.11943   87.826
 4658.00    1.13433   1.13923   86.643
 4659.00    1.16289   1.16457   83.683
 4660.00    1.17627   1.17754   80.663
 4661.00    1.16793   1.17499   79.198
 4662.00    1.15264   1.16239   79.376
 4663.00    1.14544   1.14883   80.572
 4664.00    1.15056   1.13695   82.549
 4665.00    1.14045   1.12320   83.925
 4666.00    1.10490   1.10267   84.228
 4667.00    1.08180   1.07775   86.028
 4668.00    1.07797   1.06366   89.851
 4669.00    1.08330   1.07302   93.010
 4670.00    1.11019   1.09456   92.432
 4671.00    1.13751   1.11686   89.276
 4672.00    1.14336   1.12937   85.694
 4673.00    1.14529   1.13297   83.729
 4674.00    1.14063   1.13510   83.412
 4675.00    1.14600   1.14123   83.480
 4676.00    1.16240   1.15026   83.226
 4677.00    1.15949   1.14909   82.062
 4678.00    1.14310   1.13563   81.068
 4679.00    1.13337   1.11949   81.773
 4680.00    1.12759   1.10672   83.605
 4681.00    1.12504   1.10070   85.207
 4682.00    1.12630   1.10185   86.512
 4683.00    1.13160   1.11053   87.023
 4684.00    1.15037   1.12146   85.662
 4685.00    1.15238   1.12814   83.598
 4686.00    1.15585   1.12954   82.767
 4687.00    1.14930   1.12892   83.086
 4688.00    1.14064   1.12773   83.167
 4689.00    1.14212   1.12671   83.600
 4690.00    1.13444   1.12582   83.577
 4691.00    1.12754   1.12230   83.675
 4692.00    1.12849   1.12162   84.250
 4693.00    1.14915   1.12710   84.224
 4694.00    1.15892   1.13341   83.122
 4695.00    1.17382   1.13728   -1.000
 4696.00    1.17346   1.13987   -1.000
 4697.00    1.15578   1.13511   79.263
 4698.00    1.14474   1.12068   80.002
 4699.00    1.13720   1.10712   82.441
 4700.00    1.12834   1.09751   84.720
 4701.00    1.12382   1.09078   -1.000
 4702.00    1.11412   1.08199   84.789
 4703.00    1.10767   1.07513   -1.000
 4704.00    1.10542   1.08017   87.043
 4705.00    1.11967   1.09354   87.128
 4706.00    1.13116   1.09920   85.412
 4707.00    1.11927   1.09241   84.519
 4708.00    1.10574   1.08114   85.911
 4709.00    1.10497   1.07926   87.541
 4710.00    1.11652   1.08953   88.150
 4711.00    1.13907   1.10357   -1.000
 4712.00    1.15969   1.11683   -1.000
 4713.00    1.14980   1.11772   82.546
 4714.00    1.13584   1.10939   82.030
 4715.00    1.13897   1.10610   -1.000
 4716.00    1.14812   1.11309   -1.000
 4717.00    1.16762   1.12815   -1.000
 4718.00    1.17076   1.13835   -1.000
 4719.00    1.16367   1.14404   80.905
 4720.00    1.15949   1.14505   80.493
 4721.00    1.15241   1.14353   80.219
 4722.00    1.15400   1.14038   80.074
 4723.00    1.15615   1.14033   80.798
 4724.00    1.16441   1.14522   81.222
 4725.00    1.17049   1.14728   80.632
 4726.00    1.15370   1.14208   79.869
 4727.00    1.13310   1.12714   80.287
 4728.00    1.11825   1.10799   82.491
 4729.00    1.12497   1.09819   85.535
 4730.00    1.13273   1.09798   -1.000
 4731.00    1.13177   1.09930   86.558
 4732.00    1.12835   1.10542   85.671
 4733.00    1.12875   1.11441   84.962
 4734.00    1.13500   1.11968   83.954
 4735.00    1.13976   1.11937   83.275
 4736.00    1.12833   1.11606   82.817
 4737.00    1.12968   1.11288   82.529
 4738.00    1.13774   1.11420   83.396
 4739.00    1.14407   1.12036   83.301
 4740.00    1.13852   1.12440   82.297
 4741.00    1.14523   1.12354   82.455
 4742.00    1.14175   1.12529   82.913
 4743.00    1.15612   1.13092   82.900
 4744.00    1.15980   1.13559   82.161
 4745.00    1.14914   1.13779   81.384
 4746.00    1.15857   1.13900   81.598
 4747.00    1.16674   1.14306   81.577
 4748.00    1.16793   1.15134   80.900
 4749.00    1.16989   1.15504   80.150
 4750.00    1.16730   1.15781   80.054
 4751.00    1.15729   1.15919   80.184
 4752.00    1.15800   1.15605   80.297
 4753.00    1.15363   1.14699   80.954
 4754.00    1.14710   1.13715   81.864
 4755.00    1.14551   1.13230   82.521
 4756.00    1.15245   1.13278   82.994
 4757.00    1.14082   1.13695   82.863
 4758.00    1.13451   1.14186   83.250
 4759.00    1.14896   1.14659   83.823
 4760.00    1.15584   1.14798   83.789
 4761.00    1.13469   1.14083   83.113
 4762.00    1.10836   1.12511   83.165
 4763.00    1.09792   1.10591   84.640
 4764.00    1.10356   1.09694   86.690
 4765.00    1.11311   1.09562   87.629
 4766.00    1.12417   1.09989   87.670
 4767.00    1.14001   1.10826   87.422
 4768.00    1.14965   1.12328   86.713
 4769.00    1.15890   1.13932   85.388
 4770.00    1.16035   1.14907   83.491
 4771.00    1.14820   1.14649   82.524
 4772.00    1.14490   1.14082   82.798
 4773.00    1.15394   1.13901   83.534
 4774.00    1.16582   1.14758   84.081
 4775.00    1.16846   1.15764   82.916
 4776.00    1.16900   1.16092   81.233
 4777.00    1.16857   1.16029   80.815
 4778.00    1.15757   1.15651   80.930
 4779.00    1.15318   1.15025   81.209
 4780.00    1.14702   1.14326   81.800
 4781.00    1.15085   1.14153   82.696
 4782.00    1.14909   1.14096   83.127
 4783.00    1.14245   1.13671   83.342
 4784.00    1.14008   1.13229   83.791
 4785.00    1.13831   1.12875   84.407
 4786.00    1.12167   1.12444   84.365
 4787.00    1.10733   1.11977   84.730
 4788.00    1.11881   1.11991   85.569
 4789.00    1.12188   1.12292   85.979
 4790.00    1.12888   1.12758   85.825
 4791.00    1.13983   1.13613   85.374
 4792.00    1.15428   1.14804   84.802
 4793.00    1.15864   1.15972   83.843
 4794.00    1.16724   1.17153   82.386
 4795.00    1.16815   1.17962   80.565
 4796.00    1.15946   1.17894   79.320
 4797.00    1.15322   1.17070   79.200
 4798.00    1.14731   1.15851   80.138
 4799.00    1.13390   1.14690   81.794
 4800.00    1.13480   1.14430   83.261
 4801.00    1.14627   1.15212   84.044
 4802.00    1.16384   1.16491   83.114
 4803.00    1.16999   1.17142   81.430
 4804.00    1.15582   1.16480   80.418
 4805.00    1.14559   1.15330   80.701
 4806.00    1.13723   1.14666   81.831
 4807.00    1.14267   1.14572   82.845
 4808.00    1.15117   1.14759   83.505
 4809.00    1.14897   1.15229   83.423
 4810.00    1.14867   1.15667   83.188
 4811.00    1.15899   1.15918   82.767
 4812.00    1.16050   1.16063   82.010
 4813.00    1.16261   1.16333   81.449
 4814.00    1.17626   1.16739   81.073
 4815.00    1.17383   1.17169   81.000
 4816.00    1.17128   1.17661   80.786
 4817.00    1.17894   1.18155   80.470
 4818.00    1.18100   1.18324   79.951
 4819.00    1.18080   1.18127   79.472
 4820.00    1.17130   1.18001   79.186
 4821.00    1.16390   1.17663   79.176
 4822.00    1.15832   1.16461   79.245
 4823.00    1.14009   1.14536   80.109
 4824.00    1.12733   1.12891   82.258
 4825.00    1.14024   1.12940   83.633
 4826.00    1.15851   1.14265   83.261
 4827.00    1.15245   1.15230   81.736
 4828.00    1.15668   1.15354   80.628
 4829.00    1.16324   1.14801   81.104
 4830.00    1.15260   1.14455   82.057
 4831.00    1.14501   1.14048   82.495
 4832.00    1.14161   1.13407   82.514
 4833.00    1.15043   1.13304   83.270
 4834.00    1.16187   1.13674   83.244
 4835.00    1.16095   1.14326   81.853
 4836.00    1.16541   1.14656   80.848
 4837.00    1.15697   1.14525   80.627
 4838.00    1.14725   1.14254   80.803
 4839.00    1.14337   1.13500   81.264
 4840.00    1.14335   1.12618   82.445
 4841.00    1.13589   1.12178   83.824
 4842.00    1.13933   1.12218   83.778
 4843.00    1.14691   1.12322   83.570
 4844.00    1.14754   1.12423   83.120
 4845.00    1.15424   1.12855   82.471
 4846.00    1.15737   1.13638   81.596
 4847.00    1.14498   1.13532   80.359
 4848.00    1.12601   1.12369   80.155
 4849.00    1.12245   1.11623   81.859
 4850.00    1.13503   1.11714   82.957
 4851.00    1.13940   1.12009   82.793
 4852.00    1.13491   1.11779   81.649
 4853.00    1.11678   1.10946   81.561
 4854.00    1.09394   1.08997   82.077
 4855.00    1.07133   1.06113   82.922
 4856.00    1.05616   1.04029   85.493
 4857.00    1.05572   1.02901   87.708
 4858.00    1.03861   1.01389   87.326
 4859.00    0.96559   0.96436   86.651
 4860.00    0.86090   0.86827   89.556
 4861.00    0.78657   0.78578   97.777
 4862.00    0.80250   0.76174   -1.000
 4863.00    0.90763   0.82641   -1.000
 4864.00    0.99603   0.91472   -1.000
 4865.00    1.03470   0.98287   -1.000
 4866.00    1.05855   1.02294   -1.000
 4867.00    1.07135   1.04947   87.646
 4868.00    1.08637   1.06784   85.922
 4869.00    1.09286   1.07643   85.215
 4870.00    1.07339   1.06719   84.945
 4871.00    1.05590   1.04531   85.853
 4872.00    1.05419   1.02718   88.342
 4873.00    1.07226   1.03732   -1.000
 4874.00    1.09920   1.06532   -1.000
 4875.00    1.11032   1.08846   86.691
 4876.00    1.10901   1.09659   85.291
 4877.00    1.10546   1.09606   84.679
 4878.00    1.11279   1.10102   84.237
 4879.00    1.11717   1.11456   83.899
 4880.00    1.12742   1.12936   82.652
 4881.00    1.12559   1.13644   81.894
 4882.00    1.11796   1.12680   82.736
 4883.00    1.11477   1.11900   84.081
 4884.00    1.11530   1.11476   84.491
 4885.00    1.11889   1.10942   84.217
 4886.00    1.10581   1.10392   84.760
 4887.00    1.09685   1.10153   86.060
 4888.00    1.10998   1.10146   86.422
 4889.00    1.10424   1.09562   85.942
 4890.00    1.08416   1.07978   85.926
 4891.00    1.07812   1.06410   87.302
 4892.00    1.10162   1.06992   -1.000
 4893.00    1.13842   1.10292   -1.000
 4894.00    1.16203   1.14470   84.532
 4895.00    1.16976   1.17123   80.655
 4896.00    1.17993   1.18423   78.386
 4897.00    1.16792   1.18620   77.012
 4898.00    1.16220   1.18175   76.716
 4899.00    1.14918   1.17015   76.989
 4900.00    1.13657   1.15815   78.738
 4901.00    1.13316   1.15179   80.556
 4902.00    1.14544   1.14988   81.332
 4903.00    1.14177   1.14370   80.911
 4904.00    1.13014   1.13763   81.097
 4905.00    1.14998   1.14573   82.033
 4906.00    1.15492   1.16474   81.016
 4907.00    1.15382   1.17086   79.300
 4908.00    1.15464   1.16395   78.801
 4909.00    1.13267   1.14686   79.647
 4910.00    1.11696   1.12869   81.647
 4911.00    1.11521   1.11730   83.964
 4912.00    1.13788   1.12153   84.862
 4913.00    1.15370   1.13550   83.639
 4914.00    1.15258   1.14872   82.125
 4915.00    1.15513   1.15956   81.016
 4916.00    1.16131   1.16341   79.980
 4917.00    1.15050   1.14960   79.340
 4918.00    1.10506   1.11522   79.878
 4919.00    1.05720   1.07244   82.853
 4920.00    1.04571   1.03846   87.455
 4921.00    1.06644   1.03328   -1.000
 4922.00    1.08756   1.05283   -1.000
 4923.00    1.09625   1.07631   89.028
 4924.00    1.09785   1.08642   85.871
 4925.00    1.10695   1.09533   84.720
 4926.00    1.12386   1.11372   84.633
 4927.00    1.13894   1.13584   83.462
 4928.00    1.15621   1.15392   81.265
 4929.00    1.16457   1.16536   79.869
 4930.00    1.15483   1.17189   79.151
 4931.00    1.16600   1.17036   78.619
 4932.00    1.15062   1.15603   78.202
 4933.00    1.11403   1.12844   79.078
 4934.00    1.10195   1.10581   81.325
 4935.00    1.10373   1.10333   84.206
 4936.00    1.12177   1.11491   84.241
 4937.00    1.11954   1.11589   82.724
 4938.00    1.09644   1.09626   82.824
 4939.00    1.08538   1.08203   85.363
 4940.00    1.10588   1.08863   87.588
 4941.00    1.14096   1.11513   86.626
 4942.00    1.15676   1.14720   83.596
 4943.00    1.16169   1.16395   80.966
 4944.00    1.17070   1.16862   79.537
 4945.00    1.15679   1.16360   78.865
 4946.00    1.14413   1.15740   78.969
 4947.00    1.15611   1.15602   79.538
 4948.00    1.16914   1.16357   79.662
 4949.00    1.15879   1.17448   78.903
 4950.00    1.16285   1.17896   77.983
 4951.00    1.17129   1.17662   77.769
 4952.00    1.16530   1.17193   77.464
 4953.00    1.15546   1.16730   77.899
 4954.00    1.16436   1.16273   78.453
 4955.00    1.15633   1.15186   79.379
 4956.00    1.11425   1.12015   80.411
 4957.00    1.07035   1.07201   82.675
 4958.00    1.07716   1.04959   87.005
 4959.00    1.12557   1.07005   -1.000
 4960.00    1.15693   1.11502   -1.000
 4961.00    1.16496   1.14983   83.095
 4962.00    1.16376   1.16251   80.365
 4963.00    1.15675   1.16355   79.846
 4964.00    1.15169   1.15740   80.260
 4965.00    1.14740   1.14505   80.920
 4966.00    1.14502   1.13049   81.915
 4967.00    1.14139   1.12315   83.667
 4968.00    1.14250   1.12126   84.699
 4969.00    1.14940   1.12160   84.677
 4970.00    1.14582   1.12684   84.410
 4971.00    1.14601   1.13588   83.764
 4972.00    1.14896   1.14495   82.857
 4973.00    1.15947   1.15324   81.966
 4974.00    1.16812   1.15934   80.987
 4975.00    1.16685   1.15922   80.242
 4976.00    1.15908   1.15628   79.952
 4977.00    1.15418   1.14916   80.547
 4978.00    1.14793   1.13888   81.412
 4979.00    1.13443   1.13088   82.535
 4980.00    1.12465   1.12060   83.883
 4981.00    1.10723   1.10096   84.910
 4982.00    1.08274   1.07199   86.156
 4983.00    1.06416   1.04503   89.057
 4984.00    1.07394   1.03916   -1.000
 4985.00    1.09241   1.05570   -1.000
 4986.00    1.11672   1.08305   -1.000
 4987.00    1.13997   1.10877   -1.000
 4988.00    1.14974   1.12938   84.618
 4989.00    1.14365   1.13123   82.584
 4990.00    1.12802   1.12011   82.745
 4991.00    1.11429   1.10790   83.999
 4992.00    1.11504   1.10576   84.836
 4993.00    1.12922   1.11186   84.832
 4994.00    1.13381   1.11751   84.055
 4995.00    1.12613   1.12327   83.719
 4996.00    1.13965   1.13044   83.683
 4997.00    1.14836   1.13403   83.238
 4998.00    1.12915   1.12779   82.840
 4999.00    1.11778   1.10930   83.384
 5000.00    1.11051   1.08454   84.532
 5001.00    1.11047   1.07419   -1.000
 5002.00    1.11701   1.07749   -1.000
 5003.00    1.12559   1.08686   -1.000
 5004.00    1.12180   1.08994   86.461
 5005.00    1.10142   1.07864   85.925
 5006.00    1.08331   1.05718   87.232
 5007.00    1.09184   1.04958   -1.000
 5008.00    1.12080   1.06851   -1.000
 5009.00    1.14482   1.09259   -1.000
 5010.00    1.14810   1.10646   -1.000
 5011.00    1.12132   1.09868   84.091
 5012.00    1.08403   1.07611   85.272
 5013.00    1.06443   1.05145   87.898
 5014.00    1.06391   1.03904   91.214
 5015.00    1.07904   1.04268   -1.000
 5016.00    1.10223   1.05291   -1.000
 5017.00    1.10863   1.05877   -1.000
 5018.00    1.09703   1.05510   -1.000
 5019.00    1.10503   1.05718   -1.000
 5020.00    1.11609   1.07218   -1.000
 5021.00    1.11309   1.08340   87.401
 5022.00    1.11634   1.08654   86.704
 5023.00    1.11867   1.08585   -1.000
 5024.00    1.12661   1.09394   -1.000
 5025.00    1.13234   1.10820   86.780
 5026.00    1.13101   1.11175   85.848
 5027.00    1.11561   1.10475   85.288
 5028.00    1.12532   1.10057   85.729
 5029.00    1.14343   1.10306   -1.000
 5030.00    1.15198   1.11079   -1.000
 5031.00    1.14688   1.12078   83.666
 5032.00    1.15335   1.13252   82.486
 5033.00    1.16271   1.14116   81.139
 5034.00    1.14523   1.13799   80.220
 5035.00    1.12392   1.11806   80.394
 5036.00    1.10147   1.09629   83.067
 5037.00    1.10112   1.08631   86.397
 5038.00    1.10249   1.08553   87.762
 5039.00    1.07824   1.07375   88.034
 5040.00    1.04134   1.04285   89.154
 5041.00    1.02954   1.01558   92.756
 5042.00    1.05445   1.01867   -1.000
 5043.00    1.09710   1.05172   -1.000
 5044.00    1.13234   1.09516   -1.000
 5045.00    1.15017   1.12631   85.925
 5046.00    1.16117   1.14478   82.480
 5047.00    1.15627   1.14718   80.799
 5048.00    1.13103   1.13413   77.646
 5049.00    1.17841   1.10868   -1.000
 5050.00    0.56381   1.08693   -1.000
 5051.00    0.10277   1.07440   -1.000
 5052.00    0.00713   1.07739   -1.000
 5053.00    0.60889   1.09499   -1.000
 5054.00    1.27043   1.12136   -1.000
 5055.00    1.16294   1.13629   82.489
 5056.00    1.17145   1.14249   81.004
 5057.00    1.16765   1.14571   80.255
 5058.00    1.16588   1.14774   80.012
 5059.00    1.16433   1.15015   80.171
 5060.00    1.16169   1.15210   80.320
 5061.00    1.16039   1.15360   80.283
 5062.00    1.15924   1.15397   79.719
 5063.00    1.14680   1.14426   79.782
 5064.00    1.12177   1.12021   80.891
 5065.00    1.10853   1.09914   83.294
 5066.00    1.11782   1.09187   86.292
 5067.00    1.13320   1.09776   -1.000
 5068.00    1.13213   1.10289   86.107
 5069.00    1.14101   1.10444   -1.000
 5070.00    1.14297   1.10792   -1.000
 5071.00    1.14401   1.11137   -1.000
 5072.00    1.13517   1.10705   83.586
 5073.00    1.13081   1.09960   -1.000
 5074.00    1.13805   1.09934   -1.000
 5075.00    1.14778   1.10435   -1.000
 5076.00    1.13666   1.10907   83.226
 5077.00    1.13630   1.10671   -1.000
 5078.00    1.12044   1.09384   83.065
 5079.00    1.07944   1.06794   83.898
 5080.00    1.05823   1.04709   86.892
 5081.00    1.08039   1.04856   -1.000
 5082.00    1.09723   1.05990   -1.000
 5083.00    1.10516   1.07064   -1.000
 5084.00    1.12426   1.08003   -1.000
 5085.00    1.14215   1.09543   -1.000
 5086.00    1.15362   1.11104   -1.000
 5087.00    1.14909   1.11891   83.828
 5088.00    1.14199   1.12052   83.250
 5089.00    1.14862   1.12197   83.147
 5090.00    1.15423   1.12580   82.720
 5091.00    1.16107   1.12947   -1.000
 5092.00    1.16442   1.13439   -1.000
 5093.00    1.17105   1.14168   -1.000
 5094.00    1.17789   1.14610   -1.000
 5095.00    1.17111   1.14192   79.576
 5096.00    1.14092   1.12497   80.337
 5097.00    1.16982   1.10283   -1.000
 5098.00    1.16045   1.08280   -1.000
 5099.00    1.09454   1.07131   85.856
 5100.00    1.10681   1.07672   87.652
 5101.00    1.13951   1.09571   -1.000
 5102.00    1.16581   1.11501   -1.000
 5103.00    1.16835   1.12068   -1.000
 5104.00    1.15452   1.11829   -1.000
 5105.00    1.14761   1.11158   -1.000
 5106.00    1.12721   1.10063   84.117
 5107.00    1.11078   1.08409   85.181
 5108.00    1.11457   1.07339   -1.000
 5109.00    1.10248   1.07120   -1.000
 5110.00    1.10739   1.07636   -1.000
 5111.00    1.12545   1.08752   -1.000
 5112.00    1.14264   1.10502   -1.000
 5113.00    1.14846   1.11821   -1.000
 5114.00    1.15968   1.12689   -1.000
 5115.00    1.16234   1.13233   -1.000
 5116.00    1.15883   1.13787   81.916
 5117.00    1.16300   1.14318   81.483
 5118.00    1.17117   1.14555   80.613
 5119.00    1.16501   1.14352   79.942
 5120.00    1.15093   1.13551   80.194
 5121.00    1.14534   1.12311   81.259
 5122.00    1.12248   1.10846   82.487
 5123.00    1.10624   1.09272   83.853
 5124.00    1.09841   1.07695   86.027
 5125.00    1.10029   1.07117   88.636
 5126.00    1.10744   1.07326   -1.000
 5127.00    1.12178   1.07631   -1.000
 5128.00    1.11644   1.07567   -1.000
 5129.00    1.10746   1.07510   -1.000
 5130.00    1.11124   1.07788   -1.000
 5131.00    1.12181   1.08570   -1.000
 5132.00    1.12588   1.09517   -1.000
 5133.00    1.13044   1.10264   84.871
 5134.00    1.13432   1.10857   84.192
 5135.00    1.14042   1.11210   83.387
 5136.00    1.13650   1.11106   82.654
 5137.00    1.11367   1.10020   82.446
 5138.00    1.08595   1.08366   83.954
 5139.00    1.08101   1.06967   86.011
 5140.00    1.09674   1.06639   -1.000
 5141.00    1.09457   1.07126   87.484
 5142.00    1.09442   1.07317   86.686
 5143.00    1.10244   1.07330   -1.000
 5144.00    1.10923   1.07923   -1.000
 5145.00    1.11815   1.08850   88.248
 5146.00    1.11300   1.08986   86.748
 5147.00    1.11509   1.08323   -1.000
 5148.00    1.11969   1.08038   -1.000
 5149.00    1.12792   1.08650   -1.000
 5150.00    1.12441   1.08696   -1.000
 5151.00    1.10440   1.07812   85.921
 5152.00    1.09343   1.06859   87.000
 5153.00    1.09574   1.06533   -1.000
 5154.00    1.10569   1.06787   -1.000
 5155.00    1.12466   1.07664   -1.000
 5156.00    1.14359   1.09472   -1.000
 5157.00    1.16553   1.11288   -1.000
 5158.00    1.15762   1.12561   -1.000
 5159.00    1.16854   1.13114   -1.000
 5160.00    1.16040   1.13183   80.498
 5161.00    1.15225   1.12832   80.489
 5162.00    1.14280   1.12015   80.761
 5163.00    1.14795   1.10911   -1.000
 5164.00    1.13905   1.09473   -1.000
 5165.00    1.08838   1.06389   83.425
 5166.00    1.02746   1.00423   86.622
 5167.00    0.96670   0.93540   -1.000
 5168.00    0.96364   0.89807   -1.000
 5169.00    1.00279   0.91673   -1.000
 5170.00    1.03762   0.95877   -1.000
 5171.00    1.01237   0.95867   -1.000
 5172.00    0.95209   0.92451  100.749
 5173.00    0.95394   0.90190   -1.000
 5174.00    1.02362   0.93672   -1.000
 5175.00    1.09563   1.01122   -1.000
 5176.00    1.13550   1.06681   -1.000
 5177.00    1.15202   1.09468   -1.000
 5178.00    1.15879   1.10273   -1.000
 5179.00    1.16158   1.10346   -1.000
 5180.00    1.14332   1.09527   -1.000
 5181.00    1.10395   1.06317   -1.000
 5182.00    1.02510   1.00266   89.193
 5183.00    0.94878   0.93261   95.657
 5184.00    0.95121   0.89820   -1.000
 5185.00    1.02513   0.93119   -1.000
 5186.00    1.09347   1.00016   -1.000
 5187.00    1.11848   1.05671   -1.000
 5188.00    1.12140   1.07553   -1.000
 5189.00    1.11309   1.07934   -1.000
 5190.00    1.11008   1.08099   85.564
 5191.00    1.09637   1.07066   85.210
 5192.00    1.08081   1.04938   -1.000
 5193.00    1.08265   1.03901   -1.000
 5194.00    1.09862   1.04345   -1.000
 5195.00    1.10682   1.05480   -1.000
 5196.00    1.11425   1.06381   -1.000
 5197.00    1.12332   1.07396   -1.000
 5198.00    1.13031   1.08813   -1.000
 5199.00    1.13756   1.10313   -1.000
 5200.00    1.15276   1.11235   -1.000
 5201.00    1.15075   1.11476   -1.000
 5202.00    1.13443   1.10593   82.536
 5203.00    1.11964   1.08716   -1.000
 5204.00    1.09692   1.05934   -1.000
 5205.00    1.07448   1.03151   -1.000
 5206.00    1.07683   1.01355   -1.000
 5207.00    1.08657   1.00985   -1.000
 5208.00    1.08527   1.01069   -1.000
 5209.00    1.08723   1.01214   -1.000
 5210.00    1.10091   1.02616   -1.000
 5211.00    1.13499   1.05590   -1.000
 5212.00    1.16851   1.09039   -1.000
 5213.00    1.17538   1.11581   -1.000
 5214.00    1.16602   1.12124   -1.000
 5215.00    1.14060   1.10676   -1.000
 5216.00    1.11933   1.08692   -1.000
 5217.00    1.13022   1.08123   -1.000
 5218.00    1.14825   1.09398   -1.000
 5219.00    1.15924   1.11641   -1.000
 5220.00    1.17123   1.13409   -1.000
 5221.00    1.17547   1.14475   -1.000
 5222.00    1.16979   1.14649   79.994
 5223.00    1.15548   1.13777   79.670
 5224.00    1.13596   1.11708   80.690
 5225.00    1.10092   1.07959   83.146
 5226.00    1.06175   1.03287   86.581
 5227.00    1.05900   1.00839   -1.000
 5228.00    1.09069   1.02128   -1.000
 5229.00    1.12741   1.06308   -1.000
 5230.00    1.14711   1.09961   -1.000
 5231.00    1.14626   1.11101   -1.000
 5232.00    1.13574   1.10216   -1.000
 5233.00    1.12234   1.08299   -1.000
 5234.00    1.11605   1.07278   -1.000
 5235.00    1.12261   1.08306   -1.000
 5236.00    1.14968   1.10654   -1.000
 5237.00    1.16638   1.12920   -1.000
 5238.00    1.16923   1.14227   80.080
 5239.00    1.16919   1.14469   79.165
 5240.00    1.17964   1.14380   -1.000
 5241.00    1.18490   1.14211   -1.000
 5242.00    1.17980   1.13916   -1.000
 5243.00    1.17607   1.13802   -1.000
 5244.00    1.18095   1.14205   -1.000
 5245.00    1.17371   1.14558   78.688
 5246.00    1.15414   1.13628   78.561
 5247.00    1.13818   1.11809   80.114
 5248.00    1.13800   1.10312   -1.000
 5249.00    1.12947   1.09809   -1.000
 5250.00    1.12620   1.09558   -1.000
 5251.00    1.12555   1.09450   -1.000
 5252.00    1.13190   1.09941   -1.000
 5253.00    1.14678   1.10625   -1.000
 5254.00    1.13567   1.10747   83.941
 5255.00    1.14726   1.10650   -1.000
 5256.00    1.16585   1.11459   -1.000
 5257.00    1.17450   1.13187   -1.000
 5258.00    1.18923   1.14837   -1.000
 5259.00    1.18722   1.15337   -1.000
 5260.00    1.16155   1.14328   77.708
 5261.00    1.13967   1.11855   78.411
 5262.00    1.09915   1.08350   80.540
 5263.00    1.06656   1.04984   83.942
 5264.00    1.06013   1.02141   -1.000
 5265.00    1.05194   1.00564   -1.000
 5266.00    1.06237   1.00689   -1.000
 5267.00    1.08854   1.01951   -1.000
 5268.00    1.08097   1.02049   -1.000
 5269.00    1.04642   0.99990   -1.000
 5270.00    1.04431   0.97561   -1.000
 5271.00    1.08301   0.98664   -1.000
 5272.00    1.11982   1.03128   -1.000
 5273.00    1.12831   1.06572   -1.000
 5274.00    1.12060   1.07825   -1.000
 5275.00    1.12449   1.07924   -1.000
 5276.00    1.13888   1.08510   -1.000
 5277.00    1.16791   1.10509   -1.000
 5278.00    1.18816   1.12998   -1.000
 5279.00    1.17965   1.14515   -1.000
 5280.00    1.16418   1.13746   77.731
 5281.00    1.15311   1.11723   -1.000
 5282.00    1.13319   1.09699   -1.000
 5283.00    1.11973   1.08224   -1.000
 5284.00    1.13331   1.08124   -1.000
 5285.00    1.15685   1.10019   -1.000
 5286.00    1.18210   1.13068   -1.000
 5287.00    1.18695   1.15423   -1.000
 5288.00    1.19104   1.16244   77.387
 5289.00    1.21859   1.16380   -1.000
 5290.00    1.19970   1.16560   -1.000
 5291.00    1.18120   1.16491   77.137
 5292.00    1.18575   1.16107   76.696
 5293.00    1.18656   1.15909   76.523
 5294.00    1.18373   1.15591   76.955
 5295.00    1.17643   1.14613   -1.000
 5296.00    1.15216   1.12528   78.702
 5297.00    1.12212   1.09669   80.807
 5298.00    1.10869   1.07727   -1.000
 5299.00    1.12611   1.08084   -1.000
 5300.00    1.15126   1.09654   -1.000
 5301.00    1.15105   1.11032   -1.000
 5302.00    1.15229   1.11656   -1.000
 5303.00    1.16052   1.12570   -1.000
 5304.00    1.17684   1.14269   -1.000
 5305.00    1.18948   1.15469   -1.000
 5306.00    1.18193   1.15539   76.883
 5307.00    1.17093   1.14944   76.642
 5308.00    1.17312   1.14514   -1.000
 5309.00    1.18337   1.15088   -1.000
 5310.00    1.18777   1.16074   77.575
 5311.00    1.18986   1.16649   76.765
 5312.00    1.18974   1.16566   76.262
 5313.00    1.18929   1.16052   76.318
 5314.00    1.18818   1.15268   -1.000
 5315.00    1.16893   1.14171   77.074
 5316.00    1.15044   1.12796   77.626
 5317.00    1.15518   1.12046   -1.000
 5318.00    1.16758   1.12630   -1.000
 5319.00    1.17183   1.13968   -1.000
 5320.00    1.17387   1.14808   78.574
 5321.00    1.17052   1.14553   78.227
 5322.00    1.16237   1.13596   78.491
 5323.00    1.15129   1.11823   -1.000
 5324.00    1.13954   1.10149   -1.000
 5325.00    1.13911   1.09262   -1.000
 5326.00    1.12490   1.08363   -1.000
 5327.00    1.08525   1.05640   82.122
 5328.00    1.05146   1.01632   -1.000
 5329.00    1.06589   1.00432   -1.000
 5330.00    1.12448   1.03573   -1.000
 5331.00    1.15966   1.08398   -1.000
 5332.00    1.16392   1.11337   -1.000
 5333.00    1.16901   1.12083   -1.000
 5334.00    1.17323   1.12633   -1.000
 5335.00    1.17844   1.13298   -1.000
 5336.00    1.17294   1.13479   -1.000
 5337.00    1.15535   1.13135   78.221
 5338.00    1.15278   1.12457   78.689
 5339.00    1.14404   1.11134   -1.000
 5340.00    1.13988   1.09185   -1.000
 5341.00    1.13268   1.08105   -1.000
 5342.00    1.15334   1.09040   -1.000
 5343.00    1.17113   1.11313   -1.000
 5344.00    1.17283   1.12718   -1.000
 5345.00    1.16645   1.12669   -1.000
 5346.00    1.16389   1.11889   -1.000
 5347.00    1.16170   1.11016   -1.000
 5348.00    1.15505   1.10547   -1.000
 5349.00    1.15209   1.10245   -1.000
 5350.00    1.16417   1.10693   -1.000
 5351.00    1.17297   1.11999   -1.000
 5352.00    1.17851   1.13502   -1.000
 5353.00    1.17943   1.14375   -1.000
 5354.00    1.18098   1.14678   -1.000
 5355.00    1.18503   1.15394   -1.000
 5356.00    1.18907   1.16286   76.597
 5357.00    1.19692   1.16868   -1.000
 5358.00    1.20004   1.16927   -1.000
 5359.00    1.20281   1.16724   -1.000
 5360.00    1.19536   1.16326   -1.000
 5361.00    1.17839   1.15486   75.462
 5362.00    1.16372   1.14304   76.318
 5363.00    1.15801   1.13167   77.584
 5364.00    1.14818   1.12072   78.733
 5365.00    1.14365   1.11361   -1.000
 5366.00    1.14456   1.11214   -1.000
 5367.00    1.15547   1.11516   -1.000
 5368.00    1.15468   1.11406   -1.000
 5369.00    1.13222   1.10181   -1.000
 5370.00    1.10990   1.07797   -1.000
 5371.00    1.10555   1.05409   -1.000
 5372.00    1.12978   1.05216   -1.000
 5373.00    1.16904   1.07738   -1.000
 5374.00    1.18775   1.11507   -1.000
 5375.00    1.20033   1.14142   -1.000
 5376.00    1.19636   1.15163   -1.000
 5377.00    1.19106   1.15218   -1.000
 5378.00    1.18701   1.15068   -1.000
 5379.00    1.18559   1.14786   -1.000
 5380.00    1.17415   1.14231   -1.000
 5381.00    1.15564   1.13466   77.041
 5382.00    1.16403   1.12674   -1.000
 5383.00    1.16656   1.12124   -1.000
 5384.00    1.16449   1.12212   -1.000
 5385.00    1.17723   1.13080   -1.000
 5386.00    1.18292   1.14345   -1.000
 5387.00    1.18344   1.14991   -1.000
 5388.00    1.17220   1.14853   77.561
 5389.00    1.17171   1.14025   -1.000
 5390.00    1.16991   1.12827   -1.000
 5391.00    1.15916   1.11878   -1.000
 5392.00    1.15559   1.11131   -1.000
 5393.00    1.15055   1.10526   -1.000
 5394.00    1.14438   1.10349   -1.000
 5395.00    1.13786   1.10021   -1.000
 5396.00    1.12289   1.08607   -1.000
 5397.00    1.11319   1.06938   -1.000
 5398.00    1.12856   1.06615   -1.000
 5399.00    1.15219   1.08372   -1.000
 5400.00    1.16587   1.10671   -1.000
 5401.00    1.16754   1.11927   -1.000
 5402.00    1.15563   1.12119   -1.000
 5403.00    1.14009   1.11004   -1.000
 5404.00    1.11978   1.08302   -1.000
 5405.00    1.10124   1.05397   -1.000
 5406.00    1.10180   1.04428   -1.000
 5407.00    1.12496   1.05742   -1.000
 5408.00    1.14393   1.07805   -1.000
 5409.00    1.12977   1.08431   -1.000
 5410.00    1.12885   1.07784   -1.000
 5411.00    1.13812   1.08256   -1.000
 5412.00    1.16061   1.10075   -1.000
 5413.00    1.16650   1.11789   -1.000
 5414.00    1.15714   1.12270   -1.000
 5415.00    1.15656   1.11953   -1.000
 5416.00    1.15955   1.12371   -1.000
 5417.00    1.17014   1.13310   -1.000
 5418.00    1.16439   1.13877   78.143
 5419.00    1.16447   1.13882   77.637
 5420.00    1.16346   1.13595   77.904
 5421.00    1.16188   1.13358   78.657
 5422.00    1.16721   1.13065   -1.000
 5423.00    1.15296   1.12250   -1.000
 5424.00    1.14276   1.11273   -1.000
 5425.00    1.14530   1.11047   -1.000
 5426.00    1.16299   1.12322   -1.000
 5427.00    1.16216   1.13833   79.581
 5428.00    1.15019   1.13012   78.251
 5429.00    1.14522   1.10408   -1.000
 5430.00    1.12992   1.08399   -1.000
 5431.00    1.13014   1.08648   -1.000
 5432.00    1.14156   1.09949   -1.000
 5433.00    1.12854   1.09905   -1.000
 5434.00    1.11380   1.08552   -1.000
 5435.00    1.11768   1.07727   -1.000
 5436.00    1.13626   1.08569   -1.000
 5437.00    1.16008   1.10911   -1.000
 5438.00    1.17491   1.13380   -1.000
 5439.00    1.18808   1.15023   -1.000
 5440.00    1.18968   1.15558   -1.000
 5441.00    1.18124   1.15913   76.999
 5442.00    1.17596   1.16160   76.332
 5443.00    1.17602   1.15921   76.169
 5444.00    1.16630   1.14648   76.160
 5445.00    1.13144   1.11885   76.907
 5446.00    1.10906   1.08571   78.876
 5447.00    1.10816   1.06682   -1.000
 5448.00    1.13637   1.07403   -1.000
 5449.00    1.17587   1.10225   -1.000
 5450.00    1.19352   1.12729   -1.000
 5451.00    1.18134   1.14044   -1.000
 5452.00    1.17307   1.14138   -1.000
 5453.00    1.16473   1.13121   -1.000
 5454.00    1.13939   1.10938   -1.000
 5455.00    1.11865   1.08264   -1.000
 5456.00    1.12655   1.06952   -1.000
 5457.00    1.15605   1.08699   -1.000
 5458.00    1.17791   1.11909   -1.000
 5459.00    1.17943   1.14096   -1.000
 5460.00    1.17265   1.14477   -1.000
 5461.00    1.16067   1.13535   78.537
 5462.00    1.15155   1.11957   -1.000
 5463.00    1.14508   1.10560   -1.000
 5464.00    1.15757   1.10394   -1.000
 5465.00    1.16865   1.11349   -1.000
 5466.00    1.16714   1.12504   -1.000
 5467.00    1.16615   1.13181   -1.000
 5468.00    1.17884   1.13597   -1.000
 5469.00    1.18077   1.13920   -1.000
 5470.00    1.17128   1.13911   -1.000
 5471.00    1.16465   1.13454   -1.000
 5472.00    1.16976   1.12902   -1.000
 5473.00    1.16403   1.12289   -1.000
 5474.00    1.15248   1.11479   -1.000
 5475.00    1.13724   1.10008   -1.000
 5476.00    1.11570   1.07971   -1.000
 5477.00    1.10813   1.06745   -1.000
 5478.00    1.12739   1.07676   -1.000
 5479.00    1.15167   1.09983   -1.000
 5480.00    1.15309   1.11582   -1.000
 5481.00    1.14760   1.11374   -1.000
 5482.00    1.15007   1.10901   -1.000
 5483.00    1.15216   1.11156   -1.000
 5484.00    1.15837   1.12389   -1.000
 5485.00    1.17143   1.13678   -1.000
 5486.00    1.17115   1.13915   -1.000
 5487.00    1.16174   1.13207   -1.000
 5488.00    1.15455   1.12299   -1.000
 5489.00    1.15276   1.11950   -1.000
 5490.00    1.16435   1.12330   -1.000
 5491.00    1.16078   1.12826   -1.000
 5492.00    1.15561   1.13271   80.868
 5493.00    1.16350   1.13352   -1.000
 5494.00    1.17169   1.13324   -1.000
 5495.00    1.16693   1.13180   -1.000
 5496.00    1.15459   1.12574   -1.000
 5497.00    1.14287   1.11610   -1.000
 5498.00    1.14192   1.11189   -1.000
 5499.00    1.15788   1.11667   -1.000
 5500.00    1.16253   1.12034   -1.000
 5501.00    1.14446   1.11261   -1.000
 5502.00    1.13892   1.10103   -1.000
 5503.00    1.14682   1.10244   -1.000
 5504.00    1.15703   1.10986   -1.000
 5505.00    1.15063   1.10946   -1.000
 5506.00    1.13310   1.09988   -1.000
 5507.00    1.13685   1.09082   -1.000
 5508.00    1.15646   1.09583   -1.000
 5509.00    1.16601   1.10973   -1.000
 5510.00    1.16105   1.11765   -1.000
 5511.00    1.15171   1.11395   -1.000
 5512.00    1.13192   1.10205   -1.000
 5513.00    1.12444   1.09082   -1.000
 5514.00    1.13298   1.08783   -1.000
 5515.00    1.14170   1.09509   -1.000
 5516.00    1.15584   1.10679   -1.000
 5517.00    1.17171   1.11926   -1.000
 5518.00    1.17995   1.13027   -1.000
 5519.00    1.18258   1.13828   -1.000
 5520.00    1.18508   1.14067   -1.000
 5521.00    1.19441   1.13906   -1.000
 5522.00    1.19606   1.13765   -1.000
 5523.00    1.18892   1.13845   -1.000
 5524.00    1.17282   1.13766   -1.000
 5525.00    1.15889   1.13010   -1.000
 5526.00    1.15472   1.11300   -1.000
 5527.00    1.13049   1.08986   -1.000
 5528.00    1.10834   1.07333   -1.000
 5529.00    1.12883   1.07415   -1.000
 5530.00    1.15575   1.09457   -1.000
 5531.00    1.16562   1.11898   -1.000
 5532.00    1.17692   1.12917   -1.000
 5533.00    1.17303   1.12625   -1.000
 5534.00    1.15723   1.11762   -1.000
 5535.00    1.15947   1.11147   -1.000
 5536.00    1.15914   1.11360   -1.000
 5537.00    1.16416   1.12113   -1.000
 5538.00    1.17525   1.12708   -1.000
 5539.00    1.18287   1.12983   -1.000
 5540.00    1.18694   1.13398   -1.000
 5541.00    1.18375   1.13906   -1.000
 5542.00    1.17339   1.13770   -1.000
 5543.00    1.17067   1.13101   -1.000
 5544.00    1.17585   1.12468   -1.000
 5545.00    1.17629   1.12427   -1.000
 5546.00    1.16649   1.12794   -1.000
 5547.00    1.17054   1.13088   -1.000
 5548.00    1.18325   1.13642   -1.000
 5549.00    1.18845   1.14480   -1.000
 5550.00    1.18265   1.14885   -1.000
 5551.00    1.18701   1.14835   -1.000
 5552.00    1.18009   1.14467   -1.000
 5553.00    1.17213   1.13916   -1.000
 5554.00    1.16775   1.13362   -1.000
 5555.00    1.17228   1.13198   -1.000
 5556.00    1.18067   1.13400   -1.000
 5557.00    1.18335   1.13610   -1.000
 5558.00    1.18271   1.13694   -1.000
 5559.00    1.18686   1.13862   -1.000
 5560.00    1.18543   1.14050   -1.000
 5561.00    1.17796   1.13833   -1.000
 5562.00    1.16711   1.13117   -1.000
 5563.00    1.16037   1.12446   -1.000
 5564.00    1.14811   1.12115   80.498
 5565.00    1.14543   1.11993   81.097
 5566.00    1.15131   1.11787   -1.000
 5567.00    1.15468   1.11521   -1.000
 5568.00    1.15354   1.11335   -1.000
 5569.00    1.15077   1.11103   -1.000
 5570.00    1.14986   1.11097   -1.000
 5571.00    1.14394   1.10976   -1.000
 5572.00    1.13581   1.10521   -1.000
 5573.00    1.13943   1.10179   -1.000
 5574.00    1.15452   1.10446   -1.000
 5575.00    1.12856   1.11233   81.408
 5576.00    0.96115   1.11699   -1.000
 5577.00    0.37670   1.12007   -1.000
 5578.00   -0.81632   1.12520    0.000
 5579.00   -1.81775   1.13042    0.000
 5580.00   -1.42430   1.13231    0.000
 5581.00    0.10451   1.13005   -1.000
 5582.00    1.15411   1.12772   -1.000
 5583.00    1.18515   1.12744   -1.000
 5584.00    1.15729   1.12697   -1.000
 5585.00    1.13329   1.12032   80.277
 5586.00    1.11693   1.10051   80.674
 5587.00    1.10549   1.07382   -1.000
 5588.00    1.08884   1.05743   -1.000
 5589.00    1.08994   1.05470   -1.000
 5590.00    1.10350   1.06560   -1.000
 5591.00    1.12442   1.08331   -1.000
 5592.00    1.13829   1.09701   -1.000
 5593.00    1.13922   1.10004   -1.000
 5594.00    1.13414   1.09740   -1.000
 5595.00    1.13553   1.10023   -1.000
 5596.00    1.15219   1.10993   -1.000
 5597.00    1.14798   1.11379   -1.000
 5598.00    1.13263   1.10504   -1.000
 5599.00    1.13170   1.09458   -1.000
 5600.00    1.13155   1.09092   -1.000
 5601.00    1.11908   1.08405   -1.000
 5602.00    1.11076   1.07654   -1.000
 5603.00    1.12817   1.08120   -1.000
 5604.00    1.14860   1.09876   -1.000
 5605.00    1.16479   1.12226   -1.000
 5606.00    1.17930   1.14077   -1.000
 5607.00    1.18760   1.14890   -1.000
 5608.00    1.18181   1.15131   -1.000
 5609.00    1.18563   1.15096   -1.000
 5610.00    1.18037   1.15155   -1.000
 5611.00    1.16946   1.15345   78.640
 5612.00    1.17813   1.15336   78.593
 5613.00    1.17569   1.14342   -1.000
 5614.00    1.14510   1.11972   78.651
 5615.00    1.11450   1.09076   80.125
 5616.00    1.11373   1.07595   -1.000
 5617.00    1.13921   1.08809   -1.000
 5618.00    1.16372   1.10920   -1.000
 5619.00    1.16905   1.12186   -1.000
 5620.00    1.16627   1.12771   -1.000
 5621.00    1.16379   1.13147   -1.000
 5622.00    1.15935   1.13291   -1.000
 5623.00    1.15337   1.12748   80.307
 5624.00    1.13603   1.11487   80.552
 5625.00    1.13361   1.10619   81.998
 5626.00    1.14862   1.10930   -1.000
 5627.00    1.15805   1.12003   -1.000
 5628.00    1.15988   1.13059   -1.000
 5629.00    1.16535   1.13764   -1.000
 5630.00    1.16666   1.14217   79.950
 5631.00    1.17905   1.14474   -1.000
 5632.00    1.17731   1.14370   -1.000
 5633.00    1.17411   1.13991   -1.000
 5634.00    1.17127   1.13664   -1.000
 5635.00    1.16273   1.13178   -1.000
 5636.00    1.15566   1.12625   -1.000
 5637.00    1.14960   1.12131   -1.000
 5638.00    1.14084   1.11892   81.012
 5639.00    1.14466   1.11981   81.571
 5640.00    1.15012   1.12076   -1.000
 5641.00    1.15052   1.11786   -1.000
 5642.00    1.15300   1.11636   -1.000
 5643.00    1.15184   1.11966   -1.000
 5644.00    1.15806   1.12307   -1.000
 5645.00    1.15917   1.12527   -1.000
 5646.00    1.15478   1.12769   -1.000
 5647.00    1.15672   1.12904   -1.000
 5648.00    1.16454   1.12897   -1.000
 5649.00    1.17625   1.12746   -1.000
 5650.00    1.17032   1.12535   -1.000
 5651.00    1.17340   1.12726   -1.000
 5652.00    1.16837   1.13047   -1.000
 5653.00    1.16669   1.13094   -1.000
 5654.00    1.16831   1.12806   -1.000
 5655.00    1.15059   1.12260   -1.000
 5656.00    1.13721   1.11381   80.124
 5657.00    1.11637   1.09667   80.884
 5658.00    1.10198   1.07831   82.330
 5659.00    1.10050   1.07362   84.757
 5660.00    1.11664   1.08468   -1.000
 5661.00    1.13739   1.09680   -1.000
 5662.00    1.13703   1.10096   -1.000
 5663.00    1.13408   1.10332   -1.000
 5664.00    1.14256   1.11200   -1.000
 5665.00    1.15375   1.12278   -1.000
 5666.00    1.15624   1.12488   -1.000
 5667.00    1.14717   1.11882   -1.000
 5668.00    1.14128   1.11335   -1.000
 5669.00    1.14521   1.11305   -1.000
 5670.00    1.14768   1.11715   -1.000
 5671.00    1.15386   1.12258   -1.000
 5672.00    1.16254   1.12842   -1.000
 5673.00    1.16126   1.13281   -1.000
 5674.00    1.15902   1.13576   79.632
 5675.00    1.15839   1.13538   78.858
 5676.00    1.15594   1.13498   78.763
 5677.00    1.16161   1.13607   -1.000
 5678.00    1.16213   1.13679   78.839
 5679.00    1.15412   1.13462   78.683
 5680.00    1.15723   1.12998   -1.000
 5681.00    1.15546   1.12229   -1.000
 5682.00    1.15334   1.11154   -1.000
 5683.00    1.14683   1.10173   -1.000
 5684.00    1.13643   1.09892   -1.000
 5685.00    1.13990   1.10396   -1.000
 5686.00    1.13399   1.10998   81.547
 5687.00    1.13027   1.10869   81.153
 5688.00    1.13044   1.10439   81.428
 5689.00    1.13872   1.10252   -1.000
 5690.00    1.14364   1.10726   -1.000
 5691.00    1.14707   1.11754   -1.000
 5692.00    1.15406   1.12623   -1.000
 5693.00    1.15890   1.13125   -1.000
 5694.00    1.15929   1.13249   -1.000
 5695.00    1.15696   1.13316   78.892
 5696.00    1.15046   1.13229   78.961
 5697.00    1.14771   1.13103   79.032
 5698.00    1.14488   1.12710   79.232
 5699.00    1.14284   1.11997   79.935
 5700.00    1.13664   1.11310   80.857
 5701.00    1.13154   1.10690   81.607
 5702.00    1.13326   1.10545   -1.000
 5703.00    1.13969   1.10879   -1.000
 5704.00    1.14394   1.11437   -1.000
 5705.00    1.13760   1.11532   81.591
 5706.00    1.12549   1.11033   81.286
 5707.00    1.11115   1.10133   81.733
 5708.00    1.10547   1.08969   82.815
 5709.00    1.09815   1.07722   84.320
 5710.00    1.09365   1.07027   85.685
 5711.00    1.10743   1.07249   -1.000
 5712.00    1.11539   1.08207   -1.000
 5713.00    1.12682   1.09803   -1.000
 5714.00    1.14268   1.11361   -1.000
 5715.00    1.14481   1.12294   81.717
 5716.00    1.14995   1.12584   80.338
 5717.00    1.14665   1.12837   79.920
 5718.00    1.14388   1.13055   79.749
 5719.00    1.15884   1.13362   -1.000
 5720.00    1.16768   1.13749   -1.000
 5721.00    1.16595   1.14142   78.644
 5722.00    1.16932   1.14367   -1.000
 5723.00    1.17182   1.14515   -1.000
 5724.00    1.16828   1.14587   77.912
 5725.00    1.16270   1.14451   77.815
 5726.00    1.15625   1.13768   77.957
 5727.00    1.15054   1.13011   78.546
 5728.00    1.14828   1.12800   79.364
 5729.00    1.15662   1.12976   -1.000
 5730.00    1.15089   1.13280   79.770
 5731.00    1.15276   1.13228   79.272
 5732.00    1.14782   1.13084   79.377
 5733.00    1.15109   1.13274   79.772
 5734.00    1.15868   1.13906   79.591
 5735.00    1.16369   1.14380   78.872
 5736.00    1.15896   1.14325   78.318
 5737.00    1.15657   1.14167   78.303
 5738.00    1.16005   1.13981   78.406
 5739.00    1.15861   1.13952   78.619
 5740.00    1.15128   1.14027   78.711
 5741.00    1.15359   1.14002   78.859
 5742.00    1.15641   1.13752   78.989
 5743.00    1.16377   1.13674   -1.000
 5744.00    1.16445   1.13840   -1.000
 5745.00    1.15981   1.14205   78.928
 5746.00    1.15709   1.14202   78.434
 5747.00    1.15283   1.13756   77.971
 5748.00    1.14561   1.13383   78.258
 5749.00    1.14739   1.13580   79.004
 5750.00    1.15393   1.13995   79.396
 5751.00    1.15443   1.13837   79.045
 5752.00    1.14195   1.12908   78.745
 5753.00    1.12831   1.11770   79.225
 5754.00    1.12637   1.11186   80.156
 5755.00    1.13759   1.11807   80.997
 5756.00    1.14949   1.13027   81.119
 5757.00    1.15649   1.14154   80.237
 5758.00    1.15924   1.14765   78.799
 5759.00    1.15522   1.14702   77.766
 5760.00    1.15258   1.14076   77.814
 5761.00    1.15366   1.13163   78.607
 5762.00    1.14442   1.12123   79.628
 5763.00    1.13826   1.11770   80.714
 5764.00    1.14920   1.12498   81.243
 5765.00    1.15518   1.13826   80.575
 5766.00    1.15151   1.14729   79.201
 5767.00    1.15440   1.14978   78.141
 5768.00    1.16452   1.14875   77.783
 5769.00    1.16420   1.14735   77.692
 5770.00    1.15790   1.14599   77.571
 5771.00    1.15515   1.14413   77.675
 5772.00    1.14986   1.14120   77.924
 5773.00    1.14966   1.13667   78.328
 5774.00    1.15063   1.13343   78.811
 5775.00    1.15243   1.13113   79.062
 5776.00    1.15928   1.13245   -1.000
 5777.00    1.15136   1.13556   79.051
 5778.00    1.13933   1.13445   78.688
 5779.00    1.12767   1.12735   78.548
 5780.00    1.11537   1.11685   78.745
 5781.00    1.11267   1.10600   79.730
 5782.00    1.11498   1.10037   81.442
 5783.00    1.11777   1.10087   82.670
 5784.00    1.13199   1.10392   -1.000
 5785.00    1.13799   1.10604   -1.000
 5786.00    1.13601   1.10797   -1.000
 5787.00    1.14719   1.11496   -1.000
 5788.00    1.15105   1.12301   -1.000
 5789.00    1.15374   1.12712   -1.000
 5790.00    1.14839   1.12638   79.252
 5791.00    1.14531   1.12239   79.216
 5792.00    1.14116   1.12298   79.540
 5793.00    1.13624   1.12927   79.521
 5794.00    1.14052   1.13654   78.954
 5795.00    1.14548   1.14252   78.379
 5796.00    1.14530   1.14389   77.898
 5797.00    1.14302   1.13932   77.762
 5798.00    1.13588   1.13406   78.135
 5799.00    1.14237   1.13606   78.644
 5800.00    1.16092   1.14230   78.446
 5801.00    1.17207   1.14738   -1.000
 5802.00    1.16259   1.14961   76.478
 5803.00    1.14645   1.14733   76.121
 5804.00    1.13883   1.14139   76.618
 5805.00    1.14435   1.13646   77.246
 5806.00    1.14495   1.13547   77.868
 5807.00    1.13595   1.13824   78.276
 5808.00    1.14061   1.14152   78.197
 5809.00    1.15091   1.14265   77.912
 5810.00    1.15567   1.14397   77.665
 5811.00    1.15566   1.14583   77.616
 5812.00    1.15541   1.14664   77.562
 5813.00    1.16132   1.14561   77.311
 5814.00    1.15754   1.14212   77.064
 5815.00    1.14934   1.13650   77.141
 5816.00    1.15463   1.13154   77.693
 5817.00    1.15799   1.13294   78.126
 5818.00    1.15820   1.14040   77.876
 5819.00    1.16225   1.14647   77.347
 5820.00    1.16349   1.14840   76.900
 5821.00    1.16400   1.14792   76.515
 5822.00    1.15967   1.14762   76.235
 5823.00    1.15659   1.14763   76.281
 5824.00    1.15904   1.14715   76.532
 5825.00    1.16080   1.14600   76.485
 5826.00    1.16803   1.14646   76.355
 5827.00    1.16892   1.14794   76.220
 5828.00    1.16718   1.14985   76.132
 5829.00    1.16685   1.15114   76.135
 5830.00    1.15730   1.15086   76.263
 5831.00    1.15678   1.14989   76.180
 5832.00    1.15961   1.14916   76.154
 5833.00    1.16237   1.14739   76.082
 5834.00    1.16517   1.14440   76.175
 5835.00    1.15973   1.14240   76.618
 5836.00    1.15440   1.14347   76.838
 5837.00    1.15441   1.14626   76.651
 5838.00    1.15682   1.14772   76.468
 5839.00    1.16283   1.14843   76.634
 5840.00    1.16625   1.14974   76.837
 5841.00    1.16601   1.15104   76.680
 5842.00    1.16461   1.15096   76.169
 5843.00    1.17066   1.14886   75.728
 5844.00    1.16615   1.14638   75.661
 5845.00    1.16033   1.14369   75.874
 5846.00    1.15826   1.14008   76.166
 5847.00    1.16086   1.13641   76.630
 5848.00    1.15916   1.13532   77.048
 5849.00    1.15428   1.13655   77.425
 5850.00    1.15294   1.13598   77.442
 5851.00    1.14872   1.13210   77.506
 5852.00    1.14145   1.12343   77.888
 5853.00    1.14086   1.11541   78.376
 5854.00    1.13004   1.11233   79.089
 5855.00    1.12301   1.11160   79.567
 5856.00    1.12605   1.10667   79.744
 5857.00    1.12260   1.09306   -1.000
 5858.00    1.12623   1.08448   -1.000
 5859.00    1.13658   1.09053   -1.000
 5860.00    1.14668   1.10349   -1.000
 5861.00    1.15093   1.11365   -1.000
 5862.00    1.14831   1.11888   -1.000
 5863.00    1.14339   1.12127   78.967
 5864.00    1.14307   1.12495   78.657
 5865.00    1.14690   1.12468   78.494
 5866.00    1.14358   1.11935   78.645
 5867.00    1.14302   1.11532   -1.000
 5868.00    1.15367   1.11677   -1.000
 5869.00    1.16531   1.12373   -1.000
 5870.00    1.17097   1.13127   -1.000
 5871.00    1.16872   1.13517   -1.000
 5872.00    1.17087   1.13408   -1.000
 5873.00    1.16899   1.13119   -1.000
 5874.00    1.15542   1.12886   -1.000
 5875.00    1.15617   1.12699   -1.000
 5876.00    1.15946   1.12540   -1.000
 5877.00    1.15226   1.12400   -1.000
 5878.00    1.14560   1.12080   78.109
 5879.00    1.14438   1.11601   -1.000
 5880.00    1.14797   1.11170   -1.000
 5881.00    1.14408   1.10923   -1.000
 5882.00    1.14333   1.10664   -1.000
 5883.00    1.13629   1.10230   -1.000
 5884.00    1.13484   1.09702   -1.000
 5885.00    1.13963   1.09265   -1.000
 5886.00    1.13813   1.08905   -1.000
 5887.00    1.11411   1.07265   -1.000
 5888.00    1.03192   1.02927   80.643
 5889.00    0.89692   0.96897   -1.000
 5890.00    0.69226   0.92702   -1.000
 5891.00    0.46634   0.93854   -1.000
 5892.00    0.39922   0.97656   -1.000
 5893.00    0.57392   1.00205   -1.000
 5894.00    0.82627   0.99922   -1.000
 5895.00    0.92102   0.97411   -1.000
 5896.00    0.85186   0.95516   -1.000
 5897.00    0.74208   0.96618   -1.000
 5898.00    0.72187   1.00161   -1.000
 5899.00    0.83547   1.03374   -1.000
 5900.00    0.99935   1.05501   -1.000
 5901.00    1.10146   1.07320   -1.000
 5902.00    1.13325   1.08744   -1.000
 5903.00    1.13069   1.09564   -1.000
 5904.00    1.13407   1.09957   -1.000
 5905.00    1.13793   1.10078   -1.000
 5906.00    1.14234   1.10285   -1.000
 5907.00    1.14807   1.10499   -1.000
 5908.00    1.14709   1.10707   -1.000
 5909.00    1.14340   1.10909   -1.000
 5910.00    1.14011   1.11095   -1.000
 5911.00    1.13425   1.11110   79.698
 5912.00    1.13069   1.10903   79.871
 5913.00    1.13071   1.10188   -1.000
 5914.00    1.12422   1.09267   -1.000
 5915.00    1.12160   1.08742   -1.000
 5916.00    1.12604   1.08777   -1.000
 5917.00    1.12573   1.09169   -1.000
 5918.00    1.13548   1.09812   -1.000
 5919.00    1.14733   1.10457   -1.000
 5920.00    1.14114   1.10698   -1.000
 5921.00    1.13070   1.10756   80.622
 5922.00    1.12691   1.10680   80.353
 5923.00    1.12670   1.10638   80.296
 5924.00    1.13165   1.10766   -1.000
 5925.00    1.13644   1.11091   -1.000
 5926.00    1.13400   1.11425   79.862
 5927.00    1.13520   1.11551   79.697
 5928.00    1.14179   1.11183   -1.000
 5929.00    1.13576   1.10405   -1.000
 5930.00    1.12584   1.09925   -1.000
 5931.00    1.12796   1.10129   -1.000
 5932.00    1.13351   1.10713   -1.000
 5933.00    1.13795   1.10952   -1.000
 5934.00    1.13695   1.10655   -1.000
 5935.00    1.13093   1.10504   -1.000
 5936.00    1.12993   1.10767   80.770
 5937.00    1.13630   1.11234   -1.000
 5938.00    1.13518   1.11509   80.619
 5939.00    1.13543   1.11293   79.952
 5940.00    1.13929   1.10790   -1.000
 5941.00    1.13077   1.10270   -1.000
 5942.00    1.12832   1.10062   -1.000
 5943.00    1.13369   1.10144   -1.000
 5944.00    1.12784   1.10537   81.043
 5945.00    1.12411   1.10918   80.652
 5946.00    1.13031   1.11026   80.164
 5947.00    1.12477   1.10691   79.813
 5948.00    1.11504   1.10094   79.911
 5949.00    1.11510   1.09970   80.530
 5950.00    1.12067   1.10297   81.371
 5951.00    1.12298   1.10578   81.724
 5952.00    1.11980   1.10425   81.426
 5953.00    1.11742   1.10077   81.075
 5954.00    1.11714   1.10187   81.165
 5955.00    1.12097   1.10297   81.188
 5956.00    1.12491   1.10003   -1.000
 5957.00    1.13205   1.09793   -1.000
 5958.00    1.13511   1.09941   -1.000
 5959.00    1.13221   1.10492   -1.000
 5960.00    1.13639   1.11136   -1.000
 5961.00    1.13383   1.11563   80.444
 5962.00    1.13402   1.11764   79.608
 5963.00    1.13515   1.11756   79.191
 5964.00    1.12992   1.11526   79.064
 5965.00    1.12977   1.11139   79.187
 5966.00    1.13093   1.10822   79.573
 5967.00    1.12860   1.10805   79.894
 5968.00    1.12995   1.11025   80.169
 5969.00    1.12940   1.11214   80.108
 5970.00    1.12837   1.11493   79.582
 5971.00    1.12780   1.11767   79.267
 5972.00    1.12908   1.11839   79.224
 5973.00    1.13092   1.11743   79.092
 5974.00    1.12829   1.11521   78.975
 5975.00    1.12372   1.10931   79.277
 5976.00    1.12039   1.10166   79.880
 5977.00    1.11573   1.09693   80.502
 5978.00    1.11046   1.09787   81.085
 5979.00    1.12013   1.10349   81.503
 5980.00    1.13549   1.11003   -1.000
 5981.00    1.13240   1.11320   80.676
 5982.00    1.12556   1.11033   80.260
 5983.00    1.11798   1.10225   80.341
 5984.00    1.11189   1.09396   80.896
 5985.00    1.11437   1.09224   81.614
 5986.00    1.11506   1.09643   82.099
 5987.00    1.11436   1.10201   81.976
 5988.00    1.11805   1.10619   81.235
 5989.00    1.12929   1.10921   80.631
 5990.00    1.13205   1.10944   80.325
 5991.00    1.12041   1.10821   79.971
 5992.00    1.11762   1.10874   79.951
 5993.00    1.12492   1.11458   80.146
 5994.00    1.12735   1.12078   79.904
 5995.00    1.12396   1.12035   79.282
 5996.00    1.12007   1.11605   78.932
 5997.00    1.11766   1.11074   79.295
 5998.00    1.11775   1.10852   79.880
 5999.00    1.11948   1.10996   80.281
 6000.00    1.12309   1.11188   80.490
 6001.00    1.12287   1.11099   80.424
 6002.00    1.12012   1.10750   80.428
 6003.00    1.11539   1.10331   80.812
 6004.00    1.11495   1.10320   81.155
 6005.00    1.11477   1.10491   81.194
 6006.00    1.10437   1.10214   81.013
 6007.00    1.09986   1.09396   80.984
 6008.00    1.10415   1.08800   81.438
 6009.00    1.10745   1.09079   82.221
 6010.00    1.11061   1.10066   82.452
 6011.00    1.11501   1.10753   81.720
 6012.00    1.10930   1.10614   80.812
 6013.00    1.10447   1.10324   80.615
 6014.00    1.10696   1.10147   81.114
 6015.00    1.11202   1.10190   81.618
 6016.00    1.11231   1.10104   81.431
 6017.00    1.10822   1.09989   81.272
 6018.00    1.10400   1.09902   81.552
 6019.00    1.10159   1.09621   81.781
 6020.00    1.09069   1.09199   81.661
 6021.00    1.09067   1.08923   81.765
 6022.00    1.09696   1.09057   82.237
 6023.00    1.09660   1.09270   82.168
 6024.00    1.09432   1.09446   81.636
 6025.00    1.09836   1.09948   81.348
 6026.00    1.10791   1.10654   81.243
 6027.00    1.11277   1.10993   80.863
 6028.00    1.11366   1.11229   80.534
 6029.00    1.11407   1.11572   80.115
 6030.00    1.11296   1.11777   79.706
 6031.00    1.11583   1.11866   79.539
 6032.00    1.11816   1.11930   79.532
 6033.00    1.11874   1.12051   79.676
 6034.00    1.12069   1.12198   79.634
 6035.00    1.11908   1.12360   79.321
 6036.00    1.11830   1.12381   79.068
 6037.00    1.11163   1.12199   78.995
 6038.00    1.10451   1.11934   78.886
 6039.00    1.10371   1.11575   78.898
 6040.00    1.10635   1.11198   79.257
 6041.00    1.10690   1.11114   79.519
 6042.00    1.10385   1.10957   79.728
 6043.00    1.10907   1.10694   79.689
 6044.00    1.11675   1.11193   79.540
 6045.00    1.11603   1.11944   79.226
 6046.00    1.11414   1.12229   78.642
 6047.00    1.11591   1.12335   78.481
 6048.00    1.11760   1.12515   78.543
 6049.00    1.11770   1.12547   78.450
 6050.00    1.11450   1.12493   78.460
 6051.00    1.11301   1.12353   78.689
 6052.00    1.11098   1.12195   78.903
 6053.00    1.10609   1.11977   78.999
 6054.00    1.10468   1.11606   79.123
 6055.00    1.10176   1.11138   79.401
 6056.00    1.10037   1.10854   79.676
 6057.00    1.10091   1.10891   80.054
 6058.00    1.09738   1.11168   80.369
 6059.00    1.10249   1.11451   80.335
 6060.00    1.11340   1.11720   79.978
 6061.00    1.11046   1.11814   79.551
 6062.00    1.10025   1.11531   79.495
 6063.00    1.09299   1.10731   79.675
 6064.00    1.08659   1.09609   80.523
 6065.00    1.07352   1.08695   82.025
 6066.00    1.06125   1.08846   80.611
 6067.00    1.10637   1.10024  106.481
 6068.00    0.90690   1.11142   -1.000
 6069.00    0.63855   1.11824   -1.000
 6070.00    0.94026   1.12171   -1.000
 6071.00    1.12706   1.12294   79.661
 6072.00    1.07116   1.12336   78.254
 6073.00    1.08600   1.12320   76.785
 6074.00    0.88402   1.12418   -1.000
 6075.00    0.48948   1.12377   -1.000
 6076.00    0.79025   1.12006   -1.000
 6077.00    1.10297   1.11447   79.032
 6078.00    1.08847   1.10903   79.410
 6079.00    1.08744   1.10645   79.857
 6080.00    1.08787   1.10640   80.428
 6081.00    1.08760   1.10496   80.971
 6082.00    1.08923   1.10210   81.150
 6083.00    1.08970   1.10087   81.193
 6084.00    1.09106   1.10056   81.381
 6085.00    1.08968   1.10092   81.460
 6086.00    1.08767   1.10268   81.404
 6087.00    1.08886   1.10646   81.325
 6088.00    1.09006   1.10911   81.136
 6089.00    1.08669   1.10812   80.830
 6090.00    1.08031   1.10481   80.828
 6091.00    1.07822   1.10102   81.238
 6092.00    1.08689   1.10073   81.645
 6093.00    1.08882   1.10330   81.719
 6094.00    1.08776   1.10769   81.332
 6095.00    1.09051   1.11137   80.867
 6096.00    1.09582   1.11362   80.436
 6097.00    1.09487   1.11570   80.048
 6098.00    1.08947   1.11713   79.960
 6099.00    1.08856   1.11658   80.122
 6100.00    1.08468   1.10978   80.229
 6101.00    1.06823   1.09394   80.241
 6102.00    1.05167   1.07301   80.883
 6103.00    1.05152   1.06248   82.582
 6104.00    1.06597   1.07085   84.194
 6105.00    1.07922   1.08743   84.192
 6106.00    1.08886   1.09886   82.821
 6107.00    1.09600   1.10514   81.425
 6108.00    1.09180   1.10859   80.849
 6109.00    1.08286   1.11263   81.005
 6110.00    1.08435   1.11461   81.265
 6111.00    1.08132   1.11324   81.301
 6112.00    1.07574   1.11172   81.162
 6113.00    1.07909   1.11268   80.859
 6114.00    1.07926   1.11458   80.720
 6115.00    1.07347   1.11582   80.447
 6116.00    1.07426   1.11469   80.150
 6117.00    1.07386   1.11435   80.305
 6118.00    1.06868   1.11300   80.787
 6119.00    1.06535   1.10355   81.052
 6120.00    1.05681   1.09042   81.327
 6121.00    1.04529   1.07313   82.257
 6122.00    1.04674   1.05838   83.409
 6123.00    1.05787   1.06146   84.290
 6124.00    1.06516   1.07452   84.597
 6125.00    1.06945   1.08732   83.678
 6126.00    1.06784   1.09519   82.438
 6127.00    1.06083   1.09833   82.079
 6128.00    1.06280   1.09844   82.434
 6129.00    1.06908   1.10072   82.551
 6130.00    1.07192   1.10662   82.364
 6131.00    1.07246   1.11223   81.861
 6132.00    1.07186   1.11595   81.097
 6133.00    1.06938   1.11675   80.720
 6134.00    1.05846   1.10880   80.794
 6135.00    1.03673   1.08738   -1.000
 6136.00    1.01629   1.05802   82.858
 6137.00    1.01143   1.04057   85.171
 6138.00    1.02776   1.04780   87.475
 6139.00    1.04732   1.06605   88.390
 6140.00    1.05158   1.07474   86.931
 6141.00    1.04927   1.07482   84.455
 6142.00    1.04308   1.07838   83.010
 6143.00    1.04077   1.08970   82.856
 6144.00    1.05378   1.10131   83.041
 6145.00    1.06308   1.10577   82.536
 6146.00    1.06215   1.10502   81.549
 6147.00    1.06383   1.10202   81.123
 6148.00    1.06107   1.09772   81.367
 6149.00    1.05669   1.09357   81.855
 6150.00    1.06097   1.08975   82.428
 6151.00    1.06546   1.08932   82.954
 6152.00    1.06127   1.09421   83.123
 6153.00    1.05727   1.09842   82.903
 6154.00    1.05939   1.09587   82.406
 6155.00    1.05778   1.09105   82.123
 6156.00    1.05273   1.08848   82.565
 6157.00    1.05284   1.08797   83.129
 6158.00    1.05580   1.08718   83.298
 6159.00    1.05266   1.08138   83.526
 6160.00    1.03532   1.06214   84.239
 6161.00    1.01081   1.03260   85.620
 6162.00    1.00112   1.00933   87.909
 6163.00    1.01252   1.00671   90.558
 6164.00    1.02668   1.02088   92.052
 6165.00    1.03702   1.03771   91.395
 6166.00    1.04096   1.05010   89.174
 6167.00    1.03944   1.05522   87.368
 6168.00    1.03356   1.05068   86.713
 6169.00    1.02593   1.03896   86.766
 6170.00    1.02882   1.03717   87.599
 6171.00    1.03982   1.04837   88.629
 6172.00    1.04692   1.06111   88.512
 6173.00    1.05244   1.07007   87.090
 6174.00    1.05293   1.07604   85.656
 6175.00    1.05077   1.08026   85.309
 6176.00    1.04861   1.08108   85.449
 6177.00    1.05004   1.08218   85.328
 6178.00    1.05414   1.08439   85.134
 6179.00    1.05643   1.08514   84.933
 6180.00    1.04852   1.08529   84.576
 6181.00    1.04911   1.08828   84.219
 6182.00    1.05795   1.09233   83.946
 6183.00    1.06050   1.09401   83.599
 6184.00    1.05449   1.09304   83.316
 6185.00    1.05158   1.09069   83.358
 6186.00    1.05228   1.08587   83.626
 6187.00    1.05093   1.08015   84.163
 6188.00    1.04685   1.07597   85.018
 6189.00    1.03871   1.06903   85.928
 6190.00    1.02871   1.05617   86.766
 6191.00    1.01914   1.04352   87.462
 6192.00    1.02539   1.04533   88.410
 6193.00    1.04136   1.05990   89.229
 6194.00    1.05391   1.07325   88.761
 6195.00    1.05935   1.08179   86.904
 6196.00    1.05474   1.08673   85.158
 6197.00    1.04840   1.08825   84.372
 6198.00    1.04435   1.08472   84.145
 6199.00    1.04157   1.07704   84.463
 6200.00    1.03988   1.07296   85.328
 6201.00    1.04372   1.07647   86.155
 6202.00    1.04628   1.08282   86.340
 6203.00    1.04386   1.08868   85.710
 6204.00    1.04550   1.09255   84.667
 6205.00    1.04330   1.09455   -1.000
 6206.00    1.04400   1.09545   -1.000
 6207.00    1.04662   1.09644   84.007
 6208.00    1.04670   1.09693   -1.000
 6209.00    1.04573   1.09588   -1.000
 6210.00    1.04448   1.09215   84.293
 6211.00    1.04161   1.08603   84.500
 6212.00    1.03140   1.07590   85.156
 6213.00    1.02222   1.06443   85.886
 6214.00    1.01714   1.05729   86.652
 6215.00    1.01867   1.05637   87.814
 6216.00    1.02435   1.05851   88.899
 6217.00    1.02300   1.05987   89.345
 6218.00    1.01897   1.05677   88.658
 6219.00    1.01801   1.05277   87.875
 6220.00    1.01651   1.05238   88.196
 6221.00    1.02119   1.05798   88.303
 6222.00    1.03094   1.06493   87.697
 6223.00    1.04038   1.06728   87.782
 6224.00    1.04461   1.06847   92.054
 6225.00    1.04697   1.06949   93.103
 6226.00    1.03617   1.07019   88.577
 6227.00    1.01922   1.06906   -1.000
 6228.00    1.02077   1.06182   87.081
 6229.00    1.02156   1.04747   87.383
 6230.00    1.00994   1.03280   88.341
 6231.00    1.00408   1.02703   89.752
 6232.00    1.00905   1.03326   91.042
 6233.00    1.01955   1.04644   91.224
 6234.00    1.03169   1.05980   90.171
 6235.00    1.04032   1.06767   88.576
 6236.00    1.03297   1.06864   87.028
 6237.00    1.01752   1.06435   86.252
 6238.00    1.01184   1.05870   -1.000
 6239.00    1.01102   1.05428   87.326
 6240.00    1.01757   1.05185   88.224
 6241.00    1.02168   1.05100   89.146
 6242.00    1.01388   1.04849   89.747
 6243.00    1.01163   1.04274   89.834
 6244.00    1.01276   1.03625   90.202
 6245.00    1.00912   1.03066   90.872
 6246.00    1.00815   1.03011   91.059
 6247.00    1.00930   1.03866   90.643
 6248.00    1.01012   1.05153   89.843
 6249.00    1.01321   1.06173   -1.000
 6250.00    1.01109   1.06298   -1.000
 6251.00    0.99900   1.05403   -1.000
 6252.00    0.98684   1.04046   -1.000
 6253.00    0.98304   1.03068   -1.000
 6254.00    0.98671   1.02825   90.584
 6255.00    0.98681   1.02962   91.359
 6256.00    0.98272   1.03093   -1.000
 6257.00    0.98569   1.02948   -1.000
 6258.00    0.98740   1.02947   -1.000
 6259.00    0.98404   1.03336   -1.000
 6260.00    0.98868   1.04128   -1.000
 6261.00    0.99973   1.04968   -1.000
 6262.00    1.01034   1.05837   -1.000
 6263.00    1.01562   1.06387   -1.000
 6264.00    1.01090   1.06385   -1.000
 6265.00    1.00318   1.06231   -1.000
 6266.00    1.00163   1.06401   -1.000
 6267.00    1.00733   1.06846   -1.000
 6268.00    1.01087   1.06954   -1.000
 6269.00    1.01304   1.06616   -1.000
 6270.00    1.01390   1.06284   -1.000
 6271.00    1.01074   1.06283   -1.000
 6272.00    1.01144   1.06475   -1.000
 6273.00    1.01239   1.06483   -1.000
 6274.00    1.01057   1.05870   87.649
 6275.00    1.01110   1.04778   87.706
 6276.00    1.01022   1.03633   88.202
 6277.00    1.00711   1.02664   88.907
 6278.00    0.99536   1.02175   90.039
 6279.00    0.97401   1.01844   -1.000
 6280.00    0.95712   1.01896   -1.000
 6281.00    0.95144   1.02548   -1.000
 6282.00    0.96070   1.03611   -1.000
 6283.00    0.97114   1.04832   -1.000
 6284.00    0.97655   1.05838   -1.000
 6285.00    0.97728   1.06426   -1.000
 6286.00    0.98093   1.06718   -1.000
 6287.00    0.99579   1.06883   -1.000
 6288.00    1.00394   1.06914   -1.000
 6289.00    1.00715   1.06535   -1.000
 6290.00    1.01110   1.06040   -1.000
 6291.00    1.00719   1.05738   -1.000
 6292.00    1.00147   1.05638   -1.000
 6293.00    0.99402   1.05624   -1.000
 6294.00    0.99157   1.05609   -1.000
 6295.00    0.98821   1.05377   -1.000
 6296.00    0.97821   1.04790   -1.000
 6297.00    0.97506   1.04166   -1.000
 6298.00    0.96362   1.03899   -1.000
 6299.00    0.92280   1.04004   -1.000
 6300.00    0.85638   1.03854   -1.000
 6301.00    0.76375   1.03385   -1.000
 6302.00    0.68171   1.03333   -1.000
 6303.00    0.69261   1.04123   -1.000
 6304.00    0.80436   1.05228   -1.000
 6305.00    0.93023   1.06011   -1.000
 6306.00    0.99562   1.06439   -1.000
 6307.00    1.01022   1.06768   -1.000
 6308.00    1.01152   1.06840   -1.000
 6309.00    1.00801   1.06817   -1.000
 6310.00    1.00358   1.06834   -1.000
 6311.00    0.99370   1.06714   -1.000
 6312.00    0.98477   1.06535   -1.000
 6313.00    0.98676   1.06168   -1.000
 6314.00    0.98264   1.05586   -1.000
 6315.00    0.97287   1.05130   -1.000
 6316.00    0.96874   1.04869   -1.000
 6317.00    0.96861   1.04561   -1.000
 6318.00    0.97238   1.04342   -1.000
 6319.00    0.97676   1.04806   -1.000
 6320.00    0.98014   1.05705   -1.000
 6321.00    0.98418   1.06300   -1.000
 6322.00    0.99304   1.06526   -1.000
 6323.00    0.99747   1.06944   -1.000
 6324.00    0.99883   1.07546   -1.000
 6325.00    1.00778   1.07870   -1.000
 6326.00    1.00394   1.07903   -1.000
 6327.00    0.99715   1.07776   -1.000
 6328.00    0.99733   1.07685   -1.000
 6329.00    0.99921   1.07635   -1.000
 6330.00    1.00043   1.07645   -1.000
 6331.00    1.00372   1.07856   -1.000
 6332.00    1.01321   1.08050   -1.000
 6333.00    1.01124   1.07751   -1.000
 6334.00    0.99425   1.06797   -1.000
 6335.00    0.97926   1.05556   -1.000
 6336.00    0.97117   1.04928   -1.000
 6337.00    0.97345   1.05218   -1.000
 6338.00    0.99326   1.05933   -1.000
 6339.00    1.00701   1.06630   -1.000
 6340.00    1.00294   1.07322   -1.000
 6341.00    0.99441   1.07748   -1.000
 6342.00    0.99345   1.07726   -1.000
 6343.00    1.00082   1.07327   -1.000
 6344.00    1.00270   1.06975   -1.000
 6345.00    1.00154   1.06897   -1.000
 6346.00    1.00739   1.07079   -1.000
 6347.00    1.01993   1.07497   -1.000
 6348.00    1.02453   1.08082   -1.000
 6349.00    1.01453   1.08633   -1.000
 6350.00    1.00892   1.08916   -1.000
 6351.00    1.00882   1.08947   -1.000
 6352.00    1.00542   1.08690   -1.000
 6353.00    0.99596   1.08185   -1.000
 6354.00    0.98816   1.07585   -1.000
 6355.00    0.99357   1.07214   -1.000
 6356.00    0.99986   1.07133   -1.000
 6357.00    1.00191   1.06914   -1.000
 6358.00    1.00455   1.06419   -1.000
 6359.00    1.00166   1.06122   -1.000
 6360.00    0.99731   1.06023   -1.000
 6361.00    0.99564   1.05777   -1.000
 6362.00    0.98602   1.05507   -1.000
 6363.00    0.96710   1.05513   -1.000
 6364.00    0.94045   1.05875   -1.000
 6365.00    0.91810   1.06323   -1.000
 6366.00    0.91053   1.06739   -1.000
 6367.00    0.93262   1.07169   -1.000
 6368.00    0.98206   1.07438   -1.000
 6369.00    1.00447   1.07344   -1.000
 6370.00    0.99600   1.07177   -1.000
 6371.00    0.99143   1.07204   -1.000
 6372.00    0.99575   1.07471   -1.000
 6373.00    1.00342   1.07859   -1.000
 6374.00    0.99997   1.08090   -1.000
 6375.00    0.99719   1.08026   -1.000
 6376.00    0.99556   1.07826   -1.000
 6377.00    0.99393   1.07533   -1.000
 6378.00    0.99050   1.07317   -1.000
 6379.00    0.98971   1.07073   -1.000
 6380.00    0.99228   1.06804   -1.000
 6381.00    0.98800   1.06572   -1.000
 6382.00    0.98261   1.06494   -1.000
 6383.00    0.97811   1.06501   -1.000
 6384.00    0.98057   1.06618   -1.000
 6385.00    0.98024   1.06851   -1.000
 6386.00    0.97746   1.07171   -1.000
 6387.00    0.97652   1.07311   -1.000
 6388.00    0.97701   1.07273   -1.000
 6389.00    0.97412   1.07204   -1.000
 6390.00    0.96117   1.07045   -1.000
 6391.00    0.95396   1.06425   -1.000
 6392.00    0.94494   1.05381   -1.000
 6393.00    0.93566   1.04640   -1.000
 6394.00    0.93381   1.04852   -1.000
 6395.00    0.93582   1.05822   -1.000
 6396.00    0.93530   1.06732   -1.000
 6397.00    0.93285   1.06959   -1.000
 6398.00    0.92519   1.06183   -1.000
 6399.00    0.90903   1.04888   -1.000
 6400.00    0.90132   1.04295   -1.000
 6401.00    0.90666   1.04889   -1.000
 6402.00    0.91767   1.06130   -1.000
 6403.00    0.92134   1.07223   -1.000
 6404.00    0.91665   1.07814   -1.000
 6405.00    0.91200   1.07761   -1.000
 6406.00    0.90513   1.07062   -1.000
 6407.00    0.89567   1.06265   -1.000
 6408.00    0.88958   1.05770   -1.000
 6409.00    0.88263   1.06007   -1.000
 6410.00    0.86842   1.06295   -1.000
 6411.00    0.86206   1.06067   -1.000
 6412.00    0.86749   1.06071   -1.000
 6413.00    0.86506   1.06386   -1.000
 6414.00    0.86187   1.06700   -1.000
 6415.00    0.86722   1.06842   -1.000
 6416.00    0.86341   1.06962   -1.000
 6417.00    0.85201   1.07025   -1.000
 6418.00    0.84355   1.06725   -1.000
 6419.00    0.83546   1.05954   -1.000
 6420.00    0.82834   1.05132   -1.000
 6421.00    0.82308   1.04886   -1.000
 6422.00    0.82596   1.05642   -1.000
 6423.00    0.82516   1.06840   -1.000
 6424.00    0.81763   1.07613   -1.000
 6425.00    0.80899   1.08103   -1.000
 6426.00    0.80338   1.08439   -1.000
 6427.00    0.80176   1.08537   -1.000
 6428.00    0.79243   1.08036   -1.000
