###################################################################
## OUTPUT of StarlightChains_v04.for    [Cid@UFSC - 01/Apr/2007] ##
###################################################################

## Some input info
NGC6624_a_1.cxt                          [arq_obs]
Base.BC03.S                              [arq_base]
NGC6624_a_1.msk                          [arq_masks]
StCv04.C11.config                        [arq_config]
  150                                    [N_base]
    0                                    [N_YAV_components = # of components with extra extinction!]
    0                                    [i_FitPowerLaw (1/0 = Yes/No)]
-9.99                                    [alpha_PowerLaw]
CCM                                      [red_law_option]
 1.458241                                [q_norm = A(l_norm)/A(V)]

## (Re)Sampling Parameters
 3359.00                                 [l_ini (A)]
 6428.00                                 [l_fin (A)]
    1.00                                 [dl    (A)]     (OBS: dl_cushion =    50.00 A)

## Normalization info
 4020.00                                 [l_norm (A) - for base]
 4010.00                                 [llow_norm (A) - window for f_obs]
 4060.00                                 [lupp_norm (A) - window for f_obs]
1.685692E-14                             [fobs_norm (in input units)]

## S/N
 4730.00                                 [llow_SN (A) - window for S/N]
 4780.00                                 [lupp_SN (A) - window for S/N]
  42.348                                 [S/N in S/N window]
  28.608                                 [S/N in norm. window]
  94.289                                 [S/N_err in S/N window]
  63.698                                 [S/N_err in norm. window]
  1.0000                                 [fscale_chi2]

## etc...
  2147483597                             [idum_orig]
  3069                                   [NOl_eff]
  1111                                   [Nl_eff]
  1958    NSIGMA                         [Ntot_cliped & clip_method]
  2333100                                [Nglobal_steps]
   7                                     [N_chains]
  27                                     [NEX0s_base = N_base in EX0s-fits]
 0   0   1      375   2.0   1.181E+03    [Clip-Bug, RC-Crash & Burn-In warning-flags, n_censored_weights, wei_nsig_threshold & wei_limit]
    82     82.107     82.087      0.020  [idt_all, wdt_TotTime, wdt_UsrTime & wdt_SysTime (sec)]

## Synthesis Results - Best model ##

 2.68591E+00                             [chi2/Nl_eff]
     1.38326                             [adev (%)]

   101.85337                             [sum-of-x (%)]
 3.23391E-14                             [Flux_tot (units of input spectrum!)]
 1.50841E-09                             [Mini_tot (???)]
 7.66974E-10                             [Mcor_tot (???)]

  -3.65                                  [v0_min  (km/s)]
  78.06                                  [vd_min  (km/s)]
 0.4714                                  [AV_min  (mag)]
 0.0000                                  [YAV_min (mag)]

# j     x_j(%)      Mini_j(%)     Mcor_j(%)     age_j(yr)     Z_j      (L/M)_j    YAV?  Mstars   component_j        a/Fe...       SSP_chi2r SSP_adev(%)   SSP_AV   SSP_x(%)
  1      0.0000     0.0000E+00    0.0000E+00    1.000000E+06  0.00010  8.160E-03    0   1.0000   age020_m22            0.0000     1.5489E+03    33.0851   4.0000    68.9970
  2      3.4868     1.5422E-03    3.0330E-03    3.160000E+06  0.00010  4.759E-02    0   1.0000   age045_m22            0.0000     4.5133E+02    10.8023   3.0097    84.8847
  3      0.0000     0.0000E+00    0.0000E+00    5.010000E+06  0.00010  1.932E-02    0   0.9582   age055_m22            0.0000     4.7122E+02    16.4825   3.3075    72.8826
  4      0.0000     0.0000E+00    0.0000E+00    6.610000E+06  0.00010  9.973E-03    0   0.9297   age061_m22            0.0000     1.4726E+03    32.2868   4.0000    71.3329
  5      0.0000     0.0000E+00    0.0000E+00    8.710000E+06  0.00010  7.690E-03    0   0.9030   age067_m22            0.0000     1.4460E+03    31.9519   4.0000    71.7908
  6      0.0000     0.0000E+00    0.0000E+00    1.000000E+07  0.00010  6.375E-03    0   0.8902   age070_m22            0.0000     1.4520E+03    31.9748   4.0000    72.0529
  7      0.0000     0.0000E+00    0.0000E+00    1.445000E+07  0.00010  4.874E-03    0   0.8589   age078_m22            0.0000     1.1448E+03    27.8710   4.0000    74.7620
  8      0.0000     0.0000E+00    0.0000E+00    2.512000E+07  0.00010  4.103E-03    0   0.8174   age090_m22            0.0000     7.5368E+02    18.8625   4.0000    79.5976
  9      0.0000     0.0000E+00    0.0000E+00    4.000000E+07  0.00010  3.654E-03    0   0.7830   age104_m22            0.0000     8.0577E+02    13.4742   4.0000    81.8335
 10      0.0000     0.0000E+00    0.0000E+00    5.500000E+07  0.00010  3.093E-03    0   0.7597   age110_m22            0.0000     8.5910E+02    12.0676   4.0000    82.7729
 11      0.0000     0.0000E+00    0.0000E+00    1.015200E+08  0.00010  2.431E-03    0   0.7138   age116_m22            0.0000     1.0203E+03    11.6191   3.6996    84.9049
 12      0.0000     0.0000E+00    0.0000E+00    1.609000E+08  0.00010  1.319E-03    0   0.6775   age120_m22            0.0000     9.8289E+02    10.6780   3.1858    88.3920
 13      0.0000     0.0000E+00    0.0000E+00    2.861200E+08  0.00010  1.075E-03    0   0.6412   age125_m22            0.0000     1.5609E+03    10.1914   3.2326    92.7159
 14      0.0000     0.0000E+00    0.0000E+00    5.088000E+08  0.00010  7.183E-04    0   0.6083   age130_m22            0.0000     1.6985E+03     9.8695   2.9631    96.0285
 15      0.0000     0.0000E+00    0.0000E+00    9.047900E+08  0.00010  4.524E-04    0   0.5785   age135_m22            0.0000     1.6697E+03     9.6740   2.7406    98.0434
 16      0.0000     0.0000E+00    0.0000E+00    1.278050E+09  0.00010  3.018E-04    0   0.5588   age138_m22            0.0000     1.0593E+03     8.6542   2.1989    96.7653
 17      0.0000     0.0000E+00    0.0000E+00    1.434000E+09  0.00010  2.691E-04    0   0.5532   age139_m22            0.0000     9.4016E+02     8.4017   2.0377    96.5025
 18      0.0000     0.0000E+00    0.0000E+00    2.500000E+09  0.00010  1.582E-04    0   0.5296   age150_m22            0.0000     8.8647E+02     8.6789   1.9349    96.5107
 19      0.0000     0.0000E+00    0.0000E+00    4.250000E+09  0.00010  1.007E-04    0   0.5110   age158_m22            0.0000     6.5184E+02     8.2063   1.7768    95.1784
 20      0.0000     0.0000E+00    0.0000E+00    6.250000E+09  0.00010  6.869E-05    0   0.4985   age166_m22            0.0000     4.7016E+02     8.0385   1.7156    92.7701
 21      0.0000     0.0000E+00    0.0000E+00    7.500000E+09  0.00010  5.873E-05    0   0.4931   age171_m22            0.0000     4.5528E+02     8.3150   1.7088    91.9728
 22      0.8526     4.0053E-01    3.8236E-01    1.000000E+10  0.00010  4.481E-05    0   0.4854   age181_m22            0.0000     4.4337E+02     8.2333   1.6690    91.7590
 23      0.0000     0.0000E+00    0.0000E+00    1.300000E+10  0.00010  3.489E-05    0   0.4791   age193_m22            0.0000     4.1723E+02     8.0487   1.6077    91.4982
 24      0.0000     0.0000E+00    0.0000E+00    1.500000E+10  0.00010  3.035E-05    0   0.4766   age201_m22            0.0000     4.0368E+02     7.9961   1.5676    91.3796
 25      0.0000     0.0000E+00    0.0000E+00    1.800000E+10  0.00010  2.510E-05    0   0.4735   age213_m22            0.0000     3.7165E+02     7.9070   1.4982    90.9240
 26      0.0000     0.0000E+00    0.0000E+00    1.000000E+06  0.00040  8.458E-03    0   1.0000   age020_m32            0.0000     1.5603E+03    33.2164   4.0000    69.6115
 27      0.0000     0.0000E+00    0.0000E+00    3.160000E+06  0.00040  3.973E-02    0   1.0000   age045_m32            0.0000     6.4942E+02    16.9983   4.0000    79.0918
 28      0.0000     0.0000E+00    0.0000E+00    5.010000E+06  0.00040  1.935E-02    0   0.9532   age055_m32            0.0000     8.3273E+02    23.0137   4.0000    74.3675
 29      0.0000     0.0000E+00    0.0000E+00    6.610000E+06  0.00040  1.204E-02    0   0.9243   age061_m32            0.0000     1.2328E+03    29.2799   4.0000    73.1020
 30      0.0000     0.0000E+00    0.0000E+00    8.710000E+06  0.00040  9.433E-03    0   0.9001   age067_m32            0.0000     1.1805E+03    28.5034   4.0000    73.9162
 31      0.0000     0.0000E+00    0.0000E+00    1.000000E+07  0.00040  8.053E-03    0   0.8877   age070_m32            0.0000     1.1266E+03    27.6975   4.0000    74.3516
 32      0.0000     0.0000E+00    0.0000E+00    1.445000E+07  0.00040  7.027E-03    0   0.8578   age078_m32            0.0000     6.3200E+02    16.9716   4.0000    77.5172
 33      0.0000     0.0000E+00    0.0000E+00    2.512000E+07  0.00040  4.707E-03    0   0.8166   age090_m32            0.0000     6.1341E+02    13.5992   3.9771    79.5249
 34      0.0000     0.0000E+00    0.0000E+00    4.000000E+07  0.00040  3.714E-03    0   0.7827   age104_m32            0.0000     7.4966E+02    12.5742   3.7871    82.1952
 35      0.0000     0.0000E+00    0.0000E+00    5.500000E+07  0.00040  2.982E-03    0   0.7593   age110_m32            0.0000     8.2412E+02    12.1704   3.7273    83.2939
 36      0.0000     0.0000E+00    0.0000E+00    1.015200E+08  0.00040  2.188E-03    0   0.7143   age116_m32            0.0000     1.1747E+03    10.9658   3.4582    87.7143
 37      0.0000     0.0000E+00    0.0000E+00    1.609000E+08  0.00040  1.690E-03    0   0.6856   age120_m32            0.0000     1.4179E+03    10.5694   3.2414    90.6311
 38      0.0000     0.0000E+00    0.0000E+00    2.861200E+08  0.00040  1.152E-03    0   0.6509   age125_m32            0.0000     1.5717E+03     9.7972   2.9617    94.7598
 39      0.0000     0.0000E+00    0.0000E+00    5.088000E+08  0.00040  7.331E-04    0   0.6182   age130_m32            0.0000     1.6048E+03     9.5312   2.7694    96.7218
 40      0.0000     0.0000E+00    0.0000E+00    9.047900E+08  0.00040  3.960E-04    0   0.5890   age135_m32            0.0000     1.0647E+03     8.4104   2.2742    96.9123
 41      0.0000     0.0000E+00    0.0000E+00    1.278050E+09  0.00040  2.854E-04    0   0.5687   age138_m32            0.0000     9.3791E+02     8.4848   1.9947    97.7698
 42      0.0000     0.0000E+00    0.0000E+00    1.434000E+09  0.00040  2.531E-04    0   0.5632   age139_m32            0.0000     9.2261E+02     8.4806   1.9335    97.7078
 43      1.2672     1.7926E-01    1.8989E-01    2.500000E+09  0.00040  1.488E-04    0   0.5386   age150_m32            0.0000     7.2787E+02     7.8353   1.6667    96.6305
 44      4.6159     1.0698E+00    1.0939E+00    4.250000E+09  0.00040  9.082E-05    0   0.5199   age158_m32            0.0000     4.2888E+02     7.3370   1.5611    93.8882
 45      2.7353     9.0500E-01    9.0346E-01    6.250000E+09  0.00040  6.362E-05    0   0.5076   age166_m32            0.0000     2.8228E+02     7.7389   1.5224    90.5662
 46      2.1040     8.3734E-01    8.2784E-01    7.500000E+09  0.00040  5.289E-05    0   0.5027   age171_m32            0.0000     2.5208E+02     7.6405   1.4804    89.6942
 47      4.5082     2.3891E+00    2.3249E+00    1.000000E+10  0.00040  3.972E-05    0   0.4948   age181_m32            0.0000     2.2812E+02     7.4063   1.4101    88.8927
 48      0.0000     0.0000E+00    0.0000E+00    1.300000E+10  0.00040  3.283E-05    0   0.4870   age193_m32            0.0000     2.8817E+02     7.0793   1.3666    91.4144
 49      0.0000     0.0000E+00    0.0000E+00    1.500000E+10  0.00040  2.925E-05    0   0.4854   age201_m32            0.0000     3.3593E+02     6.9752   1.3502    92.8438
 50      0.0000     0.0000E+00    0.0000E+00    1.800000E+10  0.00040  2.469E-05    0   0.4819   age213_m32            0.0000     3.5318E+02     6.8922   1.3096    93.3937
 51      0.0000     0.0000E+00    0.0000E+00    1.000000E+06  0.00400  1.114E-02    0   1.0000   age020_m42            0.0000     1.4327E+03    31.6728   4.0000    70.2326
 52      0.0000     0.0000E+00    0.0000E+00    3.160000E+06  0.00400  4.073E-02    0   0.9999   age045_m42            0.0000     5.0445E+02    12.0020   4.0000    80.6114
 53      0.0000     0.0000E+00    0.0000E+00    5.010000E+06  0.00400  2.534E-02    0   0.9488   age055_m42            0.0000     6.6864E+02    19.3994   4.0000    76.5666
 54      0.0000     0.0000E+00    0.0000E+00    6.610000E+06  0.00400  2.583E-02    0   0.9220   age061_m42            0.0000     6.0164E+02    12.2007   3.8374    80.6053
 55      0.0000     0.0000E+00    0.0000E+00    8.710000E+06  0.00400  1.706E-02    0   0.8983   age067_m42            0.0000     5.3668E+02    13.9897   3.6624    78.6338
 56      0.0000     0.0000E+00    0.0000E+00    1.000000E+07  0.00400  1.271E-02    0   0.8862   age070_m42            0.0000     5.3530E+02    15.4697   3.6517    77.0195
 57      0.0000     0.0000E+00    0.0000E+00    1.445000E+07  0.00400  7.666E-03    0   0.8571   age078_m42            0.0000     5.0924E+02    15.7507   4.0000    75.1329
 58      0.0000     0.0000E+00    0.0000E+00    2.512000E+07  0.00400  5.070E-03    0   0.8174   age090_m42            0.0000     5.2266E+02    14.9081   3.5085    79.0002
 59      0.0000     0.0000E+00    0.0000E+00    4.000000E+07  0.00400  3.505E-03    0   0.7851   age104_m42            0.0000     5.0856E+02    13.2525   3.1752    82.5942
 60      0.0000     0.0000E+00    0.0000E+00    5.500000E+07  0.00400  3.059E-03    0   0.7629   age110_m42            0.0000     7.5673E+02    11.1229   3.2384    86.7535
 61      0.0000     0.0000E+00    0.0000E+00    1.015200E+08  0.00400  2.268E-03    0   0.7207   age116_m42            0.0000     1.2849E+03     9.9482   3.1486    91.7844
 62      0.0000     0.0000E+00    0.0000E+00    1.609000E+08  0.00400  1.720E-03    0   0.6930   age120_m42            0.0000     1.2883E+03     9.1207   2.9800    94.5294
 63      0.0000     0.0000E+00    0.0000E+00    2.861200E+08  0.00400  1.079E-03    0   0.6613   age125_m42            0.0000     1.2629E+03     8.6884   2.5853    96.6210
 64      0.0000     0.0000E+00    0.0000E+00    5.088000E+08  0.00400  6.261E-04    0   0.6313   age130_m42            0.0000     1.3373E+03     8.7746   2.3798    99.6752
 65      0.0000     0.0000E+00    0.0000E+00    9.047900E+08  0.00400  3.535E-04    0   0.6024   age135_m42            0.0000     8.8003E+02     7.5646   1.9490   101.3907
 66      0.0000     0.0000E+00    0.0000E+00    1.278050E+09  0.00400  2.677E-04    0   0.5837   age138_m42            0.0000     3.0101E+02     4.5575   1.1885   103.4845
 67      0.0000     0.0000E+00    0.0000E+00    1.434000E+09  0.00400  1.910E-04    0   0.5716   age139_m42            0.0000     4.3053E+02     5.1297   1.3748   103.2037
 68      0.0022     4.8030E-04    5.1603E-04    2.500000E+09  0.00400  9.818E-05    0   0.5463   age150_m42            0.0000     1.1287E+02     3.0718   1.0730   100.6005
 69      0.0000     0.0000E+00    0.0000E+00    4.250000E+09  0.00400  5.491E-05    0   0.5269   age158_m42            0.0000     4.6340E+01     2.8109   0.9451    98.2594
 70      0.0000     0.0000E+00    0.0000E+00    6.250000E+09  0.00400  3.857E-05    0   0.5151   age166_m42            0.0000     2.0987E+01     2.2601   0.8057    97.8545
 71      0.0000     0.0000E+00    0.0000E+00    7.500000E+09  0.00400  3.243E-05    0   0.5110   age171_m42            0.0000     1.3014E+01     2.0896   0.7176    97.9544
 72      0.0041     3.5957E-03    3.5556E-03    1.000000E+10  0.00400  2.424E-05    0   0.5028   age181_m42            0.0000     1.0733E+01     2.1275   0.6239    98.2011
 73      0.0000     0.0000E+00    0.0000E+00    1.300000E+10  0.00400  1.883E-05    0   0.4927   age193_m42            0.0000     1.8833E+01     2.3348   0.5750    98.4648
 74      0.0000     0.0000E+00    0.0000E+00    1.500000E+10  0.00400  1.685E-05    0   0.4919   age201_m42            0.0000     1.6803E+01     2.3277   0.5843    98.2502
 75      0.0000     0.0000E+00    0.0000E+00    1.800000E+10  0.00400  1.452E-05    0   0.4874   age213_m42            0.0000     1.4459E+01     2.3507   0.6075    98.0962
 76      0.0000     0.0000E+00    0.0000E+00    1.000000E+06  0.00800  1.286E-02    0   1.0000   age020_m52            0.0000     1.3696E+03    30.7961   4.0000    71.9332
 77      0.0000     0.0000E+00    0.0000E+00    3.160000E+06  0.00800  3.147E-02    0   0.9966   age045_m52            0.0000     1.2399E+03    29.2789   4.0000    73.0547
 78      0.0000     0.0000E+00    0.0000E+00    5.010000E+06  0.00800  2.664E-02    0   0.9443   age055_m52            0.0000     8.0619E+02    22.2001   4.0000    75.9029
 79      0.0000     0.0000E+00    0.0000E+00    6.610000E+06  0.00800  2.151E-02    0   0.9177   age061_m52            0.0000     4.0451E+02    13.6044   3.2041    80.4943
 80      0.0000     0.0000E+00    0.0000E+00    8.710000E+06  0.00800  1.628E-02    0   0.8948   age067_m52            0.0000     5.3468E+02    14.4951   3.6113    79.2358
 81      0.0000     0.0000E+00    0.0000E+00    1.000000E+07  0.00800  1.215E-02    0   0.8827   age070_m52            0.0000     5.6130E+02    15.2061   3.9569    77.2802
 82      0.0000     0.0000E+00    0.0000E+00    1.445000E+07  0.00800  8.739E-03    0   0.8552   age078_m52            0.0000     6.0073E+02    14.5985   4.0000    78.1716
 83      0.0000     0.0000E+00    0.0000E+00    2.512000E+07  0.00800  5.676E-03    0   0.8162   age090_m52            0.0000     7.4804E+02    13.8819   3.6268    81.6093
 84      0.0000     0.0000E+00    0.0000E+00    4.000000E+07  0.00800  3.939E-03    0   0.7841   age104_m52            0.0000     8.2933E+02    12.4917   3.4523    84.5148
 85      0.0000     0.0000E+00    0.0000E+00    5.500000E+07  0.00800  3.155E-03    0   0.7627   age110_m52            0.0000     9.2523E+02    11.5161   3.4139    86.5990
 86      0.0000     0.0000E+00    0.0000E+00    1.015200E+08  0.00800  2.206E-03    0   0.7226   age116_m52            0.0000     1.1057E+03    10.0133   3.2059    91.4577
 87      0.0000     0.0000E+00    0.0000E+00    1.609000E+08  0.00800  1.596E-03    0   0.6963   age120_m52            0.0000     1.1750E+03     9.3668   2.9631    94.2351
 88      0.0000     0.0000E+00    0.0000E+00    2.861200E+08  0.00800  1.002E-03    0   0.6665   age125_m52            0.0000     1.3795E+03     8.5141   2.6091    99.7938
 89      0.0000     0.0000E+00    0.0000E+00    5.088000E+08  0.00800  5.759E-04    0   0.6377   age130_m52            0.0000     1.2770E+03     7.8948   2.1921   106.9419
 90      0.0000     0.0000E+00    0.0000E+00    9.047900E+08  0.00800  2.972E-04    0   0.6086   age135_m52            0.0000     6.2387E+02     6.2144   1.5763   110.0759
 91      0.0000     0.0000E+00    0.0000E+00    1.278050E+09  0.00800  2.242E-04    0   0.5907   age138_m52            0.0000     1.8562E+02     3.7771   0.9519   109.8464
 92      0.0000     0.0000E+00    0.0000E+00    1.434000E+09  0.00800  1.645E-04    0   0.5787   age139_m52            0.0000     1.9902E+02     3.7081   1.1213   108.0577
 93      0.0000     0.0000E+00    0.0000E+00    2.500000E+09  0.00800  7.723E-05    0   0.5519   age150_m52            0.0000     3.9776E+01     2.1636   0.7673   105.5515
 94      0.1530     7.7569E-02    8.1159E-02    4.250000E+09  0.00800  4.151E-05    0   0.5320   age158_m52            0.0000     1.3301E+01     1.6822   0.6982   103.1059
 95      3.1011     2.1686E+00    2.2165E+00    6.250000E+09  0.00800  3.010E-05    0   0.5197   age166_m52            0.0000     4.9027E+00     1.6943   0.4810   103.2320
 96      1.7542     1.4967E+00    1.5127E+00    7.500000E+09  0.00800  2.467E-05    0   0.5139   age171_m52            0.0000     7.8611E+00     1.8561   0.4321   103.2749
 97     69.0757     7.8087E+01    7.7616E+01    1.000000E+10  0.00800  1.862E-05    0   0.5054   age181_m52            0.0000     2.5938E+01     2.5404   0.2787   104.2801
 98      0.0157     2.2991E-02    2.2554E-02    1.300000E+10  0.00800  1.433E-05    0   0.4988   age193_m52            0.0000     6.5603E+01     3.3318   0.1594   106.3467
 99      0.0000     0.0000E+00    0.0000E+00    1.500000E+10  0.00800  1.244E-05    0   0.4936   age201_m52            0.0000     8.6796E+01     3.6351   0.1214   107.3646
100      0.0003     6.2539E-04    6.0121E-04    1.800000E+10  0.00800  1.070E-05    0   0.4888   age213_m52            0.0000     1.0194E+02     3.8720   0.0809   107.6046
101      0.0000     0.0000E+00    0.0000E+00    1.000000E+06  0.02000  1.989E-02    0   1.0000   age020_m62            0.0000     1.3481E+03    30.6028   4.0000    71.2645
102      0.0000     0.0000E+00    0.0000E+00    3.160000E+06  0.02000  3.772E-02    0   0.9858   age045_m62            0.0000     1.1467E+03    28.1627   4.0000    72.7805
103      0.0000     0.0000E+00    0.0000E+00    5.010000E+06  0.02000  3.227E-02    0   0.9342   age055_m62            0.0000     6.3354E+02    16.4932   4.0000    78.2824
104      0.0000     0.0000E+00    0.0000E+00    6.610000E+06  0.02000  2.387E-02    0   0.9090   age061_m62            0.0000     5.4335E+02    15.9295   4.0000    75.9172
105      0.0000     0.0000E+00    0.0000E+00    8.710000E+06  0.02000  1.102E-02    0   0.8861   age067_m62            0.0000     6.6740E+02    21.3859   3.6612    70.9518
106      0.0000     0.0000E+00    0.0000E+00    1.000000E+07  0.02000  1.011E-02    0   0.8751   age070_m62            0.0000     5.6835E+02    18.9241   3.6689    73.8307
107      0.0000     0.0000E+00    0.0000E+00    1.445000E+07  0.02000  7.331E-03    0   0.8472   age078_m62            0.0000     5.1375E+02    16.9067   3.6748    75.7887
108      0.0000     0.0000E+00    0.0000E+00    2.512000E+07  0.02000  4.206E-03    0   0.8099   age090_m62            0.0000     5.3807E+02    17.0465   3.5839    75.4996
109      0.0000     0.0000E+00    0.0000E+00    4.000000E+07  0.02000  3.373E-03    0   0.7799   age104_m62            0.0000     6.5414E+02    13.2196   3.3888    83.5601
110      0.0000     0.0000E+00    0.0000E+00    5.500000E+07  0.02000  2.747E-03    0   0.7595   age110_m62            0.0000     8.4284E+02    11.8750   3.3230    86.8390
111      0.0000     0.0000E+00    0.0000E+00    1.015200E+08  0.02000  1.878E-03    0   0.7221   age116_m62            0.0000     1.2411E+03    10.6546   3.1811    91.6495
112      0.0000     0.0000E+00    0.0000E+00    1.609000E+08  0.02000  1.378E-03    0   0.6978   age120_m62            0.0000     1.4569E+03     9.9342   3.0001    95.3601
113      0.0000     0.0000E+00    0.0000E+00    2.861200E+08  0.02000  8.869E-04    0   0.6700   age125_m62            0.0000     1.7616E+03     9.3062   2.5721   102.1535
114      0.0000     0.0000E+00    0.0000E+00    5.088000E+08  0.02000  4.834E-04    0   0.6430   age130_m62            0.0000     1.3559E+03     8.0774   2.0377   109.3873
115      0.0000     0.0000E+00    0.0000E+00    9.047900E+08  0.02000  2.312E-04    0   0.6152   age135_m62            0.0000     5.6630E+02     5.5882   1.3954   111.2101
116      0.0000     0.0000E+00    0.0000E+00    1.278050E+09  0.02000  1.387E-04    0   0.5927   age138_m62            0.0000     2.0495E+02     3.5156   1.0107   107.5282
117      0.0000     0.0000E+00    0.0000E+00    1.434000E+09  0.02000  1.168E-04    0   0.5865   age139_m62            0.0000     1.4721E+02     3.1382   0.9801   106.2530
118      0.0002     9.4041E-05    1.0376E-04    2.500000E+09  0.02000  5.505E-05    0   0.5610   age150_m62            0.0000     1.8007E+01     1.9750   0.5713   105.7695
119      0.0003     2.1091E-04    2.2428E-04    4.250000E+09  0.02000  3.070E-05    0   0.5407   age158_m62            0.0000     2.4107E+01     3.2232   0.2177   109.2121
120      0.0002     2.1824E-04    2.2649E-04    6.250000E+09  0.02000  2.104E-05    0   0.5277   age166_m62            0.0000     6.6992E+01     4.2294   0.0558   111.4590
121      0.0004     4.2186E-04    4.3334E-04    7.500000E+09  0.02000  1.770E-05    0   0.5223   age171_m62            0.0000     9.0406E+01     4.7779  -0.0476   112.7737
122      0.0000     0.0000E+00    0.0000E+00    1.000000E+10  0.02000  1.297E-05    0   0.5121   age181_m62            0.0000     1.5491E+02     5.8877  -0.2382   115.2045
123      0.0000     0.0000E+00    0.0000E+00    1.300000E+10  0.02000  9.691E-06    0   0.5047   age193_m62            0.0000     2.0727E+02     6.6017  -0.3437   116.8993
124      0.0000     0.0000E+00    0.0000E+00    1.500000E+10  0.02000  8.360E-06    0   0.4999   age201_m62            0.0000     2.5343E+02     7.2690  -0.4343   118.3300
125      0.0000     0.0000E+00    0.0000E+00    1.800000E+10  0.02000  6.911E-06    0   0.4946   age213_m62            0.0000     3.1270E+02     8.1456  -0.5360   120.1663
126      0.0000     0.0000E+00    0.0000E+00    1.000000E+06  0.05000  2.651E-02    0   0.9998   age020_m72            0.0000     1.3302E+03    30.2932   4.0000    72.2396
127      0.0000     0.0000E+00    0.0000E+00    3.160000E+06  0.05000  4.817E-02    0   0.9577   age045_m72            0.0000     9.3798E+02    24.6826   4.0000    75.4847
128      0.0000     0.0000E+00    0.0000E+00    5.010000E+06  0.05000  3.101E-02    0   0.9147   age055_m72            0.0000     5.9772E+02    17.5129   4.0000    76.9072
129      0.0000     0.0000E+00    0.0000E+00    6.610000E+06  0.05000  1.472E-02    0   0.8877   age061_m72            0.0000     5.8192E+02    18.6250   3.8670    73.0372
130      0.0000     0.0000E+00    0.0000E+00    8.710000E+06  0.05000  1.050E-02    0   0.8638   age067_m72            0.0000     5.9311E+02    17.2190   4.0000    75.7844
131      0.0000     0.0000E+00    0.0000E+00    1.000000E+07  0.05000  8.954E-03    0   0.8524   age070_m72            0.0000     7.6709E+02    21.3052   4.0000    77.4970
132      0.0000     0.0000E+00    0.0000E+00    1.445000E+07  0.05000  6.392E-03    0   0.8262   age078_m72            0.0000     7.0396E+02    19.6960   4.0000    78.6109
133      0.0000     0.0000E+00    0.0000E+00    2.512000E+07  0.05000  4.207E-03    0   0.7902   age090_m72            0.0000     5.4307E+02    12.7723   4.0000    81.0801
134      0.0000     0.0000E+00    0.0000E+00    4.000000E+07  0.05000  3.198E-03    0   0.7618   age104_m72            0.0000     9.4912E+02    10.5021   3.5565    87.9407
135      0.0000     0.0000E+00    0.0000E+00    5.500000E+07  0.05000  2.593E-03    0   0.7432   age110_m72            0.0000     1.1039E+03    10.5373   3.4701    89.4188
136      0.0000     0.0000E+00    0.0000E+00    1.015200E+08  0.05000  1.716E-03    0   0.7092   age116_m72            0.0000     1.3520E+03    10.2927   3.2680    92.0782
137      0.0000     0.0000E+00    0.0000E+00    1.609000E+08  0.05000  1.218E-03    0   0.6876   age120_m72            0.0000     1.5671E+03     9.6008   2.9690    96.1081
138      0.0000     0.0000E+00    0.0000E+00    2.861200E+08  0.05000  7.047E-04    0   0.6618   age125_m72            0.0000     1.6041E+03     8.1971   2.3460   103.9538
139      0.0000     0.0000E+00    0.0000E+00    5.088000E+08  0.05000  3.590E-04    0   0.6356   age130_m72            0.0000     1.0472E+03     6.6251   1.6690   111.8471
140      0.0000     0.0000E+00    0.0000E+00    9.047900E+08  0.05000  1.484E-04    0   0.6088   age135_m72            0.0000     1.8925E+02     3.7633   0.8695   109.4547
141      0.0000     0.0000E+00    0.0000E+00    1.278050E+09  0.05000  9.435E-05    0   0.5924   age138_m72            0.0000     3.9740E+01     3.4283   0.4262   109.1697
142      0.0001     2.7576E-05    3.1710E-05    1.434000E+09  0.05000  7.827E-05    0   0.5847   age139_m72            0.0000     2.5868E+01     3.1134   0.4417   108.4454
143      0.0000     0.0000E+00    0.0000E+00    2.500000E+09  0.05000  3.759E-05    0   0.5583   age150_m72            0.0000     5.0759E+01     4.2554   0.0697   110.4839
144      4.3793     5.0044E+00    5.2892E+00    4.250000E+09  0.05000  1.842E-05    0   0.5374   age158_m72            0.0000     1.2975E+02     5.7893  -0.2909   112.6414
145      2.0245     3.5306E+00    3.6399E+00    6.250000E+09  0.05000  1.207E-05    0   0.5242   age166_m72            0.0000     2.1487E+02     7.4039  -0.5802   115.1402
146      1.6725     3.5230E+00    3.5912E+00    7.500000E+09  0.05000  9.993E-06    0   0.5183   age171_m72            0.0000     2.2230E+02     7.6339  -0.6316   115.4861
147      0.0937     2.7062E-01    2.7042E-01    1.000000E+10  0.05000  7.291E-06    0   0.5081   age181_m72            0.0000     2.7496E+02     8.8531  -0.7969   117.6420
148      0.0009     3.4350E-03    3.3900E-03    1.300000E+10  0.05000  5.316E-06    0   0.5018   age193_m72            0.0000     3.6748E+02    10.6092  -1.0000   120.4916
149      0.0005     2.4820E-03    2.4270E-03    1.500000E+10  0.05000  4.497E-06    0   0.4972   age201_m72            0.0000     4.3701E+02    11.7000  -1.0000   121.2625
150      0.0043     2.4045E-02    2.3286E-02    1.800000E+10  0.05000  3.739E-06    0   0.4924   age213_m72            0.0000     5.8150E+02    13.9136  -1.0000   121.5431


## Synthesis Results - Average & Chains ##

# j      x_j: min, <> & last-chain-values for 1 ...  7 chains
  1      0.0000      0.0210      0.1035      0.0000      0.0470      0.0000      0.0663      0.0000      0.0000
  2      3.4868      2.0897      2.3583      2.2073      2.2327      2.3071      2.1807      2.4532      2.0739
  3      0.0000      0.0450      0.0000      0.1113      0.0000      0.0000      0.0588      0.0000      0.2192
  4      0.0000      0.0275      0.0000      0.0559      0.0000      0.0874      0.0000      0.0000      0.0664
  5      0.0000      0.0090      0.0491      0.0000      0.0000      0.0000      0.0000      0.0388      0.0000
  6      0.0000      0.0159      0.0668      0.0000      0.0000      0.0000      0.0157      0.0332      0.0056
  7      0.0000      0.0202      0.0000      0.0890      0.0000      0.1338      0.0000      0.1328      0.0000
  8      0.0000      0.0080      0.0000      0.0000      0.0067      0.0000      0.0000      0.0000      0.0201
  9      0.0000      0.0128      0.1049      0.0000      0.0000      0.0000      0.0000      0.0000      0.0180
 10      0.0000      0.0148      0.0169      0.0000      0.0443      0.0177      0.0000      0.1367      0.0000
 11      0.0000      0.0096      0.0000      0.0000      0.0000      0.0000      0.0000      0.0000      0.0478
 12      0.0000      0.0106      0.0000      0.0052      0.0043      0.0034      0.0000      0.0131      0.0000
 13      0.0000      0.0045      0.0000      0.0012      0.0848      0.0000      0.0000      0.0000      0.0000
 14      0.0000      0.0055      0.0000      0.0000      0.0000      0.0000      0.0000      0.0000      0.0000
 15      0.0000      0.0066      0.0000      0.0000      0.0069      0.0000      0.0000      0.0000      0.0000
 16      0.0000      0.0159      0.0000      0.0000      0.0000      0.0000      0.0000      0.0000      0.0000
 17      0.0000      0.0128      0.0000      0.0000      0.0000      0.0000      0.0438      0.0964      0.0000
 18      0.0000      0.0184      0.0124      0.0082      0.0000      0.1514      0.0000      0.0000      0.0000
 19      0.0000      0.0342      0.0349      0.0214      0.0000      0.0000      0.0000      0.0000      0.1989
 20      0.0000      0.0577      0.1513      0.0000      0.1325      0.0735      0.1191      0.0998      0.1735
 21      0.0000      0.0479      0.0822      0.0000      0.0000      0.0423      0.0324      0.0000      0.0000
 22      0.8526      0.0376      0.2005      0.0769      0.1026      0.0721      0.1247      0.0240      0.0374
 23      0.0000      0.0446      0.0000      0.0122      0.2059      0.0000      0.0334      0.1093      0.0000
 24      0.0000      0.0621      0.1255      0.0000      0.0778      0.0000      0.2415      0.0389      0.1617
 25      0.0000      0.0516      0.0697      0.0000      0.0531      0.1821      0.0656      0.0221      0.1430
 26      0.0000      0.0205      0.1047      0.0000      0.0182      0.0000      0.0504      0.0000      0.0000
 27      0.0000      0.0173      0.0145      0.0000      0.0000      0.0536      0.0254      0.0000      0.0000
 28      0.0000      0.0250      0.1127      0.0000      0.0179      0.0000      0.0000      0.1174      0.0203
 29      0.0000      0.0203      0.0014      0.0000      0.0299      0.0000      0.0174      0.0149      0.0000
 30      0.0000      0.0386      0.0000      0.0000      0.2132      0.0276      0.0000      0.0303      0.0000
 31      0.0000      0.0150      0.0000      0.0000      0.0516      0.0000      0.0755      0.0000      0.0000
 32      0.0000      0.0291      0.0000      0.0653      0.0129      0.0000      0.0000      0.0236      0.0742
 33      0.0000      0.0135      0.0022      0.0000      0.0562      0.0213      0.0000      0.0540      0.0000
 34      0.0000      0.0182      0.0093      0.0000      0.0000      0.0000      0.0051      0.0000      0.0000
 35      0.0000      0.0105      0.0000      0.0000      0.0000      0.0107      0.0326      0.0085      0.0000
 36      0.0000      0.0126      0.0000      0.0000      0.0000      0.0000      0.0000      0.0261      0.0000
 37      0.0000      0.0086      0.0000      0.0000      0.0681      0.0000      0.0000      0.0100      0.0000
 38      0.0000      0.0042      0.0000      0.0000      0.0000      0.0000      0.0138      0.0000      0.0000
 39      0.0000      0.0043      0.0000      0.0000      0.0000      0.0000      0.0000      0.0294      0.0000
 40      0.0000      0.0098      0.0000      0.0000      0.0000      0.0000      0.0000      0.0000      0.0000
 41      0.0000      0.0153      0.0851      0.0000      0.0000      0.0233      0.0788      0.0132      0.0000
 42      0.0000      0.0264      0.0155      0.0000      0.0271      0.0932      0.0000      0.0000      0.0055
 43      1.2672      3.9628      3.9445      4.0796      3.4945      3.9263      3.5799      3.3595      3.8374
 44      4.6159      5.3661      5.1668      5.5432      5.2135      5.3191      5.1055      5.3445      5.3616
 45      2.7353      0.1083      0.2330      0.4396      0.1575      0.1219      0.1237      0.2412      0.1082
 46      2.1040      0.1573      0.4873      0.2310      0.2704      0.2430      0.2832      0.0610      0.2814
 47      4.5082      3.9682      4.0119      3.8415      4.3736      3.9297      4.0637      4.3093      3.9864
 48      0.0000      0.0648      0.0120      0.0000      0.0111      0.1970      0.2257      0.0000      0.0330
 49      0.0000      0.0606      0.0000      0.0000      0.0043      0.0000      0.0476      0.0378      0.3112
 50      0.0000      0.0660      0.0265      0.0296      0.4467      0.0081      0.4401      0.2192      0.0524
 51      0.0000      0.0126      0.0000      0.0000      0.0000      0.0000      0.0000      0.0109      0.0000
 52      0.0000      0.0616      0.0000      0.1638      0.0464      0.1830      0.1566      0.0000      0.0763
 53      0.0000      0.0213      0.0209      0.0140      0.0000      0.0574      0.0000      0.0000      0.0703
 54      0.0000      0.0281      0.0000      0.0008      0.2448      0.0000      0.0460      0.0000      0.0000
 55      0.0000      0.0283      0.0141      0.0403      0.0000      0.0000      0.3021      0.0105      0.0000
 56      0.0000      0.0359      0.0000      0.0000      0.1159      0.0000      0.0000      0.0000      0.0562
 57      0.0000      0.0196      0.0000      0.0000      0.0000      0.0000      0.0000      0.0000      0.1452
 58      0.0000      0.0159      0.0000      0.0636      0.0000      0.0000      0.0500      0.0000      0.0000
 59      0.0000      0.0073      0.0000      0.0000      0.0000      0.0032      0.0000      0.0000      0.0000
 60      0.0000      0.0161      0.0000      0.0066      0.0000      0.0000      0.0000      0.0000      0.0000
 61      0.0000      0.0071      0.0000      0.0000      0.0000      0.0000      0.0000      0.0000      0.0000
 62      0.0000      0.0082      0.0000      0.0000      0.0000      0.0000      0.0000      0.0243      0.0000
 63      0.0000      0.0038      0.0000      0.0000      0.0000      0.0000      0.0000      0.0000      0.0000
 64      0.0000      0.0103      0.0000      0.0000      0.0000      0.0000      0.0000      0.0000      0.0000
 65      0.0000      0.0204      0.0000      0.0064      0.0000      0.0000      0.0000      0.0632      0.0000
 66      0.0000      0.0316      0.0000      0.0000      0.0000      0.0134      0.0000      0.0207      0.0022
 67      0.0000      0.0310      0.0000      0.0000      0.0000      0.0669      0.0255      0.0000      0.0000
 68      0.0022      0.1020      0.2442      0.5655      0.1062      0.1452      0.0000      0.0859      0.1133
 69      0.0000      0.0958      0.0735      0.1427      0.0104      0.2775      0.0000      0.1206      0.1973
 70      0.0000      0.1168      0.0609      0.3054      0.0000      0.1221      0.0132      0.3532      0.0000
 71      0.0000      0.1112      0.0450      0.0000      0.2289      0.1974      0.0980      0.0000      0.0000
 72      0.0041      0.1816      0.1936      0.0000      0.1589      0.4036      0.3262      0.3348      0.1478
 73      0.0000      0.0862      0.0000      0.1741      0.0039      0.0000      0.5342      0.0868      0.1292
 74      0.0000      0.0975      0.0000      0.5265      0.1076      0.3133      0.2056      0.2999      0.1784
 75      0.0000      0.0898      0.0017      0.0552      0.0332      0.1365      0.1891      0.0491      0.0245
 76      0.0000      0.0108      0.0000      0.0286      0.0000      0.0000      0.0077      0.0000      0.0000
 77      0.0000      0.0082      0.0000      0.0000      0.0000      0.0000      0.0164      0.0000      0.0000
 78      0.0000      0.0151      0.0000      0.0000      0.0000      0.0000      0.0000      0.0000      0.0255
 79      0.0000      0.0281      0.0000      0.0000      0.0000      0.0000      0.0550      0.0000      0.0561
 80      0.0000      0.0141      0.0000      0.0000      0.0000      0.0000      0.0191      0.0725      0.0000
 81      0.0000      0.0083      0.0000      0.0000      0.0000      0.0000      0.0000      0.0000      0.0000
 82      0.0000      0.0118      0.0000      0.0000      0.0000      0.0000      0.0000      0.0000      0.0000
 83      0.0000      0.0145      0.0000      0.0000      0.0196      0.0000      0.0000      0.0028      0.0000
 84      0.0000      0.0070      0.0683      0.0000      0.0000      0.0000      0.0000      0.0000      0.0000
 85      0.0000      0.0087      0.0000      0.0000      0.0000      0.0000      0.0000      0.0000      0.0617
 86      0.0000      0.0074      0.0000      0.0067      0.0000      0.0000      0.0000      0.0000      0.0130
 87      0.0000      0.0095      0.0000      0.0000      0.0000      0.0000      0.0000      0.0000      0.0000
 88      0.0000      0.0071      0.0000      0.0000      0.0000      0.0000      0.0000      0.0000      0.0000
 89      0.0000      0.0159      0.0000      0.0000      0.0221      0.0000      0.0000      0.0000      0.0000
 90      0.0000      0.0187      0.0000      0.0977      0.0000      0.0000      0.0000      0.0119      0.0000
 91      0.0000      0.0696      0.0000      0.0000      0.0975      0.0000      0.0024      0.0695      0.0651
 92      0.0000      0.0457      0.0210      0.0030      0.0000      0.0000      0.1871      0.0100      0.0150
 93      0.0000      0.0610      0.1528      0.0000      0.0000      0.0275      0.0000      0.0000      0.0000
 94      0.1530      0.2023      0.9330      0.2718      0.2284      0.1340      0.8060      0.7662      0.2103
 95      3.1011      0.2524      0.2783      0.0000      0.3139      0.8631      0.2124      0.4205      0.2014
 96      1.7542      0.1592      0.3000      0.0183      0.2650      0.7885      0.3377      0.3137      0.3223
 97     69.0757     76.6485     75.0738     75.6024     75.4682     74.6241     74.4215     74.9518     75.8958
 98      0.0157      1.7704      1.5566      1.6070      1.9970      1.7847      1.7243      1.2122      1.5642
 99      0.0000      0.1213      0.0000      0.1082      0.0017      0.3641      0.0631      0.0901      0.1264
100      0.0003      0.0849      0.1688      0.0000      0.2857      0.0000      0.1929      0.1706      0.0599
101      0.0000      0.0103      0.0000      0.0841      0.0000      0.0014      0.0000      0.0000      0.0000
102      0.0000      0.0103      0.0000      0.0000      0.0000      0.0000      0.0000      0.0000      0.0482
103      0.0000      0.0167      0.0528      0.0563      0.0000      0.1447      0.0000      0.0118      0.0038
104      0.0000      0.0280      0.0000      0.0000      0.0000      0.0000      0.0429      0.0518      0.0950
105      0.0000      0.0200      0.0231      0.0880      0.0000      0.0313      0.0250      0.0000      0.0000
106      0.0000      0.0345      0.0000      0.1263      0.0000      0.0574      0.0000      0.0000      0.0000
107      0.0000      0.0119      0.0000      0.0102      0.0080      0.0000      0.0000      0.0000      0.0000
108      0.0000      0.0071      0.0000      0.0131      0.0000      0.0000      0.0000      0.0000      0.0000
109      0.0000      0.0116      0.0000      0.0039      0.0000      0.0000      0.0000      0.0000      0.0000
110      0.0000      0.0059      0.0000      0.0000      0.0000      0.0000      0.0000      0.0000      0.0000
111      0.0000      0.0056      0.0000      0.0000      0.0000      0.0000      0.0000      0.0000      0.0000
112      0.0000      0.0055      0.0000      0.0000      0.0000      0.0039      0.0000      0.0000      0.0039
113      0.0000      0.0042      0.0000      0.0000      0.0000      0.0000      0.0000      0.0000      0.0000
114      0.0000      0.0115      0.0000      0.0000      0.0473      0.0000      0.0037      0.0000      0.0234
115      0.0000      0.0402      0.0000      0.0000      0.0146      0.0000      0.0000      0.2800      0.0006
116      0.0000      0.0539      0.0000      0.0000      0.0170      0.0802      0.0041      0.0000      0.0721
117      0.0000      0.0683      0.0000      0.2555      0.1463      0.0000      0.0000      0.0000      0.0000
118      0.0002      0.1265      0.4041      0.1471      0.0000      0.0000      0.1562      0.0000      0.1630
119      0.0003      0.1874      0.3272      0.2689      0.1166      0.2390      0.4508      0.6327      0.0019
120      0.0002      0.1355      0.2803      0.2610      0.1143      0.0068      0.0000      0.0737      0.1504
121      0.0004      0.1545      0.1736      0.2526      0.1607      0.1268      0.0190      0.0183      0.4040
122      0.0000      0.1645      0.0000      0.0831      0.1377      0.2243      0.0074      0.4305      0.3562
123      0.0000      0.1737      0.0000      0.2256      0.0318      0.1891      0.3677      0.0887      0.0909
124      0.0000      0.1352      0.0331      0.0416      0.0000      0.1162      0.2123      0.1599      0.0000
125      0.0000      0.1807      0.0000      0.1280      0.1369      0.0556      0.0000      0.0463      0.0000
126      0.0000      0.0149      0.0000      0.0081      0.0022      0.0991      0.0041      0.0000      0.0000
127      0.0000      0.0183      0.0540      0.0000      0.0596      0.0000      0.0000      0.0000      0.0090
128      0.0000      0.0105      0.0000      0.0000      0.0330      0.0000      0.0000      0.0674      0.0082
129      0.0000      0.0103      0.0000      0.0000      0.0438      0.0000      0.0338      0.0000      0.0000
130      0.0000      0.0224      0.0316      0.0008      0.0000      0.0000      0.0000      0.0000      0.0662
131      0.0000      0.0114      0.0000      0.0000      0.0000      0.0000      0.0000      0.0000      0.0000
132      0.0000      0.0080      0.0000      0.0049      0.0000      0.0000      0.0000      0.0061      0.0000
133      0.0000      0.0118      0.0000      0.0000      0.0000      0.0000      0.0000      0.0069      0.0000
134      0.0000      0.0071      0.0000      0.0000      0.0018      0.0000      0.0000      0.0000      0.0000
135      0.0000      0.0047      0.0000      0.0000      0.0000      0.0000      0.0000      0.0000      0.0000
136      0.0000      0.0065      0.0000      0.0000      0.0067      0.0000      0.0000      0.0000      0.0024
137      0.0000      0.0030      0.0000      0.0000      0.0000      0.0000      0.0000      0.0000      0.0000
138      0.0000      0.0090      0.0000      0.0000      0.0299      0.0000      0.0000      0.0334      0.0000
139      0.0000      0.0164      0.0000      0.0000      0.0000      0.0000      0.0168      0.0472      0.0000
140      0.0000      0.0524      0.0000      0.0000      0.0000      0.0269      0.0020      0.0395      0.0000
141      0.0000      0.0919      0.0726      0.0000      0.0700      0.0292      0.0000      0.0707      0.2190
142      0.0001      0.0912      0.1624      0.2319      0.0000      0.0134      0.0445      0.0702      0.0000
143      0.0000      0.2479      0.0000      0.2055      0.3464      0.2880      0.1496      0.0725      0.2173
144      4.3793      0.3059      0.5839      0.2022      0.4786      0.4217      0.5338      0.6979      0.4152
145      2.0245      0.4961      0.5817      0.9939      0.5353      0.9575      0.7047      0.6513      0.6486
146      1.6725      0.3926      0.6867      0.4806      0.8328      0.4026      0.5738      0.5989      0.7210
147      0.0937      0.3749      0.6550      0.5970      0.7915      0.4096      0.5502      0.5498      0.4090
148      0.0009      0.2698      0.4000      0.3923      0.2916      0.1753      0.0079      0.4282      0.2670
149      0.0005      0.2983      0.5021      0.0000      0.2444      0.0813      0.7390      0.3524      0.4261
150      0.0043      0.2166      0.2444      0.2924      0.0898      0.2904      0.2524      0.0000      0.2063

# j      m_j: min, <> & last-chain-values for 1 ...  7 chains
  1  0.0000E+00  1.0307E-04  5.0409E-04  0.0000E+00  2.2976E-04  0.0000E+00  3.1981E-04  0.0000E+00  0.0000E+00
  2  3.0330E-03  1.7549E-03  1.9704E-03  1.8606E-03  1.8696E-03  1.9535E-03  1.8038E-03  2.0667E-03  1.7364E-03
  3  0.0000E+00  8.9253E-05  0.0000E+00  2.2136E-04  0.0000E+00  0.0000E+00  1.1489E-04  0.0000E+00  4.3310E-04
  4  0.0000E+00  1.0248E-04  0.0000E+00  2.0917E-04  0.0000E+00  3.2838E-04  0.0000E+00  0.0000E+00  2.4654E-04
  5  0.0000E+00  4.2248E-05  2.2943E-04  0.0000E+00  0.0000E+00  0.0000E+00  0.0000E+00  1.8248E-04  0.0000E+00
  6  0.0000E+00  8.8711E-05  3.7070E-04  0.0000E+00  0.0000E+00  0.0000E+00  8.6410E-05  1.8585E-04  3.1021E-05
  7  0.0000E+00  1.4246E-04  0.0000E+00  6.2941E-04  0.0000E+00  9.5026E-04  0.0000E+00  9.3845E-04  0.0000E+00
  8  0.0000E+00  6.4000E-05  0.0000E+00  0.0000E+00  5.3159E-05  0.0000E+00  0.0000E+00  0.0000E+00  1.5976E-04
  9  0.0000E+00  1.0943E-04  8.9364E-04  0.0000E+00  0.0000E+00  0.0000E+00  0.0000E+00  0.0000E+00  1.5371E-04
 10  0.0000E+00  1.4522E-04  1.6514E-04  0.0000E+00  4.3359E-04  1.7533E-04  0.0000E+00  1.3463E-03  0.0000E+00
 11  0.0000E+00  1.1263E-04  0.0000E+00  0.0000E+00  0.0000E+00  0.0000E+00  0.0000E+00  0.0000E+00  5.5876E-04
 12  0.0000E+00  2.1695E-04  0.0000E+00  1.0814E-04  8.8592E-05  6.9551E-05  0.0000E+00  2.6940E-04  0.0000E+00
 13  0.0000E+00  1.0746E-04  0.0000E+00  2.8722E-05  2.0158E-03  0.0000E+00  0.0000E+00  0.0000E+00  0.0000E+00
 14  0.0000E+00  1.8529E-04  0.0000E+00  0.0000E+00  0.0000E+00  0.0000E+00  0.0000E+00  0.0000E+00  0.0000E+00
 15  0.0000E+00  3.3792E-04  0.0000E+00  0.0000E+00  3.4917E-04  0.0000E+00  0.0000E+00  0.0000E+00  0.0000E+00
 16  0.0000E+00  1.1796E-03  0.0000E+00  0.0000E+00  0.0000E+00  0.0000E+00  0.0000E+00  0.0000E+00  0.0000E+00
 17  0.0000E+00  1.0531E-03  0.0000E+00  0.0000E+00  0.0000E+00  0.0000E+00  3.5413E-03  7.9452E-03  0.0000E+00
 18  0.0000E+00  2.4582E-03  1.6509E-03  1.0971E-03  0.0000E+00  2.0428E-02  0.0000E+00  0.0000E+00  0.0000E+00
 19  0.0000E+00  6.9268E-03  7.0353E-03  4.3648E-03  0.0000E+00  0.0000E+00  0.0000E+00  0.0000E+00  4.0211E-02
 20  0.0000E+00  1.6747E-02  4.3663E-02  0.0000E+00  3.8327E-02  2.1488E-02  3.4014E-02  2.9030E-02  5.0175E-02
 21  0.0000E+00  1.6065E-02  2.7431E-02  0.0000E+00  0.0000E+00  1.4316E-02  1.0699E-02  0.0000E+00  0.0000E+00
 22  3.8236E-01  1.6295E-02  8.6348E-02  3.3403E-02  4.4296E-02  3.1475E-02  5.3174E-02  1.0419E-02  1.6159E-02
 23  0.0000E+00  2.4456E-02  0.0000E+00  6.7408E-03  1.1266E-01  0.0000E+00  1.8053E-02  6.0147E-02  0.0000E+00
 24  0.0000E+00  3.8986E-02  7.8341E-02  0.0000E+00  4.8684E-02  0.0000E+00  1.4931E-01  2.4460E-02  1.0117E-01
 25  0.0000E+00  3.8924E-02  5.2295E-02  0.0000E+00  3.9951E-02  1.3845E-01  4.8682E-02  1.6740E-02  1.0747E-01
 26  0.0000E+00  9.6642E-05  4.9223E-04  0.0000E+00  8.5582E-05  0.0000E+00  2.3446E-04  0.0000E+00  0.0000E+00
 27  0.0000E+00  1.7365E-05  1.4547E-05  0.0000E+00  0.0000E+00  5.4401E-05  2.5155E-05  0.0000E+00  0.0000E+00
 28  0.0000E+00  4.9135E-05  2.2066E-04  0.0000E+00  3.5119E-05  0.0000E+00  0.0000E+00  2.3181E-04  3.9911E-05
 29  0.0000E+00  6.2154E-05  4.3636E-06  0.0000E+00  9.1461E-05  0.0000E+00  5.2512E-05  4.5961E-05  0.0000E+00
 30  0.0000E+00  1.4723E-04  0.0000E+00  0.0000E+00  8.1082E-04  1.0612E-04  0.0000E+00  1.1582E-04  0.0000E+00
 31  0.0000E+00  6.6218E-05  0.0000E+00  0.0000E+00  2.2687E-04  0.0000E+00  3.2780E-04  0.0000E+00  0.0000E+00
 32  0.0000E+00  1.4185E-04  0.0000E+00  3.1977E-04  6.2976E-05  0.0000E+00  0.0000E+00  1.1562E-04  3.6080E-04
 33  0.0000E+00  9.3653E-05  1.5280E-05  0.0000E+00  3.8884E-04  1.4879E-04  0.0000E+00  3.7577E-04  0.0000E+00
 34  0.0000E+00  1.5318E-04  7.8183E-05  0.0000E+00  0.0000E+00  0.0000E+00  4.2363E-05  0.0000E+00  0.0000E+00
 35  0.0000E+00  1.0712E-04  0.0000E+00  0.0000E+00  0.0000E+00  1.0940E-04  3.2701E-04  8.7266E-05  0.0000E+00
 36  0.0000E+00  1.6504E-04  0.0000E+00  0.0000E+00  0.0000E+00  0.0000E+00  0.0000E+00  3.4125E-04  0.0000E+00
 37  0.0000E+00  1.3871E-04  0.0000E+00  0.0000E+00  1.1013E-03  0.0000E+00  0.0000E+00  1.6250E-04  0.0000E+00
 38  0.0000E+00  9.5441E-05  0.0000E+00  0.0000E+00  0.0000E+00  0.0000E+00  3.0598E-04  0.0000E+00  0.0000E+00
 39  0.0000E+00  1.4420E-04  0.0000E+00  0.0000E+00  0.0000E+00  0.0000E+00  0.0000E+00  9.9487E-04  0.0000E+00
 40  0.0000E+00  5.8377E-04  0.0000E+00  0.0000E+00  0.0000E+00  0.0000E+00  0.0000E+00  0.0000E+00  0.0000E+00
 41  0.0000E+00  1.2192E-03  6.7437E-03  0.0000E+00  0.0000E+00  1.8707E-03  6.1796E-03  1.0571E-03  0.0000E+00
 42  0.0000E+00  2.3460E-03  1.3692E-03  0.0000E+00  2.3995E-03  8.3565E-03  0.0000E+00  0.0000E+00  4.8551E-04
 43  1.8989E-01  5.7325E-01  5.6771E-01  5.9237E-01  5.0407E-01  5.7267E-01  5.1010E-01  4.8753E-01  5.5346E-01
 44  1.0939E+00  1.2277E+00  1.1761E+00  1.2730E+00  1.1894E+00  1.2270E+00  1.1505E+00  1.2266E+00  1.2230E+00
 45  9.0346E-01  3.4517E-02  7.3924E-02  1.4071E-01  5.0063E-02  3.9190E-02  3.8863E-02  7.7170E-02  3.4391E-02
 46  8.2784E-01  5.9736E-02  1.8417E-01  8.8060E-02  1.0242E-01  9.3053E-02  1.0597E-01  2.3248E-02  1.0655E-01
 47  2.3249E+00  1.9756E+00  1.9872E+00  1.9197E+00  2.1712E+00  1.9726E+00  1.9928E+00  2.1522E+00  1.9787E+00
 48  0.0000E+00  3.8401E-02  7.0597E-03  0.0000E+00  6.5373E-03  1.1775E-01  1.3177E-01  0.0000E+00  1.9519E-02
 49  0.0000E+00  4.0167E-02  0.0000E+00  0.0000E+00  2.8376E-03  0.0000E+00  3.1123E-02  2.5133E-02  2.0580E-01
 50  0.0000E+00  5.1475E-02  2.0576E-02  2.3165E-02  3.4748E-01  6.3387E-03  3.3813E-01  1.7154E-01  4.0749E-02
 51  0.0000E+00  4.5135E-05  0.0000E+00  0.0000E+00  0.0000E+00  0.0000E+00  0.0000E+00  3.9117E-05  0.0000E+00
 52  0.0000E+00  6.0468E-05  0.0000E+00  1.6131E-04  4.5438E-05  1.8100E-04  1.5138E-04  0.0000E+00  7.4621E-05
 53  0.0000E+00  3.1851E-05  3.1119E-05  2.0979E-05  0.0000E+00  8.6644E-05  0.0000E+00  0.0000E+00  1.0487E-04
 54  0.0000E+00  4.0121E-05  0.0000E+00  1.1757E-06  3.4816E-04  0.0000E+00  6.4631E-05  0.0000E+00  0.0000E+00
 55  0.0000E+00  5.9649E-05  2.9531E-05  8.5078E-05  0.0000E+00  0.0000E+00  6.2622E-04  2.2239E-05  0.0000E+00
 56  0.0000E+00  1.0017E-04  0.0000E+00  0.0000E+00  3.2207E-04  0.0000E+00  0.0000E+00  0.0000E+00  1.5603E-04
 57  0.0000E+00  8.7375E-05  0.0000E+00  0.0000E+00  0.0000E+00  0.0000E+00  0.0000E+00  0.0000E+00  6.4708E-04
 58  0.0000E+00  1.0264E-04  0.0000E+00  4.1114E-04  0.0000E+00  0.0000E+00  3.1732E-04  0.0000E+00  0.0000E+00
 59  0.0000E+00  6.5186E-05  0.0000E+00  0.0000E+00  0.0000E+00  2.8761E-05  0.0000E+00  0.0000E+00  0.0000E+00
 60  0.0000E+00  1.6018E-04  0.0000E+00  6.5814E-05  0.0000E+00  0.0000E+00  0.0000E+00  0.0000E+00  0.0000E+00
 61  0.0000E+00  9.0191E-05  0.0000E+00  0.0000E+00  0.0000E+00  0.0000E+00  0.0000E+00  0.0000E+00  0.0000E+00
 62  0.0000E+00  1.3221E-04  0.0000E+00  0.0000E+00  0.0000E+00  0.0000E+00  0.0000E+00  3.9213E-04  0.0000E+00
 63  0.0000E+00  9.2288E-05  0.0000E+00  0.0000E+00  0.0000E+00  0.0000E+00  0.0000E+00  0.0000E+00  0.0000E+00
 64  0.0000E+00  4.1639E-04  0.0000E+00  0.0000E+00  0.0000E+00  0.0000E+00  0.0000E+00  0.0000E+00  0.0000E+00
 65  0.0000E+00  1.3884E-03  0.0000E+00  4.4088E-04  0.0000E+00  0.0000E+00  0.0000E+00  4.3210E-03  0.0000E+00
 66  0.0000E+00  2.7498E-03  0.0000E+00  0.0000E+00  0.0000E+00  1.1809E-03  0.0000E+00  1.8114E-03  1.9320E-04
 67  0.0000E+00  3.7019E-03  0.0000E+00  0.0000E+00  0.0000E+00  8.0659E-03  2.9987E-03  0.0000E+00  0.0000E+00
 68  5.1603E-04  2.2688E-02  5.4019E-02  1.2622E-01  2.3545E-02  3.2566E-02  0.0000E+00  1.9153E-02  2.5112E-02
 69  0.0000E+00  3.6726E-02  2.8032E-02  5.4945E-02  3.9896E-03  1.0729E-01  0.0000E+00  4.6413E-02  7.5427E-02
 70  0.0000E+00  6.2316E-02  3.2319E-02  1.6360E-01  0.0000E+00  6.5733E-02  6.9189E-03  1.8913E-01  0.0000E+00
 71  0.0000E+00  7.0021E-02  2.8215E-02  0.0000E+00  1.4372E-01  1.2534E-01  6.0790E-02  0.0000E+00  0.0000E+00
 72  3.5556E-03  1.5052E-01  1.5964E-01  0.0000E+00  1.3132E-01  3.3732E-01  2.6633E-01  2.7843E-01  1.2214E-01
 73  0.0000E+00  9.0164E-02  0.0000E+00  1.8269E-01  4.0311E-03  0.0000E+00  5.5025E-01  9.1017E-02  1.3470E-01
 74  0.0000E+00  1.1374E-01  0.0000E+00  6.1663E-01  1.2520E-01  3.6849E-01  2.3624E-01  3.5097E-01  2.0749E-01
 75  0.0000E+00  1.2052E-01  2.3127E-03  7.4376E-02  4.4384E-02  1.8458E-01  2.4988E-01  6.6115E-02  3.2738E-02
 76  0.0000E+00  3.3676E-05  0.0000E+00  8.9365E-05  0.0000E+00  0.0000E+00  2.3461E-05  0.0000E+00  0.0000E+00
 77  0.0000E+00  1.0406E-05  0.0000E+00  0.0000E+00  0.0000E+00  0.0000E+00  2.0431E-05  0.0000E+00  0.0000E+00
 78  0.0000E+00  2.1325E-05  0.0000E+00  0.0000E+00  0.0000E+00  0.0000E+00  0.0000E+00  0.0000E+00  3.6026E-05
 79  0.0000E+00  4.7971E-05  0.0000E+00  0.0000E+00  0.0000E+00  0.0000E+00  9.2356E-05  0.0000E+00  9.5408E-05
 80  0.0000E+00  3.0967E-05  0.0000E+00  0.0000E+00  0.0000E+00  0.0000E+00  4.1247E-05  1.5975E-04  0.0000E+00
 81  0.0000E+00  2.4210E-05  0.0000E+00  0.0000E+00  0.0000E+00  0.0000E+00  0.0000E+00  0.0000E+00  0.0000E+00
 82  0.0000E+00  4.6206E-05  0.0000E+00  0.0000E+00  0.0000E+00  0.0000E+00  0.0000E+00  0.0000E+00  0.0000E+00
 83  0.0000E+00  8.3596E-05  0.0000E+00  0.0000E+00  1.1218E-04  0.0000E+00  0.0000E+00  1.6110E-05  0.0000E+00
 84  0.0000E+00  5.5866E-05  5.4061E-04  0.0000E+00  0.0000E+00  0.0000E+00  0.0000E+00  0.0000E+00  0.0000E+00
 85  0.0000E+00  8.4420E-05  0.0000E+00  0.0000E+00  0.0000E+00  0.0000E+00  0.0000E+00  0.0000E+00  5.9414E-04
 86  0.0000E+00  9.6331E-05  0.0000E+00  8.7549E-05  0.0000E+00  0.0000E+00  0.0000E+00  0.0000E+00  1.6970E-04
 87  0.0000E+00  1.6551E-04  0.0000E+00  0.0000E+00  0.0000E+00  0.0000E+00  0.0000E+00  0.0000E+00  0.0000E+00
 88  0.0000E+00  1.8766E-04  0.0000E+00  0.0000E+00  0.0000E+00  0.0000E+00  0.0000E+00  0.0000E+00  0.0000E+00
 89  0.0000E+00  7.0271E-04  0.0000E+00  0.0000E+00  9.7469E-04  0.0000E+00  0.0000E+00  0.0000E+00  0.0000E+00
 90  0.0000E+00  1.5301E-03  0.0000E+00  8.0270E-03  0.0000E+00  0.0000E+00  0.0000E+00  9.7890E-04  0.0000E+00
 91  0.0000E+00  7.3335E-03  0.0000E+00  0.0000E+00  1.0242E-02  0.0000E+00  2.5392E-04  7.3460E-03  6.8337E-03
 92  0.0000E+00  6.4187E-03  2.9354E-03  4.1993E-04  0.0000E+00  0.0000E+00  2.5909E-02  1.4052E-03  2.1022E-03
 93  0.0000E+00  1.7430E-02  4.3418E-02  0.0000E+00  0.0000E+00  7.9329E-03  0.0000E+00  0.0000E+00  0.0000E+00
 94  8.1159E-02  1.0360E-01  4.7544E-01  1.3976E-01  1.1663E-01  6.9192E-02  4.0665E-01  3.9370E-01  1.0738E-01
 95  2.2165E+00  1.7414E-01  1.9105E-01  0.0000E+00  2.1600E-01  6.0046E-01  1.4436E-01  2.9109E-01  1.3858E-01
 96  1.5127E+00  1.3251E-01  2.4844E-01  1.5256E-02  2.1996E-01  6.6189E-01  2.7696E-01  2.6197E-01  2.6755E-01
 97  7.7616E+01  8.3145E+01  8.1024E+01  8.2320E+01  8.1632E+01  8.1618E+01  7.9518E+01  8.1564E+01  8.2083E+01
 98  2.2554E-02  2.4628E+00  2.1544E+00  2.2440E+00  2.7701E+00  2.5032E+00  2.3627E+00  1.6917E+00  2.1695E+00
 99  0.0000E+00  1.9237E-01  0.0000E+00  1.7224E-01  2.7170E-03  5.8213E-01  9.8603E-02  1.4334E-01  1.9989E-01
100  6.0121E-04  1.5506E-01  3.0666E-01  0.0000E+00  5.2017E-01  0.0000E+00  3.4684E-01  3.1237E-01  1.0895E-01
101  0.0000E+00  2.0699E-05  0.0000E+00  1.6970E-04  0.0000E+00  2.9215E-06  0.0000E+00  0.0000E+00  0.0000E+00
102  0.0000E+00  1.0714E-05  0.0000E+00  0.0000E+00  0.0000E+00  0.0000E+00  0.0000E+00  0.0000E+00  5.0145E-05
103  0.0000E+00  1.9346E-05  6.0772E-05  6.5420E-05  0.0000E+00  1.6880E-04  0.0000E+00  1.3747E-05  4.3340E-06
104  0.0000E+00  4.2625E-05  0.0000E+00  0.0000E+00  0.0000E+00  0.0000E+00  6.4264E-05  7.9139E-05  1.4422E-04
105  0.0000E+00  6.4340E-05  7.3958E-05  2.8389E-04  0.0000E+00  1.0147E-04  7.9200E-05  0.0000E+00  0.0000E+00
106  0.0000E+00  1.1946E-04  0.0000E+00  4.3851E-04  0.0000E+00  2.0012E-04  0.0000E+00  0.0000E+00  0.0000E+00
107  0.0000E+00  5.4823E-05  0.0000E+00  4.7235E-05  3.7049E-05  0.0000E+00  0.0000E+00  0.0000E+00  0.0000E+00
108  0.0000E+00  5.4750E-05  0.0000E+00  1.0117E-04  0.0000E+00  0.0000E+00  0.0000E+00  0.0000E+00  0.0000E+00
109  0.0000E+00  1.0686E-04  0.0000E+00  3.5964E-05  0.0000E+00  0.0000E+00  0.0000E+00  0.0000E+00  0.0000E+00
110  0.0000E+00  6.5124E-05  0.0000E+00  0.0000E+00  0.0000E+00  0.0000E+00  0.0000E+00  0.0000E+00  0.0000E+00
111  0.0000E+00  8.6791E-05  0.0000E+00  0.0000E+00  0.0000E+00  0.0000E+00  0.0000E+00  0.0000E+00  0.0000E+00
112  0.0000E+00  1.1099E-04  0.0000E+00  0.0000E+00  0.0000E+00  7.8858E-05  0.0000E+00  0.0000E+00  7.8261E-05
113  0.0000E+00  1.2795E-04  0.0000E+00  0.0000E+00  0.0000E+00  0.0000E+00  0.0000E+00  0.0000E+00  0.0000E+00
114  0.0000E+00  6.1185E-04  0.0000E+00  0.0000E+00  2.5094E-03  0.0000E+00  1.9522E-04  0.0000E+00  1.2394E-03
115  0.0000E+00  4.2709E-03  0.0000E+00  0.0000E+00  1.5468E-03  0.0000E+00  0.0000E+00  2.9872E-02  6.5041E-05
116  0.0000E+00  9.1967E-03  0.0000E+00  0.0000E+00  2.8895E-03  1.3816E-02  6.9092E-04  0.0000E+00  1.2270E-02
117  0.0000E+00  1.3703E-02  0.0000E+00  5.1477E-02  2.9270E-02  0.0000E+00  0.0000E+00  0.0000E+00  0.0000E+00
118  1.0376E-04  5.1515E-02  1.6374E-01  6.0123E-02  0.0000E+00  0.0000E+00  6.2678E-02  0.0000E+00  6.6179E-02
119  2.2428E-04  1.3190E-01  2.2914E-01  1.9002E-01  8.1847E-02  1.6962E-01  3.1255E-01  4.4673E-01  1.3239E-03
120  2.2649E-04  1.3587E-01  2.7956E-01  2.6264E-01  1.1429E-01  6.9062E-03  0.0000E+00  7.4146E-02  1.5027E-01
121  4.3334E-04  1.8223E-01  2.0373E-01  2.9899E-01  1.8894E-01  1.5073E-01  2.2059E-02  2.1651E-02  4.7499E-01
122  0.0000E+00  2.5956E-01  0.0000E+00  1.3168E-01  2.1660E-01  3.5684E-01  1.1563E-02  6.8147E-01  5.6033E-01
123  0.0000E+00  3.6150E-01  0.0000E+00  4.7141E-01  6.5987E-02  3.9685E-01  7.5388E-01  1.8529E-01  1.8866E-01
124  0.0000E+00  3.2311E-01  7.8607E-02  9.9743E-02  0.0000E+00  2.8004E-01  4.9972E-01  3.8343E-01  0.0000E+00
125  0.0000E+00  5.1695E-01  0.0000E+00  3.6749E-01  3.9052E-01  1.6040E-01  0.0000E+00  1.3274E-01  0.0000E+00
126  0.0000E+00  2.2392E-05  0.0000E+00  1.2196E-05  3.3769E-06  1.5056E-04  6.1448E-06  0.0000E+00  0.0000E+00
127  0.0000E+00  1.4566E-05  4.2718E-05  0.0000E+00  4.7237E-05  0.0000E+00  0.0000E+00  0.0000E+00  7.1544E-06
128  0.0000E+00  1.2373E-05  0.0000E+00  0.0000E+00  3.8809E-05  0.0000E+00  0.0000E+00  7.9654E-05  9.6796E-06
129  0.0000E+00  2.4874E-05  0.0000E+00  0.0000E+00  1.0530E-04  0.0000E+00  8.0331E-05  0.0000E+00  0.0000E+00
130  0.0000E+00  7.3518E-05  1.0344E-04  2.7541E-06  0.0000E+00  0.0000E+00  0.0000E+00  0.0000E+00  2.1700E-04
131  0.0000E+00  4.3266E-05  0.0000E+00  0.0000E+00  0.0000E+00  0.0000E+00  0.0000E+00  0.0000E+00  0.0000E+00
132  0.0000E+00  4.1148E-05  0.0000E+00  2.5466E-05  0.0000E+00  0.0000E+00  0.0000E+00  3.1737E-05  0.0000E+00
133  0.0000E+00  8.8317E-05  0.0000E+00  0.0000E+00  0.0000E+00  0.0000E+00  0.0000E+00  5.2215E-05  0.0000E+00
134  0.0000E+00  6.7357E-05  0.0000E+00  0.0000E+00  1.7028E-05  0.0000E+00  0.0000E+00  0.0000E+00  0.0000E+00
135  0.0000E+00  5.3881E-05  0.0000E+00  0.0000E+00  0.0000E+00  0.0000E+00  0.0000E+00  0.0000E+00  0.0000E+00
136  0.0000E+00  1.0686E-04  0.0000E+00  0.0000E+00  1.0969E-04  0.0000E+00  0.0000E+00  0.0000E+00  3.9924E-05
137  0.0000E+00  6.6605E-05  0.0000E+00  0.0000E+00  0.0000E+00  0.0000E+00  0.0000E+00  0.0000E+00  0.0000E+00
138  0.0000E+00  3.3858E-04  0.0000E+00  0.0000E+00  1.1179E-03  0.0000E+00  0.0000E+00  1.2567E-03  0.0000E+00
139  0.0000E+00  1.1589E-03  0.0000E+00  0.0000E+00  0.0000E+00  0.0000E+00  1.1699E-03  3.3505E-03  0.0000E+00
140  0.0000E+00  8.5867E-03  0.0000E+00  0.0000E+00  0.0000E+00  4.4535E-03  3.2822E-04  6.4906E-03  0.0000E+00
141  0.0000E+00  2.3072E-02  1.8133E-02  0.0000E+00  1.7504E-02  7.3800E-03  0.0000E+00  1.7801E-02  5.4792E-02
142  3.1710E-05  2.7225E-02  4.8239E-02  6.9491E-02  0.0000E+00  4.0261E-03  1.3075E-02  2.1033E-02  0.0000E+00
143  0.0000E+00  1.4716E-01  0.0000E+00  1.2243E-01  2.0503E-01  1.7238E-01  8.7484E-02  4.3197E-02  1.2861E-01
144  5.2892E+00  3.5661E-01  6.7734E-01  2.3663E-01  5.5639E-01  4.9572E-01  6.1305E-01  8.1632E-01  4.8262E-01
145  3.6399E+00  8.6110E-01  1.0046E+00  1.7316E+00  9.2651E-01  1.6756E+00  1.2049E+00  1.1340E+00  1.1225E+00
146  3.5912E+00  8.1390E-01  1.4161E+00  9.9999E-01  1.7213E+00  8.4136E-01  1.1715E+00  1.2454E+00  1.4901E+00
147  2.7042E-01  1.0441E+00  1.8149E+00  1.6691E+00  2.1982E+00  1.1501E+00  1.5093E+00  1.5360E+00  1.1357E+00
148  3.3900E-03  1.0177E+00  1.5012E+00  1.4855E+00  1.0970E+00  6.6683E-01  2.9210E-02  1.6206E+00  1.0044E+00
149  2.4270E-03  1.3181E+00  2.2072E+00  0.0000E+00  1.0769E+00  3.6229E-01  3.2163E+00  1.5621E+00  1.8774E+00
150  2.3286E-02  1.1399E+00  1.2796E+00  1.5447E+00  4.7118E-01  1.5411E+00  1.3083E+00  0.0000E+00  1.0826E+00

# AV, chi2 & Mass for <> & i_chain = 1 ...  7 solutions
AV       0.4714      0.4775      0.4744      0.4788      0.4789      0.4819      0.4743      0.4767      0.4766
chi2 2.6859E+00  2.8943E+00  2.8333E+00  2.8534E+00  2.8416E+00  2.8477E+00  2.8444E+00  2.8538E+00  2.8474E+00
Mass 7.6697E-10  8.0101E-10  8.0174E-10  7.9932E-10  8.0481E-10  7.9915E-10  8.0972E-10  7.9759E-10  8.0243E-10
  -3.65                                  [v0_min (km/s) before EX0s...]
  78.06                                  [vd_min (km/s) before EX0s...]


## Synthetic spectrum (Best Model) ##l_obs f_obs f_syn wei
 3070    [Nl_obs]
 3359.00    0.05591   0.37582   -1.000
 3360.00    0.20115   0.34128   -1.000
 3361.00    0.19641   0.33893   -1.000
 3362.00    0.21342   0.36741   -1.000
 3363.00    0.23314   0.40976   -1.000
 3364.00    0.24673   0.44331   -1.000
 3365.00    0.25663   0.45329   -1.000
 3366.00    0.25514   0.44057   -1.000
 3367.00    0.25327   0.41697   -1.000
 3368.00    0.25142   0.39384   -1.000
 3369.00    0.24957   0.37579   -1.000
 3370.00    0.23791   0.36205   -1.000
 3371.00    0.22961   0.35464   -1.000
 3372.00    0.23964   0.35972   -1.000
 3373.00    0.24594   0.38113   -1.000
 3374.00    0.25362   0.41547   -1.000
 3375.00    0.27821   0.45197   -1.000
 3376.00    0.30379   0.47567   -1.000
 3377.00    0.31665   0.47550   -1.000
 3378.00    0.31172   0.45390   -1.000
 3379.00    0.29381   0.42731   -1.000
 3380.00    0.28970   0.41225   -1.000
 3381.00    0.29620   0.41482   -1.000
 3382.00    0.30524   0.42975   -1.000
 3383.00    0.31109   0.44718   -1.000
 3384.00    0.31134   0.46178   -1.000
 3385.00    0.31705   0.47187   -1.000
 3386.00    0.32403   0.47519   -1.000
 3387.00    0.32744   0.47394   -1.000
 3388.00    0.33020   0.47367   -1.000
 3389.00    0.33743   0.47534   -1.000
 3390.00    0.34924   0.47339   -1.000
 3391.00    0.34791   0.46203   -1.000
 3392.00    0.33951   0.44476   -1.000
 3393.00    0.33917   0.43475   -1.000
 3394.00    0.34546   0.44167   -1.000
 3395.00    0.36156   0.46359   -1.000
 3396.00    0.38294   0.49112   -1.000
 3397.00    0.39674   0.51661   -1.000
 3398.00    0.41309   0.53609   -1.000
 3399.00    0.43459   0.54537   -1.000
 3400.00    0.44186   0.54266   -1.000
 3401.00    0.43634   0.53015   -1.000
 3402.00    0.42944   0.51210   -1.000
 3403.00    0.41555   0.49515   -1.000
 3404.00    0.41362   0.48335   -1.000
 3405.00    0.40571   0.47554   -1.000
 3406.00    0.39484   0.46889   -1.000
 3407.00    0.38745   0.46284   -1.000
 3408.00    0.38592   0.46007   -1.000
 3409.00    0.38538   0.46332   -1.000
 3410.00    0.38730   0.46984   -1.000
 3411.00    0.38905   0.47037   -1.000
 3412.00    0.38591   0.45923   -1.000
 3413.00    0.38365   0.44180   -1.000
 3414.00    0.37592   0.43049   -1.000
 3415.00    0.37276   0.43408   -1.000
 3416.00    0.38496   0.45141   -1.000
 3417.00    0.39816   0.47673   -1.000
 3418.00    0.40963   0.50352   -1.000
 3419.00    0.43495   0.52539   -1.000
 3420.00    0.44918   0.53473   -1.000
 3421.00    0.45058   0.52705   -1.000
 3422.00    0.44229   0.50825   -1.000
 3423.00    0.43121   0.49271   -1.000
 3424.00    0.42730   0.48870   -1.000
 3425.00    0.43051   0.49257   -1.000
 3426.00    0.44323   0.49874   -1.000
 3427.00    0.45009   0.50896   -1.000
 3428.00    0.45355   0.52698   -1.000
 3429.00    0.46672   0.54673   -1.000
 3430.00    0.48626   0.55292   -1.000
 3431.00    0.47633   0.53904   -1.000
 3432.00    0.46164   0.51608   -1.000
 3433.00    0.44765   0.50196   -1.000
 3434.00    0.45425   0.50452   -1.000
 3435.00    0.46623   0.51322   -1.000
 3436.00    0.45938   0.51282   -1.000
 3437.00    0.44400   0.49801   -1.000
 3438.00    0.42306   0.47065   -1.000
 3439.00    0.40270   0.43460   -1.000
 3440.00    0.38796   0.39855  206.620
 3441.00    0.37133   0.37320  212.611
 3442.00    0.36568   0.36521  212.535
 3443.00    0.36935   0.37346  209.416
 3444.00    0.37834   0.39151  200.094
 3445.00    0.39760   0.41416  189.070
 3446.00    0.42178   0.44049  179.733
 3447.00    0.43701   0.46907   -1.000
 3448.00    0.45277   0.49639   -1.000
 3449.00    0.47057   0.51693   -1.000
 3450.00    0.48471   0.52248   -1.000
 3451.00    0.48416   0.51176   -1.000
 3452.00    0.47103   0.49723   -1.000
 3453.00    0.47139   0.49181   -1.000
 3454.00    0.47193   0.49654   -1.000
 3455.00    0.48331   0.50177   -1.000
 3456.00    0.48447   0.49707   -1.000
 3457.00    0.47981   0.48091 1180.796
 3458.00    0.46583   0.45984   -1.000
 3459.00    0.45690   0.44198  171.530
 3460.00    0.44341   0.43252  172.877
 3461.00    0.44192   0.43609  230.072
 3462.00    0.45206   0.45352 1180.796
 3463.00    0.46764   0.47536   -1.000
 3464.00    0.48838   0.48709 1180.796
 3465.00    0.49669   0.48628   -1.000
 3466.00    0.49650   0.48461   -1.000
 3467.00    0.49578   0.49282   -1.000
 3468.00    0.50426   0.51081   -1.000
 3469.00    0.51708   0.52839   -1.000
 3470.00    0.52754   0.53376   -1.000
 3471.00    0.52844   0.52227   -1.000
 3472.00    0.51458   0.49720   -1.000
 3473.00    0.49182   0.46494   -1.000
 3474.00    0.45937   0.43394   -1.000
 3475.00    0.43526   0.41353   -1.000
 3476.00    0.42518   0.41234  177.687
 3477.00    0.43551   0.43092  233.758
 3478.00    0.46215   0.45900   -1.000
 3479.00    0.48838   0.48425   -1.000
 3480.00    0.51464   0.49946   -1.000
 3481.00    0.52135   0.50203   -1.000
 3482.00    0.51714   0.49453   -1.000
 3483.00    0.51396   0.48514   -1.000
 3484.00    0.51171   0.48422   -1.000
 3485.00    0.52364   0.49681   -1.000
 3486.00    0.53679   0.51453   -1.000
 3487.00    0.55210   0.52139   -1.000
 3488.00    0.54564   0.50846   -1.000
 3489.00    0.51361   0.48218   -1.000
 3490.00    0.47852   0.45822   -1.000
 3491.00    0.46037   0.44826   -1.000
 3492.00    0.46308   0.45242   -1.000
 3493.00    0.48278   0.46186   -1.000
 3494.00    0.49366   0.46642   -1.000
 3495.00    0.48860   0.46193   -1.000
 3496.00    0.48157   0.45586   -1.000
 3497.00    0.48595   0.46184   -1.000
 3498.00    0.50000   0.48409   -1.000
 3499.00    0.52700   0.51233   -1.000
 3500.00    0.54896   0.53352   -1.000
 3501.00    0.55745   0.54612   -1.000
 3502.00    0.57122   0.55470   -1.000
 3503.00    0.58073   0.55790   -1.000
 3504.00    0.57797   0.55215   -1.000
 3505.00    0.56439   0.53943   -1.000
 3506.00    0.55924   0.52742   -1.000
 3507.00    0.56055   0.52185   -1.000
 3508.00    0.55934   0.51905   -1.000
 3509.00    0.55134   0.51215   -1.000
 3510.00    0.53415   0.50074   -1.000
 3511.00    0.52284   0.48731   -1.000
 3512.00    0.50890   0.47266   -1.000
 3513.00    0.49365   0.46030   -1.000
 3514.00    0.48963   0.46001   -1.000
 3515.00    0.49849   0.48067   -1.000
 3516.00    0.52468   0.51682   -1.000
 3517.00    0.55987   0.54901   -1.000
 3518.00    0.57538   0.55973   -1.000
 3519.00    0.56849   0.54587   -1.000
 3520.00    0.53779   0.51876   -1.000
 3521.00    0.50744   0.49043   -1.000
 3522.00    0.49129   0.46539   -1.000
 3523.00    0.46587   0.44203   -1.000
 3524.00    0.45502   0.42141   -1.000
 3525.00    0.44653   0.41265   -1.000
 3526.00    0.44826   0.42546   -1.000
 3527.00    0.46814   0.45780   -1.000
 3528.00    0.49915   0.49671   -1.000
 3529.00    0.52888   0.52621   -1.000
 3530.00    0.54939   0.53782   -1.000
 3531.00    0.54576   0.53510   -1.000
 3532.00    0.53626   0.53049   -1.000
 3533.00    0.54116   0.53327   -1.000
 3534.00    0.55381   0.54228   -1.000
 3535.00    0.56375   0.55165   -1.000
 3536.00    0.55955   0.55968 1180.796
 3537.00    0.56762   0.56963   -1.000
 3538.00    0.56971   0.58198   -1.000
 3539.00    0.57617   0.58978   -1.000
 3540.00    0.57160   0.58733   -1.000
 3541.00    0.56502   0.57897   -1.000
 3542.00    0.56149   0.57480   -1.000
 3543.00    0.56502   0.57932   -1.000
 3544.00    0.56367   0.58701   -1.000
 3545.00    0.55951   0.58992   -1.000
 3546.00    0.55937   0.58571   -1.000
 3547.00    0.55618   0.57889   -1.000
 3548.00    0.55013   0.57548   -1.000
 3549.00    0.55202   0.57652   -1.000
 3550.00    0.55227   0.57681   -1.000
 3551.00    0.54529   0.57012   -1.000
 3552.00    0.53338   0.55571   -1.000
 3553.00    0.52534   0.54017   -1.000
 3554.00    0.51642   0.53246   -1.000
 3555.00    0.51207   0.53514   -1.000
 3556.00    0.51845   0.54170   -1.000
 3557.00    0.52753   0.54484   -1.000
 3558.00    0.52099   0.54321   -1.000
 3559.00    0.51125   0.54185   -1.000
 3560.00    0.51063   0.54653   -1.000
 3561.00    0.51767   0.55670   -1.000
 3562.00    0.52692   0.56161   -1.000
 3563.00    0.52941   0.54638   -1.000
 3564.00    0.50862   0.50921  469.680
 3565.00    0.47073   0.46789  174.553
 3566.00    0.44157   0.44369  179.021
 3567.00    0.43444   0.43833  177.195
 3568.00    0.43731   0.43616  178.244
 3569.00    0.42775   0.42820  183.596
 3570.00    0.41796   0.42149  184.202
 3571.00    0.43159   0.42537  177.596
 3572.00    0.44938   0.43967  232.454
 3573.00    0.46556   0.45617   -1.000
 3574.00    0.47988   0.46896   -1.000
 3575.00    0.48491   0.47766   -1.000
 3576.00    0.48832   0.48148   -1.000
 3577.00    0.48000   0.47634   -1.000
 3578.00    0.47053   0.45915   -1.000
 3579.00    0.44811   0.43117   -1.000
 3580.00    0.41673   0.40121   -1.000
 3581.00    0.39224   0.38104  203.513
 3582.00    0.38178   0.37678  204.609
 3583.00    0.38884   0.38072  206.709
 3584.00    0.38658   0.37913  212.449
 3585.00    0.37399   0.36994  218.315
 3586.00    0.36364   0.36299  217.033
 3587.00    0.37291   0.36880  205.751
 3588.00    0.39223   0.39120  195.083
 3589.00    0.41304   0.42652  183.122
 3590.00    0.44669   0.46546   -1.000
 3591.00    0.48567   0.49649   -1.000
 3592.00    0.51221   0.51282 1180.796
 3593.00    0.51778   0.51974 1180.796
 3594.00    0.52058   0.52972   -1.000
 3595.00    0.53550   0.54894   -1.000
 3596.00    0.55471   0.57225   -1.000
 3597.00    0.57352   0.59106   -1.000
 3598.00    0.58906   0.60327   -1.000
 3599.00    0.60414   0.60906   -1.000
 3600.00    0.60828   0.60323   -1.000
 3601.00    0.59321   0.58139   -1.000
 3602.00    0.56988   0.54975   -1.000
 3603.00    0.53630   0.52040   -1.000
 3604.00    0.51187   0.50255   -1.000
 3605.00    0.50717   0.49608   -1.000
 3606.00    0.51182   0.49215   -1.000
 3607.00    0.50883   0.48195   -1.000
 3608.00    0.50023   0.46724   -1.000
 3609.00    0.47760   0.45971   -1.000
 3610.00    0.47238   0.46751   -1.000
 3611.00    0.48993   0.48668   -1.000
 3612.00    0.51192   0.50656   -1.000
 3613.00    0.52584   0.52385   -1.000
 3614.00    0.53188   0.54079   -1.000
 3615.00    0.54852   0.55155 1180.796
 3616.00    0.55435   0.54203   -1.000
 3617.00    0.52821   0.50869   -1.000
 3618.00    0.47920   0.46950   -1.000
 3619.00    0.45743   0.45293  230.626
 3620.00    0.47636   0.47093   -1.000
 3621.00    0.52039   0.51090   -1.000
 3622.00    0.55936   0.55068   -1.000
 3623.00    0.57645   0.57966   -1.000
 3624.00    0.57599   0.60419   -1.000
 3625.00    0.58396   0.63288   -1.000
 3626.00    0.62628   0.66159   -1.000
 3627.00    0.64898   0.67607   -1.000
 3628.00    0.63493   0.66188   -1.000
 3629.00    0.59841   0.61621   -1.000
 3630.00    0.54712   0.55511   -1.000
 3631.00    0.49982   0.50750   -1.000
 3632.00    0.47941   0.49115   -1.000
 3633.00    0.49408   0.50218   -1.000
 3634.00    0.51002   0.52480   -1.000
 3635.00    0.52736   0.54684   -1.000
 3636.00    0.55121   0.56644   -1.000
 3637.00    0.57676   0.58840   -1.000
 3638.00    0.59569   0.61389   -1.000
 3639.00    0.61639   0.63567   -1.000
 3640.00    0.62992   0.64436   -1.000
 3641.00    0.61856   0.63553   -1.000
 3642.00    0.59720   0.61307   -1.000
 3643.00    0.57236   0.58589   -1.000
 3644.00    0.54781   0.56083   -1.000
 3645.00    0.53765   0.53988 1180.796
 3646.00    0.53248   0.52295   -1.000
 3647.00    0.51675   0.51202   -1.000
 3648.00    0.51464   0.51216   -1.000
 3649.00    0.52523   0.52599 1180.796
 3650.00    0.54797   0.55235   -1.000
 3651.00    0.57467   0.58562   -1.000
 3652.00    0.60112   0.61754   -1.000
 3653.00    0.61983   0.64089   -1.000
 3654.00    0.62934   0.65555   -1.000
 3655.00    0.63800   0.66688   -1.000
 3656.00    0.64586   0.67978   -1.000
 3657.00    0.65743   0.69397   -1.000
 3658.00    0.67216   0.70473   -1.000
 3659.00    0.67567   0.70905   -1.000
 3660.00    0.67691   0.70546   -1.000
 3661.00    0.67695   0.69338   -1.000
 3662.00    0.65743   0.67638   -1.000
 3663.00    0.64419   0.66270   -1.000
 3664.00    0.63702   0.65755   -1.000
 3665.00    0.63542   0.65819   -1.000
 3666.00    0.63857   0.65688   -1.000
 3667.00    0.63536   0.64798   -1.000
 3668.00    0.62257   0.63418   -1.000
 3669.00    0.60943   0.62552   -1.000
 3670.00    0.61026   0.63117   -1.000
 3671.00    0.62934   0.64885   -1.000
 3672.00    0.65199   0.66712   -1.000
 3673.00    0.66271   0.67728   -1.000
 3674.00    0.65721   0.67691   -1.000
 3675.00    0.65247   0.66533   -1.000
 3676.00    0.64282   0.64352 1180.796
 3677.00    0.61395   0.61659   -1.000
 3678.00    0.58925   0.59218   -1.000
 3679.00    0.58163   0.57785 1180.796
 3680.00    0.58222   0.57818   -1.000
 3681.00    0.59656   0.59072   -1.000
 3682.00    0.61263   0.60627   -1.000
 3683.00    0.61627   0.61367 1180.796
 3684.00    0.61739   0.60512   -1.000
 3685.00    0.59660   0.58234   -1.000
 3686.00    0.56952   0.55800   -1.000
 3687.00    0.55414   0.54920   -1.000
 3688.00    0.56786   0.56487   -1.000
 3689.00    0.59355   0.60064   -1.000
 3690.00    0.62573   0.64080   -1.000
 3691.00    0.65143   0.66792   -1.000
 3692.00    0.66092   0.67309   -1.000
 3693.00    0.65569   0.66225   -1.000
 3694.00    0.64205   0.64960   -1.000
 3695.00    0.63982   0.64428   -1.000
 3696.00    0.64365   0.64867   -1.000
 3697.00    0.65475   0.66320   -1.000
 3698.00    0.67876   0.68585   -1.000
 3699.00    0.70421   0.70739   -1.000
 3700.00    0.71894   0.71570 1121.089
 3701.00    0.70879   0.70123   -1.000
 3702.00    0.67396   0.66149   -1.000
 3703.00    0.61969   0.60511   -1.000
 3704.00    0.56342   0.55080   -1.000
 3705.00    0.53774   0.51466   -1.000
 3706.00    0.53401   0.50178   -1.000
 3707.00    0.53986   0.50588   -1.000
 3708.00    0.54983   0.51895   -1.000
 3709.00    0.56078   0.53899   -1.000
 3710.00    0.58245   0.56715   -1.000
 3711.00    0.61121   0.60290   -1.000
 3712.00    0.65242   0.64275   -1.000
 3713.00    0.69046   0.67877   -1.000
 3714.00    0.71449   0.70085   -1.000
 3715.00    0.72073   0.70296   -1.000
 3716.00    0.70565   0.68492   -1.000
 3717.00    0.67587   0.64621   -1.000
 3718.00    0.62323   0.58670   -1.000
 3719.00    0.55522   0.51616   -1.000
 3720.00    0.49070   0.45674   -1.000
 3721.00    0.46131   0.43259   -1.000
 3722.00    0.47907   0.45193   -1.000
 3723.00    0.53385   0.50238   -1.000
 3724.00    0.59677   0.55977   -1.000
 3725.00    0.63585   0.59893   -1.000
 3726.00    0.63883   0.60993   -1.000
 3727.00    0.61883   0.60487   -1.000
 3728.00    0.60936   0.60095   -1.000
 3729.00    0.61474   0.60032   -1.000
 3730.00    0.61497   0.59059   -1.000
 3731.00    0.58850   0.55877   -1.000
 3732.00    0.54589   0.50404   -1.000
 3733.00    0.48673   0.44188   -1.000
 3734.00    0.43215   0.39248   -1.000
 3735.00    0.40601   0.37181   -1.000
 3736.00    0.41432   0.38674   -1.000
 3737.00    0.45126   0.43306   -1.000
 3738.00    0.50587   0.49652   -1.000
 3739.00    0.57157   0.55854   -1.000
 3740.00    0.61107   0.59992   -1.000
 3741.00    0.62035   0.60936   -1.000
 3742.00    0.60720   0.58897   -1.000
 3743.00    0.58013   0.55276   -1.000
 3744.00    0.54521   0.51532   -1.000
 3745.00    0.51065   0.48466   -1.000
 3746.00    0.48883   0.45843   -1.000
 3747.00    0.46709   0.43120   -1.000
 3748.00    0.44021   0.40790   -1.000
 3749.00    0.42739   0.40390   -1.000
 3750.00    0.45473   0.43116   -1.000
 3751.00    0.51680   0.48658   -1.000
 3752.00    0.58110   0.55361   -1.000
 3753.00    0.63907   0.61587   -1.000
 3754.00    0.68385   0.65935   -1.000
 3755.00    0.69851   0.66981   -1.000
 3756.00    0.67477   0.64228   -1.000
 3757.00    0.61339   0.59134   -1.000
 3758.00    0.55259   0.54563   -1.000
 3759.00    0.52962   0.52768 1180.796
 3760.00    0.54870   0.53606   -1.000
 3761.00    0.58223   0.55353   -1.000
 3762.00    0.59983   0.56564   -1.000
 3763.00    0.60217   0.57042   -1.000
 3764.00    0.60417   0.57128   -1.000
 3765.00    0.60982   0.56810   -1.000
 3766.00    0.60233   0.56121   -1.000
 3767.00    0.59230   0.55537   -1.000
 3768.00    0.59209   0.55362   -1.000
 3769.00    0.59652   0.55540   -1.000
 3770.00    0.59917   0.56263   -1.000
 3771.00    0.61107   0.58086   -1.000
 3772.00    0.63493   0.60831   -1.000
 3773.00    0.66593   0.63475   -1.000
 3774.00    0.68241   0.65194   -1.000
 3775.00    0.68572   0.66031   -1.000
 3776.00    0.68644   0.66641   -1.000
 3777.00    0.68514   0.67632   -1.000
 3778.00    0.69092   0.69201   -1.000
 3779.00    0.70489   0.71121   -1.000
 3780.00    0.72873   0.72920 1088.618
 3781.00    0.74175   0.74175 1081.783
 3782.00    0.73761   0.74766   -1.000
 3783.00    0.73946   0.74485   -1.000
 3784.00    0.72820   0.72717 1121.405
 3785.00    0.70211   0.69260   -1.000
 3786.00    0.65711   0.65024   -1.000
 3787.00    0.62278   0.61322   -1.000
 3788.00    0.60523   0.59067   -1.000
 3789.00    0.59638   0.58518   -1.000
 3790.00    0.60073   0.59105   -1.000
 3791.00    0.61300   0.59687   -1.000
 3792.00    0.61580   0.59241   -1.000
 3793.00    0.60252   0.57512   -1.000
 3794.00    0.57642   0.55109   -1.000
 3795.00    0.55203   0.52598   -1.000
 3796.00    0.53173   0.50042   -1.000
 3797.00    0.50953   0.47729   -1.000
 3798.00    0.49522   0.46915   -1.000
 3799.00    0.51533   0.48874   -1.000
 3800.00    0.56069   0.53430   -1.000
 3801.00    0.60575   0.59002   -1.000
 3802.00    0.64108   0.63894 1180.796
 3803.00    0.66597   0.67030   -1.000
 3804.00    0.67915   0.68013   -1.000
 3805.00    0.67241   0.67076 1180.796
 3806.00    0.64728   0.65441   -1.000
 3807.00    0.62944   0.64715   -1.000
 3808.00    0.63776   0.65664   -1.000
 3809.00    0.66202   0.67590   -1.000
 3810.00    0.67749   0.68866   -1.000
 3811.00    0.67409   0.68115   -1.000
 3812.00    0.65174   0.65111 1180.796
 3813.00    0.61077   0.60892 1180.796
 3814.00    0.57230   0.57035 1180.796
 3815.00    0.54305   0.54897   -1.000
 3816.00    0.54216   0.54750   -1.000
 3817.00    0.56565   0.55339   -1.000
 3818.00    0.56687   0.54847   -1.000
 3819.00    0.52905   0.52827 1180.796
 3820.00    0.49958   0.50935   -1.000
 3821.00    0.50099   0.50645   -1.000
 3822.00    0.52167   0.51341   -1.000
 3823.00    0.53037   0.51116   -1.000
 3824.00    0.49967   0.49122   -1.000
 3825.00    0.45978   0.46480  179.655
 3826.00    0.44450   0.44661  181.750
 3827.00    0.44651   0.44174  179.654
 3828.00    0.45550   0.44660  176.707
 3829.00    0.45827   0.45312  175.416
 3830.00    0.45696   0.45112  179.509
 3831.00    0.44362   0.43502  189.741
 3832.00    0.41180   0.40946  202.199
 3833.00    0.39458   0.38611  204.923
 3834.00    0.39644   0.37581   -1.000
 3835.00    0.41105   0.37898   -1.000
 3836.00    0.42055   0.38816   -1.000
 3837.00    0.41686   0.39518   -1.000
 3838.00    0.40939   0.39945  197.323
 3839.00    0.41053   0.40961  191.070
 3840.00    0.43102   0.43576  254.043
 3841.00    0.47685   0.47933 1180.796
 3842.00    0.52637   0.52955 1180.796
 3843.00    0.56864   0.57189 1180.796
 3844.00    0.58221   0.59789   -1.000
 3845.00    0.58305   0.61059   -1.000
 3846.00    0.58746   0.61739   -1.000
 3847.00    0.59552   0.61985   -1.000
 3848.00    0.58680   0.61501   -1.000
 3849.00    0.56554   0.60631   -1.000
 3850.00    0.55582   0.60300   -1.000
 3851.00    0.56293   0.60985   -1.000
 3852.00    0.57245   0.62036   -1.000
 3853.00    0.57532   0.62359   -1.000
 3854.00    0.56808   0.61523   -1.000
 3855.00    0.55191   0.59915   -1.000
 3856.00    0.54000   0.57994   -1.000
 3857.00    0.51871   0.55762   -1.000
 3858.00    0.49388   0.53441   -1.000
 3859.00    0.47130   0.52139   -1.000
 3860.00    0.47115   0.53114   -1.000
 3861.00    0.51042   0.56381   -1.000
 3862.00    0.56359   0.60312   -1.000
 3863.00    0.59720   0.62893   -1.000
 3864.00    0.60770   0.63456   -1.000
 3865.00    0.60238   0.62899   -1.000
 3866.00    0.59054   0.62260   -1.000
 3867.00    0.57971   0.61741   -1.000
 3868.00    0.56111   0.60880   -1.000
 3869.00    0.53877   0.59259   -1.000
 3870.00    0.51242   0.56978   -1.000
 3871.00    0.49239   0.54939   -1.000
 3872.00    0.50002   0.54335   -1.000
 3873.00    0.53364   0.55904   -1.000
 3874.00    0.57779   0.58817   -1.000
 3875.00    0.60795   0.60916 1180.796
 3876.00    0.60332   0.60560 1180.796
 3877.00    0.56936   0.58362   -1.000
 3878.00    0.53517   0.56395   -1.000
 3879.00    0.52327   0.55789   -1.000
 3880.00    0.52426   0.56099   -1.000
 3881.00    0.51273   0.56599   -1.000
 3882.00    0.51351   0.57055   -1.000
 3883.00    0.54847   0.57385   -1.000
 3884.00    0.58835   0.56786   -1.000
 3885.00    0.58818   0.54562   -1.000
 3886.00    0.56419   0.51385   -1.000
 3887.00    0.55445   0.48796   -1.000
 3888.00    0.55327   0.48197   -1.000
 3889.00    0.56292   0.50185   -1.000
 3890.00    0.60194   0.54361   -1.000
 3891.00    0.65678   0.59339   -1.000
 3892.00    0.69110   0.63214   -1.000
 3893.00    0.70066   0.64961   -1.000
 3894.00    0.69659   0.65291   -1.000
 3895.00    0.69673   0.65612   -1.000
 3896.00    0.70684   0.66463   -1.000
 3897.00    0.71889   0.67328   -1.000
 3898.00    0.72012   0.67710   -1.000
 3899.00    0.71035   0.67784   -1.000
 3900.00    0.71076   0.67995   -1.000
 3901.00    0.72081   0.68273   -1.000
 3902.00    0.71263   0.68043   -1.000
 3903.00    0.69833   0.66962   -1.000
 3904.00    0.68576   0.65369   -1.000
 3905.00    0.65695   0.64336   -1.000
 3906.00    0.65279   0.65027 1180.796
 3907.00    0.69663   0.67617   -1.000
 3908.00    0.73569   0.71014   -1.000
 3909.00    0.76380   0.73926   -1.000
 3910.00    0.78418   0.75856   -1.000
 3911.00    0.78903   0.76956   -1.000
 3912.00    0.78925   0.77291   -1.000
 3913.00    0.77726   0.76836   -1.000
 3914.00    0.76589   0.75781   -1.000
 3915.00    0.75657   0.74567   -1.000
 3916.00    0.74638   0.73377   -1.000
 3917.00    0.73062   0.71943   -1.000
 3918.00    0.71901   0.69885   -1.000
 3919.00    0.69201   0.67218   -1.000
 3920.00    0.65580   0.64716   -1.000
 3921.00    0.63144   0.63344   -1.000
 3922.00    0.63384   0.63373   -1.000
 3923.00    0.64842   0.63966   -1.000
 3924.00    0.64370   0.63812   -1.000
 3925.00    0.62000   0.61973 1180.796
 3926.00    0.58185   0.58170 1180.796
 3927.00    0.52265   0.52885  474.793
 3928.00    0.45478   0.46927  198.303
 3929.00    0.39962   0.40961  232.388
 3930.00    0.34198   0.35191  272.789
 3931.00    0.28562   0.29669   -1.000
 3932.00    0.24178   0.24987   -1.000
 3933.00    0.21456   0.22261   -1.000
 3934.00    0.21849   0.22400  356.918
 3935.00    0.24843   0.25507  304.050
 3936.00    0.29781   0.30853  250.627
 3937.00    0.35856   0.37382  207.548
 3938.00    0.42155   0.44067   -1.000
 3939.00    0.48148   0.49898   -1.000
 3940.00    0.52561   0.54214   -1.000
 3941.00    0.54903   0.56738   -1.000
 3942.00    0.55802   0.57881   -1.000
 3943.00    0.56187   0.58881   -1.000
 3944.00    0.57855   0.60837   -1.000
 3945.00    0.61943   0.63727   -1.000
 3946.00    0.66834   0.66533 1171.674
 3947.00    0.69372   0.68498   -1.000
 3948.00    0.70723   0.69926   -1.000
 3949.00    0.72720   0.71410   -1.000
 3950.00    0.75266   0.72762   -1.000
 3951.00    0.76041   0.73441   -1.000
 3952.00    0.74775   0.73731   -1.000
 3953.00    0.75455   0.74222   -1.000
 3954.00    0.77339   0.74643   -1.000
 3955.00    0.77091   0.74392   -1.000
 3956.00    0.74546   0.73560   -1.000
 3957.00    0.73631   0.72771   -1.000
 3958.00    0.74040   0.72014   -1.000
 3959.00    0.73013   0.69990   -1.000
 3960.00    0.68118   0.65642   -1.000
 3961.00    0.60652   0.59947   -1.000
 3962.00    0.54229   0.54652   -1.000
 3963.00    0.50405   0.50342  449.141
 3964.00    0.46325   0.46074  186.732
 3965.00    0.40583   0.40618  222.503
 3966.00    0.33887   0.34083  274.118
 3967.00    0.27508   0.28023  325.354
 3968.00    0.23656   0.24432  339.280
 3969.00    0.24034   0.24465  301.365
 3970.00    0.28350   0.27974  247.816
 3971.00    0.34546   0.33857  204.946
 3972.00    0.41271   0.40797  255.239
 3973.00    0.48478   0.47844   -1.000
 3974.00    0.55536   0.54484   -1.000
 3975.00    0.61864   0.60482  121.893
 3976.00    0.67900   0.65937  113.179
 3977.00    0.73068   0.71017  106.794
 3978.00    0.77477   0.75602  101.144
 3979.00    0.81890   0.79152   97.104
 3980.00    0.84438   0.81048   96.621
 3981.00    0.84564   0.81359   97.727
 3982.00    0.83028   0.80949   98.782
 3983.00    0.82285   0.80984   97.564
 3984.00    0.84117   0.82047   95.538
 3985.00    0.85884   0.83798   93.769
 3986.00    0.87426   0.85705   92.162
 3987.00    0.89307   0.87383   90.681
 3988.00    0.90692   0.88480   90.229
 3989.00    0.91082   0.89052   90.283
 3990.00    0.90837   0.89637   89.172
 3991.00    0.92041   0.90624   87.034
 3992.00    0.94050   0.91768   85.964
 3993.00    0.94622   0.92326   87.412
 3994.00    0.93803   0.91686   89.522
 3995.00    0.91491   0.90011   91.469
 3996.00    0.88473   0.88367   92.890
 3997.00    0.87476   0.88003   92.672
 3998.00    0.89111   0.89409   89.767
 3999.00    0.92542   0.91994   85.958
 4000.00    0.95994   0.94599   83.586
 4001.00    0.98210   0.96324   82.327
 4002.00    0.99949   0.96457   82.082
 4003.00    0.99093   0.94490   -1.000
 4004.00    0.93790   0.90930   90.520
 4005.00    0.88133   0.87899   93.360
 4006.00    0.87105   0.87536   90.883
 4007.00    0.90965   0.89990   86.090
 4008.00    0.95492   0.93519   83.485
 4009.00    0.98410   0.96349   82.496
 4010.00    0.99832   0.97932   81.815
 4011.00    1.00370   0.98571   81.844
 4012.00    0.99940   0.98852   82.406
 4013.00    1.00254   0.99246   82.491
 4014.00    1.00772   0.99733   81.659
 4015.00    1.00951   0.99965   81.108
 4016.00    1.00245   0.99846   81.955
 4017.00    0.99598   0.99785   82.504
 4018.00    0.99463   1.00188   81.773
 4019.00    1.00682   1.00877   80.974
 4020.00    1.01114   1.01317   81.536
 4021.00    1.00535   1.01168   82.520
 4022.00    1.00462   1.00513   83.007
 4023.00    0.99430   0.99711   83.589
 4024.00    0.98572   0.99380   83.308
 4025.00    0.99722   1.00215   80.863
 4026.00    1.02975   1.02199   78.378
 4027.00    1.05947   1.03974   77.588
 4028.00    1.06001   1.03614   79.170
 4029.00    1.02096   1.00308   83.221
 4030.00    0.95932   0.95272   88.286
 4031.00    0.91499   0.90755   91.066
 4032.00    0.90061   0.88404   91.335
 4033.00    0.90902   0.88737   89.492
 4034.00    0.93733   0.91522   85.992
 4035.00    0.97483   0.96078   81.702
 4036.00    1.02144   1.01151   78.067
 4037.00    1.06460   1.05170   76.174
 4038.00    1.08796   1.06935   76.578
 4039.00    1.07423   1.06493   78.325
 4040.00    1.04537   1.04978   79.863
 4041.00    1.03654   1.03239   80.547
 4042.00    1.03139   1.00516   82.083
 4043.00    0.99144   0.95526   87.461
 4044.00    0.91292   0.89124   95.598
 4045.00    0.83707   0.84746   99.020
 4046.00    0.84015   0.85427   92.701
 4047.00    0.91776   0.90691   84.756
 4048.00    0.99577   0.97292   80.609
 4049.00    1.03666   1.02277   78.825
 4050.00    1.05431   1.04542   78.434
 4051.00    1.04639   1.04490   79.552
 4052.00    1.02166   1.02923   81.746
 4053.00    1.00000   1.00677   83.578
 4054.00    0.98417   0.98506   84.644
 4055.00    0.96451   0.96739   85.270
 4056.00    0.95619   0.95451   85.954
 4057.00    0.94575   0.95037   86.206
 4058.00    0.94998   0.96073   84.403
 4059.00    0.98237   0.98117   81.764
 4060.00    1.01634   0.99261   81.193
 4061.00    1.01516   0.97515   84.159
 4062.00    0.95699   0.93182   90.376
 4063.00    0.89126   0.89141   94.004
 4064.00    0.87765   0.87762   91.250
 4065.00    0.90539   0.89017   87.458
 4066.00    0.93806   0.91625   85.291
 4067.00    0.97192   0.94513   82.817
 4068.00    1.01028   0.96768   80.684
 4069.00    1.03199   0.97310   -1.000
 4070.00    1.00759   0.95792   -1.000
 4071.00    0.96217   0.93765   86.960
 4072.00    0.94835   0.93301   85.326
 4073.00    0.97391   0.94324   83.036
 4074.00    0.99618   0.94638   -1.000
 4075.00    0.96440   0.92550   89.373
 4076.00    0.90571   0.89035   95.471
 4077.00    0.85721   0.86902   96.133
 4078.00    0.86761   0.88191   91.589
 4079.00    0.92480   0.92642   85.203
 4080.00    0.98712   0.97823   80.469
 4081.00    1.03194   1.01086   79.382
 4082.00    1.02608   1.01378   81.284
 4083.00    0.99963   0.99777   83.595
 4084.00    0.97575   0.98465   83.964
 4085.00    0.97838   0.99089   82.095
 4086.00    1.01596   1.01769   79.140
 4087.00    1.06088   1.05202   76.256
 4088.00    1.09297   1.07775   74.769
 4089.00    1.10517   1.08545   75.585
 4090.00    1.08959   1.07674   77.136
 4091.00    1.06224   1.06134   78.381
 4092.00    1.04898   1.04703   78.972
 4093.00    1.05193   1.03223   79.496
 4094.00    1.03886   1.01100   81.739
 4095.00    1.00061   0.98204   85.227
 4096.00    0.96590   0.95125   87.291
 4097.00    0.94783   0.92344   88.141
 4098.00    0.92732   0.89230   90.760
 4099.00    0.89358   0.84857   -1.000
 4100.00    0.83026   0.79834  105.408
 4101.00    0.77106   0.76403  109.377
 4102.00    0.76562   0.76648  104.354
 4103.00    0.81745   0.80809   95.637
 4104.00    0.89106   0.86967   89.013
 4105.00    0.94982   0.92705   84.995
 4106.00    0.99256   0.96654   83.194
 4107.00    1.00263   0.98539   83.248
 4108.00    0.99829   0.98770   84.362
 4109.00    0.98353   0.98240   85.903
 4110.00    0.96890   0.97927   86.349
 4111.00    0.96397   0.98518   84.907
 4112.00    0.98276   1.00092   83.122
 4113.00    1.00984   1.02213   81.757
 4114.00    1.02825   1.04149   80.662
 4115.00    1.03619   1.05189   80.295
 4116.00    1.03863   1.04849   81.175
 4117.00    1.02530   1.03237   83.296
 4118.00    0.99963   1.01231   85.518
 4119.00    0.97955   0.99942   85.749
 4120.00    0.98486   0.99819   84.689
 4121.00    0.99486   1.00428   84.150
 4122.00    0.99496   1.01247   83.914
 4123.00    1.00108   1.02159   82.777
 4124.00    1.01604   1.03025   81.703
 4125.00    1.02884   1.03394   81.932
 4126.00    1.02832   1.02869   83.308
 4127.00    1.00942   1.01674   84.747
 4128.00    0.98651   1.00422   85.325
 4129.00    0.97909   0.99240   85.973
 4130.00    0.96684   0.97637   87.637
 4131.00    0.94726   0.95547   90.460
 4132.00    0.92908   0.93916   92.414
 4133.00    0.91720   0.94054   91.422
 4134.00    0.93040   0.96391   -1.000
 4135.00    0.97084   1.00077   -1.000
 4136.00    1.01135   1.03780   81.613
 4137.00    1.03245   1.06661   -1.000
 4138.00    1.05125   1.08383   -1.000
 4139.00    1.06491   1.08557   79.793
 4140.00    1.05317   1.06507   82.359
 4141.00    1.01177   1.02060   87.670
 4142.00    0.93925   0.96711   -1.000
 4143.00    0.88371   0.93303   -1.000
 4144.00    0.89014   0.93660   -1.000
 4145.00    0.94450   0.97026   86.779
 4146.00    0.99545   1.00865   84.407
 4147.00    1.00634   1.03032   84.445
 4148.00    0.99379   1.03189   -1.000
 4149.00    0.98026   1.02347   -1.000
 4150.00    0.96825   1.01550   -1.000
 4151.00    0.96338   1.01043   -1.000
 4152.00    0.96326   1.00479   -1.000
 4153.00    0.95718   0.99650   -1.000
 4154.00    0.94803   0.98906   -1.000
 4155.00    0.94121   0.98839   -1.000
 4156.00    0.97008   0.99793   -1.000
 4157.00    0.99952   1.01638   86.929
 4158.00    0.96863   1.03900   -1.000
 4159.00    0.96550   1.06059   -1.000
 4160.00    0.99931   1.07799   -1.000
 4161.00    1.01166   1.09081   -1.000
 4162.00    1.03904   1.09918   -1.000
 4163.00    1.04963   1.10126   -1.000
 4164.00    1.03574   1.09456   -1.000
 4165.00    1.01384   1.07948   -1.000
 4166.00    0.98721   1.06176   -1.000
 4167.00    0.97916   1.05050   -1.000
 4168.00    0.98661   1.04820   -1.000
 4169.00    0.99748   1.04503   -1.000
 4170.00    0.99500   1.02685   -1.000
 4171.00    0.95958   0.99185   -1.000
 4172.00    0.90568   0.95707   -1.000
 4173.00    0.87636   0.94239   -1.000
 4174.00    0.89387   0.95171   -1.000
 4175.00    0.93151   0.97169   -1.000
 4176.00    0.94471   0.98822   -1.000
 4177.00    0.93803   0.99930   -1.000
 4178.00    0.93750   1.00965   -1.000
 4179.00    0.95355   1.01991   -1.000
 4180.00    0.96654   1.02574   -1.000
 4181.00    0.96294   1.02628   -1.000
 4182.00    0.96638   1.02865   -1.000
 4183.00    0.97721   1.03861   -1.000
 4184.00    1.00593   1.04953   -1.000
 4185.00    1.01857   1.04949   -1.000
 4186.00    0.99374   1.03641   -1.000
 4187.00    0.95975   1.02247   -1.000
 4188.00    0.94995   1.01982   -1.000
 4189.00    0.97361   1.02764   -1.000
 4190.00    0.99338   1.03953   -1.000
 4191.00    0.99714   1.05318   -1.000
 4192.00    1.01463   1.06614   -1.000
 4193.00    1.03329   1.07038   -1.000
 4194.00    1.02158   1.05645   -1.000
 4195.00    0.98110   1.02492   -1.000
 4196.00    0.93856   0.98909   -1.000
 4197.00    0.92120   0.96280   -1.000
 4198.00    0.91563   0.95069   -1.000
 4199.00    0.92280   0.94894   -1.000
 4200.00    0.93633   0.95253   91.059
 4201.00    0.94210   0.95919   90.727
 4202.00    0.94176   0.97059   -1.000
 4203.00    0.95123   0.98986   -1.000
 4204.00    0.96842   1.01582   -1.000
 4205.00    0.98808   1.04351   -1.000
 4206.00    1.00854   1.06882   -1.000
 4207.00    1.03351   1.08805   -1.000
 4208.00    1.04842   1.09737   -1.000
 4209.00    1.04945   1.09799   -1.000
 4210.00    1.04667   1.09618   -1.000
 4211.00    1.04469   1.09558   -1.000
 4212.00    1.04484   1.09037   -1.000
 4213.00    1.02459   1.07190   -1.000
 4214.00    0.97762   1.04441   -1.000
 4215.00    0.94212   1.02616   -1.000
 4216.00    0.95628   1.03387   -1.000
 4217.00    1.01776   1.06728   -1.000
 4218.00    1.07789   1.10840   -1.000
 4219.00    1.10947   1.13901   76.520
 4220.00    1.12296   1.14915   76.275
 4221.00    1.11778   1.13392   77.876
 4222.00    1.09115   1.09045   81.966
 4223.00    1.03460   1.02044   88.627
 4224.00    0.95332   0.93431   98.576
 4225.00    0.84939   0.85662  110.216
 4226.00    0.76572   0.82064   -1.000
 4227.00    0.77118   0.84764   -1.000
 4228.00    0.87883   0.92615   -1.000
 4229.00    1.00677   1.01643   82.206
 4230.00    1.07214   1.07818   79.348
 4231.00    1.08850   1.09822   79.690
 4232.00    1.07920   1.08840   81.677
 4233.00    1.05865   1.06584   83.357
 4234.00    1.03658   1.04261   84.544
 4235.00    1.01512   1.02557   86.418
 4236.00    0.99657   1.01769   87.168
 4237.00    0.99237   1.02089   -1.000
 4238.00    1.00792   1.03527   84.164
 4239.00    1.02812   1.05725   82.838
 4240.00    1.04888   1.08142   -1.000
 4241.00    1.07003   1.10412   -1.000
 4242.00    1.08140   1.12428   -1.000
 4243.00    1.09587   1.14127   -1.000
 4244.00    1.11670   1.15037   77.575
 4245.00    1.11429   1.14202   79.459
 4246.00    1.07484   1.11203   -1.000
 4247.00    1.03788   1.07017   -1.000
 4248.00    1.00910   1.03328   87.434
 4249.00    0.98422   1.01452   -1.000
 4250.00    0.98188   1.01763   -1.000
 4251.00    1.00956   1.03425   84.259
 4252.00    1.04062   1.04821   82.918
 4253.00    1.04096   1.05093   84.137
 4254.00    1.02334   1.05029   85.265
 4255.00    1.02152   1.05913   -1.000
 4256.00    1.04810   1.07497   80.810
 4257.00    1.06829   1.07786   81.580
 4258.00    1.04877   1.05517   85.358
 4259.00    0.99924   1.02111   89.262
 4260.00    0.96047   1.00579   -1.000
 4261.00    0.97461   1.02763   -1.000
 4262.00    1.02884   1.07821   -1.000
 4263.00    1.09166   1.13210   -1.000
 4264.00    1.13327   1.16651   75.903
 4265.00    1.14526   1.17427   76.287
 4266.00    1.13461   1.16015   78.054
 4267.00    1.10436   1.12940   80.624
 4268.00    1.06712   1.08415   83.301
 4269.00    1.03009   1.02802   87.354
 4270.00    0.97592   0.97057   93.108
 4271.00    0.91407   0.92726   97.119
 4272.00    0.88848   0.91088   96.788
 4273.00    0.90248   0.92329   94.414
 4274.00    0.92948   0.95771   -1.000
 4275.00    0.96588   1.00679   -1.000
 4276.00    1.01585   1.06066   -1.000
 4277.00    1.07199   1.10164   79.007
 4278.00    1.09423   1.11406   80.366
 4279.00    1.06723   1.10014   -1.000
 4280.00    1.02425   1.07931   -1.000
 4281.00    1.00938   1.07025   -1.000
 4282.00    1.02440   1.07289   -1.000
 4283.00    1.04232   1.07352   84.152
 4284.00    1.03890   1.06342   85.817
 4285.00    1.00942   1.04482   -1.000
 4286.00    0.98142   1.02330   -1.000
 4287.00    0.96565   0.99865   -1.000
 4288.00    0.93683   0.96901   -1.000
 4289.00    0.89619   0.94314   -1.000
 4290.00    0.87999   0.93764   -1.000
 4291.00    0.91180   0.95869   -1.000
 4292.00    0.97103   0.99200   87.484
 4293.00    1.00792   1.01464   86.861
 4294.00    1.00936   1.01512   87.982
 4295.00    0.99186   0.99587   89.665
 4296.00    0.96441   0.96073   92.635
 4297.00    0.92703   0.91146   98.625
 4298.00    0.86760   0.85620  106.938
 4299.00    0.79945   0.81000  112.446
 4300.00    0.76590   0.78505  111.836
 4301.00    0.77877   0.78228  108.953
 4302.00    0.80086   0.79282  107.356
 4303.00    0.81690   0.80550  105.846
 4304.00    0.83410   0.81135  105.216
 4305.00    0.83786   0.80417   -1.000
 4306.00    0.81921   0.78367   -1.000
 4307.00    0.78010   0.75929  116.437
 4308.00    0.74730   0.74681  117.263
 4309.00    0.75165   0.75766  113.215
 4310.00    0.78870   0.79155  106.468
 4311.00    0.83476   0.84029  100.062
 4312.00    0.88155   0.89771   95.448
 4313.00    0.92607   0.96564   -1.000
 4314.00    0.97773   1.04741   -1.000
 4315.00    1.06005   1.13630   -1.000
 4316.00    1.15461   1.21497   -1.000
 4317.00    1.21722   1.26491   -1.000
 4318.00    1.23333   1.27926   -1.000
 4319.00    1.22177   1.26492   -1.000
 4320.00    1.19281   1.23062   -1.000
 4321.00    1.15246   1.17790   78.220
 4322.00    1.10664   1.10646   82.826
 4323.00    1.03820   1.02566   89.532
 4324.00    0.95052   0.96107   96.064
 4325.00    0.89390   0.94444   -1.000
 4326.00    0.91874   0.98782   -1.000
 4327.00    1.01998   1.06933   -1.000
 4328.00    1.12482   1.14861   75.446
 4329.00    1.17400   1.19766   74.803
 4330.00    1.17117   1.21652   -1.000
 4331.00    1.16427   1.22264   -1.000
 4332.00    1.16884   1.23004   -1.000
 4333.00    1.18658   1.23785   -1.000
 4334.00    1.19797   1.23360   72.872
 4335.00    1.18342   1.20249   75.432
 4336.00    1.13537   1.13744   81.347
 4337.00    1.05136   1.04710   89.280
 4338.00    0.95734   0.95616   97.240
 4339.00    0.87873   0.89510  103.156
 4340.00    0.83990   0.88418   -1.000
 4341.00    0.87616   0.92366   -1.000
 4342.00    0.96388   0.99402   84.720
 4343.00    1.04317   1.06774   80.598
 4344.00    1.08965   1.12639   -1.000
 4345.00    1.12556   1.16773   -1.000
 4346.00    1.15187   1.19829   -1.000
 4347.00    1.16254   1.22164   -1.000
 4348.00    1.19057   1.23090   -1.000
 4349.00    1.20022   1.21329   75.417
 4350.00    1.14845   1.16810   80.338
 4351.00    1.06614   1.11771   -1.000
 4352.00    1.02153   1.09370   -1.000
 4353.00    1.05218   1.10915   -1.000
 4354.00    1.10816   1.14894   -1.000
 4355.00    1.14831   1.18826   -1.000
 4356.00    1.17806   1.21196   73.895
 4357.00    1.19056   1.21771   74.586
 4358.00    1.17909   1.21315   76.021
 4359.00    1.15559   1.21258   -1.000
 4360.00    1.16589   1.22586   -1.000
 4361.00    1.20601   1.24993   -1.000
 4362.00    1.23377   1.27486   -1.000
 4363.00    1.24070   1.29339   -1.000
 4364.00    1.24976   1.30113   -1.000
 4365.00    1.25325   1.29295   -1.000
 4366.00    1.22531   1.26779   -1.000
 4367.00    1.17834   1.23614   -1.000
 4368.00    1.15285   1.21281   -1.000
 4369.00    1.15747   1.20220   -1.000
 4370.00    1.16927   1.19631   75.247
 4371.00    1.16681   1.18386   75.506
 4372.00    1.15281   1.15873   77.169
 4373.00    1.12040   1.12542   80.417
 4374.00    1.07954   1.10040   82.416
 4375.00    1.07261   1.10153   80.982
 4376.00    1.10978   1.13128   77.212
 4377.00    1.16551   1.17187   74.267
 4378.00    1.19512   1.19839   73.722
 4379.00    1.19853   1.19508   74.566
 4380.00    1.18301   1.15698   76.756
 4381.00    1.14362   1.08613   -1.000
 4382.00    1.05092   0.99992   -1.000
 4383.00    0.93574   0.93504   98.599
 4384.00    0.88670   0.92470   -1.000
 4385.00    0.94470   0.97009   85.918
 4386.00    1.04607   1.03802   79.859
 4387.00    1.10697   1.09015   78.472
 4388.00    1.11793   1.11262   78.932
 4389.00    1.10401   1.11710   79.595
 4390.00    1.09735   1.12101   79.124
 4391.00    1.11939   1.13140   77.415
 4392.00    1.14746   1.14374   76.524
 4393.00    1.15058   1.15175   77.596
 4394.00    1.13372   1.15858   78.606
 4395.00    1.13215   1.17415   -1.000
 4396.00    1.16589   1.19884   73.750
 4397.00    1.20802   1.21750   72.872
 4398.00    1.20998   1.21483   74.671
 4399.00    1.17341   1.19403   77.316
 4400.00    1.13616   1.17251   -1.000
 4401.00    1.13689   1.15821   77.096
 4402.00    1.15121   1.14154   77.227
 4403.00    1.13334   1.11294   80.827
 4404.00    1.07754   1.08135   84.105
 4405.00    1.04752   1.06778   83.223
 4406.00    1.07335   1.08030   80.895
 4407.00    1.09609   1.10906   79.969
 4408.00    1.09708   1.14553   -1.000
 4409.00    1.12702   1.18972   -1.000
 4410.00    1.19344   1.23731   -1.000
 4411.00    1.24827   1.27158   70.323
 4412.00    1.26664   1.27435   70.597
 4413.00    1.24586   1.24379   73.452
 4414.00    1.18527   1.19884   77.216
 4415.00    1.12466   1.16888   -1.000
 4416.00    1.11389   1.17375   -1.000
 4417.00    1.14872   1.20927   -1.000
 4418.00    1.19649   1.25326   -1.000
 4419.00    1.23240   1.28274   -1.000
 4420.00    1.23666   1.28651   -1.000
 4421.00    1.21140   1.27017   -1.000
 4422.00    1.18088   1.25089   -1.000
 4423.00    1.16534   1.24220   -1.000
 4424.00    1.17326   1.24461   -1.000
 4425.00    1.18176   1.25091   -1.000
 4426.00    1.17788   1.25634   -1.000
 4427.00    1.18168   1.25998   -1.000
 4428.00    1.19354   1.26094   -1.000
 4429.00    1.19526   1.25898   -1.000
 4430.00    1.18181   1.25640   -1.000
 4431.00    1.17731   1.25367   -1.000
 4432.00    1.18524   1.24414   -1.000
 4433.00    1.17027   1.22271   -1.000
 4434.00    1.13256   1.19949   -1.000
 4435.00    1.10836   1.19630   -1.000
 4436.00    1.13926   1.22574   -1.000
 4437.00    1.20742   1.27587   -1.000
 4438.00    1.26772   1.31799   -1.000
 4439.00    1.28996   1.32827   -1.000
 4440.00    1.26598   1.30427   -1.000
 4441.00    1.21215   1.26514   -1.000
 4442.00    1.16104   1.23777   -1.000
 4443.00    1.14512   1.23966   -1.000
 4444.00    1.17654   1.26940   -1.000
 4445.00    1.23168   1.30959   -1.000
 4446.00    1.26757   1.34032   -1.000
 4447.00    1.27572   1.35382   -1.000
 4448.00    1.27851   1.35534   -1.000
 4449.00    1.27233   1.35148   -1.000
 4450.00    1.25766   1.34352   -1.000
 4451.00    1.25297   1.32921   -1.000
 4452.00    1.25520   1.30468   -1.000
 4453.00    1.22406   1.26821   -1.000
 4454.00    1.17008   1.22755   -1.000
 4455.00    1.13867   1.19819   -1.000
 4456.00    1.14134   1.18841   -1.000
 4457.00    1.15739   1.19155   -1.000
 4458.00    1.16452   1.19533   -1.000
 4459.00    1.15584   1.19446   -1.000
 4460.00    1.14745   1.19363   -1.000
 4461.00    1.14247   1.20180   -1.000
 4462.00    1.15506   1.22398   -1.000
 4463.00    1.19592   1.25513   -1.000
 4464.00    1.23189   1.28274   -1.000
 4465.00    1.24932   1.29727   -1.000
 4466.00    1.24804   1.29797   -1.000
 4467.00    1.23159   1.29029   -1.000
 4468.00    1.21608   1.28215   -1.000
 4469.00    1.20782   1.28250   -1.000
 4470.00    1.21993   1.29835   -1.000
 4471.00    1.25130   1.32887   -1.000
 4472.00    1.29266   1.36458   -1.000
 4473.00    1.32987   1.39492   -1.000
 4474.00    1.35382   1.41593   -1.000
 4475.00    1.36290   1.43061   -1.000
 4476.00    1.36546   1.44055   -1.000
 4477.00    1.37563   1.43800   -1.000
 4478.00    1.37372   1.41242   -1.000
 4479.00    1.33545   1.36617   70.021
 4480.00    1.26776   1.31959   -1.000
 4481.00    1.22240   1.29764   -1.000
 4482.00    1.23061   1.31235   -1.000
 4483.00    1.27591   1.35551   -1.000
 4484.00    1.32910   1.40457   -1.000
 4485.00    1.36543   1.43652   -1.000
 4486.00    1.37896   1.43917   -1.000
 4487.00    1.35997   1.41510   -1.000
 4488.00    1.30754   1.37980   -1.000
 4489.00    1.26899   1.35434   -1.000
 4490.00    1.27016   1.35129   -1.000
 4491.00    1.29577   1.36384   -1.000
 4492.00    1.32425   1.37165   -1.000
 4493.00    1.31697   1.36155   -1.000
 4494.00    1.28141   1.34138   -1.000
 4495.00    1.25511   1.33091   -1.000
 4496.00    1.25939   1.34185   -1.000
 4497.00    1.29793   1.36845   -1.000
 4498.00    1.34044   1.39473   -1.000
 4499.00    1.35810   1.40890   -1.000
 4500.00    1.34653   1.41315   -1.000
 4501.00    1.32931   1.42063   -1.000
 4502.00    1.34482   1.44115   -1.000
 4503.00    1.39545   1.47095   -1.000
 4504.00    1.43730   1.49712   -1.000
 4505.00    1.44453   1.50909   -1.000
 4506.00    1.43342   1.50597   -1.000
 4507.00    1.41612   1.49588   -1.000
 4508.00    1.40691   1.48826   -1.000
 4509.00    1.41221   1.48593   -1.000
 4510.00    1.41490   1.48398   -1.000
 4511.00    1.40535   1.47507   -1.000
 4512.00    1.38709   1.45728   -1.000
 4513.00    1.36788   1.43664   -1.000
 4514.00    1.35161   1.42095   -1.000
 4515.00    1.35217   1.41293   -1.000
 4516.00    1.35607   1.40963   -1.000
 4517.00    1.34930   1.40836   -1.000
 4518.00    1.33933   1.41156   -1.000
 4519.00    1.34602   1.42162   -1.000
 4520.00    1.37346   1.43318   -1.000
 4521.00    1.38296   1.43632   -1.000
 4522.00    1.36204   1.42599   -1.000
 4523.00    1.33629   1.40494   -1.000
 4524.00    1.31916   1.37784   -1.000
 4525.00    1.29838   1.34605   -1.000
 4526.00    1.26952   1.30984   -1.000
 4527.00    1.23141   1.27416   -1.000
 4528.00    1.20536   1.24950   -1.000
 4529.00    1.20807   1.24452   -1.000
 4530.00    1.22515   1.25768   -1.000
 4531.00    1.24879   1.27673   72.555
 4532.00    1.26414   1.28678   73.168
 4533.00    1.24528   1.28280   -1.000
 4534.00    1.20536   1.27592   -1.000
 4535.00    1.20058   1.28590   -1.000
 4536.00    1.25386   1.32145   -1.000
 4537.00    1.33457   1.36892   66.511
 4538.00    1.38747   1.40491   65.759
 4539.00    1.39250   1.41749   66.866
 4540.00    1.36814   1.41345   -1.000
 4541.00    1.35247   1.40704   -1.000
 4542.00    1.35549   1.40505   -1.000
 4543.00    1.36030   1.40397   -1.000
 4544.00    1.33916   1.39854   -1.000
 4545.00    0.89673   1.38895   -1.000
 4546.00    0.12535   1.37832   -1.000
 4547.00   -0.01775   1.36702    0.000
 4548.00    0.37996   1.35500   -1.000
 4549.00    0.71594   1.34671   -1.000
 4550.00    0.54184   1.34721   -1.000
 4551.00    1.10648   1.35409   -1.000
 4552.00    1.34582   1.35823   70.692
 4553.00    1.29632   1.35520   -1.000
 4554.00    1.28723   1.35187   -1.000
 4555.00    1.29334   1.36042   -1.000
 4556.00    1.33026   1.38634   -1.000
 4557.00    1.38377   1.42239   65.008
 4558.00    1.41832   1.45506   64.515
 4559.00    1.42719   1.47580   -1.000
 4560.00    1.42642   1.48317   -1.000
 4561.00    1.42256   1.47736   -1.000
 4562.00    1.40270   1.45857   -1.000
 4563.00    1.36411   1.43167   -1.000
 4564.00    1.33218   1.40900   -1.000
 4565.00    1.32576   1.40392   -1.000
 4566.00    1.35581   1.41993   -1.000
 4567.00    1.40146   1.44659   -1.000
 4568.00    1.42841   1.46653   64.434
 4569.00    1.42048   1.46835   -1.000
 4570.00    1.38600   1.45441   -1.000
 4571.00    1.35451   1.43819   -1.000
 4572.00    1.35476   1.43376   -1.000
 4573.00    1.38646   1.44458   -1.000
 4574.00    1.42174   1.46165   64.790
 4575.00    1.42763   1.47308   -1.000
 4576.00    1.41389   1.47271   -1.000
 4577.00    1.40608   1.45975   -1.000
 4578.00    1.39081   1.43572   -1.000
 4579.00    1.35566   1.40553   -1.000
 4580.00    1.31882   1.37880   -1.000
 4581.00    1.30591   1.36487   -1.000
 4582.00    1.31837   1.36502   -1.000
 4583.00    1.33574   1.37183   68.447
 4584.00    1.33863   1.37794   68.768
 4585.00    1.33414   1.38398   -1.000
 4586.00    1.34041   1.39684   -1.000
 4587.00    1.36839   1.41977   -1.000
 4588.00    1.40118   1.44538   -1.000
 4589.00    1.41715   1.46090   -1.000
 4590.00    1.41795   1.45913   66.238
 4591.00    1.39522   1.44280   -1.000
 4592.00    1.35955   1.42149   -1.000
 4593.00    1.34721   1.40494   -1.000
 4594.00    1.35506   1.39659   -1.000
 4595.00    1.35995   1.39460   66.987
 4596.00    1.36103   1.39723   66.836
 4597.00    1.36877   1.40322   66.692
 4598.00    1.37872   1.40933   66.834
 4599.00    1.37949   1.41220   67.457
 4600.00    1.36487   1.41189   -1.000
 4601.00    1.35891   1.41167   -1.000
 4602.00    1.36875   1.41376   -1.000
 4603.00    1.38268   1.41719   66.528
 4604.00    1.39225   1.42125   66.583
 4605.00    1.39468   1.42933   66.217
 4606.00    1.40275   1.44633   -1.000
 4607.00    1.43028   1.47243   -1.000
 4608.00    1.46471   1.50062   62.752
 4609.00    1.48290   1.52023   62.440
 4610.00    1.47789   1.52433   -1.000
 4611.00    1.45662   1.51489   -1.000
 4612.00    1.43869   1.50088   -1.000
 4613.00    1.43260   1.49196   -1.000
 4614.00    1.44047   1.49263   -1.000
 4615.00    1.44953   1.49979   -1.000
 4616.00    1.44974   1.50637   -1.000
 4617.00    1.44270   1.50815   -1.000
 4618.00    1.43689   1.50672   -1.000
 4619.00    1.43809   1.50680   -1.000
 4620.00    1.44870   1.51130   -1.000
 4621.00    1.46263   1.51835   -1.000
 4622.00    1.46907   1.52313   -1.000
 4623.00    1.47094   1.52256   -1.000
 4624.00    1.47171   1.51788   -1.000
 4625.00    1.46141   1.51248   -1.000
 4626.00    1.45688   1.50880   -1.000
 4627.00    1.46306   1.50753   -1.000
 4628.00    1.45882   1.50815   -1.000
 4629.00    1.44661   1.50997   -1.000
 4630.00    1.45836   1.51213   -1.000
 4631.00    1.48241   1.51263   63.221
 4632.00    1.47637   1.50888   63.800
 4633.00    1.45426   1.50015   -1.000
 4634.00    1.44046   1.48836   -1.000
 4635.00    1.43003   1.47556   -1.000
 4636.00    1.41532   1.46214   -1.000
 4637.00    1.40003   1.44899   -1.000
 4638.00    1.39520   1.43928   -1.000
 4639.00    1.39276   1.43733   -1.000
 4640.00    1.40556   1.44558   -1.000
 4641.00    1.44340   1.46082   63.429
 4642.00    1.47287   1.47367   63.036
 4643.00    1.47504   1.47388   63.702
 4644.00    1.45154   1.45701   65.171
 4645.00    1.41786   1.42730   67.024
 4646.00    1.38431   1.39687   68.250
 4647.00    1.36139   1.38054   67.871
 4648.00    1.36991   1.38671   66.456
 4649.00    1.40066   1.41197   65.147
 4650.00    1.42776   1.44406   64.592
 4651.00    1.44034   1.46873   64.499
 4652.00    1.44451   1.47697   64.724
 4653.00    1.44000   1.46879   65.825
 4654.00    1.41607   1.45264   67.077
 4655.00    1.38885   1.44206   -1.000
 4656.00    1.38786   1.44903   -1.000
 4657.00    1.41549   1.47634   -1.000
 4658.00    1.46746   1.51448   -1.000
 4659.00    1.51650   1.54641   60.804
 4660.00    1.52854   1.55813   61.119
 4661.00    1.51090   1.54722   62.208
 4662.00    1.47668   1.52186   63.650
 4663.00    1.45162   1.49135   64.446
 4664.00    1.44036   1.45805   64.917
 4665.00    1.42152   1.41945   66.708
 4666.00    1.36742   1.37848   69.622
 4667.00    1.31129   1.34839   -1.000
 4668.00    1.29067   1.34414   -1.000
 4669.00    1.32342   1.36824   -1.000
 4670.00    1.38569   1.40674   65.379
 4671.00    1.43513   1.44106   64.207
 4672.00    1.45647   1.46187   64.051
 4673.00    1.45222   1.47217   64.069
 4674.00    1.44591   1.48041   63.683
 4675.00    1.46085   1.49051   62.769
 4676.00    1.48606   1.49744   62.328
 4677.00    1.49336   1.49299   63.110
 4678.00    1.46650   1.47501   64.477
 4679.00    1.43594   1.45023   65.663
 4680.00    1.41020   1.42951   66.559
 4681.00    1.39332   1.42167   66.584
 4682.00    1.40494   1.42875   65.346
 4683.00    1.43885   1.44510   63.986
 4684.00    1.46579   1.46127   63.606
 4685.00    1.47059   1.47043   63.786
 4686.00    1.46525   1.47159   63.940
 4687.00    1.46247   1.46785   64.173
 4688.00    1.46039   1.46288   64.162
 4689.00    1.45719   1.45877   64.355
 4690.00    1.45182   1.45619   64.704
 4691.00    1.44681   1.45642   64.455
 4692.00    1.45295   1.46230   63.575
 4693.00    1.47309   1.47510   62.425
 4694.00    1.49556   1.49089   61.258
 4695.00    1.51476   1.50143   60.939
 4696.00    1.52032   1.49883   61.868
 4697.00    1.49757   1.48113   63.752
 4698.00    1.45543   1.45475   65.205
 4699.00    1.42810   1.43004   65.391
 4700.00    1.42575   1.41238   65.229
 4701.00    1.42221   1.40067   66.031
 4702.00    1.40426   1.39459   66.894
 4703.00    1.39120   1.39679   66.541
 4704.00    1.40830   1.40667   65.332
 4705.00    1.43575   1.41716   65.139
 4706.00    1.43241   1.42024   66.286
 4707.00    1.40824   1.41502   67.354
 4708.00    1.39044   1.40923   67.566
 4709.00    1.38703   1.41230   66.494
 4710.00    1.40908   1.42666   64.527
 4711.00    1.45168   1.44498   63.228
 4712.00    1.48230   1.45617   63.145
 4713.00    1.47419   1.45635   64.038
 4714.00    1.44474   1.45373   64.782
 4715.00    1.44219   1.46038   64.202
 4716.00    1.47419   1.48032   62.895
 4717.00    1.50526   1.50792   62.025
 4718.00    1.51453   1.53414   61.740
 4719.00    1.51424   1.55210   61.529
 4720.00    1.51999   1.55917   61.618
 4721.00    1.51331   1.55718   62.138
 4722.00    1.50094   1.55194   -1.000
 4723.00    1.50688   1.54931   61.720
 4724.00    1.52168   1.54789   61.351
 4725.00    1.51775   1.53824   62.042
 4726.00    1.49118   1.51242   63.954
 4727.00    1.44524   1.47385   66.025
 4728.00    1.41032   1.43718   66.755
 4729.00    1.40421   1.41732   66.264
 4730.00    1.41228   1.41856   65.635
 4731.00    1.42508   1.43485   65.011
 4732.00    1.43804   1.45689   64.306
 4733.00    1.45520   1.47694   63.836
 4734.00    1.47140   1.48976   63.483
 4735.00    1.48228   1.49386   63.553
 4736.00    1.47183   1.49325   64.032
 4737.00    1.46183   1.49468   63.711
 4738.00    1.48133   1.50123   63.201
 4739.00    1.49432   1.50937   63.403
 4740.00    1.48470   1.51406   63.668
 4741.00    1.47933   1.51524   63.494
 4742.00    1.48434   1.51665   62.885
 4743.00    1.49335   1.52017   62.525
 4744.00    1.50267   1.52589   62.655
 4745.00    1.50624   1.53435   62.490
 4746.00    1.51087   1.54524   61.933
 4747.00    1.52068   1.55660   61.503
 4748.00    1.52616   1.56623   61.486
 4749.00    1.52729   1.57259   -1.000
 4750.00    1.52194   1.57436   -1.000
 4751.00    1.51525   1.57011   -1.000
 4752.00    1.50539   1.55951   -1.000
 4753.00    1.48703   1.54489   -1.000
 4754.00    1.47542   1.53092   -1.000
 4755.00    1.46995   1.52240   -1.000
 4756.00    1.46333   1.52197   -1.000
 4757.00    1.46085   1.52873   -1.000
 4758.00    1.46588   1.53869   -1.000
 4759.00    1.47999   1.54596   -1.000
 4760.00    1.48828   1.54405   -1.000
 4761.00    1.47056   1.52946   -1.000
 4762.00    1.43600   1.50520   -1.000
 4763.00    1.41152   1.47922   -1.000
 4764.00    1.40431   1.45887   -1.000
 4765.00    1.40344   1.44809   -1.000
 4766.00    1.41236   1.44941   -1.000
 4767.00    1.43877   1.46491   65.118
 4768.00    1.46894   1.49234   63.855
 4769.00    1.49385   1.52228   63.399
 4770.00    1.50307   1.54327   -1.000
 4771.00    1.49107   1.55174   -1.000
 4772.00    1.47524   1.55515   -1.000
 4773.00    1.48670   1.56347   -1.000
 4774.00    1.51851   1.57871   -1.000
 4775.00    1.53086   1.59465   -1.000
 4776.00    1.53088   1.60503   -1.000
 4777.00    1.52887   1.60856   -1.000
 4778.00    1.51871   1.60644   -1.000
 4779.00    1.50816   1.59937   -1.000
 4780.00    1.49877   1.58827   -1.000
 4781.00    1.49662   1.57498   -1.000
 4782.00    1.49168   1.56149   -1.000
 4783.00    1.47630   1.54952   -1.000
 4784.00    1.47505   1.53984   -1.000
 4785.00    1.47461   1.53136   -1.000
 4786.00    1.46133   1.52267   -1.000
 4787.00    1.45313   1.51522   -1.000
 4788.00    1.45290   1.51238   -1.000
 4789.00    1.45526   1.51575   -1.000
 4790.00    1.46175   1.52557   -1.000
 4791.00    1.47160   1.54278   -1.000
 4792.00    1.49348   1.56806   -1.000
 4793.00    1.51977   1.59878   -1.000
 4794.00    1.54546   1.62745   -1.000
 4795.00    1.56369   1.64434   -1.000
 4796.00    1.55950   1.64282   -1.000
 4797.00    1.53367   1.62326   -1.000
 4798.00    1.49973   1.59457   -1.000
 4799.00    1.47588   1.57152   -1.000
 4800.00    1.47958   1.56631   -1.000
 4801.00    1.50880   1.57993   -1.000
 4802.00    1.53546   1.60149   -1.000
 4803.00    1.53898   1.61555   -1.000
 4804.00    1.52502   1.61315   -1.000
 4805.00    1.50620   1.59748   -1.000
 4806.00    1.49001   1.57899   -1.000
 4807.00    1.48599   1.56657   -1.000
 4808.00    1.49088   1.56373   -1.000
 4809.00    1.49828   1.56957   -1.000
 4810.00    1.50981   1.58018   -1.000
 4811.00    1.51722   1.59068   -1.000
 4812.00    1.52336   1.59805   -1.000
 4813.00    1.53396   1.60278   -1.000
 4814.00    1.53888   1.60816   -1.000
 4815.00    1.53998   1.61740   -1.000
 4816.00    1.54823   1.63075   -1.000
 4817.00    1.56021   1.64520   -1.000
 4818.00    1.56835   1.65670   -1.000
 4819.00    1.57222   1.66202   -1.000
 4820.00    1.57381   1.65841   -1.000
 4821.00    1.56096   1.64311   -1.000
 4822.00    1.53170   1.61717   -1.000
 4823.00    1.49733   1.58977   -1.000
 4824.00    1.48676   1.57365   -1.000
 4825.00    1.50922   1.57453   -1.000
 4826.00    1.53984   1.58583   -1.000
 4827.00    1.54457   1.59489   -1.000
 4828.00    1.52403   1.59421   -1.000
 4829.00    1.50765   1.58529   -1.000
 4830.00    1.50596   1.57318   -1.000
 4831.00    1.49744   1.56232   -1.000
 4832.00    1.49846   1.55710   -1.000
 4833.00    1.51108   1.56109   -1.000
 4834.00    1.52722   1.57334   -1.000
 4835.00    1.53909   1.58722   -1.000
 4836.00    1.54418   1.59501   -1.000
 4837.00    1.53501   1.59303   -1.000
 4838.00    1.51591   1.58237   -1.000
 4839.00    1.49221   1.56731   -1.000
 4840.00    1.47882   1.55380   -1.000
 4841.00    1.47923   1.54619   -1.000
 4842.00    1.49093   1.54518   -1.000
 4843.00    1.50109   1.55046   -1.000
 4844.00    1.51626   1.56221   -1.000
 4845.00    1.53865   1.57717   61.602
 4846.00    1.54833   1.58691   61.953
 4847.00    1.53634   1.58496   -1.000
 4848.00    1.50489   1.57474   -1.000
 4849.00    1.49419   1.56674   -1.000
 4850.00    1.50801   1.56686   -1.000
 4851.00    1.52289   1.57042   -1.000
 4852.00    1.52758   1.56754   63.183
 4853.00    1.50912   1.55103   -1.000
 4854.00    1.47383   1.52156   -1.000
 4855.00    1.43718   1.48850   -1.000
 4856.00    1.42095   1.46200   -1.000
 4857.00    1.42645   1.43984   67.142
 4858.00    1.40752   1.40498   70.641
 4859.00    1.32473   1.34237   77.780
 4860.00    1.19734   1.26144   -1.000
 4861.00    1.10783   1.19778   -1.000
 4862.00    1.12705   1.18605   -1.000
 4863.00    1.22795   1.23129   72.291
 4864.00    1.32550   1.30741   68.807
 4865.00    1.38330   1.38198   66.828
 4866.00    1.42028   1.43778   65.776
 4867.00    1.44348   1.47236   65.330
 4868.00    1.45289   1.48679   65.410
 4869.00    1.45096   1.48082   66.530
 4870.00    1.41852   1.45747   68.353
 4871.00    1.37599   1.42961   -1.000
 4872.00    1.36974   1.41637   -1.000
 4873.00    1.39920   1.42829   66.179
 4874.00    1.43206   1.45800   65.318
 4875.00    1.44778   1.48963   64.891
 4876.00    1.45728   1.51509   -1.000
 4877.00    1.46471   1.53701   -1.000
 4878.00    1.48158   1.55884   -1.000
 4879.00    1.50497   1.57703   -1.000
 4880.00    1.50892   1.58430   -1.000
 4881.00    1.48901   1.57839   -1.000
 4882.00    1.47110   1.56446   -1.000
 4883.00    1.46786   1.54863   -1.000
 4884.00    1.46618   1.53195   -1.000
 4885.00    1.45106   1.51374   -1.000
 4886.00    1.43806   1.49756   -1.000
 4887.00    1.43866   1.48757   -1.000
 4888.00    1.44455   1.48066   66.308
 4889.00    1.43537   1.46977   67.526
 4890.00    1.40780   1.45628   -1.000
 4891.00    1.39722   1.45493   -1.000
 4892.00    1.43558   1.48182   -1.000
 4893.00    1.51208   1.53709   61.302
 4894.00    1.57947   1.60302   59.796
 4895.00    1.61196   1.65795   59.035
 4896.00    1.62431   1.68927   -1.000
 4897.00    1.62125   1.69608   -1.000
 4898.00    1.60196   1.68473   -1.000
 4899.00    1.56991   1.66410   -1.000
 4900.00    1.54136   1.64285   -1.000
 4901.00    1.53663   1.62600   -1.000
 4902.00    1.53986   1.61410   -1.000
 4903.00    1.53223   1.60813   -1.000
 4904.00    1.53626   1.61196   -1.000
 4905.00    1.56094   1.62593   -1.000
 4906.00    1.58174   1.64024   -1.000
 4907.00    1.58086   1.64022   -1.000
 4908.00    1.55007   1.61947   -1.000
 4909.00    1.50319   1.58621   -1.000
 4910.00    1.47445   1.55720   -1.000
 4911.00    1.47705   1.54645   -1.000
 4912.00    1.49713   1.55697   -1.000
 4913.00    1.52576   1.58117   -1.000
 4914.00    1.55752   1.60700   61.212
 4915.00    1.58134   1.62206   61.021
 4916.00    1.58043   1.61453   62.086
 4917.00    1.54058   1.57688   64.813
 4918.00    1.47381   1.51406   68.228
 4919.00    1.40168   1.44703   -1.000
 4920.00    1.36342   1.40346   -1.000
 4921.00    1.38426   1.39918   67.444
 4922.00    1.43069   1.42689   65.592
 4923.00    1.46915   1.46535   65.028
 4924.00    1.48268   1.49941   64.665
 4925.00    1.49299   1.52916   63.454
 4926.00    1.52051   1.56126   61.992
 4927.00    1.54888   1.59648   61.115
 4928.00    1.57383   1.62925   -1.000
 4929.00    1.59442   1.65369   -1.000
 4930.00    1.60438   1.66466   -1.000
 4931.00    1.60106   1.65767   -1.000
 4932.00    1.56808   1.63320   -1.000
 4933.00    1.52300   1.60070   -1.000
 4934.00    1.50162   1.57416   -1.000
 4935.00    1.51061   1.55920   -1.000
 4936.00    1.51831   1.54709   64.275
 4937.00    1.49312   1.52772   66.173
 4938.00    1.45422   1.50617   -1.000
 4939.00    1.44332   1.50077   -1.000
 4940.00    1.48633   1.52405   63.417
 4941.00    1.54675   1.56913   61.746
 4942.00    1.58698   1.61566   60.863
 4943.00    1.60719   1.64649   60.567
 4944.00    1.61304   1.65753   60.786
 4945.00    1.60105   1.65609   -1.000
 4946.00    1.58156   1.65374   -1.000
 4947.00    1.58763   1.65866   -1.000
 4948.00    1.61250   1.67111   -1.000
 4949.00    1.62608   1.68506   -1.000
 4950.00    1.63204   1.69394   -1.000
 4951.00    1.63094   1.69470   -1.000
 4952.00    1.61493   1.68765   -1.000
 4953.00    1.59990   1.67297   -1.000
 4954.00    1.59325   1.64684   -1.000
 4955.00    1.57089   1.60332   64.668
 4956.00    1.51144   1.54530   67.760
 4957.00    1.44103   1.49369   -1.000
 4958.00    1.43432   1.47743   -1.000
 4959.00    1.50473   1.50734   62.976
 4960.00    1.57962   1.56406   61.538
 4961.00    1.60928   1.61572   61.412
 4962.00    1.60238   1.64228   -1.000
 4963.00    1.59302   1.64212   -1.000
 4964.00    1.57770   1.62359   -1.000
 4965.00    1.54859   1.59722   -1.000
 4966.00    1.52295   1.57351   -1.000
 4967.00    1.51588   1.55989   -1.000
 4968.00    1.51908   1.55752   -1.000
 4969.00    1.52528   1.56393   -1.000
 4970.00    1.53634   1.57748   -1.000
 4971.00    1.55312   1.59710   -1.000
 4972.00    1.57866   1.61985   61.952
 4973.00    1.59841   1.64014   61.509
 4974.00    1.60649   1.65195   -1.000
 4975.00    1.60011   1.65187   -1.000
 4976.00    1.58687   1.63996   -1.000
 4977.00    1.55915   1.61913   -1.000
 4978.00    1.53510   1.59406   -1.000
 4979.00    1.51736   1.56779   -1.000
 4980.00    1.49926   1.53872   -1.000
 4981.00    1.46440   1.50340   -1.000
 4982.00    1.41712   1.46478   -1.000
 4983.00    1.39466   1.43589   -1.000
 4984.00    1.41118   1.43149   68.292
 4985.00    1.44770   1.45529   66.253
 4986.00    1.49471   1.49712   64.336
 4987.00    1.53703   1.54015   63.439
 4988.00    1.55202   1.56955   63.892
 4989.00    1.54274   1.57945   64.736
 4990.00    1.52660   1.57572   -1.000
 4991.00    1.52130   1.57007   -1.000
 4992.00    1.53342   1.57017   64.426
 4993.00    1.54584   1.57593   64.262
 4994.00    1.54355   1.58388   64.109
 4995.00    1.54621   1.59146   -1.000
 4996.00    1.55444   1.59596   63.754
 4997.00    1.54993   1.59247   -1.000
 4998.00    1.53560   1.57683   -1.000
 4999.00    1.50919   1.55102   -1.000
 5000.00    1.48316   1.52365   -1.000
 5001.00    1.48203   1.50384   66.771
 5002.00    1.49727   1.49365   66.205
 5003.00    1.50738   1.48665   66.350
 5004.00    1.49875   1.47504   67.640
 5005.00    1.46941   1.45922   68.822
 5006.00    1.44442   1.45008   68.300
 5007.00    1.45765   1.45944   66.411
 5008.00    1.50308   1.48637   64.931
 5009.00    1.53360   1.51416   64.906
 5010.00    1.52860   1.52298   66.244
 5011.00    1.49659   1.50565   68.468
 5012.00    1.45159   1.47140   70.651
 5013.00    1.40640   1.43797   71.443
 5014.00    1.38939   1.42013   70.533
 5015.00    1.40960   1.42154   68.982
 5016.00    1.44517   1.43469   68.025
 5017.00    1.45860   1.44909   67.887
 5018.00    1.45886   1.46043   67.572
 5019.00    1.47589   1.47048   66.879
 5020.00    1.49754   1.48050   66.691
 5021.00    1.49814   1.48912   66.941
 5022.00    1.48816   1.49691   66.861
 5023.00    1.49267   1.50750   66.329
 5024.00    1.51172   1.52144   65.729
 5025.00    1.52660   1.53311   65.610
 5026.00    1.52297   1.53715   65.940
 5027.00    1.51163   1.53627   65.866
 5028.00    1.51449   1.53956   64.971
 5029.00    1.53769   1.55364   63.860
 5030.00    1.56272   1.57725   62.900
 5031.00    1.58355   1.60378   62.000
 5032.00    1.60186   1.62487   61.636
 5033.00    1.60961   1.63167   62.534
 5034.00    1.58490   1.61820   64.787
 5035.00    1.53055   1.58764   -1.000
 5036.00    1.48731   1.55229   -1.000
 5037.00    1.47593   1.52165   -1.000
 5038.00    1.46992   1.49220   69.546
 5039.00    1.43294   1.45566   72.373
 5040.00    1.37602   1.41712   -1.000
 5041.00    1.34978   1.39785   -1.000
 5042.00    1.39072   1.41726   68.481
 5043.00    1.47827   1.47366   64.849
 5044.00    1.55640   1.54470   62.780
 5045.00    1.61795   1.60394   61.009
 5046.00    1.57809   1.63385   -1.000
 5047.00    1.24293   1.62986   -1.000
 5048.00    0.68237   1.60027   -1.000
 5049.00    0.34361   1.56218   -1.000
 5050.00    0.81270   1.53348   -1.000
 5051.00    1.49213   1.52469   65.866
 5052.00    1.53488   1.53690   64.279
 5053.00    1.55954   1.56453   62.845
 5054.00    1.59952   1.59838   61.943
 5055.00    1.62627   1.62821   61.531
 5056.00    1.63396   1.64779   61.474
 5057.00    1.63476   1.65812   61.594
 5058.00    1.63035   1.66480   61.649
 5059.00    1.62551   1.67265   -1.000
 5060.00    1.62896   1.68185   -1.000
 5061.00    1.63714   1.68625   -1.000
 5062.00    1.63366   1.67634   62.856
 5063.00    1.59766   1.64731   -1.000
 5064.00    1.54523   1.60633   -1.000
 5065.00    1.50880   1.56989   -1.000
 5066.00    1.51220   1.55099   -1.000
 5067.00    1.53310   1.54996   65.011
 5068.00    1.54456   1.55854   64.778
 5069.00    1.55800   1.56945   64.416
 5070.00    1.57388   1.57779   64.392
 5071.00    1.56990   1.58021   64.932
 5072.00    1.55307   1.57745   64.877
 5073.00    1.55243   1.57473   64.173
 5074.00    1.56798   1.57617   63.857
 5075.00    1.57706   1.57991   63.796
 5076.00    1.57442   1.57902   64.034
 5077.00    1.56436   1.56547   65.357
 5078.00    1.53122   1.53549   68.038
 5079.00    1.47010   1.49622   70.261
 5080.00    1.43468   1.46535   70.014
 5081.00    1.44968   1.45797   68.476
 5082.00    1.47937   1.47363   67.248
 5083.00    1.50286   1.50081   66.196
 5084.00    1.53236   1.53016   64.985
 5085.00    1.56425   1.55752   64.155
 5086.00    1.58160   1.57979   63.872
 5087.00    1.59053   1.59527   63.691
 5088.00    1.59685   1.60554   63.303
 5089.00    1.60021   1.61440   62.888
 5090.00    1.60274   1.62490   62.553
 5091.00    1.61064   1.63783   62.056
 5092.00    1.62726   1.65143   61.397
 5093.00    1.64318   1.66084   61.328
 5094.00    1.65288   1.65885   62.228
 5095.00    1.62996   1.63987   63.569
 5096.00    1.58151   1.60479   65.017
 5097.00    1.54267   1.56291   66.509
 5098.00    1.50741   1.52868   67.388
 5099.00    1.49382   1.51554   66.749
 5100.00    1.52082   1.52819   64.931
 5101.00    1.56806   1.55749   63.612
 5102.00    1.59612   1.58522   63.491
 5103.00    1.59040   1.59789   64.089
 5104.00    1.57176   1.59404   64.933
 5105.00    1.55689   1.57979   65.742
 5106.00    1.54232   1.56102   66.557
 5107.00    1.52283   1.54189   66.986
 5108.00    1.51517   1.52713   66.716
 5109.00    1.51805   1.52189   66.257
 5110.00    1.52770   1.52959   65.570
 5111.00    1.54788   1.54955   64.674
 5112.00    1.57535   1.57610   63.888
 5113.00    1.59587   1.60182   63.197
 5114.00    1.60526   1.62259   62.734
 5115.00    1.61611   1.63932   62.260
 5116.00    1.63312   1.65402   61.652
 5117.00    1.65004   1.66565   61.444
 5118.00    1.65547   1.66987   61.916
 5119.00    1.64291   1.66202   62.798
 5120.00    1.61669   1.64071   63.788
 5121.00    1.58445   1.60879   65.100
 5122.00    1.55279   1.57169   66.922
 5123.00    1.51943   1.53659   68.276
 5124.00    1.49384   1.51120   68.232
 5125.00    1.49226   1.49975   67.716
 5126.00    1.50647   1.49967   67.361
 5127.00    1.51405   1.50454   67.174
 5128.00    1.51117   1.51013   67.217
 5129.00    1.51096   1.51724   66.791
 5130.00    1.52261   1.52879   65.776
 5131.00    1.54349   1.54570   64.905
 5132.00    1.56325   1.56565   64.354
 5133.00    1.58291   1.58447   63.757
 5134.00    1.59998   1.59820   63.371
 5135.00    1.60685   1.60277   63.787
 5136.00    1.59904   1.59430   65.154
 5137.00    1.56559   1.57314   66.517
 5138.00    1.52392   1.54732   67.136
 5139.00    1.50368   1.52814   66.893
 5140.00    1.51288   1.52017   66.753
 5141.00    1.52224   1.51867   67.543
 5142.00    1.51360   1.51830   68.004
 5143.00    1.50903   1.51942   67.229
 5144.00    1.51936   1.52361   66.471
 5145.00    1.52738   1.52725   66.642
 5146.00    1.52583   1.52570   67.090
 5147.00    1.51852   1.52153   66.801
 5148.00    1.52463   1.52105   66.147
 5149.00    1.54014   1.52429   66.312
 5150.00    1.53680   1.52499   67.343
 5151.00    1.51782   1.51950   68.241
 5152.00    1.50158   1.51206   68.314
 5153.00    1.49966   1.51101   67.516
 5154.00    1.51664   1.52203   66.004
 5155.00    1.55024   1.54557   64.313
 5156.00    1.58964   1.57703   62.870
 5157.00    1.62240   1.60803   62.022
 5158.00    1.63866   1.63063   61.783
 5159.00    1.64396   1.64098   61.882
 5160.00    1.64433   1.63919   62.162
 5161.00    1.64184   1.62661   62.676
 5162.00    1.62812   1.60367   63.512
 5163.00    1.60306   1.56743   65.133
 5164.00    1.56351   1.51129   -1.000
 5165.00    1.47482   1.43161   75.357
 5166.00    1.34106   1.33928   82.113
 5167.00    1.23495   1.26212   -1.000
 5168.00    1.22330   1.22727   80.953
 5169.00    1.29048   1.23390   -1.000
 5170.00    1.33941   1.24983   -1.000
 5171.00    1.29414   1.24516   84.940
 5172.00    1.20020   1.22677   -1.000
 5173.00    1.19392   1.23273   -1.000
 5174.00    1.31127   1.28851   72.067
 5175.00    1.45391   1.37941   -1.000
 5176.00    1.54666   1.46832   -1.000
 5177.00    1.58455   1.52802   65.555
 5178.00    1.59319   1.55338   65.787
 5179.00    1.58698   1.54762   67.188
 5180.00    1.55182   1.50865   70.681
 5181.00    1.46329   1.43454   77.212
 5182.00    1.32781   1.33930   85.089
 5183.00    1.20209   1.25963   -1.000
 5184.00    1.18741   1.23750   -1.000
 5185.00    1.30914   1.28764   71.608
 5186.00    1.46144   1.38242   -1.000
 5187.00    1.54821   1.47431   -1.000
 5188.00    1.58023   1.53319   65.548
 5189.00    1.59265   1.55500   65.719
 5190.00    1.58254   1.54688   67.072
 5191.00    1.54016   1.51927   69.136
 5192.00    1.49350   1.48792   69.942
 5193.00    1.48593   1.47048   69.025
 5194.00    1.50534   1.47428   67.891
 5195.00    1.53242   1.49281   66.899
 5196.00    1.55942   1.51739   65.754
 5197.00    1.58728   1.54513   64.510
 5198.00    1.61411   1.57382   63.677
 5199.00    1.63100   1.59822   63.380
 5200.00    1.63609   1.61202   63.590
 5201.00    1.63021   1.61058   64.409
 5202.00    1.61445   1.59181   65.739
 5203.00    1.58586   1.55692   67.508
 5204.00    1.54182   1.51163   69.638
 5205.00    1.49875   1.46585   70.931
 5206.00    1.47596   1.43006   71.175
 5207.00    1.46661   1.41044   71.586
 5208.00    1.45844   1.40854   71.350
 5209.00    1.46715   1.42571   69.665
 5210.00    1.50423   1.46302   67.103
 5211.00    1.56686   1.51512   64.419
 5212.00    1.63237   1.56702   -1.000
 5213.00    1.66952   1.60122   -1.000
 5214.00    1.66192   1.60908   -1.000
 5215.00    1.63096   1.59713   64.388
 5216.00    1.60708   1.58302   64.546
 5217.00    1.60384   1.58296   63.570
 5218.00    1.63112   1.60112   62.353
 5219.00    1.66956   1.62888   61.634
 5220.00    1.69412   1.65284   61.279
 5221.00    1.70421   1.66201   61.508
 5222.00    1.68956   1.64984   62.829
 5223.00    1.64601   1.61446   65.093
 5224.00    1.58917   1.55999   67.974
 5225.00    1.52556   1.49940   70.598
 5226.00    1.47535   1.45399   70.919
 5227.00    1.47479   1.44419   68.147
 5228.00    1.53363   1.47525   -1.000
 5229.00    1.61043   1.53103   -1.000
 5230.00    1.66259   1.58260   -1.000
 5231.00    1.67018   1.60694   -1.000
 5232.00    1.64499   1.60148   64.012
 5233.00    1.62010   1.58357   64.563
 5234.00    1.61400   1.57609   63.756
 5235.00    1.63101   1.59136   62.217
 5236.00    1.66988   1.62406   61.089
 5237.00    1.70369   1.65902   60.719
 5238.00    1.71958   1.68359   60.799
 5239.00    1.71945   1.69444   60.864
 5240.00    1.71856   1.69609   60.628
 5241.00    1.72112   1.69446   60.466
 5242.00    1.72320   1.69360   60.477
 5243.00    1.72547   1.69420   60.356
 5244.00    1.72552   1.69197   60.854
 5245.00    1.71359   1.67943   62.442
 5246.00    1.67107   1.65360   64.202
 5247.00    1.62708   1.62141   65.068
 5248.00    1.61559   1.59448   65.162
 5249.00    1.61749   1.57867   65.420
 5250.00    1.60761   1.57305   65.518
 5251.00    1.60508   1.57597   64.901
 5252.00    1.62396   1.58512   64.096
 5253.00    1.63914   1.59560   63.768
 5254.00    1.63906   1.60520   63.587
 5255.00    1.64778   1.61929   62.631
 5256.00    1.68050   1.64466   61.021
 5257.00    1.72497   1.67835   59.875
 5258.00    1.75365   1.70533   59.886
 5259.00    1.74837   1.70905   60.980
 5260.00    1.71310   1.68255   63.111
 5261.00    1.65179   1.62976   65.978
 5262.00    1.58033   1.56203   68.751
 5263.00    1.52152   1.49406   70.659
 5264.00    1.48012   1.44002   71.500
 5265.00    1.45979   1.40932   -1.000
 5266.00    1.47215   1.40063   -1.000
 5267.00    1.50617   1.40057   -1.000
 5268.00    1.50427   1.39411   -1.000
 5269.00    1.45653   1.38176   -1.000
 5270.00    1.44128   1.38342   -1.000
 5271.00    1.50589   1.41591   -1.000
 5272.00    1.59052   1.47123   -1.000
 5273.00    1.62794   1.52407   -1.000
 5274.00    1.62917   1.55782   -1.000
 5275.00    1.62829   1.57985   -1.000
 5276.00    1.65216   1.60731   61.880
 5277.00    1.70612   1.64447   -1.000
 5278.00    1.75318   1.67824   -1.000
 5279.00    1.76266   1.69104   -1.000
 5280.00    1.73091   1.67738   -1.000
 5281.00    1.68107   1.64723   63.656
 5282.00    1.64503   1.61776   64.409
 5283.00    1.63054   1.60505   63.937
 5284.00    1.65009   1.61846   62.269
 5285.00    1.71112   1.65554   -1.000
 5286.00    1.77547   1.70153   -1.000
 5287.00    1.79570   1.73911   -1.000
 5288.00    1.78407   1.76102   59.234
 5289.00    1.78037   1.77124   59.053
 5290.00    1.79024   1.77530   58.796
 5291.00    1.79618   1.77429   58.898
 5292.00    1.79035   1.76713   59.361
 5293.00    1.77804   1.75294   60.036
 5294.00    1.76443   1.72976   61.225
 5295.00    1.72751   1.69428   63.243
 5296.00    1.66722   1.64825   65.371
 5297.00    1.61138   1.60472   66.088
 5298.00    1.59145   1.58148   64.993
 5299.00    1.61897   1.58604   63.503
 5300.00    1.65965   1.60986   -1.000
 5301.00    1.68426   1.63934   62.158
 5302.00    1.70418   1.66971   60.946
 5303.00    1.74018   1.70289   59.510
 5304.00    1.78535   1.73615   -1.000
 5305.00    1.80582   1.76064   59.097
 5306.00    1.78966   1.77032   59.675
 5307.00    1.77420   1.76966   59.765
 5308.00    1.78432   1.76933   59.226
 5309.00    1.80309   1.77490   58.710
 5310.00    1.81684   1.78288   58.547
 5311.00    1.81654   1.78614   58.749
 5312.00    1.80813   1.78132   59.055
 5313.00    1.79999   1.77015   59.387
 5314.00    1.79145   1.75550   59.900
 5315.00    1.77505   1.73984   60.472
 5316.00    1.75217   1.72636   60.764
 5317.00    1.74821   1.71883   60.542
 5318.00    1.76104   1.71865   60.163
 5319.00    1.77403   1.72198   -1.000
 5320.00    1.77985   1.72211   -1.000
 5321.00    1.76797   1.71425   -1.000
 5322.00    1.74993   1.69728   -1.000
 5323.00    1.72662   1.67372   -1.000
 5324.00    1.70322   1.64709   -1.000
 5325.00    1.68896   1.61621   -1.000
 5326.00    1.65942   1.57500   -1.000
 5327.00    1.58629   1.52525   -1.000
 5328.00    1.51482   1.48727   69.951
 5329.00    1.53177   1.48694   66.336
 5330.00    1.61785   1.53029   -1.000
 5331.00    1.69055   1.59447   -1.000
 5332.00    1.72102   1.65016   -1.000
 5333.00    1.73374   1.68740   60.653
 5334.00    1.75508   1.71207   60.150
 5335.00    1.77827   1.72899   -1.000
 5336.00    1.77944   1.73614   60.628
 5337.00    1.76494   1.72897   61.146
 5338.00    1.74475   1.70666   62.237
 5339.00    1.71118   1.67516   63.630
 5340.00    1.67601   1.64727   63.949
 5341.00    1.67376   1.63729   62.778
 5342.00    1.71151   1.64963   -1.000
 5343.00    1.74803   1.67297   -1.000
 5344.00    1.75516   1.69053   -1.000
 5345.00    1.75089   1.69480   -1.000
 5346.00    1.74879   1.68845   -1.000
 5347.00    1.74472   1.67763   -1.000
 5348.00    1.72944   1.66849   -1.000
 5349.00    1.71534   1.66754   62.135
 5350.00    1.72875   1.68003   60.895
 5351.00    1.75932   1.70460   -1.000
 5352.00    1.78064   1.73325   -1.000
 5353.00    1.79195   1.75951   59.019
 5354.00    1.80929   1.78213   58.401
 5355.00    1.83351   1.80185   57.788
 5356.00    1.84859   1.81734   57.597
 5357.00    1.85080   1.82546   57.687
 5358.00    1.85538   1.82476   57.834
 5359.00    1.85140   1.81569   58.271
 5360.00    1.83432   1.79930   59.116
 5361.00    1.81111   1.77781   60.063
 5362.00    1.78084   1.75510   60.721
 5363.00    1.75370   1.73470   61.093
 5364.00    1.74239   1.71846   61.452
 5365.00    1.73329   1.70667   61.557
 5366.00    1.73391   1.69784   61.431
 5367.00    1.74554   1.68736   -1.000
 5368.00    1.73667   1.66820   -1.000
 5369.00    1.70305   1.63755   -1.000
 5370.00    1.66060   1.60503   -1.000
 5371.00    1.63739   1.59052   64.597
 5372.00    1.66577   1.60874   -1.000
 5373.00    1.73642   1.65595   -1.000
 5374.00    1.80253   1.71122   -1.000
 5375.00    1.82997   1.75332   -1.000
 5376.00    1.83324   1.77400   -1.000
 5377.00    1.82832   1.77816   -1.000
 5378.00    1.82290   1.77485   -1.000
 5379.00    1.81196   1.76858   59.456
 5380.00    1.79599   1.75931   60.055
 5381.00    1.78442   1.74721   60.505
 5382.00    1.77250   1.73591   60.626
 5383.00    1.77020   1.73081   60.453
 5384.00    1.78264   1.73411   -1.000
 5385.00    1.80293   1.74234   -1.000
 5386.00    1.81528   1.74835   -1.000
 5387.00    1.80828   1.74609   -1.000
 5388.00    1.79131   1.73386   -1.000
 5389.00    1.76828   1.71438   -1.000
 5390.00    1.74829   1.69314   -1.000
 5391.00    1.73649   1.67568   -1.000
 5392.00    1.73003   1.66415   -1.000
 5393.00    1.72701   1.65621   -1.000
 5394.00    1.72388   1.64685   -1.000
 5395.00    1.71173   1.63224   -1.000
 5396.00    1.67829   1.61513   -1.000
 5397.00    1.65510   1.60572   -1.000
 5398.00    1.68025   1.61387   -1.000
 5399.00    1.73006   1.63817   -1.000
 5400.00    1.75872   1.66593   -1.000
 5401.00    1.75669   1.68276   -1.000
 5402.00    1.74544   1.67885   -1.000
 5403.00    1.71639   1.65205   -1.000
 5404.00    1.66544   1.61114   -1.000
 5405.00    1.62629   1.57472   -1.000
 5406.00    1.63008   1.55982   -1.000
 5407.00    1.66532   1.56885   -1.000
 5408.00    1.68807   1.58850   -1.000
 5409.00    1.68182   1.60658   -1.000
 5410.00    1.68229   1.62388   -1.000
 5411.00    1.71629   1.64795   -1.000
 5412.00    1.76487   1.67934   -1.000
 5413.00    1.78918   1.70864   -1.000
 5414.00    1.78890   1.72891   -1.000
 5415.00    1.78918   1.74283   -1.000
 5416.00    1.80006   1.75530   -1.000
 5417.00    1.81198   1.76514   -1.000
 5418.00    1.81100   1.76704   -1.000
 5419.00    1.79601   1.75973   60.626
 5420.00    1.78382   1.74856   60.680
 5421.00    1.78840   1.73885   -1.000
 5422.00    1.79501   1.73136   -1.000
 5423.00    1.78107   1.72524   -1.000
 5424.00    1.75805   1.72350   61.406
 5425.00    1.75901   1.73099   60.502
 5426.00    1.78790   1.74321   -1.000
 5427.00    1.80471   1.74486   -1.000
 5428.00    1.77556   1.72577   -1.000
 5429.00    1.72398   1.69367   64.015
 5430.00    1.70132   1.66760   63.408
 5431.00    1.72022   1.65759   -1.000
 5432.00    1.73793   1.65576   -1.000
 5433.00    1.72454   1.65058   -1.000
 5434.00    1.69936   1.64213   -1.000
 5435.00    1.69106   1.64214   -1.000
 5436.00    1.71145   1.66152   -1.000
 5437.00    1.75448   1.69964   -1.000
 5438.00    1.80416   1.74556   -1.000
 5439.00    1.83466   1.78577   -1.000
 5440.00    1.85318   1.81257   58.499
 5441.00    1.86547   1.82448   58.465
 5442.00    1.86038   1.82206   58.768
 5443.00    1.84409   1.80368   -1.000
 5444.00    1.80467   1.76736   61.955
 5445.00    1.74002   1.71875   64.320
 5446.00    1.68230   1.67462   65.142
 5447.00    1.67387   1.65460   63.726
 5448.00    1.72056   1.66677   -1.000
 5449.00    1.78195   1.70037   -1.000
 5450.00    1.81360   1.73443   -1.000
 5451.00    1.81852   1.75106   -1.000
 5452.00    1.81174   1.74398   -1.000
 5453.00    1.78932   1.71716   -1.000
 5454.00    1.73952   1.68171   -1.000
 5455.00    1.69064   1.65486   65.114
 5456.00    1.69909   1.65327   63.394
 5457.00    1.75847   1.67949   -1.000
 5458.00    1.81348   1.71761   -1.000
 5459.00    1.83195   1.74448   -1.000
 5460.00    1.81237   1.74714   -1.000
 5461.00    1.77494   1.72964   62.612
 5462.00    1.75494   1.70641   -1.000
 5463.00    1.74835   1.69254   -1.000
 5464.00    1.75961   1.69489   -1.000
 5465.00    1.78571   1.70964   -1.000
 5466.00    1.80195   1.72705   -1.000
 5467.00    1.80680   1.73985   -1.000
 5468.00    1.81564   1.74551   -1.000
 5469.00    1.81423   1.74373   -1.000
 5470.00    1.79852   1.73570   -1.000
 5471.00    1.79243   1.72403   -1.000
 5472.00    1.78488   1.71038   -1.000
 5473.00    1.76733   1.69367   -1.000
 5474.00    1.74732   1.67197   -1.000
 5475.00    1.71864   1.64657   -1.000
 5476.00    1.68553   1.62549   -1.000
 5477.00    1.67635   1.62003   -1.000
 5478.00    1.71549   1.63458   -1.000
 5479.00    1.76432   1.65771   -1.000
 5480.00    1.76716   1.67204   -1.000
 5481.00    1.73942   1.67428   -1.000
 5482.00    1.73219   1.67653   -1.000
 5483.00    1.75380   1.69066   -1.000
 5484.00    1.78484   1.71454   -1.000
 5485.00    1.80725   1.73410   -1.000
 5486.00    1.80578   1.73858   -1.000
 5487.00    1.78473   1.72965   -1.000
 5488.00    1.76748   1.71876   -1.000
 5489.00    1.76811   1.71586   -1.000
 5490.00    1.78441   1.72192   -1.000
 5491.00    1.79937   1.73114   -1.000
 5492.00    1.80493   1.73739   -1.000
 5493.00    1.80670   1.73888   -1.000
 5494.00    1.80923   1.73734   -1.000
 5495.00    1.81163   1.73488   -1.000
 5496.00    1.79863   1.73237   -1.000
 5497.00    1.78509   1.73118   -1.000
 5498.00    1.79686   1.73330   -1.000
 5499.00    1.81684   1.73654   -1.000
 5500.00    1.81226   1.73384   -1.000
 5501.00    1.78743   1.72248   -1.000
 5502.00    1.77367   1.70823   -1.000
 5503.00    1.78094   1.69784   -1.000
 5504.00    1.79203   1.69196   -1.000
 5505.00    1.77995   1.68668   -1.000
 5506.00    1.75567   1.68192   -1.000
 5507.00    1.75668   1.68277   -1.000
 5508.00    1.78465   1.69084   -1.000
 5509.00    1.80256   1.69951   -1.000
 5510.00    1.79340   1.69879   -1.000
 5511.00    1.76814   1.68506   -1.000
 5512.00    1.73934   1.66522   -1.000
 5513.00    1.71898   1.65102   -1.000
 5514.00    1.72509   1.65120   -1.000
 5515.00    1.75440   1.66611   -1.000
 5516.00    1.78530   1.69037   -1.000
 5517.00    1.81652   1.71809   -1.000
 5518.00    1.84564   1.74433   -1.000
 5519.00    1.85823   1.76456   -1.000
 5520.00    1.85666   1.77582   -1.000
 5521.00    1.85316   1.77851   -1.000
 5522.00    1.84860   1.77609   -1.000
 5523.00    1.84164   1.77074   -1.000
 5524.00    1.83530   1.76060   -1.000
 5525.00    1.81890   1.74210   -1.000
 5526.00    1.78317   1.71536   -1.000
 5527.00    1.73966   1.68815   -1.000
 5528.00    1.71420   1.67284   64.431
 5529.00    1.73225   1.67778   -1.000
 5530.00    1.77908   1.69914   -1.000
 5531.00    1.80908   1.72284   -1.000
 5532.00    1.81166   1.73643   -1.000
 5533.00    1.80472   1.73716   -1.000
 5534.00    1.79834   1.73087   -1.000
 5535.00    1.79561   1.72519   -1.000
 5536.00    1.80048   1.72470   -1.000
 5537.00    1.81385   1.73035   -1.000
 5538.00    1.82413   1.74108   -1.000
 5539.00    1.83998   1.75487   -1.000
 5540.00    1.86355   1.76805   -1.000
 5541.00    1.86820   1.77499   -1.000
 5542.00    1.85141   1.77255   -1.000
 5543.00    1.83026   1.76361   -1.000
 5544.00    1.82055   1.75477   -1.000
 5545.00    1.82206   1.75161   -1.000
 5546.00    1.83164   1.75598   -1.000
 5547.00    1.84591   1.76730   -1.000
 5548.00    1.86739   1.78332   -1.000
 5549.00    1.88658   1.79907   -1.000
 5550.00    1.89325   1.80849   -1.000
 5551.00    1.88422   1.80848   -1.000
 5552.00    1.86593   1.79992   -1.000
 5553.00    1.84726   1.78703   -1.000
 5554.00    1.83664   1.77559   -1.000
 5555.00    1.83887   1.76991   -1.000
 5556.00    1.84508   1.76958   -1.000
 5557.00    1.84842   1.77148   -1.000
 5558.00    1.85012   1.77304   -1.000
 5559.00    1.84993   1.77327   -1.000
 5560.00    1.84885   1.77130   -1.000
 5561.00    1.84254   1.76563   -1.000
 5562.00    1.82934   1.75609   -1.000
 5563.00    1.81409   1.74529   -1.000
 5564.00    1.79850   1.73626   -1.000
 5565.00    1.79146   1.73042   -1.000
 5566.00    1.79146   1.72709   -1.000
 5567.00    1.79360   1.72555   -1.000
 5568.00    1.79746   1.72580   -1.000
 5569.00    1.79640   1.72763   -1.000
 5570.00    1.79598   1.72991   -1.000
 5571.00    1.80126   1.73122   -1.000
 5572.00    1.80034   1.73190   -1.000
 5573.00    1.78917   1.73468   -1.000
 5574.00    1.77894   1.74186   61.489
 5575.00    1.77221   1.75236   60.787
 5576.00    1.79894   1.76279   59.811
 5577.00    1.79440   1.77088   59.824
 5578.00    1.76276   1.77705   61.502
 5579.00    1.80994   1.78183   62.961
 5580.00    1.85159   1.78408   -1.000
 5581.00    1.85155   1.78250   -1.000
 5582.00    1.84044   1.77634   -1.000
 5583.00    1.83732   1.76501   -1.000
 5584.00    1.83052   1.74690   -1.000
 5585.00    1.80397   1.71931   -1.000
 5586.00    1.75956   1.68365   -1.000
 5587.00    1.71340   1.64907   -1.000
 5588.00    1.69077   1.62753   -1.000
 5589.00    1.70153   1.62623   -1.000
 5590.00    1.72958   1.64176   -1.000
 5591.00    1.75599   1.66373   -1.000
 5592.00    1.76806   1.68261   -1.000
 5593.00    1.76807   1.69659   -1.000
 5594.00    1.77057   1.71018   -1.000
 5595.00    1.79308   1.72596   -1.000
 5596.00    1.82375   1.73917   -1.000
 5597.00    1.82216   1.74078   -1.000
 5598.00    1.79043   1.72775   -1.000
 5599.00    1.76900   1.70649   -1.000
 5600.00    1.75768   1.68562   -1.000
 5601.00    1.74287   1.67186   -1.000
 5602.00    1.73589   1.67134   -1.000
 5603.00    1.75528   1.68890   -1.000
 5604.00    1.80000   1.72351   -1.000
 5605.00    1.84671   1.76554   -1.000
 5606.00    1.87665   1.80114   -1.000
 5607.00    1.88550   1.82292   -1.000
 5608.00    1.88732   1.83212   -1.000
 5609.00    1.89120   1.83462   -1.000
 5610.00    1.89113   1.83484   -1.000
 5611.00    1.89230   1.83180   -1.000
 5612.00    1.89066   1.81859   -1.000
 5613.00    1.86350   1.78902   -1.000
 5614.00    1.80535   1.74680   -1.000
 5615.00    1.75513   1.70727   -1.000
 5616.00    1.75308   1.68899   -1.000
 5617.00    1.78707   1.69653   -1.000
 5618.00    1.81794   1.71884   -1.000
 5619.00    1.83458   1.74167   -1.000
 5620.00    1.84501   1.75778   -1.000
 5621.00    1.85058   1.76563   -1.000
 5622.00    1.84717   1.76298   -1.000
 5623.00    1.82495   1.74844   -1.000
 5624.00    1.79462   1.72893   -1.000
 5625.00    1.78220   1.71707   -1.000
 5626.00    1.80319   1.72180   -1.000
 5627.00    1.83422   1.74137   -1.000
 5628.00    1.85990   1.76602   -1.000
 5629.00    1.87829   1.78792   -1.000
 5630.00    1.88674   1.80360   -1.000
 5631.00    1.89359   1.81136   -1.000
 5632.00    1.88843   1.81060   -1.000
 5633.00    1.87498   1.80223   -1.000
 5634.00    1.86247   1.78827   -1.000
 5635.00    1.84755   1.77172   -1.000
 5636.00    1.83440   1.75606   -1.000
 5637.00    1.82424   1.74469   -1.000
 5638.00    1.82708   1.73942   -1.000
 5639.00    1.82902   1.73840   -1.000
 5640.00    1.82392   1.73776   -1.000
 5641.00    1.81800   1.73646   -1.000
 5642.00    1.81854   1.73695   -1.000
 5643.00    1.83212   1.74170   -1.000
 5644.00    1.83915   1.75002   -1.000
 5645.00    1.84384   1.75868   -1.000
 5646.00    1.85038   1.76505   -1.000
 5647.00    1.85432   1.76780   -1.000
 5648.00    1.85898   1.76712   -1.000
 5649.00    1.85912   1.76533   -1.000
 5650.00    1.86050   1.76611   -1.000
 5651.00    1.87062   1.77040   -1.000
 5652.00    1.87836   1.77480   -1.000
 5653.00    1.87033   1.77420   -1.000
 5654.00    1.84796   1.76555   -1.000
 5655.00    1.83040   1.74912   -1.000
 5656.00    1.81122   1.72608   -1.000
 5657.00    1.76716   1.69936   -1.000
 5658.00    1.72634   1.67680   -1.000
 5659.00    1.73119   1.66762   -1.000
 5660.00    1.77080   1.67400   -1.000
 5661.00    1.79908   1.68931   -1.000
 5662.00    1.79977   1.70503   -1.000
 5663.00    1.80359   1.72011   -1.000
 5664.00    1.82369   1.73624   -1.000
 5665.00    1.83908   1.74929   -1.000
 5666.00    1.83932   1.75377   -1.000
 5667.00    1.83040   1.75008   -1.000
 5668.00    1.82011   1.74451   -1.000
 5669.00    1.82037   1.74422   -1.000
 5670.00    1.83104   1.75203   -1.000
 5671.00    1.84751   1.76660   -1.000
 5672.00    1.86845   1.78429   -1.000
 5673.00    1.88406   1.80054   -1.000
 5674.00    1.89275   1.81135   -1.000
 5675.00    1.88799   1.81627   -1.000
 5676.00    1.88424   1.81703   -1.000
 5677.00    1.88943   1.81468   -1.000
 5678.00    1.89370   1.80878   -1.000
 5679.00    1.89009   1.79864   -1.000
 5680.00    1.87637   1.78464   -1.000
 5681.00    1.85829   1.76854   -1.000
 5682.00    1.83129   1.75312   -1.000
 5683.00    1.81155   1.74206   -1.000
 5684.00    1.81534   1.73794   -1.000
 5685.00    1.82517   1.73835   -1.000
 5686.00    1.82137   1.73829   -1.000
 5687.00    1.81141   1.73708   -1.000
 5688.00    1.80725   1.73914   -1.000
 5689.00    1.81628   1.74862   -1.000
 5690.00    1.83837   1.76499   -1.000
 5691.00    1.86336   1.78275   -1.000
 5692.00    1.88095   1.79648   -1.000
 5693.00    1.89023   1.80360   -1.000
 5694.00    1.88965   1.80443   -1.000
 5695.00    1.88394   1.80071   -1.000
 5696.00    1.87954   1.79346   -1.000
 5697.00    1.86997   1.78270   -1.000
 5698.00    1.85076   1.76906   -1.000
 5699.00    1.83034   1.75443   -1.000
 5700.00    1.81322   1.74161   -1.000
 5701.00    1.79900   1.73289   -1.000
 5702.00    1.79409   1.73009   -1.000
 5703.00    1.80328   1.73295   -1.000
 5704.00    1.81511   1.73581   -1.000
 5705.00    1.81090   1.73126   -1.000
 5706.00    1.78959   1.71678   -1.000
 5707.00    1.76445   1.69563   -1.000
 5708.00    1.73854   1.67518   -1.000
 5709.00    1.71813   1.66166   -1.000
 5710.00    1.71581   1.65895   -1.000
 5711.00    1.73161   1.66917   -1.000
 5712.00    1.77004   1.69163   -1.000
 5713.00    1.81969   1.72248   -1.000
 5714.00    1.85035   1.75467   -1.000
 5715.00    1.86245   1.78015   -1.000
 5716.00    1.86969   1.79702   -1.000
 5717.00    1.87318   1.80814   -1.000
 5718.00    1.87759   1.81698   -1.000
 5719.00    1.89056   1.82598   -1.000
 5720.00    1.90759   1.83579   -1.000
 5721.00    1.91762   1.84562   -1.000
 5722.00    1.92614   1.85362   -1.000
 5723.00    1.92668   1.85741   -1.000
 5724.00    1.91800   1.85470   -1.000
 5725.00    1.90375   1.84493   -1.000
 5726.00    1.88319   1.83130   -1.000
 5727.00    1.87198   1.82016   -1.000
 5728.00    1.87425   1.81570   -1.000
 5729.00    1.88089   1.81666   -1.000
 5730.00    1.87879   1.81825   -1.000
 5731.00    1.86972   1.81913   -1.000
 5732.00    1.86950   1.82292   -1.000
 5733.00    1.88419   1.83160   -1.000
 5734.00    1.90172   1.84227   -1.000
 5735.00    1.90601   1.84889   -1.000
 5736.00    1.90174   1.84856   -1.000
 5737.00    1.89743   1.84385   -1.000
 5738.00    1.89461   1.83869   -1.000
 5739.00    1.89200   1.83537   -1.000
 5740.00    1.89344   1.83351   -1.000
 5741.00    1.89083   1.83240   -1.000
 5742.00    1.88149   1.83291   -1.000
 5743.00    1.89022   1.83635   -1.000
 5744.00    1.90914   1.84212   -1.000
 5745.00    1.91145   1.84625   -1.000
 5746.00    1.89820   1.84455   -1.000
 5747.00    1.88462   1.83811   -1.000
 5748.00    1.87792   1.83231   -1.000
 5749.00    1.87971   1.83130   -1.000
 5750.00    1.89177   1.83065   -1.000
 5751.00    1.89207   1.82220   -1.000
 5752.00    1.86337   1.80446   -1.000
 5753.00    1.83353   1.78601   -1.000
 5754.00    1.82808   1.78062   -1.000
 5755.00    1.85025   1.79344   -1.000
 5756.00    1.88826   1.81770   -1.000
 5757.00    1.91606   1.83939   -1.000
 5758.00    1.92158   1.84725   -1.000
 5759.00    1.90711   1.83882   -1.000
 5760.00    1.88243   1.81943   -1.000
 5761.00    1.85867   1.79952   -1.000
 5762.00    1.84373   1.78941   -1.000
 5763.00    1.84896   1.79554   -1.000
 5764.00    1.87553   1.81616   -1.000
 5765.00    1.90259   1.84260   -1.000
 5766.00    1.91504   1.86351   -1.000
 5767.00    1.92123   1.87423   -1.000
 5768.00    1.92335   1.87624   -1.000
 5769.00    1.91750   1.87258   -1.000
 5770.00    1.90461   1.86566   60.046
 5771.00    1.89070   1.85723   60.411
 5772.00    1.88524   1.84870   60.667
 5773.00    1.88009   1.84156   60.761
 5774.00    1.87327   1.83733   60.723
 5775.00    1.86830   1.83640   60.486
 5776.00    1.86374   1.83696   60.304
 5777.00    1.85253   1.83441   60.399
 5778.00    1.82678   1.82292   60.974
 5779.00    1.78956   1.80020   62.175
 5780.00    1.75750   1.76994   63.294
 5781.00    1.75097   1.74135   63.569
 5782.00    1.76669   1.72216   -1.000
 5783.00    1.78359   1.71483   -1.000
 5784.00    1.79828   1.71741   -1.000
 5785.00    1.81328   1.72803   -1.000
 5786.00    1.82940   1.74662   -1.000
 5787.00    1.84880   1.77064   -1.000
 5788.00    1.87139   1.79175   -1.000
 5789.00    1.88485   1.80442   -1.000
 5790.00    1.87851   1.80937   -1.000
 5791.00    1.87207   1.81273   -1.000
 5792.00    1.87647   1.82078   -1.000
 5793.00    1.88564   1.83423   -1.000
 5794.00    1.89382   1.84801   -1.000
 5795.00    1.89389   1.85528   -1.000
 5796.00    1.88647   1.85420   60.286
 5797.00    1.88057   1.84932   60.309
 5798.00    1.88445   1.84925   59.717
 5799.00    1.90468   1.85884   -1.000
 5800.00    1.93351   1.87401   -1.000
 5801.00    1.94615   1.88591   -1.000
 5802.00    1.93800   1.88693   -1.000
 5803.00    1.92454   1.87694   -1.000
 5804.00    1.91135   1.86195   -1.000
 5805.00    1.89674   1.85031   -1.000
 5806.00    1.89389   1.84676   -1.000
 5807.00    1.90063   1.85063   -1.000
 5808.00    1.90664   1.85852   -1.000
 5809.00    1.91635   1.86707   -1.000
 5810.00    1.92324   1.87394   -1.000
 5811.00    1.93433   1.87741   -1.000
 5812.00    1.94108   1.87554   -1.000
 5813.00    1.93489   1.86779   -1.000
 5814.00    1.92616   1.85587   -1.000
 5815.00    1.91518   1.84516   -1.000
 5816.00    1.90943   1.84181   -1.000
 5817.00    1.91831   1.84940   -1.000
 5818.00    1.93798   1.86520   -1.000
 5819.00    1.95252   1.88137   -1.000
 5820.00    1.95615   1.89190   -1.000
 5821.00    1.95637   1.89493   -1.000
 5822.00    1.95520   1.89271   -1.000
 5823.00    1.95155   1.88893   -1.000
 5824.00    1.94989   1.88658   -1.000
 5825.00    1.95201   1.88659   -1.000
 5826.00    1.95547   1.88844   -1.000
 5827.00    1.95937   1.89142   -1.000
 5828.00    1.95809   1.89490   -1.000
 5829.00    1.95452   1.89797   -1.000
 5830.00    1.95614   1.89940   -1.000
 5831.00    1.95660   1.89809   -1.000
 5832.00    1.95507   1.89406   -1.000
 5833.00    1.95742   1.88820   -1.000
 5834.00    1.95248   1.88225   -1.000
 5835.00    1.94306   1.87819   -1.000
 5836.00    1.94348   1.87716   -1.000
 5837.00    1.95353   1.87841   -1.000
 5838.00    1.95676   1.88129   -1.000
 5839.00    1.95441   1.88666   -1.000
 5840.00    1.95780   1.89457   -1.000
 5841.00    1.96132   1.90219   -1.000
 5842.00    1.95914   1.90620   -1.000
 5843.00    1.95769   1.90404   -1.000
 5844.00    1.95687   1.89570   -1.000
 5845.00    1.94905   1.88289   -1.000
 5846.00    1.93483   1.86915   -1.000
 5847.00    1.92307   1.85801   -1.000
 5848.00    1.91874   1.85164   -1.000
 5849.00    1.92285   1.84819   -1.000
 5850.00    1.92649   1.84328   -1.000
 5851.00    1.91564   1.83344   -1.000
 5852.00    1.89297   1.81968   -1.000
 5853.00    1.87890   1.80666   -1.000
 5854.00    1.87862   1.79650   -1.000
 5855.00    1.87674   1.78705   -1.000
 5856.00    1.86243   1.77550   -1.000
 5857.00    1.84557   1.76397   -1.000
 5858.00    1.84327   1.76036   -1.000
 5859.00    1.86260   1.76865   -1.000
 5860.00    1.89010   1.78549   -1.000
 5861.00    1.90346   1.80277   -1.000
 5862.00    1.90300   1.81515   -1.000
 5863.00    1.90389   1.82183   -1.000
 5864.00    1.91045   1.82401   -1.000
 5865.00    1.90863   1.82278   -1.000
 5866.00    1.89483   1.82080   -1.000
 5867.00    1.89120   1.82219   -1.000
 5868.00    1.90654   1.82987   -1.000
 5869.00    1.92985   1.84193   -1.000
 5870.00    1.94409   1.85225   -1.000
 5871.00    1.94372   1.85732   -1.000
 5872.00    1.94514   1.85724   -1.000
 5873.00    1.94619   1.85509   -1.000
 5874.00    1.94306   1.85298   -1.000
 5875.00    1.93516   1.85048   -1.000
 5876.00    1.92816   1.84562   -1.000
 5877.00    1.92668   1.83659   -1.000
 5878.00    1.91817   1.82411   -1.000
 5879.00    1.90348   1.81103   -1.000
 5880.00    1.89379   1.80090   -1.000
 5881.00    1.89821   1.79532   -1.000
 5882.00    1.90893   1.79325   -1.000
 5883.00    1.90546   1.79197   -1.000
 5884.00    1.88437   1.78792   -1.000
 5885.00    1.86067   1.77568   -1.000
 5886.00    1.81557   1.74521   -1.000
 5887.00    1.69456   1.68628   66.727
 5888.00    1.52006   1.60425   -1.000
 5889.00    1.39899   1.52310   -1.000
 5890.00    1.41446   1.47564   -1.000
 5891.00    1.53144   1.47627   70.528
 5892.00    1.62551   1.50789   -1.000
 5893.00    1.62850   1.53782   -1.000
 5894.00    1.56100   1.54368   69.962
 5895.00    1.50163   1.53370   -1.000
 5896.00    1.52858   1.53225   69.391
 5897.00    1.63485   1.55904   -1.000
 5898.00    1.74570   1.61090   -1.000
 5899.00    1.81737   1.66758   -1.000
 5900.00    1.85787   1.71500   -1.000
 5901.00    1.88239   1.74904   -1.000
 5902.00    1.89770   1.77056   -1.000
 5903.00    1.90102   1.78263   -1.000
 5904.00    1.89598   1.78856   -1.000
 5905.00    1.89336   1.79190   -1.000
 5906.00    1.89304   1.79583   -1.000
 5907.00    1.89428   1.80162   -1.000
 5908.00    1.89813   1.80857   -1.000
 5909.00    1.89919   1.81403   -1.000
 5910.00    1.90164   1.81592   -1.000
 5911.00    1.90216   1.81230   -1.000
 5912.00    1.88812   1.80191   -1.000
 5913.00    1.86510   1.78628   -1.000
 5914.00    1.84634   1.77101   -1.000
 5915.00    1.84190   1.76239   -1.000
 5916.00    1.85571   1.76428   -1.000
 5917.00    1.87061   1.77459   -1.000
 5918.00    1.87588   1.78850   -1.000
 5919.00    1.88358   1.80049   -1.000
 5920.00    1.88829   1.80759   -1.000
 5921.00    1.88540   1.81034   -1.000
 5922.00    1.88980   1.81124   -1.000
 5923.00    1.89627   1.81333   -1.000
 5924.00    1.89970   1.81724   -1.000
 5925.00    1.90414   1.82137   -1.000
 5926.00    1.90796   1.82297   -1.000
 5927.00    1.90488   1.81982   -1.000
 5928.00    1.89235   1.81232   -1.000
 5929.00    1.88256   1.80454   -1.000
 5930.00    1.87853   1.80140   -1.000
 5931.00    1.88423   1.80390   -1.000
 5932.00    1.89367   1.80805   -1.000
 5933.00    1.89398   1.80843   -1.000
 5934.00    1.88797   1.80593   -1.000
 5935.00    1.88398   1.80570   -1.000
 5936.00    1.88959   1.81101   -1.000
 5937.00    1.89881   1.82001   -1.000
 5938.00    1.90270   1.82629   -1.000
 5939.00    1.90317   1.82560   -1.000
 5940.00    1.89446   1.81800   -1.000
 5941.00    1.87840   1.80867   -1.000
 5942.00    1.87582   1.80379   -1.000
 5943.00    1.88959   1.80657   -1.000
 5944.00    1.90141   1.81450   -1.000
 5945.00    1.90032   1.82117   -1.000
 5946.00    1.89498   1.82162   -1.000
 5947.00    1.88913   1.81474   -1.000
 5948.00    1.87248   1.80528   -1.000
 5949.00    1.86708   1.79851   -1.000
 5950.00    1.87996   1.79670   -1.000
 5951.00    1.88095   1.79719   -1.000
 5952.00    1.87139   1.79729   -1.000
 5953.00    1.86860   1.79741   -1.000
 5954.00    1.87217   1.79833   -1.000
 5955.00    1.87468   1.79859   -1.000
 5956.00    1.86890   1.79788   -1.000
 5957.00    1.86456   1.79872   -1.000
 5958.00    1.87598   1.80457   -1.000
 5959.00    1.89506   1.81627   -1.000
 5960.00    1.91043   1.82990   -1.000
 5961.00    1.92258   1.84113   -1.000
 5962.00    1.92758   1.84679   -1.000
 5963.00    1.92155   1.84665   -1.000
 5964.00    1.91172   1.84247   -1.000
 5965.00    1.90098   1.83775   -1.000
 5966.00    1.89621   1.83573   -1.000
 5967.00    1.90229   1.83817   -1.000
 5968.00    1.91159   1.84411   -1.000
 5969.00    1.92053   1.85083   -1.000
 5970.00    1.92733   1.85649   -1.000
 5971.00    1.92604   1.85955   -1.000
 5972.00    1.91880   1.85827   -1.000
 5973.00    1.91547   1.85136   -1.000
 5974.00    1.91253   1.83878   -1.000
 5975.00    1.89189   1.82312   -1.000
 5976.00    1.86401   1.80911   -1.000
 5977.00    1.85682   1.80222   -1.000
 5978.00    1.86677   1.80431   -1.000
 5979.00    1.88165   1.81265   -1.000
 5980.00    1.89835   1.82055   -1.000
 5981.00    1.90383   1.82115   -1.000
 5982.00    1.88910   1.81229   -1.000
 5983.00    1.86460   1.79809   -1.000
 5984.00    1.84894   1.78754   -1.000
 5985.00    1.85379   1.78662   -1.000
 5986.00    1.87344   1.79586   -1.000
 5987.00    1.89148   1.80942   -1.000
 5988.00    1.89930   1.82145   -1.000
 5989.00    1.90459   1.82898   -1.000
 5990.00    1.90044   1.83266   -1.000
 5991.00    1.89126   1.83562   -1.000
 5992.00    1.89714   1.84065   -1.000
 5993.00    1.91188   1.84773   -1.000
 5994.00    1.91687   1.85188   -1.000
 5995.00    1.91181   1.84931   -1.000
 5996.00    1.90088   1.84069   -1.000
 5997.00    1.88365   1.83097   -1.000
 5998.00    1.87754   1.82551   -1.000
 5999.00    1.88619   1.82511   -1.000
 6000.00    1.89445   1.82700   -1.000
 6001.00    1.88759   1.82708   -1.000
 6002.00    1.87262   1.82471   -1.000
 6003.00    1.86580   1.82121   -1.000
 6004.00    1.86873   1.81740   -1.000
 6005.00    1.87260   1.81156   -1.000
 6006.00    1.85907   1.80224   -1.000
 6007.00    1.83530   1.79282   -1.000
 6008.00    1.82893   1.79044   62.841
 6009.00    1.84283   1.79736   -1.000
 6010.00    1.86801   1.80905   -1.000
 6011.00    1.87859   1.81662   -1.000
 6012.00    1.86685   1.81618   -1.000
 6013.00    1.86290   1.81161   -1.000
 6014.00    1.86977   1.80728   -1.000
 6015.00    1.87112   1.80527   -1.000
 6016.00    1.86728   1.80422   -1.000
 6017.00    1.86343   1.80239   -1.000
 6018.00    1.85928   1.79936   -1.000
 6019.00    1.85182   1.79537   -1.000
 6020.00    1.84149   1.79187   -1.000
 6021.00    1.84166   1.79168   -1.000
 6022.00    1.84869   1.79642   -1.000
 6023.00    1.85021   1.80519   -1.000
 6024.00    1.85536   1.81633   62.128
 6025.00    1.86452   1.82810   61.842
 6026.00    1.87853   1.83941   -1.000
 6027.00    1.89086   1.84944   -1.000
 6028.00    1.89324   1.85813   61.067
 6029.00    1.89980   1.86557   61.052
 6030.00    1.91071   1.87127   -1.000
 6031.00    1.90978   1.87599   61.152
 6032.00    1.91027   1.88059   60.927
 6033.00    1.92109   1.88511   60.715
 6034.00    1.92101   1.88863   60.644
 6035.00    1.91411   1.89045   60.575
 6036.00    1.91304   1.89016   60.557
 6037.00    1.91281   1.88742   60.800
 6038.00    1.90952   1.88276   61.037
 6039.00    1.90358   1.87742   61.182
 6040.00    1.90039   1.87320   61.197
 6041.00    1.89842   1.87194   61.069
 6042.00    1.89783   1.87459   60.860
 6043.00    1.90690   1.88081   60.428
 6044.00    1.91605   1.88918   60.235
 6045.00    1.91804   1.89715   60.297
 6046.00    1.91991   1.90299   60.237
 6047.00    1.92076   1.90644   60.223
 6048.00    1.91825   1.90816   60.383
 6049.00    1.91453   1.90831   60.560
 6050.00    1.91734   1.90658   60.642
 6051.00    1.92180   1.90210   60.727
 6052.00    1.92229   1.89452   60.926
 6053.00    1.92011   1.88456   61.148
 6054.00    1.90877   1.87422   61.417
 6055.00    1.89323   1.86583   61.682
 6056.00    1.88832   1.86158   61.687
 6057.00    1.89115   1.86270   61.435
 6058.00    1.89488   1.86838   61.102
 6059.00    1.89788   1.87485   61.013
 6060.00    1.92423   1.87780   -1.000
 6061.00    1.80421   1.87332   -1.000
 6062.00    1.33717   1.86105   -1.000
 6063.00    1.44989   1.84446   -1.000
 6064.00    1.86110   1.83149   -1.000
 6065.00    1.51487   1.82952   -1.000
 6066.00    0.80310   1.84175   -1.000
 6067.00    0.84414   1.86350   -1.000
 6068.00    1.60361   1.88649   -1.000
 6069.00    1.92885   1.90370   60.258
 6070.00    1.91517   1.91339   59.009
 6071.00    1.79760   1.91594   -1.000
 6072.00    1.80215   1.91497   -1.000
 6073.00    1.91641   1.91158   60.518
 6074.00    1.92819   1.90809   60.649
 6075.00    1.91505   1.90269   60.930
 6076.00    1.90520   1.89269   61.271
 6077.00    1.89520   1.87938   61.696
 6078.00    1.88079   1.86574   62.127
 6079.00    1.86953   1.85478   62.299
 6080.00    1.87023   1.84699   62.324
 6081.00    1.86625   1.84133   62.457
 6082.00    1.85860   1.83788   62.539
 6083.00    1.85803   1.83741   62.497
 6084.00    1.86040   1.83961   62.439
 6085.00    1.86242   1.84337   62.305
 6086.00    1.86485   1.84742   62.075
 6087.00    1.86598   1.84993   62.034
 6088.00    1.86626   1.84885   62.329
 6089.00    1.86065   1.84396   62.656
 6090.00    1.84492   1.83786   62.741
 6091.00    1.83945   1.83473   62.477
 6092.00    1.84842   1.83736   62.105
 6093.00    1.85676   1.84502   61.780
 6094.00    1.86843   1.85507   61.473
 6095.00    1.88207   1.86414   61.378
 6096.00    1.88534   1.87067   61.494
 6097.00    1.88626   1.87452   61.589
 6098.00    1.88506   1.87454   61.600
 6099.00    1.87739   1.86715   62.021
 6100.00    1.86211   1.84805   63.259
 6101.00    1.82770   1.82126   64.557
 6102.00    1.79054   1.79747   64.689
 6103.00    1.79023   1.78973   63.688
 6104.00    1.82065   1.80078   62.582
 6105.00    1.84992   1.82174   62.076
 6106.00    1.86536   1.84180   62.163
 6107.00    1.86281   1.85553   62.375
 6108.00    1.85714   1.86363   62.417
 6109.00    1.85980   1.86857   62.318
 6110.00    1.86302   1.87166   62.097
 6111.00    1.86670   1.87403   61.965
 6112.00    1.87070   1.87723   61.788
 6113.00    1.87454   1.88101   61.539
 6114.00    1.87863   1.88334   61.627
 6115.00    1.87239   1.88266   61.987
 6116.00    1.86189   1.87844   62.220
 6117.00    1.86078   1.87074   62.407
 6118.00    1.85812   1.85767   63.073
 6119.00    1.84000   1.83786   63.973
 6120.00    1.81120   1.81513   64.665
 6121.00    1.78878   1.79755   64.946
 6122.00    1.78202   1.79283   64.326
 6123.00    1.79743   1.80186   63.342
 6124.00    1.82890   1.81781   63.004
 6125.00    1.83990   1.83102   63.254
 6126.00    1.82977   1.83713   63.384
 6127.00    1.82736   1.83898   63.239
 6128.00    1.82920   1.84225   62.883
 6129.00    1.83398   1.85071   62.298
 6130.00    1.85039   1.86277   61.971
 6131.00    1.86593   1.87247   62.014
 6132.00    1.86165   1.87187   62.414
 6133.00    1.84715   1.85481   63.505
 6134.00    1.82283   1.82022   65.252
 6135.00    1.77524   1.77701   67.046
 6136.00    1.72355   1.74176   67.856
 6137.00    1.70472   1.73017   66.862
 6138.00    1.73366   1.74483   64.956
 6139.00    1.78037   1.77264   63.761
 6140.00    1.80765   1.79880   63.594
 6141.00    1.81175   1.81655   63.743
 6142.00    1.81394   1.83025   63.409
 6143.00    1.82917   1.84459   62.651
 6144.00    1.84543   1.85807   62.276
 6145.00    1.84861   1.86609   62.444
 6146.00    1.84314   1.86576   62.814
 6147.00    1.83758   1.85849   63.251
 6148.00    1.82952   1.84819   63.661
 6149.00    1.81584   1.83967   63.815
 6150.00    1.81079   1.83590   63.659
 6151.00    1.81335   1.83679   63.290
 6152.00    1.82033   1.83898   63.046
 6153.00    1.82576   1.83849   63.348
 6154.00    1.81883   1.83413   63.801
 6155.00    1.81173   1.82736   63.946
 6156.00    1.80871   1.82014   64.104
 6157.00    1.80616   1.81034   64.627
 6158.00    1.79414   1.79227   65.655
 6159.00    1.76326   1.76176   67.369
 6160.00    1.72090   1.72064   69.413
 6161.00    1.67572   1.68164   70.641
 6162.00    1.64593   1.65873   70.231
 6163.00    1.65344   1.66118   68.565
 6164.00    1.68510   1.68312   67.118
 6165.00    1.71747   1.71157   66.578
 6166.00    1.73535   1.73156   66.597
 6167.00    1.73377   1.73696   67.199
 6168.00    1.71659   1.73106   68.006
 6169.00    1.69569   1.72439   67.983
 6170.00    1.69627   1.72759   66.928
 6171.00    1.72719   1.74220   65.800
 6172.00    1.75580   1.76236   65.481
 6173.00    1.76288   1.77926   65.597
 6174.00    1.76553   1.78971   65.514
 6175.00    1.76699   1.79535   65.361
 6176.00    1.76934   1.79946   65.211
 6177.00    1.77674   1.80461   64.944
 6178.00    1.78488   1.81115   64.664
 6179.00    1.78993   1.81861   64.453
 6180.00    1.79346   1.82599   64.192
 6181.00    1.79760   1.83272   63.966
 6182.00    1.80397   1.83733   63.985
 6183.00    1.81130   1.83734   64.188
 6184.00    1.80715   1.83117   64.587
 6185.00    1.79359   1.81913   65.235
 6186.00    1.78158   1.80328   65.938
 6187.00    1.76791   1.78571   66.583
 6188.00    1.75100   1.76736   67.124
 6189.00    1.73592   1.74881   67.832
 6190.00    1.71593   1.73410   68.486
 6191.00    1.69760   1.72936   68.177
 6192.00    1.70728   1.73983   66.786
 6193.00    1.73820   1.76229   65.412
 6194.00    1.76481   1.78839   64.783
 6195.00    1.78132   1.80842   64.599
 6196.00    1.79496   1.81737   64.822
 6197.00    1.79382   1.81458   65.476
 6198.00    1.77157   1.80477   66.122
 6199.00    1.74774   1.79554   -1.000
 6200.00    1.73481   1.79414   -1.000
 6201.00    1.74082   1.80278   -1.000
 6202.00    1.76305   1.81675   -1.000
 6203.00    1.78045   1.83024   -1.000
 6204.00    1.78806   1.83935   -1.000
 6205.00    1.80086   1.84442   64.440
 6206.00    1.80796   1.84703   64.597
 6207.00    1.80368   1.84765   64.712
 6208.00    1.80301   1.84499   64.858
 6209.00    1.79889   1.83711   65.353
 6210.00    1.78735   1.82245   65.918
 6211.00    1.77288   1.80091   66.501
 6212.00    1.75062   1.77527   67.381
 6213.00    1.72139   1.75051   68.228
 6214.00    1.70446   1.73358   68.586
 6215.00    1.70765   1.72716   68.092
 6216.00    1.72173   1.72947   67.466
 6217.00    1.73642   1.73420   67.689
 6218.00    1.73421   1.73685   67.800
 6219.00    1.71793   1.73729   67.337
 6220.00    1.71207   1.73875   67.374
 6221.00    1.74102   1.74413   70.518
 6222.00    1.67765   1.75225   -1.000
 6223.00    1.55299   1.76053   -1.000
 6224.00    1.64814   1.76663   -1.000
 6225.00    1.76793   1.76920   66.851
 6226.00    1.76017   1.76610   67.072
 6227.00    1.75327   1.75487   67.796
 6228.00    1.73267   1.73479   68.876
 6229.00    1.69819   1.71139   69.874
 6230.00    1.66588   1.69367   70.042
 6231.00    1.66417   1.69155   69.245
 6232.00    1.68995   1.70632   68.026
 6233.00    1.71886   1.73248   66.830
 6234.00    1.74232   1.75860   66.218
 6235.00    1.75852   1.77552   66.403
 6236.00    1.75736   1.77833   67.027
 6237.00    1.74257   1.76890   67.716
 6238.00    1.72540   1.75296   68.423
 6239.00    1.70724   1.73659   68.894
 6240.00    1.69804   1.72315   68.965
 6241.00    1.69836   1.71275   69.237
 6242.00    1.68679   1.70414   69.754
 6243.00    1.66845   1.69750   69.906
 6244.00    1.66681   1.69552   69.593
 6245.00    1.67795   1.70153   68.981
 6246.00    1.69199   1.71563   68.168
 6247.00    1.71258   1.73469   67.382
 6248.00    1.72916   1.75096   67.064
 6249.00    1.72766   1.75739   67.441
 6250.00    1.71485   1.75016   68.474
 6251.00    1.69858   1.73258   69.531
 6252.00    1.67574   1.71156   70.130
 6253.00    1.65342   1.69458   70.424
 6254.00    1.64734   1.68338   70.472
 6255.00    1.64649   1.67586   70.824
 6256.00    1.63548   1.67016   71.508
 6257.00    1.62678   1.66792   -1.000
 6258.00    1.63129   1.67363   -1.000
 6259.00    1.65326   1.68960   69.658
 6260.00    1.67697   1.71369   68.678
 6261.00    1.69609   1.73972   -1.000
 6262.00    1.71723   1.76086   67.031
 6263.00    1.72737   1.77320   -1.000
 6264.00    1.72079   1.77730   -1.000
 6265.00    1.71374   1.77768   -1.000
 6266.00    1.71176   1.77802   -1.000
 6267.00    1.71108   1.77933   -1.000
 6268.00    1.71187   1.78024   -1.000
 6269.00    1.70478   1.78061   -1.000
 6270.00    1.70259   1.78206   -1.000
 6271.00    1.71357   1.78520   -1.000
 6272.00    1.72412   1.78838   -1.000
 6273.00    1.71874   1.78840   -1.000
 6274.00    1.70098   1.78320   -1.000
 6275.00    1.67927   1.77215   -1.000
 6276.00    1.65228   1.75670   -1.000
 6277.00    1.62835   1.73812   -1.000
 6278.00    1.60732   1.72018   -1.000
 6279.00    1.59095   1.70690   -1.000
 6280.00    1.57877   1.70323   -1.000
 6281.00    1.57390   1.71101   -1.000
 6282.00    1.58611   1.72827   -1.000
 6283.00    1.60688   1.75029   -1.000
 6284.00    1.63157   1.77235   -1.000
 6285.00    1.66250   1.79144   -1.000
 6286.00    1.69535   1.80653   -1.000
 6287.00    1.71848   1.81595   -1.000
 6288.00    1.72790   1.81877   -1.000
 6289.00    1.73019   1.81427   -1.000
 6290.00    1.72334   1.80495   -1.000
 6291.00    1.71190   1.79429   -1.000
 6292.00    1.70667   1.78538   -1.000
 6293.00    1.70924   1.77826   -1.000
 6294.00    1.70649   1.77073   -1.000
 6295.00    1.69501   1.76136   -1.000
 6296.00    1.68620   1.75126   -1.000
 6297.00    1.68014   1.74337   -1.000
 6298.00    1.67613   1.73899   -1.000
 6299.00    1.67777   1.73634   -1.000
 6300.00    1.67692   1.73420   -1.000
 6301.00    1.67036   1.73392   -1.000
 6302.00    1.67055   1.73873   -1.000
 6303.00    1.68313   1.75043   -1.000
 6304.00    1.70126   1.76699   -1.000
 6305.00    1.71498   1.78535   -1.000
 6306.00    1.72376   1.80193   -1.000
 6307.00    1.73396   1.81404   -1.000
 6308.00    1.74268   1.81923   -1.000
 6309.00    1.73763   1.81739   -1.000
 6310.00    1.71834   1.81043   -1.000
 6311.00    1.70532   1.80132   -1.000
 6312.00    1.70495   1.79141   -1.000
 6313.00    1.70115   1.78070   -1.000
 6314.00    1.68724   1.76948   -1.000
 6315.00    1.67246   1.75892   -1.000
 6316.00    1.66323   1.75163   -1.000
 6317.00    1.66623   1.74920   -1.000
 6318.00    1.67421   1.75334   -1.000
 6319.00    1.68505   1.76376   -1.000
 6320.00    1.70049   1.77869   -1.000
 6321.00    1.71287   1.79442   -1.000
 6322.00    1.71981   1.80902   -1.000
 6323.00    1.72172   1.82144   -1.000
 6324.00    1.73290   1.83115   -1.000
 6325.00    1.75119   1.83744   -1.000
 6326.00    1.75775   1.84063   -1.000
 6327.00    1.75496   1.84180   -1.000
 6328.00    1.75212   1.84249   -1.000
 6329.00    1.75100   1.84368   -1.000
 6330.00    1.75377   1.84557   -1.000
 6331.00    1.75664   1.84682   -1.000
 6332.00    1.76078   1.84412   -1.000
 6333.00    1.76477   1.83405   -1.000
 6334.00    1.65393   1.81766   -1.000
 6335.00    1.57765   1.80132   -1.000
 6336.00    1.66031   1.79266   -1.000
 6337.00    1.71341   1.79570   -1.000
 6338.00    1.72344   1.80758   -1.000
 6339.00    1.74387   1.82236   -1.000
 6340.00    1.75992   1.83338   -1.000
 6341.00    1.76286   1.83706   -1.000
 6342.00    1.75475   1.83382   -1.000
 6343.00    1.74547   1.82866   -1.000
 6344.00    1.74329   1.82736   -1.000
 6345.00    1.75032   1.83315   -1.000
 6346.00    1.76023   1.84476   -1.000
 6347.00    1.76646   1.85824   -1.000
 6348.00    1.77219   1.87005   -1.000
 6349.00    1.78311   1.87788   -1.000
 6350.00    1.79215   1.88041   -1.000
 6351.00    1.78253   1.87712   -1.000
 6352.00    1.76822   1.86793   -1.000
 6353.00    1.76156   1.85489   -1.000
 6354.00    1.74971   1.84066   -1.000
 6355.00    1.73869   1.82769   -1.000
 6356.00    1.73101   1.81573   -1.000
 6357.00    1.72258   1.80339   -1.000
 6358.00    1.71226   1.79050   -1.000
 6359.00    1.70276   1.77877   -1.000
 6360.00    1.70260   1.77019   -1.000
 6361.00    1.70353   1.76610   -1.000
 6362.00    1.70474   1.76771   -1.000
 6363.00    1.71225   1.77543   -1.000
 6364.00    1.72290   1.78894   -1.000
 6365.00    1.73116   1.80594   -1.000
 6366.00    1.73607   1.82389   -1.000
 6367.00    1.74543   1.83954   -1.000
 6368.00    1.75871   1.85167   -1.000
 6369.00    1.76800   1.86010   -1.000
 6370.00    1.76977   1.86696   -1.000
 6371.00    1.76906   1.87375   -1.000
 6372.00    1.77207   1.88044   -1.000
 6373.00    1.77576   1.88563   -1.000
 6374.00    1.77360   1.88758   -1.000
 6375.00    1.76907   1.88572   -1.000
 6376.00    1.76022   1.88022   -1.000
 6377.00    1.74558   1.87240   -1.000
 6378.00    1.73713   1.86393   -1.000
 6379.00    1.73355   1.85755   -1.000
 6380.00    1.73043   1.85456   -1.000
 6381.00    1.72914   1.85530   -1.000
 6382.00    1.73203   1.85830   -1.000
 6383.00    1.74032   1.86207   -1.000
 6384.00    1.74223   1.86588   -1.000
 6385.00    1.73211   1.86978   -1.000
 6386.00    1.72553   1.87360   -1.000
 6387.00    1.72629   1.87622   -1.000
 6388.00    1.72332   1.87582   -1.000
 6389.00    1.71569   1.87035   -1.000
 6390.00    1.70386   1.85853   -1.000
 6391.00    1.68504   1.84208   -1.000
 6392.00    1.65861   1.82659   -1.000
 6393.00    1.63666   1.82001   -1.000
 6394.00    1.63545   1.82553   -1.000
 6395.00    1.65079   1.83938   -1.000
 6396.00    1.65952   1.85012   -1.000
 6397.00    1.64893   1.85015   -1.000
 6398.00    1.62407   1.83910   -1.000
 6399.00    1.59726   1.82675   -1.000
 6400.00    1.58315   1.82465   -1.000
 6401.00    1.59098   1.83709   -1.000
 6402.00    1.61126   1.85894   -1.000
 6403.00    1.62454   1.87826   -1.000
 6404.00    1.62484   1.88746   -1.000
 6405.00    1.60969   1.88419   -1.000
 6406.00    1.59135   1.87377   -1.000
 6407.00    1.57455   1.86233   -1.000
 6408.00    1.55075   1.85480   -1.000
 6409.00    1.54026   1.85112   -1.000
 6410.00    1.54063   1.84946   -1.000
 6411.00    1.52484   1.84891   -1.000
 6412.00    1.50730   1.85042   -1.000
 6413.00    1.50292   1.85425   -1.000
 6414.00    1.50316   1.85948   -1.000
 6415.00    1.50091   1.86345   -1.000
 6416.00    1.49292   1.86339   -1.000
 6417.00    1.48191   1.85714   -1.000
 6418.00    1.46563   1.84573   -1.000
 6419.00    1.44053   1.83342   -1.000
 6420.00    1.41265   1.82773   -1.000
 6421.00    1.39429   1.83306   -1.000
 6422.00    1.39506   1.84916   -1.000
 6423.00    1.40656   1.86944   -1.000
 6424.00    1.41032   1.88749   -1.000
 6425.00    1.40584   1.89913   -1.000
 6426.00    1.39661   1.90260   -1.000
 6427.00    1.38108   1.89653   -1.000
 6428.00    1.36423   1.88158   -1.000
