###################################################################
## OUTPUT of StarlightChains_v04.for    [Cid@UFSC - 01/Apr/2007] ##
###################################################################

## Some input info
NGC6266_a_1.cxt                          [arq_obs]
Base.BC03.S                              [arq_base]
NGC6266_a_1.msk                          [arq_masks]
StCv04.C11.config                        [arq_config]
  150                                    [N_base]
    0                                    [N_YAV_components = # of components with extra extinction!]
    0                                    [i_FitPowerLaw (1/0 = Yes/No)]
-9.99                                    [alpha_PowerLaw]
CCM                                      [red_law_option]
 1.458241                                [q_norm = A(l_norm)/A(V)]

## (Re)Sampling Parameters
 3359.00                                 [l_ini (A)]
 6428.00                                 [l_fin (A)]
    1.00                                 [dl    (A)]     (OBS: dl_cushion =    50.00 A)

## Normalization info
 4020.00                                 [l_norm (A) - for base]
 4010.00                                 [llow_norm (A) - window for f_obs]
 4060.00                                 [lupp_norm (A) - window for f_obs]
4.260575E-14                             [fobs_norm (in input units)]

## S/N
 4730.00                                 [llow_SN (A) - window for S/N]
 4780.00                                 [lupp_SN (A) - window for S/N]
  58.893                                 [S/N in S/N window]
  42.056                                 [S/N in norm. window]
 225.721                                 [S/N_err in S/N window]
 161.191                                 [S/N_err in norm. window]
  1.0000                                 [fscale_chi2]

## etc...
  2147483622                             [idum_orig]
  3068                                   [NOl_eff]
   763                                   [Nl_eff]
  2305    NSIGMA                         [Ntot_cliped & clip_method]
  1941450                                [Nglobal_steps]
   7                                     [N_chains]
  21                                     [NEX0s_base = N_base in EX0s-fits]
 0   0   1        2   2.0   4.774E+02    [Clip-Bug, RC-Crash & Burn-In warning-flags, n_censored_weights, wei_nsig_threshold & wei_limit]
    86     85.434     85.430      0.004  [idt_all, wdt_TotTime, wdt_UsrTime & wdt_SysTime (sec)]

## Synthesis Results - Best model ##

 2.49609E+00                             [chi2/Nl_eff]
     1.10180                             [adev (%)]

    97.14711                             [sum-of-x (%)]
 2.40575E-13                             [Flux_tot (units of input spectrum!)]
 8.38780E-09                             [Mini_tot (???)]
 4.15286E-09                             [Mcor_tot (???)]

 -11.12                                  [v0_min  (km/s)]
  18.87                                  [vd_min  (km/s)]
 1.3104                                  [AV_min  (mag)]
 0.0000                                  [YAV_min (mag)]

# j     x_j(%)      Mini_j(%)     Mcor_j(%)     age_j(yr)     Z_j      (L/M)_j    YAV?  Mstars   component_j        a/Fe...       SSP_chi2r SSP_adev(%)   SSP_AV   SSP_x(%)
  1      0.0000     0.0000E+00    0.0000E+00    1.000000E+06  0.00010  8.160E-03    0   1.0000   age020_m22            0.0000     3.3395E+03    29.4054   4.0000    91.2915
  2      5.6706     3.5179E-03    7.1054E-03    3.160000E+06  0.00010  4.759E-02    0   1.0000   age045_m22            0.0000     7.6413E+01     4.4733   2.8809    94.3990
  3      3.9220     5.9934E-03    1.1599E-02    5.010000E+06  0.00010  1.932E-02    0   0.9582   age055_m22            0.0000     5.0542E+02    11.8780   3.1628    80.0815
  4      0.0000     0.0000E+00    0.0000E+00    6.610000E+06  0.00010  9.973E-03    0   0.9297   age061_m22            0.0000     3.0592E+03    27.9968   4.0000    93.8611
  5      0.0000     0.0000E+00    0.0000E+00    8.710000E+06  0.00010  7.690E-03    0   0.9030   age067_m22            0.0000     2.9656E+03    27.5525   4.0000    94.3694
  6      0.0000     0.0000E+00    0.0000E+00    1.000000E+07  0.00010  6.375E-03    0   0.8902   age070_m22            0.0000     3.0112E+03    27.6177   4.0000    94.8919
  7      0.0000     0.0000E+00    0.0000E+00    1.445000E+07  0.00010  4.874E-03    0   0.8589   age078_m22            0.0000     1.8511E+03    22.2623   4.0000    95.6034
  8      0.0000     0.0000E+00    0.0000E+00    2.512000E+07  0.00010  4.103E-03    0   0.8174   age090_m22            0.0000     3.5764E+02    10.8874   4.0000    94.3783
  9      0.0000     0.0000E+00    0.0000E+00    4.000000E+07  0.00010  3.654E-03    0   0.7830   age104_m22            0.0000     1.7341E+02     6.4599   3.9521    93.1590
 10      0.0000     0.0000E+00    0.0000E+00    5.500000E+07  0.00010  3.093E-03    0   0.7597   age110_m22            0.0000     2.0497E+02     6.4915   3.8529    94.9859
 11      0.0000     0.0000E+00    0.0000E+00    1.015200E+08  0.00010  2.431E-03    0   0.7138   age116_m22            0.0000     2.9151E+02     7.2495   3.4989    98.4504
 12      0.0000     0.0000E+00    0.0000E+00    1.609000E+08  0.00010  1.319E-03    0   0.6775   age120_m22            0.0000     2.7029E+02     6.7990   3.0203   100.8224
 13      0.0000     0.0000E+00    0.0000E+00    2.861200E+08  0.00010  1.075E-03    0   0.6412   age125_m22            0.0000     7.4783E+02    12.0696   3.0989   105.0725
 14      0.0000     0.0000E+00    0.0000E+00    5.088000E+08  0.00010  7.183E-04    0   0.6083   age130_m22            0.0000     9.2193E+02    13.6237   2.8722   106.9828
 15      0.0000     0.0000E+00    0.0000E+00    9.047900E+08  0.00010  4.524E-04    0   0.5785   age135_m22            0.0000     9.3978E+02    13.7998   2.6689   108.3182
 16      0.0000     0.0000E+00    0.0000E+00    1.278050E+09  0.00010  3.018E-04    0   0.5588   age138_m22            0.0000     4.6236E+02     9.3808   2.1249   106.4570
 17      0.0000     0.0000E+00    0.0000E+00    1.434000E+09  0.00010  2.691E-04    0   0.5532   age139_m22            0.0000     3.8265E+02     8.4708   1.9682   105.8323
 18      0.0000     0.0000E+00    0.0000E+00    2.500000E+09  0.00010  1.582E-04    0   0.5296   age150_m22            0.0000     3.2172E+02     7.6367   1.8463   106.5467
 19      0.0000     0.0000E+00    0.0000E+00    4.250000E+09  0.00010  1.007E-04    0   0.5110   age158_m22            0.0000     1.7997E+02     5.6148   1.6983   104.3241
 20      0.0000     0.0000E+00    0.0000E+00    6.250000E+09  0.00010  6.869E-05    0   0.4985   age166_m22            0.0000     8.2166E+01     3.7230   1.6461   100.9455
 21      0.0000     0.0000E+00    0.0000E+00    7.500000E+09  0.00010  5.873E-05    0   0.4931   age171_m22            0.0000     6.9498E+01     3.4550   1.6320   100.3241
 22      0.0000     0.0000E+00    0.0000E+00    1.000000E+10  0.00010  4.481E-05    0   0.4854   age181_m22            0.0000     6.6030E+01     3.3697   1.5941    99.9650
 23      0.0364     3.0835E-02    2.9838E-02    1.300000E+10  0.00010  3.489E-05    0   0.4791   age193_m22            0.0000     5.7836E+01     3.1454   1.5397    99.3605
 24      0.0010     9.6596E-04    9.2986E-04    1.500000E+10  0.00010  3.035E-05    0   0.4766   age201_m22            0.0000     5.2157E+01     2.9915   1.5010    99.1582
 25      3.3004     3.8821E+00    3.7127E+00    1.800000E+10  0.00010  2.510E-05    0   0.4735   age213_m22            0.0000     3.9960E+01     2.6344   1.4338    98.4817
 26      0.0000     0.0000E+00    0.0000E+00    1.000000E+06  0.00040  8.458E-03    0   1.0000   age020_m32            0.0000     3.4137E+03    29.4857   4.0000    92.2607
 27      0.0000     0.0000E+00    0.0000E+00    3.160000E+06  0.00040  3.973E-02    0   1.0000   age045_m32            0.0000     2.4124E+02     9.3132   4.0000    91.3940
 28      0.0000     0.0000E+00    0.0000E+00    5.010000E+06  0.00040  1.935E-02    0   0.9532   age055_m32            0.0000     8.7843E+02    16.7168   4.0000    89.8084
 29      0.0000     0.0000E+00    0.0000E+00    6.610000E+06  0.00040  1.204E-02    0   0.9243   age061_m32            0.0000     2.1418E+03    23.9914   4.0000    94.1198
 30      0.0000     0.0000E+00    0.0000E+00    8.710000E+06  0.00040  9.433E-03    0   0.9001   age067_m32            0.0000     1.9363E+03    22.8751   4.0000    94.8313
 31      0.0000     0.0000E+00    0.0000E+00    1.000000E+07  0.00040  8.053E-03    0   0.8877   age070_m32            0.0000     1.7456E+03    21.8762   4.0000    94.7340
 32      0.0000     0.0000E+00    0.0000E+00    1.445000E+07  0.00040  7.027E-03    0   0.8578   age078_m32            0.0000     2.5432E+02     9.6621   4.0000    88.4854
 33      0.0000     0.0000E+00    0.0000E+00    2.512000E+07  0.00040  4.707E-03    0   0.8166   age090_m32            0.0000     1.5067E+02     7.1928   3.7931    90.5430
 34      0.0000     0.0000E+00    0.0000E+00    4.000000E+07  0.00040  3.714E-03    0   0.7827   age104_m32            0.0000     1.5224E+02     6.1484   3.5921    94.5664
 35      0.0000     0.0000E+00    0.0000E+00    5.500000E+07  0.00040  2.982E-03    0   0.7593   age110_m32            0.0000     1.7838E+02     6.1824   3.5314    96.0119
 36      0.0000     0.0000E+00    0.0000E+00    1.015200E+08  0.00040  2.188E-03    0   0.7143   age116_m32            0.0000     4.0953E+02     8.5634   3.2764   101.0670
 37      0.0000     0.0000E+00    0.0000E+00    1.609000E+08  0.00040  1.690E-03    0   0.6856   age120_m32            0.0000     6.1123E+02    10.6272   3.0700   104.2572
 38      0.0000     0.0000E+00    0.0000E+00    2.861200E+08  0.00040  1.152E-03    0   0.6509   age125_m32            0.0000     7.9470E+02    12.5248   2.8552   106.2181
 39      0.0000     0.0000E+00    0.0000E+00    5.088000E+08  0.00040  7.331E-04    0   0.6182   age130_m32            0.0000     8.7465E+02    13.2694   2.6940   107.0463
 40      0.0000     0.0000E+00    0.0000E+00    9.047900E+08  0.00040  3.960E-04    0   0.5890   age135_m32            0.0000     4.9506E+02     9.9692   2.2268   105.6087
 41      0.0000     0.0000E+00    0.0000E+00    1.278050E+09  0.00040  2.854E-04    0   0.5687   age138_m32            0.0000     3.7977E+02     8.4676   1.9180   107.4995
 42      0.0000     0.0000E+00    0.0000E+00    1.434000E+09  0.00040  2.531E-04    0   0.5632   age139_m32            0.0000     3.6809E+02     8.2974   1.8558   107.4949
 43      0.0000     0.0000E+00    0.0000E+00    2.500000E+09  0.00040  1.488E-04    0   0.5386   age150_m32            0.0000     2.6710E+02     7.0525   1.6032   105.5171
 44      1.3764     4.4744E-01    4.6984E-01    4.250000E+09  0.00040  9.082E-05    0   0.5199   age158_m32            0.0000     8.5393E+01     3.7722   1.5114   101.3576
 45     16.4873     7.6512E+00    7.8442E+00    6.250000E+09  0.00040  6.362E-05    0   0.5076   age166_m32            0.0000     1.6594E+01     1.8314   1.4736    97.2477
 46     26.3306     1.4698E+01    1.4923E+01    7.500000E+09  0.00040  5.289E-05    0   0.5027   age171_m32            0.0000     1.1459E+01     1.6081   1.4397    95.9062
 47      8.4163     6.2558E+00    6.2520E+00    1.000000E+10  0.00040  3.972E-05    0   0.4948   age181_m32            0.0000     9.5958E+00     1.5084   1.3807    94.5403
 48      8.3211     7.4831E+00    7.3606E+00    1.300000E+10  0.00040  3.283E-05    0   0.4870   age193_m32            0.0000     2.1769E+01     2.0244   1.3342    97.6735
 49      4.6264     4.6697E+00    4.5782E+00    1.500000E+10  0.00040  2.925E-05    0   0.4854   age201_m32            0.0000     4.0025E+01     2.6897   1.3141    99.5071
 50      7.9509     9.5076E+00    9.2540E+00    1.800000E+10  0.00040  2.469E-05    0   0.4819   age213_m32            0.0000     4.8742E+01     2.9974   1.2734   100.1615
 51      0.0000     0.0000E+00    0.0000E+00    1.000000E+06  0.00400  1.114E-02    0   1.0000   age020_m42            0.0000     2.9443E+03    27.6515   4.0000    91.8265
 52      0.0000     0.0000E+00    0.0000E+00    3.160000E+06  0.00400  4.073E-02    0   0.9999   age045_m42            0.0000     1.1508E+02     6.0791   3.8670    89.9291
 53      0.0000     0.0000E+00    0.0000E+00    5.010000E+06  0.00400  2.534E-02    0   0.9488   age055_m42            0.0000     4.6319E+02    12.6362   4.0000    89.9656
 54      0.3875     4.4289E-04    8.2476E-04    6.610000E+06  0.00400  2.583E-02    0   0.9220   age061_m42            0.0000     1.1520E+02     5.8978   3.6700    91.4491
 55      0.0000     0.0000E+00    0.0000E+00    8.710000E+06  0.00400  1.706E-02    0   0.8983   age067_m42            0.0000     1.5419E+02     7.5584   3.4760    89.4665
 56      0.0000     0.0000E+00    0.0000E+00    1.000000E+07  0.00400  1.271E-02    0   0.8862   age070_m42            0.0000     2.4639E+02     9.4690   3.4546    87.7863
 57      0.0000     0.0000E+00    0.0000E+00    1.445000E+07  0.00400  7.666E-03    0   0.8571   age078_m42            0.0000     3.0778E+02    10.3560   3.8622    84.0803
 58      0.0000     0.0000E+00    0.0000E+00    2.512000E+07  0.00400  5.070E-03    0   0.8174   age090_m42            0.0000     2.0979E+02     8.8999   3.3244    89.5911
 59      0.0000     0.0000E+00    0.0000E+00    4.000000E+07  0.00400  3.505E-03    0   0.7851   age104_m42            0.0000     1.2488E+02     7.0262   3.0155    92.8922
 60      0.0000     0.0000E+00    0.0000E+00    5.500000E+07  0.00400  3.059E-03    0   0.7629   age110_m42            0.0000     1.3414E+02     5.2055   3.0747    98.6735
 61      0.0000     0.0000E+00    0.0000E+00    1.015200E+08  0.00400  2.268E-03    0   0.7207   age116_m42            0.0000     5.1888E+02     9.9019   2.9889   105.0379
 62      0.0000     0.0000E+00    0.0000E+00    1.609000E+08  0.00400  1.720E-03    0   0.6930   age120_m42            0.0000     5.9798E+02    10.8873   2.8617   106.3929
 63      0.0000     0.0000E+00    0.0000E+00    2.861200E+08  0.00400  1.079E-03    0   0.6613   age125_m42            0.0000     5.6727E+02    10.7259   2.4967   107.2968
 64      0.0000     0.0000E+00    0.0000E+00    5.088000E+08  0.00400  6.261E-04    0   0.6313   age130_m42            0.0000     6.6226E+02    11.5524   2.2898   110.7516
 65      0.0000     0.0000E+00    0.0000E+00    9.047900E+08  0.00400  3.535E-04    0   0.6024   age135_m42            0.0000     3.9399E+02     8.9117   1.8914   110.7062
 66      0.0000     0.0000E+00    0.0000E+00    1.278050E+09  0.00400  2.677E-04    0   0.5837   age138_m42            0.0000     1.7098E+02     6.3052   1.2300   107.8055
 67      0.0000     0.0000E+00    0.0000E+00    1.434000E+09  0.00400  1.910E-04    0   0.5716   age139_m42            0.0000     2.1454E+02     6.8491   1.3999   108.5526
 68      0.0000     0.0000E+00    0.0000E+00    2.500000E+09  0.00400  9.818E-05    0   0.5463   age150_m42            0.0000     1.0036E+02     5.0010   1.1583   102.4563
 69      0.0000     0.0000E+00    0.0000E+00    4.250000E+09  0.00400  5.491E-05    0   0.5269   age158_m42            0.0000     8.8135E+01     4.4450   1.0400    99.3358
 70      0.0000     0.0000E+00    0.0000E+00    6.250000E+09  0.00400  3.857E-05    0   0.5151   age166_m42            0.0000     1.2295E+02     5.0288   0.9245    97.8472
 71      0.0000     0.0000E+00    0.0000E+00    7.500000E+09  0.00400  3.243E-05    0   0.5110   age171_m42            0.0000     1.5208E+02     5.4847   0.8528    97.2496
 72      0.0000     0.0000E+00    0.0000E+00    1.000000E+10  0.00400  2.424E-05    0   0.5028   age181_m42            0.0000     1.9661E+02     6.1431   0.7805    96.5556
 73      0.0000     0.0000E+00    0.0000E+00    1.300000E+10  0.00400  1.883E-05    0   0.4927   age193_m42            0.0000     2.3464E+02     6.6594   0.7450    96.1724
 74      0.0000     0.0000E+00    0.0000E+00    1.500000E+10  0.00400  1.685E-05    0   0.4919   age201_m42            0.0000     2.2439E+02     6.5119   0.7486    96.2168
 75      0.0000     0.0000E+00    0.0000E+00    1.800000E+10  0.00400  1.452E-05    0   0.4874   age213_m42            0.0000     2.0589E+02     6.2430   0.7613    96.5376
 76      0.0000     0.0000E+00    0.0000E+00    1.000000E+06  0.00800  1.286E-02    0   1.0000   age020_m52            0.0000     2.7387E+03    26.3566   4.0000    93.6895
 77      0.0000     0.0000E+00    0.0000E+00    3.160000E+06  0.00800  3.147E-02    0   0.9966   age045_m52            0.0000     2.2156E+03    24.1800   4.0000    94.0389
 78      0.0000     0.0000E+00    0.0000E+00    5.010000E+06  0.00800  2.664E-02    0   0.9443   age055_m52            0.0000     7.8778E+02    15.7166   4.0000    91.5580
 79      0.0000     0.0000E+00    0.0000E+00    6.610000E+06  0.00800  2.151E-02    0   0.9177   age061_m52            0.0000     1.8935E+02     8.0754   3.0663    89.1606
 80      0.0000     0.0000E+00    0.0000E+00    8.710000E+06  0.00800  1.628E-02    0   0.8948   age067_m52            0.0000     1.8890E+02     8.4429   3.4331    89.7777
 81      0.0000     0.0000E+00    0.0000E+00    1.000000E+07  0.00800  1.215E-02    0   0.8827   age070_m52            0.0000     2.3458E+02     9.2806   3.7775    87.6118
 82      0.0000     0.0000E+00    0.0000E+00    1.445000E+07  0.00800  8.739E-03    0   0.8552   age078_m52            0.0000     1.8747E+02     8.3402   3.8182    89.1867
 83      0.0000     0.0000E+00    0.0000E+00    2.512000E+07  0.00800  5.676E-03    0   0.8162   age090_m52            0.0000     1.6157E+02     6.9126   3.4080    95.0053
 84      0.0000     0.0000E+00    0.0000E+00    4.000000E+07  0.00800  3.939E-03    0   0.7841   age104_m52            0.0000     1.6603E+02     6.0097   3.2513    97.8963
 85      0.0000     0.0000E+00    0.0000E+00    5.500000E+07  0.00800  3.155E-03    0   0.7627   age110_m52            0.0000     2.1462E+02     6.1782   3.2217   100.0132
 86      0.0000     0.0000E+00    0.0000E+00    1.015200E+08  0.00800  2.206E-03    0   0.7226   age116_m52            0.0000     3.8999E+02     8.2913   3.0451   104.4288
 87      0.0000     0.0000E+00    0.0000E+00    1.609000E+08  0.00800  1.596E-03    0   0.6963   age120_m52            0.0000     4.7586E+02     9.5024   2.8338   106.3474
 88      0.0000     0.0000E+00    0.0000E+00    2.861200E+08  0.00800  1.002E-03    0   0.6665   age125_m52            0.0000     7.2301E+02    12.3367   2.5484   109.7655
 89      0.0000     0.0000E+00    0.0000E+00    5.088000E+08  0.00800  5.759E-04    0   0.6377   age130_m52            0.0000     8.0025E+02    13.0911   2.2113   113.8992
 90      0.0000     0.0000E+00    0.0000E+00    9.047900E+08  0.00800  2.972E-04    0   0.6086   age135_m52            0.0000     4.8973E+02    10.2467   1.6955   111.8716
 91      0.0000     0.0000E+00    0.0000E+00    1.278050E+09  0.00800  2.242E-04    0   0.5907   age138_m52            0.0000     2.2526E+02     7.0516   1.0789   110.5616
 92      0.0000     0.0000E+00    0.0000E+00    1.434000E+09  0.00800  1.645E-04    0   0.5787   age139_m52            0.0000     1.8849E+02     6.4847   1.2291   109.6033
 93      0.0000     0.0000E+00    0.0000E+00    2.500000E+09  0.00800  7.723E-05    0   0.5519   age150_m52            0.0000     1.7678E+02     6.2362   0.9126   104.9970
 94      0.0000     0.0000E+00    0.0000E+00    4.250000E+09  0.00800  4.151E-05    0   0.5320   age158_m52            0.0000     1.8015E+02     6.3047   0.8514   101.9906
 95      0.0000     0.0000E+00    0.0000E+00    6.250000E+09  0.00800  3.010E-05    0   0.5197   age166_m52            0.0000     2.5754E+02     7.2901   0.6720   100.4659
 96      0.0000     0.0000E+00    0.0000E+00    7.500000E+09  0.00800  2.467E-05    0   0.5139   age171_m52            0.0000     2.8091E+02     7.5625   0.6335   100.0707
 97      0.0000     0.0000E+00    0.0000E+00    1.000000E+10  0.00800  1.862E-05    0   0.5054   age181_m52            0.0000     3.6335E+02     8.4625   0.5132    99.7183
 98      0.1743     3.5908E-01    3.6176E-01    1.300000E+10  0.00800  1.433E-05    0   0.4988   age193_m52            0.0000     4.6141E+02     9.4036   0.4272   100.3160
 99      0.0000     0.0000E+00    0.0000E+00    1.500000E+10  0.00800  1.244E-05    0   0.4936   age201_m52            0.0000     5.0106E+02     9.7259   0.4013   100.7692
100      0.0000     0.0000E+00    0.0000E+00    1.800000E+10  0.00800  1.070E-05    0   0.4888   age213_m52            0.0000     5.2917E+02     9.9592   0.3695   100.6399
101      0.0000     0.0000E+00    0.0000E+00    1.000000E+06  0.02000  1.989E-02    0   1.0000   age020_m62            0.0000     2.7011E+03    26.4299   4.0000    92.1183
102      0.0000     0.0000E+00    0.0000E+00    3.160000E+06  0.02000  3.772E-02    0   0.9858   age045_m62            0.0000     1.8995E+03    22.9952   4.0000    92.4042
103      0.0000     0.0000E+00    0.0000E+00    5.010000E+06  0.02000  3.227E-02    0   0.9342   age055_m62            0.0000     2.0878E+02     8.9346   4.0000    89.7788
104      0.0000     0.0000E+00    0.0000E+00    6.610000E+06  0.02000  2.387E-02    0   0.9090   age061_m62            0.0000     2.9186E+02    10.1627   3.8411    86.1090
105      0.0000     0.0000E+00    0.0000E+00    8.710000E+06  0.02000  1.102E-02    0   0.8861   age067_m62            0.0000     1.0391E+03    17.0528   3.4642    80.4053
106      0.0000     0.0000E+00    0.0000E+00    1.000000E+07  0.02000  1.011E-02    0   0.8751   age070_m62            0.0000     6.6933E+02    14.1707   3.4893    83.2606
107      0.0000     0.0000E+00    0.0000E+00    1.445000E+07  0.02000  7.331E-03    0   0.8472   age078_m62            0.0000     4.2468E+02    11.7415   3.5122    85.0059
108      0.0000     0.0000E+00    0.0000E+00    2.512000E+07  0.02000  4.206E-03    0   0.8099   age090_m62            0.0000     4.5090E+02    12.0241   3.4258    84.4104
109      0.0000     0.0000E+00    0.0000E+00    4.000000E+07  0.02000  3.373E-03    0   0.7799   age104_m62            0.0000     1.3051E+02     6.6501   3.2225    94.9177
110      0.0000     0.0000E+00    0.0000E+00    5.500000E+07  0.02000  2.747E-03    0   0.7595   age110_m62            0.0000     1.5890E+02     5.7717   3.1504    99.4124
111      0.0000     0.0000E+00    0.0000E+00    1.015200E+08  0.02000  1.878E-03    0   0.7221   age116_m62            0.0000     4.0289E+02     8.3293   3.0060   105.6352
112      0.0000     0.0000E+00    0.0000E+00    1.609000E+08  0.02000  1.378E-03    0   0.6978   age120_m62            0.0000     6.1121E+02    10.7783   2.8552   108.6997
113      0.0000     0.0000E+00    0.0000E+00    2.861200E+08  0.02000  8.869E-04    0   0.6700   age125_m62            0.0000     9.5951E+02    13.9164   2.4899   113.7972
114      0.0000     0.0000E+00    0.0000E+00    5.088000E+08  0.02000  4.834E-04    0   0.6430   age130_m62            0.0000     8.7772E+02    13.5564   2.0724   115.8836
115      0.0000     0.0000E+00    0.0000E+00    9.047900E+08  0.02000  2.312E-04    0   0.6152   age135_m62            0.0000     4.3030E+02     9.5557   1.4835   114.4663
116      0.0000     0.0000E+00    0.0000E+00    1.278050E+09  0.02000  1.387E-04    0   0.5927   age138_m62            0.0000     2.0363E+02     6.7077   1.1227   109.1898
117      0.0000     0.0000E+00    0.0000E+00    1.434000E+09  0.02000  1.168E-04    0   0.5865   age139_m62            0.0000     1.8217E+02     6.3698   1.1032   107.2266
118      0.0000     0.0000E+00    0.0000E+00    2.500000E+09  0.02000  5.505E-05    0   0.5610   age150_m62            0.0000     2.3388E+02     7.0330   0.7537   103.9064
119      0.0000     0.0000E+00    0.0000E+00    4.250000E+09  0.02000  3.070E-05    0   0.5407   age158_m62            0.0000     4.1047E+02     8.9702   0.4742   104.1367
120      0.0000     0.0000E+00    0.0000E+00    6.250000E+09  0.02000  2.104E-05    0   0.5277   age166_m62            0.0000     5.2335E+02     9.9462   0.3503   104.6389
121      0.0000     0.0000E+00    0.0000E+00    7.500000E+09  0.02000  1.770E-05    0   0.5223   age171_m62            0.0000     5.8654E+02    10.4745   0.2665   105.1180
122      1.3585     3.0923E+00    3.1984E+00    1.000000E+10  0.02000  1.297E-05    0   0.5121   age181_m62            0.0000     7.2566E+02    11.5379   0.1161   105.7964
123      1.8664     5.6862E+00    5.7963E+00    1.300000E+10  0.02000  9.691E-06    0   0.5047   age193_m62            0.0000     8.2176E+02    12.2001   0.0378   106.2671
124      1.4086     4.9746E+00    5.0228E+00    1.500000E+10  0.02000  8.360E-06    0   0.4999   age201_m62            0.0000     9.0951E+02    12.8024  -0.0289   106.6295
125      3.1745     1.3561E+01    1.3548E+01    1.800000E+10  0.02000  6.911E-06    0   0.4946   age213_m62            0.0000     1.0241E+03    13.5812  -0.0972   107.0239
126      0.0000     0.0000E+00    0.0000E+00    1.000000E+06  0.05000  2.651E-02    0   0.9998   age020_m72            0.0000     2.6763E+03    26.0066   4.0000    93.2987
127      0.0000     0.0000E+00    0.0000E+00    3.160000E+06  0.05000  4.817E-02    0   0.9577   age045_m72            0.0000     1.1382E+03    18.1867   4.0000    93.6434
128      0.0000     0.0000E+00    0.0000E+00    5.010000E+06  0.05000  3.101E-02    0   0.9147   age055_m72            0.0000     3.4698E+02    11.0044   4.0000    88.1015
129      0.0000     0.0000E+00    0.0000E+00    6.610000E+06  0.05000  1.472E-02    0   0.8877   age061_m72            0.0000     7.3214E+02    14.1361   3.7095    81.8071
130      0.0000     0.0000E+00    0.0000E+00    8.710000E+06  0.05000  1.050E-02    0   0.8638   age067_m72            0.0000     4.7067E+02    12.2952   4.0000    85.2602
131      0.0000     0.0000E+00    0.0000E+00    1.000000E+07  0.05000  8.954E-03    0   0.8524   age070_m72            0.0000     7.8967E+02    15.3564   4.0000    92.5928
132      0.0000     0.0000E+00    0.0000E+00    1.445000E+07  0.05000  6.392E-03    0   0.8262   age078_m72            0.0000     6.0289E+02    13.6218   4.0000    92.6383
133      0.0000     0.0000E+00    0.0000E+00    2.512000E+07  0.05000  4.207E-03    0   0.7902   age090_m72            0.0000     1.4126E+02     6.9897   3.9438    89.3966
134      0.0000     0.0000E+00    0.0000E+00    4.000000E+07  0.05000  3.198E-03    0   0.7618   age104_m72            0.0000     2.4291E+02     6.6069   3.4213    99.6878
135      0.0000     0.0000E+00    0.0000E+00    5.500000E+07  0.05000  2.593E-03    0   0.7432   age110_m72            0.0000     3.3417E+02     7.6289   3.3194   102.2311
136      0.0000     0.0000E+00    0.0000E+00    1.015200E+08  0.05000  1.716E-03    0   0.7092   age116_m72            0.0000     5.2379E+02     9.7215   3.1178   105.5258
137      0.0000     0.0000E+00    0.0000E+00    1.609000E+08  0.05000  1.218E-03    0   0.6876   age120_m72            0.0000     7.4941E+02    12.0393   2.8448   108.9634
138      0.0000     0.0000E+00    0.0000E+00    2.861200E+08  0.05000  7.047E-04    0   0.6618   age125_m72            0.0000     9.8386E+02    14.1547   2.3149   113.6588
139      0.0000     0.0000E+00    0.0000E+00    5.088000E+08  0.05000  3.590E-04    0   0.6356   age130_m72            0.0000     8.0335E+02    12.8495   1.7517   116.2948
140      0.0000     0.0000E+00    0.0000E+00    9.047900E+08  0.05000  1.484E-04    0   0.6088   age135_m72            0.0000     3.2350E+02     8.6032   1.0419   108.7020
141      0.0000     0.0000E+00    0.0000E+00    1.278050E+09  0.05000  9.435E-05    0   0.5924   age138_m72            0.0000     3.7812E+02     8.9348   0.6673   105.2991
142      0.0000     0.0000E+00    0.0000E+00    1.434000E+09  0.05000  7.827E-05    0   0.5847   age139_m72            0.0000     3.6870E+02     8.7582   0.6854   104.3848
143      0.0000     0.0000E+00    0.0000E+00    2.500000E+09  0.05000  3.759E-05    0   0.5583   age150_m72            0.0000     5.3182E+02    10.1268   0.3775   103.5111
144      0.0000     0.0000E+00    0.0000E+00    4.250000E+09  0.05000  1.842E-05    0   0.5374   age158_m72            0.0000     7.5498E+02    11.6494   0.0809   103.3106
145      0.0000     0.0000E+00    0.0000E+00    6.250000E+09  0.05000  1.207E-05    0   0.5242   age166_m72            0.0000     9.6880E+02    12.9909  -0.1497   103.5076
146      0.0000     0.0000E+00    0.0000E+00    7.500000E+09  0.05000  9.993E-06    0   0.5183   age171_m72            0.0000     1.0020E+03    13.1620  -0.1920   103.5673
147      0.0000     0.0000E+00    0.0000E+00    1.000000E+10  0.05000  7.291E-06    0   0.5081   age181_m72            0.0000     1.1516E+03    14.0608  -0.3113   103.8988
148      0.2786     1.5471E+00    1.5680E+00    1.300000E+10  0.05000  5.316E-06    0   0.5018   age193_m72            0.0000     1.4112E+03    15.5830  -0.4889   104.3789
149      0.0891     5.8496E-01    5.8743E-01    1.500000E+10  0.05000  4.497E-06    0   0.4972   age201_m72            0.0000     1.5425E+03    16.3540  -0.5601   104.9546
150      1.9702     1.5557E+01    1.5472E+01    1.800000E+10  0.05000  3.739E-06    0   0.4924   age213_m72            0.0000     1.7237E+03    17.3930  -0.6606   105.3816


## Synthesis Results - Average & Chains ##

# j      x_j: min, <> & last-chain-values for 1 ...  7 chains
  1      0.0000      0.0210      0.0000      0.1097      0.0000      0.0000      0.0000      0.0000      0.0000
  2      5.6706      3.9874      3.9955      4.0758      4.1284      4.2356      3.9826      4.0461      4.5654
  3      3.9220      3.5845      3.7704      3.5882      3.7671      3.8158      3.4744      3.5683      3.5673
  4      0.0000      0.0124      0.0000      0.0000      0.0000      0.0000      0.0000      0.0273      0.0000
  5      0.0000      0.0102      0.0000      0.0000      0.0000      0.0000      0.0000      0.0166      0.0000
  6      0.0000      0.0063      0.0000      0.0252      0.0000      0.0167      0.0000      0.0000      0.0000
  7      0.0000      0.0211      0.0000      0.0075      0.0001      0.0000      0.0384      0.0000      0.0000
  8      0.0000      0.0164      0.0000      0.0000      0.0000      0.0661      0.0754      0.0000      0.0000
  9      0.0000      0.1602      0.1692      0.1252      0.1566      0.1288      0.1985      0.1347      0.2332
 10      0.0000      0.0318      0.0000      0.0000      0.0000      0.0119      0.0000      0.0000      0.0000
 11      0.0000      0.0425      0.0809      0.0267      0.0173      0.0000      0.0000      0.2133      0.1467
 12      0.0000      0.0074      0.0000      0.0102      0.0000      0.0000      0.0000      0.0000      0.0000
 13      0.0000      0.0072      0.0368      0.0000      0.0000      0.0488      0.0000      0.0000      0.1459
 14      0.0000      0.0082      0.0000      0.0000      0.0212      0.0000      0.0000      0.0000      0.0000
 15      0.0000      0.0048      0.0000      0.0000      0.0000      0.0000      0.0000      0.0000      0.0819
 16      0.0000      0.0095      0.0147      0.0000      0.0101      0.0000      0.0000      0.0000      0.0000
 17      0.0000      0.0143      0.0057      0.0000      0.0000      0.0000      0.0249      0.0000      0.0000
 18      0.0000      0.0179      0.0000      0.0000      0.0000      0.0000      0.0000      0.0000      0.0061
 19      0.0000      0.0422      0.0000      0.0000      0.0000      0.1202      0.0310      0.0000      0.0000
 20      0.0000      0.0926      0.0502      0.0744      0.0000      0.0000      0.0000      0.1444      0.0883
 21      0.0000      0.1697      0.0000      0.1124      0.0000      0.0000      0.4038      0.0000      0.2409
 22      0.0000      0.2200      0.2994      0.7013      0.1047      0.0000      0.0301      0.0000      0.0834
 23      0.0364      0.3030      0.0000      0.4678      0.3840      0.3487      0.6196      0.4995      0.3845
 24      0.0010      0.1523      0.1949      0.2942      0.3565      0.2552      0.1851      0.0000      0.1398
 25      3.3004      2.3689      2.3368      2.8987      2.4104      2.6803      2.2707      2.2352      2.7278
 26      0.0000      0.0038      0.0000      0.0000      0.0000      0.0000      0.0000      0.0000      0.0000
 27      0.0000      0.0521      0.0385      0.1180      0.0000      0.0000      0.1128      0.0000      0.0000
 28      0.0000      0.0250      0.0000      0.0000      0.0000      0.0000      0.0000      0.0000      0.0000
 29      0.0000      0.0171      0.0307      0.0000      0.0953      0.0000      0.0000      0.0088      0.0086
 30      0.0000      0.0226      0.0000      0.0000      0.0000      0.0588      0.0000      0.0000      0.1044
 31      0.0000      0.0184      0.0000      0.1722      0.0400      0.0093      0.1242      0.0000      0.0000
 32      0.0000      0.0251      0.1282      0.0000      0.0514      0.0865      0.0000      0.0387      0.0000
 33      0.0000      0.0328      0.0000      0.0000      0.0000      0.0126      0.0184      0.1286      0.1717
 34      0.0000      0.0418      0.0000      0.0404      0.0065      0.0000      0.0803      0.0000      0.1067
 35      0.0000      0.0220      0.1036      0.0577      0.0631      0.1891      0.1320      0.0000      0.1037
 36      0.0000      0.0126      0.0329      0.0000      0.1222      0.0000      0.0000      0.0000      0.0206
 37      0.0000      0.0096      0.0000      0.0000      0.0000      0.0141      0.0000      0.0000      0.0000
 38      0.0000      0.0043      0.0000      0.0000      0.0000      0.0000      0.0000      0.0000      0.0000
 39      0.0000      0.0065      0.0477      0.0000      0.0000      0.0000      0.0000      0.0000      0.0000
 40      0.0000      0.0060      0.0000      0.0000      0.0000      0.0000      0.0000      0.0000      0.0000
 41      0.0000      0.0262      0.0000      0.0000      0.0000      0.0000      0.0000      0.0211      0.0000
 42      0.0000      0.0205      0.0110      0.0389      0.0000      0.0000      0.0000      0.0000      0.0111
 43      0.0000      0.0401      0.0314      0.0000      0.0000      0.1659      0.0000      0.0794      0.0000
 44      1.3764      0.1986      0.0220      0.0000      0.2881      0.4577      0.3916      0.3307      0.1634
 45     16.4873     12.9618     13.2802     13.6346     13.9347     13.1552     13.3483     14.5511     12.8418
 46     26.3306     21.3278     21.9147     20.9949     21.2325     21.8731     21.7201     21.1539     20.9202
 47      8.4163     13.5048     13.7228     13.6453     13.5009     13.9356     13.2773     13.5986     13.1223
 48      8.3211      8.8719      9.0776      8.4978      8.9978      8.2548      9.0980      9.0739      8.1118
 49      4.6264      5.9060      5.9111      5.1160      4.6546      5.3072      5.9544      5.8925      6.1484
 50      7.9509     10.8518     10.5803     11.0385     11.4363     10.6883     10.1605      9.9048     10.8685
 51      0.0000      0.0244      0.0677      0.0000      0.0000      0.0000      0.0000      0.0000      0.0453
 52      0.0000      0.0499      0.0000      0.0000      0.0000      0.1789      0.0201      0.0547      0.0000
 53      0.0000      0.0708      0.0000      0.0030      0.1049      0.0251      0.0521      0.0856      0.0475
 54      0.3875      0.0669      0.0000      0.3191      0.1744      0.2639      0.0721      0.1343      0.0535
 55      0.0000      0.0616      0.0754      0.1387      0.0000      0.0860      0.0000      0.0000      0.0410
 56      0.0000      0.0325      0.0456      0.0000      0.0000      0.0000      0.0000      0.0252      0.0154
 57      0.0000      0.0304      0.0000      0.0000      0.0000      0.0000      0.0897      0.0000      0.1130
 58      0.0000      0.0322      0.0000      0.0000      0.0139      0.0101      0.0123      0.0000      0.0000
 59      0.0000      0.0145      0.0105      0.0000      0.0000      0.0000      0.0000      0.0000      0.0000
 60      0.0000      0.0073      0.0000      0.0021      0.0000      0.0347      0.0000      0.0000      0.0000
 61      0.0000      0.0057      0.0599      0.0000      0.0000      0.0834      0.0000      0.0000      0.0000
 62      0.0000      0.0116      0.0000      0.0000      0.0000      0.0000      0.0000      0.0000      0.0000
 63      0.0000      0.0087      0.0000      0.0000      0.0062      0.0000      0.0000      0.0000      0.0000
 64      0.0000      0.0100      0.2110      0.0000      0.0000      0.0000      0.0000      0.0000      0.0000
 65      0.0000      0.0113      0.0000      0.0000      0.0000      0.0000      0.0000      0.0000      0.0000
 66      0.0000      0.0300      0.0407      0.0000      0.0217      0.0000      0.0000      0.0297      0.0000
 67      0.0000      0.0240      0.0062      0.0000      0.0262      0.0000      0.0374      0.0000      0.0000
 68      0.0000      0.0346      0.0496      0.0000      0.0000      0.0000      0.0000      0.0000      0.0000
 69      0.0000      0.0524      0.0000      0.0000      0.0000      0.0000      0.0099      0.0000      0.0614
 70      0.0000      0.0464      0.0000      0.0000      0.0571      0.0000      0.0000      0.0000      0.0000
 71      0.0000      0.0373      0.0000      0.0853      0.1154      0.0000      0.0000      0.0000      0.0000
 72      0.0000      0.0460      0.0000      0.0000      0.0848      0.0000      0.0000      0.0244      0.0822
 73      0.0000      0.0268      0.0000      0.0000      0.1435      0.0000      0.0000      0.0000      0.1553
 74      0.0000      0.0621      0.0000      0.2992      0.1977      0.0100      0.3552      0.0000      0.0000
 75      0.0000      0.0504      0.0000      0.0000      0.0000      0.0000      0.0000      0.0227      0.2153
 76      0.0000      0.0099      0.0000      0.0069      0.0000      0.0068      0.0000      0.0000      0.0000
 77      0.0000      0.0135      0.0359      0.0650      0.0000      0.0000      0.0000      0.0767      0.0430
 78      0.0000      0.0155      0.0000      0.0000      0.0000      0.0000      0.0000      0.0133      0.0000
 79      0.0000      0.0186      0.0000      0.0157      0.0000      0.0000      0.0000      0.0000      0.0000
 80      0.0000      0.0193      0.0000      0.0000      0.0254      0.0000      0.0000      0.0000      0.0000
 81      0.0000      0.0101      0.0000      0.0000      0.0000      0.0000      0.0000      0.0177      0.0000
 82      0.0000      0.0214      0.0000      0.0000      0.0014      0.0000      0.1364      0.1100      0.0000
 83      0.0000      0.0154      0.0000      0.0000      0.0916      0.0000      0.0000      0.0000      0.0364
 84      0.0000      0.0230      0.0000      0.0000      0.0000      0.0000      0.0000      0.0000      0.1522
 85      0.0000      0.0115      0.0000      0.0000      0.0000      0.0541      0.0814      0.0309      0.0000
 86      0.0000      0.0119      0.0000      0.0000      0.0000      0.0000      0.0000      0.0000      0.0000
 87      0.0000      0.0182      0.0082      0.0000      0.0000      0.0000      0.0000      0.0000      0.0000
 88      0.0000      0.0048      0.0000      0.0000      0.0000      0.0470      0.0000      0.0000      0.0000
 89      0.0000      0.0055      0.0109      0.0000      0.0000      0.0000      0.0000      0.0000      0.0000
 90      0.0000      0.0056      0.0000      0.0000      0.0000      0.0000      0.0000      0.0000      0.0000
 91      0.0000      0.0185      0.0000      0.0000      0.0000      0.0000      0.0000      0.0000      0.0000
 92      0.0000      0.0129      0.0172      0.0000      0.0000      0.0000      0.0088      0.0222      0.0011
 93      0.0000      0.0290      0.0060      0.0000      0.0000      0.0000      0.0000      0.1281      0.0269
 94      0.0000      0.0313      0.0000      0.0731      0.0000      0.0000      0.0000      0.0000      0.0012
 95      0.0000      0.0522      0.0296      0.0096      0.0000      0.1103      0.0000      0.0000      0.3064
 96      0.0000      0.0491      0.0721      0.0000      0.1207      0.0000      0.0000      0.0055      0.0669
 97      0.0000      0.0390      0.1448      0.0113      0.0000      0.0168      0.0000      0.0000      0.0052
 98      0.1743      0.0511      0.0000      0.1845      0.0000      0.1959      0.1101      0.0997      0.0000
 99      0.0000      0.0236      0.0000      0.0000      0.0000      0.0000      0.0000      0.0000      0.2179
100      0.0000      0.1199      0.0948      0.0000      0.4666      0.0000      0.0783      0.0000      0.3029
101      0.0000      0.0234      0.0000      0.0000      0.0000      0.0000      0.0000      0.0785      0.0000
102      0.0000      0.0174      0.0000      0.0000      0.0000      0.0000      0.0000      0.0000      0.0000
103      0.0000      0.0236      0.0000      0.0000      0.0000      0.0000      0.1913      0.0000      0.0000
104      0.0000      0.0297      0.0051      0.0000      0.1778      0.0000      0.0000      0.0000      0.0000
105      0.0000      0.0298      0.2358      0.0000      0.0000      0.0000      0.0000      0.0223      0.0000
106      0.0000      0.0785      0.0870      0.0608      0.0502      0.0000      0.0493      0.1334      0.0953
107      0.0000      0.0162      0.0000      0.0000      0.0000      0.1120      0.0000      0.0705      0.0000
108      0.0000      0.0115      0.0000      0.0000      0.0000      0.0000      0.0162      0.0000      0.0000
109      0.0000      0.0076      0.0000      0.0000      0.0000      0.0000      0.0000      0.0000      0.0000
110      0.0000      0.0103      0.0000      0.0000      0.0026      0.0000      0.0000      0.0000      0.0000
111      0.0000      0.0082      0.0000      0.0000      0.0000      0.0050      0.0000      0.0000      0.0209
112      0.0000      0.0033      0.0000      0.0000      0.0000      0.0000      0.0000      0.0000      0.0000
113      0.0000      0.0044      0.0000      0.0000      0.0000      0.0000      0.0000      0.0000      0.0000
114      0.0000      0.0043      0.0000      0.0000      0.0070      0.0000      0.0000      0.0000      0.0000
115      0.0000      0.0073      0.0020      0.0000      0.0000      0.0000      0.0000      0.0000      0.0000
116      0.0000      0.0113      0.0000      0.0000      0.0000      0.0000      0.0000      0.0303      0.0000
117      0.0000      0.0156      0.0000      0.0000      0.0000      0.0000      0.0000      0.0000      0.0000
118      0.0000      0.0286      0.0000      0.0000      0.0000      0.0000      0.0000      0.1349      0.0631
119      0.0000      0.0136      0.0000      0.0000      0.0108      0.0000      0.0000      0.0000      0.1881
120      0.0000      0.0393      0.0000      0.0000      0.0411      0.0000      0.0000      0.0000      0.0000
121      0.0000      0.0724      0.0000      0.0000      0.0000      0.0000      0.3757      0.0000      0.1403
122      1.3585      1.3125      1.2132      1.4173      1.0086      1.4135      1.1761      1.6841      1.4005
123      1.8664      1.6538      1.8483      1.5866      1.5723      1.5952      1.6139      1.6503      1.6162
124      1.4086      1.1655      1.2573      1.1805      1.1129      1.1324      1.1816      1.1833      1.1944
125      3.1745      2.8575      2.8685      2.9412      2.9386      3.0842      2.9927      2.8653      2.7528
126      0.0000      0.0068      0.0634      0.0000      0.0000      0.0000      0.0376      0.0094      0.0000
127      0.0000      0.0142      0.0000      0.0000      0.0000      0.0000      0.0000      0.0297      0.1125
128      0.0000      0.0416      0.0000      0.0000      0.0000      0.0000      0.0000      0.0049      0.0000
129      0.0000      0.0127      0.0000      0.0000      0.0000      0.0000      0.0000      0.0000      0.0000
130      0.0000      0.0062      0.0000      0.0000      0.0000      0.0000      0.0000      0.0000      0.0000
131      0.0000      0.0072      0.0000      0.1123      0.0000      0.0000      0.0377      0.0000      0.0000
132      0.0000      0.0078      0.0408      0.0000      0.0000      0.0000      0.0000      0.0000      0.0000
133      0.0000      0.0087      0.0000      0.0000      0.0349      0.0013      0.0000      0.0000      0.0000
134      0.0000      0.0072      0.0000      0.0000      0.0000      0.0000      0.0000      0.0000      0.0000
135      0.0000      0.0063      0.0000      0.0000      0.0023      0.0000      0.0000      0.0423      0.0000
136      0.0000      0.0046      0.0000      0.0000      0.0000      0.0000      0.0000      0.0000      0.0000
137      0.0000      0.0055      0.0000      0.0000      0.0000      0.0000      0.0000      0.0000      0.0000
138      0.0000      0.0035      0.0000      0.0000      0.0050      0.0000      0.0000      0.0000      0.0000
139      0.0000      0.0034      0.0000      0.0000      0.0000      0.0007      0.0000      0.0000      0.0000
140      0.0000      0.0120      0.0000      0.0000      0.0000      0.0000      0.0000      0.0035      0.0000
141      0.0000      0.0116      0.0000      0.0000      0.0170      0.0000      0.0000      0.0000      0.0000
142      0.0000      0.0153      0.0000      0.0000      0.0000      0.0000      0.0000      0.0005      0.0000
143      0.0000      0.0125      0.0000      0.0000      0.1057      0.0000      0.0000      0.0240      0.0243
144      0.0000      0.0154      0.0986      0.0000      0.0000      0.0208      0.0508      0.0000      0.0000
145      0.0000      0.0096      0.0000      0.0000      0.0000      0.0000      0.0000      0.0000      0.0000
146      0.0000      0.0147      0.0000      0.0000      0.0201      0.0558      0.0000      0.0000      0.1018
147      0.0000      0.1614      0.0000      0.1555      0.1315      0.0000      0.1383      0.1139      0.2005
148      0.2786      0.1916      0.1406      0.2011      0.0825      0.1986      0.1202      0.0926      0.1863
149      0.0891      0.2568      0.2607      0.2803      0.2353      0.2859      0.2574      0.2526      0.2693
150      1.9702      2.0807      2.0857      2.0512      2.1245      2.1760      2.0793      2.1597      1.7173

# j      m_j: min, <> & last-chain-values for 1 ...  7 chains
  1  0.0000E+00  1.4758E-04  0.0000E+00  7.6860E-04  0.0000E+00  0.0000E+00  0.0000E+00  0.0000E+00  0.0000E+00
  2  7.1054E-03  4.8082E-03  4.8494E-03  4.8980E-03  4.9919E-03  5.0958E-03  4.8082E-03  4.9142E-03  5.5914E-03
  3  1.1599E-02  1.0202E-02  1.0801E-02  1.0178E-02  1.0751E-02  1.0836E-02  9.9006E-03  1.0229E-02  1.0312E-02
  4  0.0000E+00  6.6266E-05  0.0000E+00  0.0000E+00  0.0000E+00  0.0000E+00  0.0000E+00  1.4714E-04  0.0000E+00
  5  0.0000E+00  6.8673E-05  0.0000E+00  0.0000E+00  0.0000E+00  0.0000E+00  0.0000E+00  1.1258E-04  0.0000E+00
  6  0.0000E+00  5.0264E-05  0.0000E+00  2.0087E-04  0.0000E+00  1.3343E-04  0.0000E+00  0.0000E+00  0.0000E+00
  7  0.0000E+00  2.1324E-04  0.0000E+00  7.5826E-05  5.5355E-07  0.0000E+00  3.8878E-04  0.0000E+00  0.0000E+00
  8  0.0000E+00  1.8740E-04  0.0000E+00  0.0000E+00  0.0000E+00  7.5429E-04  8.6349E-04  0.0000E+00  0.0000E+00
  9  0.0000E+00  1.9697E-03  2.0944E-03  1.5348E-03  1.9315E-03  1.5799E-03  2.4440E-03  1.6687E-03  2.9131E-03
 10  0.0000E+00  4.4878E-04  0.0000E+00  0.0000E+00  0.0000E+00  1.6729E-04  0.0000E+00  0.0000E+00  0.0000E+00
 11  0.0000E+00  7.1610E-04  1.3726E-03  4.4910E-04  2.9228E-04  0.0000E+00  0.0000E+00  3.6204E-03  2.5099E-03
 12  0.0000E+00  2.1794E-04  0.0000E+00  3.0105E-04  0.0000E+00  0.0000E+00  0.0000E+00  0.0000E+00  0.0000E+00
 13  0.0000E+00  2.4621E-04  1.2664E-03  0.0000E+00  0.0000E+00  1.6654E-03  0.0000E+00  0.0000E+00  5.0727E-03
 14  0.0000E+00  3.9667E-04  0.0000E+00  0.0000E+00  1.0334E-03  0.0000E+00  0.0000E+00  0.0000E+00  0.0000E+00
 15  0.0000E+00  3.5043E-04  0.0000E+00  0.0000E+00  0.0000E+00  0.0000E+00  0.0000E+00  0.0000E+00  6.1022E-03
 16  0.0000E+00  1.0063E-03  1.5733E-03  0.0000E+00  1.0722E-03  0.0000E+00  0.0000E+00  0.0000E+00  0.0000E+00
 17  0.0000E+00  1.6858E-03  6.7740E-04  0.0000E+00  0.0000E+00  0.0000E+00  2.9368E-03  0.0000E+00  0.0000E+00
 18  0.0000E+00  3.4306E-03  0.0000E+00  0.0000E+00  0.0000E+00  0.0000E+00  0.0000E+00  0.0000E+00  1.1873E-03
 19  0.0000E+00  1.2279E-02  0.0000E+00  0.0000E+00  0.0000E+00  3.4934E-02  9.0392E-03  0.0000E+00  0.0000E+00
 20  0.0000E+00  3.8560E-02  2.1031E-02  3.0876E-02  0.0000E+00  0.0000E+00  0.0000E+00  6.0583E-02  3.7336E-02
 21  0.0000E+00  8.1743E-02  0.0000E+00  5.3991E-02  0.0000E+00  0.0000E+00  1.9481E-01  0.0000E+00  1.1790E-01
 22  0.0000E+00  1.3675E-01  1.8730E-01  4.3447E-01  6.5260E-02  0.0000E+00  1.8748E-02  0.0000E+00  5.2650E-02
 23  2.9838E-02  2.3875E-01  0.0000E+00  3.6736E-01  3.0344E-01  2.7419E-01  4.8885E-01  3.9645E-01  3.0771E-01
 24  9.2986E-04  1.3727E-01  1.7683E-01  2.6419E-01  3.2217E-01  2.2945E-01  1.6705E-01  0.0000E+00  1.2796E-01
 25  3.7127E+00  2.5645E+00  2.5463E+00  3.1274E+00  2.6166E+00  2.8950E+00  2.4611E+00  2.4372E+00  2.9993E+00
 26  0.0000E+00  2.6034E-05  0.0000E+00  0.0000E+00  0.0000E+00  0.0000E+00  0.0000E+00  0.0000E+00  0.0000E+00
 27  0.0000E+00  7.5211E-05  5.5978E-05  1.6984E-04  0.0000E+00  0.0000E+00  1.6317E-04  0.0000E+00  0.0000E+00
 28  0.0000E+00  7.0542E-05  0.0000E+00  0.0000E+00  0.0000E+00  0.0000E+00  0.0000E+00  0.0000E+00  0.0000E+00
 29  0.0000E+00  7.5368E-05  1.3625E-04  0.0000E+00  4.2100E-04  0.0000E+00  0.0000E+00  3.9070E-05  3.8642E-05
 30  0.0000E+00  1.2400E-04  0.0000E+00  0.0000E+00  0.0000E+00  3.2119E-04  0.0000E+00  0.0000E+00  5.8075E-04
 31  0.0000E+00  1.1610E-04  0.0000E+00  1.0857E-03  2.5399E-04  5.8700E-05  7.8638E-04  0.0000E+00  0.0000E+00
 32  0.0000E+00  1.7615E-04  9.0371E-04  0.0000E+00  3.6125E-04  6.0446E-04  0.0000E+00  2.7299E-04  0.0000E+00
 33  0.0000E+00  3.2686E-04  0.0000E+00  0.0000E+00  0.0000E+00  1.2472E-04  1.8318E-04  1.2891E-03  1.7357E-03
 34  0.0000E+00  5.0522E-04  0.0000E+00  4.8657E-04  7.8892E-05  0.0000E+00  9.7267E-04  0.0000E+00  1.3103E-03
 35  0.0000E+00  3.2194E-04  1.5233E-03  8.4015E-04  9.2507E-04  2.7562E-03  1.9314E-03  0.0000E+00  1.5396E-03
 36  0.0000E+00  2.3690E-04  6.1976E-04  0.0000E+00  2.2962E-03  0.0000E+00  0.0000E+00  0.0000E+00  3.9271E-04
 37  0.0000E+00  2.2244E-04  0.0000E+00  0.0000E+00  0.0000E+00  3.2822E-04  0.0000E+00  0.0000E+00  0.0000E+00
 38  0.0000E+00  1.3836E-04  0.0000E+00  0.0000E+00  0.0000E+00  0.0000E+00  0.0000E+00  0.0000E+00  0.0000E+00
 39  0.0000E+00  3.1670E-04  2.3255E-03  0.0000E+00  0.0000E+00  0.0000E+00  0.0000E+00  0.0000E+00  0.0000E+00
 40  0.0000E+00  5.0796E-04  0.0000E+00  0.0000E+00  0.0000E+00  0.0000E+00  0.0000E+00  0.0000E+00  0.0000E+00
 41  0.0000E+00  2.9977E-03  0.0000E+00  0.0000E+00  0.0000E+00  0.0000E+00  0.0000E+00  2.4335E-03  0.0000E+00
 42  0.0000E+00  2.6165E-03  1.4175E-03  4.9514E-03  0.0000E+00  0.0000E+00  0.0000E+00  0.0000E+00  1.4382E-03
 43  0.0000E+00  8.3191E-03  6.5587E-03  0.0000E+00  0.0000E+00  3.4390E-02  0.0000E+00  1.6619E-02  0.0000E+00
 44  4.6984E-01  6.5240E-02  7.2793E-03  0.0000E+00  9.4917E-02  1.5001E-01  1.2881E-01  1.0941E-01  5.4509E-02
 45  7.8442E+00  5.9347E+00  6.1202E+00  6.2215E+00  6.3978E+00  6.0096E+00  6.1190E+00  6.7105E+00  5.9719E+00
 46  1.4923E+01  1.1633E+01  1.2031E+01  1.1412E+01  1.1613E+01  1.1903E+01  1.1861E+01  1.1621E+01  1.1589E+01
 47  6.2520E+00  9.6542E+00  9.8740E+00  9.7214E+00  9.6780E+00  9.9395E+00  9.5030E+00  9.7914E+00  9.5277E+00
 48  7.3606E+00  7.5523E+00  7.7779E+00  7.2093E+00  7.6806E+00  7.0111E+00  7.7542E+00  7.7801E+00  7.0135E+00
 49  4.5782E+00  5.6244E+00  5.6660E+00  4.8555E+00  4.4448E+00  5.0427E+00  5.6773E+00  5.6520E+00  5.9469E+00
 50  9.2540E+00  1.2155E+01  1.1928E+01  1.2322E+01  1.2845E+01  1.1944E+01  1.1394E+01  1.1174E+01  1.2364E+01
 51  0.0000E+00  1.2558E-04  3.5119E-04  0.0000E+00  0.0000E+00  0.0000E+00  0.0000E+00  0.0000E+00  2.3711E-04
 52  0.0000E+00  7.0257E-05  0.0000E+00  0.0000E+00  0.0000E+00  2.5141E-04  2.8338E-05  7.7587E-05  0.0000E+00
 53  0.0000E+00  1.5220E-04  0.0000E+00  6.4375E-06  2.2608E-04  5.3710E-05  1.1202E-04  1.8525E-04  1.0373E-04
 54  8.2476E-04  1.3704E-04  0.0000E+00  6.5137E-04  3.5819E-04  5.3938E-04  1.4779E-04  2.7709E-04  1.1122E-04
 55  0.0000E+00  1.8624E-04  2.2947E-04  4.1766E-04  0.0000E+00  2.5919E-04  0.0000E+00  0.0000E+00  1.2587E-04
 56  0.0000E+00  1.3000E-04  1.8371E-04  0.0000E+00  0.0000E+00  0.0000E+00  0.0000E+00  1.0155E-04  6.2773E-05
 57  0.0000E+00  1.9482E-04  0.0000E+00  0.0000E+00  0.0000E+00  0.0000E+00  5.7592E-04  0.0000E+00  7.3640E-04
 58  0.0000E+00  2.9781E-04  0.0000E+00  0.0000E+00  1.2932E-04  9.3621E-05  1.1425E-04  0.0000E+00  0.0000E+00
 59  0.0000E+00  1.8576E-04  1.3633E-04  0.0000E+00  0.0000E+00  0.0000E+00  0.0000E+00  0.0000E+00  0.0000E+00
 60  0.0000E+00  1.0423E-04  0.0000E+00  2.9437E-05  0.0000E+00  4.9519E-04  0.0000E+00  0.0000E+00  0.0000E+00
 61  0.0000E+00  1.0454E-04  1.1002E-03  0.0000E+00  0.0000E+00  1.5179E-03  0.0000E+00  0.0000E+00  0.0000E+00
 62  0.0000E+00  2.6827E-04  0.0000E+00  0.0000E+00  0.0000E+00  0.0000E+00  0.0000E+00  0.0000E+00  0.0000E+00
 63  0.0000E+00  3.0740E-04  0.0000E+00  0.0000E+00  2.1914E-04  0.0000E+00  0.0000E+00  0.0000E+00  0.0000E+00
 64  0.0000E+00  5.7875E-04  1.2288E-02  0.0000E+00  0.0000E+00  0.0000E+00  0.0000E+00  0.0000E+00  0.0000E+00
 65  0.0000E+00  1.1024E-03  0.0000E+00  0.0000E+00  0.0000E+00  0.0000E+00  0.0000E+00  0.0000E+00  0.0000E+00
 66  0.0000E+00  3.7522E-03  5.1261E-03  0.0000E+00  2.7197E-03  0.0000E+00  0.0000E+00  3.7389E-03  0.0000E+00
 67  0.0000E+00  4.1182E-03  1.0637E-03  0.0000E+00  4.5195E-03  0.0000E+00  6.4246E-03  0.0000E+00  0.0000E+00
 68  0.0000E+00  1.1045E-02  1.5931E-02  0.0000E+00  0.0000E+00  0.0000E+00  0.0000E+00  0.0000E+00  0.0000E+00
 69  0.0000E+00  2.8852E-02  0.0000E+00  0.0000E+00  0.0000E+00  0.0000E+00  5.4464E-03  0.0000E+00  3.4358E-02
 70  0.0000E+00  3.5543E-02  0.0000E+00  0.0000E+00  4.3856E-02  0.0000E+00  0.0000E+00  0.0000E+00  0.0000E+00
 71  0.0000E+00  3.3703E-02  0.0000E+00  7.6849E-02  1.0459E-01  0.0000E+00  2.8368E-05  0.0000E+00  0.0000E+00
 72  0.0000E+00  5.4704E-02  0.0000E+00  0.0000E+00  1.0119E-01  0.0000E+00  0.0000E+00  2.9249E-02  9.9403E-02
 73  0.0000E+00  4.0283E-02  0.0000E+00  0.0000E+00  2.1605E-01  0.0000E+00  0.0000E+00  0.0000E+00  2.3692E-01
 74  0.0000E+00  1.0403E-01  0.0000E+00  4.9945E-01  3.3204E-01  1.6638E-02  5.9579E-01  3.9502E-06  0.0000E+00
 75  0.0000E+00  9.7120E-02  0.0000E+00  0.0000E+00  0.0000E+00  0.0000E+00  0.0000E+00  4.3982E-02  4.2131E-01
 76  0.0000E+00  4.4294E-05  0.0000E+00  3.0589E-05  0.0000E+00  3.0193E-05  0.0000E+00  0.0000E+00  0.0000E+00
 77  0.0000E+00  2.4549E-05  6.5619E-05  1.1771E-04  0.0000E+00  0.0000E+00  0.0000E+00  1.4041E-04  7.9330E-05
 78  0.0000E+00  3.1625E-05  0.0000E+00  0.0000E+00  0.0000E+00  0.0000E+00  0.0000E+00  2.7343E-05  0.0000E+00
 79  0.0000E+00  4.5523E-05  0.0000E+00  3.8202E-05  0.0000E+00  0.0000E+00  0.0000E+00  0.0000E+00  0.0000E+00
 80  0.0000E+00  6.0786E-05  0.0000E+00  0.0000E+00  8.0266E-05  0.0000E+00  0.0000E+00  0.0000E+00  0.0000E+00
 81  0.0000E+00  4.2107E-05  0.0000E+00  0.0000E+00  0.0000E+00  0.0000E+00  0.0000E+00  7.4523E-05  0.0000E+00
 82  0.0000E+00  1.2035E-04  0.0000E+00  0.0000E+00  8.1428E-06  0.0000E+00  7.6668E-04  6.2244E-04  0.0000E+00
 83  0.0000E+00  1.2702E-04  0.0000E+00  0.0000E+00  7.5834E-04  0.0000E+00  0.0000E+00  0.0000E+00  3.0537E-04
 84  0.0000E+00  2.6263E-04  0.0000E+00  0.0000E+00  0.0000E+00  0.0000E+00  0.0000E+00  0.0000E+00  1.7661E-03
 85  0.0000E+00  1.6010E-04  0.0000E+00  0.0000E+00  0.0000E+00  7.4828E-04  1.1310E-03  4.3140E-04  0.0000E+00
 86  0.0000E+00  2.2327E-04  0.0000E+00  0.0000E+00  0.0000E+00  0.0000E+00  0.0000E+00  0.0000E+00  0.0000E+00
 87  0.0000E+00  4.5632E-04  2.0725E-04  0.0000E+00  0.0000E+00  0.0000E+00  0.0000E+00  0.0000E+00  0.0000E+00
 88  0.0000E+00  1.8193E-04  0.0000E+00  0.0000E+00  0.0000E+00  1.7900E-03  0.0000E+00  0.0000E+00  0.0000E+00
 89  0.0000E+00  3.4663E-04  6.9963E-04  0.0000E+00  0.0000E+00  0.0000E+00  0.0000E+00  0.0000E+00  0.0000E+00
 90  0.0000E+00  6.6238E-04  0.0000E+00  0.0000E+00  0.0000E+00  0.0000E+00  0.0000E+00  0.0000E+00  0.0000E+00
 91  0.0000E+00  2.8037E-03  0.0000E+00  0.0000E+00  0.0000E+00  0.0000E+00  0.0000E+00  0.0000E+00  0.0000E+00
 92  0.0000E+00  2.6051E-03  3.5023E-03  0.0000E+00  0.0000E+00  0.0000E+00  1.7736E-03  4.5171E-03  2.2511E-04
 93  0.0000E+00  1.1904E-02  2.4578E-03  0.0000E+00  0.0000E+00  0.0000E+00  0.0000E+00  5.2928E-02  1.1209E-02
 94  0.0000E+00  2.3051E-02  0.0000E+00  5.3601E-02  0.0000E+00  0.0000E+00  0.0000E+00  0.0000E+00  8.6892E-04
 95  0.0000E+00  5.1728E-02  2.9565E-02  9.5076E-03  0.0000E+00  1.0902E-01  0.0000E+00  0.0000E+00  3.0830E-01
 96  0.0000E+00  5.8652E-02  8.6751E-02  0.0000E+00  1.4473E-01  0.0000E+00  0.0000E+00  6.5704E-03  8.1227E-02
 97  0.0000E+00  6.0684E-02  2.2701E-01  1.7473E-02  0.0000E+00  2.6182E-02  0.0000E+00  0.0000E+00  8.2915E-03
 98  3.6176E-01  1.0214E-01  0.0000E+00  3.6722E-01  0.0000E+00  3.9036E-01  2.2019E-01  2.0059E-01  0.0000E+00
 99  0.0000E+00  5.3790E-02  0.0000E+00  0.0000E+00  0.0000E+00  0.0000E+00  0.0000E+00  0.0000E+00  5.0396E-01
100  0.0000E+00  3.1421E-01  2.5018E-01  0.0000E+00  1.2267E+00  0.0000E+00  2.0554E-01  0.0000E+00  8.0643E-01
101  0.0000E+00  6.7412E-05  0.0000E+00  0.0000E+00  0.0000E+00  0.0000E+00  0.0000E+00  2.2814E-04  0.0000E+00
102  0.0000E+00  2.6107E-05  0.0000E+00  0.0000E+00  0.0000E+00  0.0000E+00  0.0000E+00  0.0000E+00  0.0000E+00
103  0.0000E+00  3.9254E-05  0.0000E+00  0.0000E+00  0.0000E+00  0.0000E+00  3.1821E-04  0.0000E+00  0.0000E+00
104  0.0000E+00  6.4956E-05  1.1304E-05  0.0000E+00  3.8957E-04  0.0000E+00  0.0000E+00  0.0000E+00  0.0000E+00
105  0.0000E+00  1.3748E-04  1.0950E-03  0.0000E+00  0.0000E+00  0.0000E+00  0.0000E+00  1.0386E-04  0.0000E+00
106  0.0000E+00  3.8987E-04  4.3484E-04  3.0121E-04  2.4980E-04  0.0000E+00  2.4502E-04  6.6734E-04  4.8057E-04
107  0.0000E+00  1.0730E-04  0.0000E+00  0.0000E+00  0.0000E+00  7.4102E-04  0.0000E+00  4.7101E-04  0.0000E+00
108  0.0000E+00  1.2714E-04  0.0000E+00  0.0000E+00  0.0000E+00  0.0000E+00  1.7972E-04  0.0000E+00  0.0000E+00
109  0.0000E+00  1.0105E-04  0.0000E+00  0.0000E+00  0.0000E+00  0.0000E+00  0.0000E+00  0.0000E+00  0.0000E+00
110  0.0000E+00  1.6398E-04  0.0000E+00  0.0000E+00  4.2084E-05  0.0000E+00  0.0000E+00  0.0000E+00  0.0000E+00
111  0.0000E+00  1.8043E-04  0.0000E+00  0.0000E+00  0.0000E+00  1.1041E-04  0.0000E+00  0.0000E+00  4.6919E-04
112  0.0000E+00  9.5628E-05  0.0000E+00  0.0000E+00  0.0000E+00  0.0000E+00  0.0000E+00  0.0000E+00  0.0000E+00
113  0.0000E+00  1.9051E-04  0.0000E+00  0.0000E+00  0.0000E+00  0.0000E+00  0.0000E+00  0.0000E+00  0.0000E+00
114  0.0000E+00  3.3105E-04  0.0000E+00  0.0000E+00  5.3549E-04  0.0000E+00  0.0000E+00  0.0000E+00  0.0000E+00
115  0.0000E+00  1.1097E-03  3.0766E-04  0.0000E+00  0.0000E+00  0.0000E+00  0.0000E+00  0.0000E+00  0.0000E+00
116  0.0000E+00  2.7659E-03  0.0000E+00  0.0000E+00  0.0000E+00  0.0000E+00  0.0000E+00  7.4846E-03  0.0000E+00
117  0.0000E+00  4.4836E-03  0.0000E+00  0.0000E+00  0.0000E+00  0.0000E+00  0.0000E+00  0.0000E+00  0.0000E+00
118  0.0000E+00  1.6730E-02  0.0000E+00  0.0000E+00  0.0000E+00  0.0000E+00  0.0000E+00  7.9469E-02  3.7452E-02
119  0.0000E+00  1.3753E-02  0.0000E+00  0.0000E+00  1.0913E-02  0.0000E+00  0.0000E+00  0.0000E+00  1.9306E-01
120  0.0000E+00  5.6546E-02  0.0000E+00  0.0000E+00  5.9384E-02  0.0000E+00  0.0000E+00  0.0000E+00  0.0000E+00
121  0.0000E+00  1.2262E-01  0.0000E+00  0.0000E+00  0.0000E+00  0.0000E+00  6.3694E-01  0.0000E+00  2.4123E-01
122  3.1984E+00  2.9739E+00  2.7667E+00  3.2003E+00  2.2917E+00  3.1955E+00  2.6680E+00  3.8433E+00  3.2229E+00
123  5.7963E+00  4.9425E+00  5.5599E+00  4.7258E+00  4.7120E+00  4.7566E+00  4.8292E+00  4.9679E+00  4.9058E+00
124  5.0228E+00  3.9996E+00  4.3424E+00  4.0372E+00  3.8293E+00  3.8769E+00  4.0597E+00  4.0897E+00  4.1627E+00
125  1.3548E+01  1.1736E+01  1.1858E+01  1.2038E+01  1.2102E+01  1.2638E+01  1.2306E+01  1.1853E+01  1.1483E+01
126  0.0000E+00  1.4750E-05  1.3812E-04  0.0000E+00  0.0000E+00  0.0000E+00  8.1370E-05  2.0396E-05  0.0000E+00
127  0.0000E+00  1.6235E-05  0.0000E+00  0.0000E+00  0.0000E+00  0.0000E+00  0.0000E+00  3.4115E-05  1.3042E-04
128  0.0000E+00  7.0448E-05  0.0000E+00  0.0000E+00  0.0000E+00  0.0000E+00  0.0000E+00  8.4188E-06  0.0000E+00
129  0.0000E+00  4.3931E-05  0.0000E+00  0.0000E+00  0.0000E+00  0.0000E+00  0.0000E+00  0.0000E+00  0.0000E+00
130  0.0000E+00  2.9093E-05  0.0000E+00  0.0000E+00  0.0000E+00  0.0000E+00  0.0000E+00  0.0000E+00  0.0000E+00
131  0.0000E+00  3.9458E-05  0.0000E+00  6.1144E-04  0.0000E+00  0.0000E+00  2.0625E-04  0.0000E+00  0.0000E+00
132  0.0000E+00  5.7849E-05  3.0466E-04  0.0000E+00  0.0000E+00  0.0000E+00  0.0000E+00  0.0000E+00  0.0000E+00
133  0.0000E+00  9.3336E-05  0.0000E+00  0.0000E+00  3.7745E-04  1.4264E-05  0.0000E+00  0.0000E+00  0.0000E+00
134  0.0000E+00  9.8689E-05  0.0000E+00  0.0000E+00  0.0000E+00  0.0000E+00  0.0000E+00  0.0000E+00  0.0000E+00
135  0.0000E+00  1.0298E-04  0.0000E+00  0.0000E+00  3.7134E-05  0.0000E+00  0.0000E+00  7.0157E-04  0.0000E+00
136  0.0000E+00  1.0996E-04  0.0000E+00  0.0000E+00  0.0000E+00  0.0000E+00  0.0000E+00  0.0000E+00  0.0000E+00
137  0.0000E+00  1.7935E-04  0.0000E+00  0.0000E+00  0.0000E+00  0.0000E+00  0.0000E+00  0.0000E+00  0.0000E+00
138  0.0000E+00  1.8778E-04  0.0000E+00  0.0000E+00  2.6914E-04  0.0000E+00  0.0000E+00  0.0000E+00  0.0000E+00
139  0.0000E+00  3.4164E-04  0.0000E+00  0.0000E+00  0.0000E+00  7.5786E-05  0.0000E+00  0.0000E+00  0.0000E+00
140  0.0000E+00  2.8161E-03  0.0000E+00  0.0000E+00  0.0000E+00  0.0000E+00  0.0000E+00  8.2272E-04  0.0000E+00
141  0.0000E+00  4.1655E-03  0.0000E+00  0.0000E+00  6.1340E-03  0.0000E+00  0.0000E+00  0.0000E+00  0.0000E+00
142  0.0000E+00  6.5597E-03  0.0000E+00  0.0000E+00  0.0000E+00  0.0000E+00  0.0000E+00  2.3297E-04  0.0000E+00
143  0.0000E+00  1.0668E-02  0.0000E+00  0.0000E+00  9.0331E-02  0.0000E+00  0.0000E+00  2.0564E-02  2.1076E-02
144  0.0000E+00  2.5740E-02  1.6618E-01  0.0000E+00  0.0000E+00  3.4755E-02  8.5087E-02  0.0000E+00  0.0000E+00
145  0.0000E+00  2.3873E-02  0.0000E+00  0.0000E+00  0.0000E+00  0.0000E+00  0.0000E+00  0.0000E+00  0.0000E+00
146  0.0000E+00  4.3694E-02  0.0000E+00  0.0000E+00  6.0131E-02  1.6562E-01  0.0000E+00  0.0000E+00  3.0787E-01
147  0.0000E+00  6.4530E-01  0.0000E+00  6.1986E-01  5.2733E-01  0.0000E+00  5.5378E-01  4.5881E-01  8.1424E-01
148  1.5680E+00  1.0377E+00  7.6634E-01  1.0856E+00  4.4812E-01  1.0736E+00  6.5172E-01  5.0544E-01  1.0249E+00
149  5.8743E-01  1.6294E+00  1.6646E+00  1.7722E+00  1.4972E+00  1.8099E+00  1.6351E+00  1.6141E+00  1.7355E+00
150  1.5472E+01  1.5724E+01  1.5865E+01  1.5449E+01  1.6100E+01  1.6408E+01  1.5733E+01  1.6439E+01  1.3182E+01

# AV, chi2 & Mass for <> & i_chain = 1 ...  7 solutions
AV       1.3104      1.2951      1.2999      1.2975      1.2968      1.2983      1.2957      1.2959      1.3027
chi2 2.4961E+00  2.6040E+00  2.5772E+00  2.5721E+00  2.5796E+00  2.5695E+00  2.5798E+00  2.5801E+00  2.5768E+00
Mass 4.1529E-09  4.2277E-09  4.2271E-09  4.2557E-09  4.2254E-09  4.2553E-09  4.2260E-09  4.2020E-09  4.2048E-09
 -11.12                                  [v0_min (km/s) before EX0s...]
  18.87                                  [vd_min (km/s) before EX0s...]


## Synthetic spectrum (Best Model) ##l_obs f_obs f_syn wei
 3070    [Nl_obs]
 3359.00    0.00000   0.37632   -2.000
 3360.00    0.03347   0.35934   -1.000
 3361.00    0.22091   0.37304   -1.000
 3362.00    0.23046   0.39941   -1.000
 3363.00    0.24720   0.43220   -1.000
 3364.00    0.25518   0.45097   -1.000
 3365.00    0.26359   0.44574   -1.000
 3366.00    0.26715   0.43762   -1.000
 3367.00    0.26695   0.43282   -1.000
 3368.00    0.26084   0.42480   -1.000
 3369.00    0.25089   0.41512   -1.000
 3370.00    0.24019   0.39130   -1.000
 3371.00    0.24586   0.37590   -1.000
 3372.00    0.25243   0.37972   -1.000
 3373.00    0.25670   0.40098   -1.000
 3374.00    0.26443   0.42722   -1.000
 3375.00    0.27956   0.45183   -1.000
 3376.00    0.29598   0.46041   -1.000
 3377.00    0.29952   0.45441   -1.000
 3378.00    0.30092   0.43979   -1.000
 3379.00    0.29520   0.43135   -1.000
 3380.00    0.29040   0.43545   -1.000
 3381.00    0.29195   0.44363   -1.000
 3382.00    0.29511   0.44980   -1.000
 3383.00    0.30084   0.45308   -1.000
 3384.00    0.30582   0.45676   -1.000
 3385.00    0.31050   0.46348   -1.000
 3386.00    0.31445   0.45663   -1.000
 3387.00    0.31709   0.44192   -1.000
 3388.00    0.31703   0.43279   -1.000
 3389.00    0.32888   0.44199   -1.000
 3390.00    0.33383   0.45663   -1.000
 3391.00    0.33775   0.46596   -1.000
 3392.00    0.33890   0.45787   -1.000
 3393.00    0.33661   0.44907   -1.000
 3394.00    0.34669   0.45368   -1.000
 3395.00    0.35629   0.46526   -1.000
 3396.00    0.36560   0.47986   -1.000
 3397.00    0.37949   0.49054   -1.000
 3398.00    0.39390   0.50034   -1.000
 3399.00    0.40350   0.50468   -1.000
 3400.00    0.40649   0.50103   -1.000
 3401.00    0.40921   0.49070   -1.000
 3402.00    0.40973   0.46969   45.227
 3403.00    0.39622   0.45955   -1.000
 3404.00    0.39604   0.45338   47.540
 3405.00    0.39454   0.45990   -1.000
 3406.00    0.38781   0.46282   -1.000
 3407.00    0.38557   0.45819   -1.000
 3408.00    0.38289   0.45089   -1.000
 3409.00    0.38217   0.45220   -1.000
 3410.00    0.39032   0.46415   -1.000
 3411.00    0.39482   0.46176   -1.000
 3412.00    0.39413   0.45152   49.292
 3413.00    0.39215   0.43743   49.274
 3414.00    0.39290   0.43543   51.296
 3415.00    0.39403   0.45259   -1.000
 3416.00    0.39704   0.47130   -1.000
 3417.00    0.40723   0.48344   -1.000
 3418.00    0.41740   0.49129   -1.000
 3419.00    0.43015   0.49720   -1.000
 3420.00    0.44402   0.50214   43.775
 3421.00    0.44636   0.49927   43.613
 3422.00    0.43946   0.47977   43.387
 3423.00    0.43858   0.46026   43.801
 3424.00    0.43937   0.45585   45.069
 3425.00    0.43818   0.46337   45.754
 3426.00    0.44079   0.47300   44.419
 3427.00    0.44809   0.48599   43.380
 3428.00    0.45958   0.50430   49.163
 3429.00    0.46638   0.51966   -1.000
 3430.00    0.47347   0.52336   -1.000
 3431.00    0.47189   0.50356   -1.000
 3432.00    0.46176   0.48206   -1.000
 3433.00    0.45756   0.47508   -1.000
 3434.00    0.45886   0.49034   43.334
 3435.00    0.46539   0.50913   48.925
 3436.00    0.47026   0.51018   -1.000
 3437.00    0.46310   0.49536   -1.000
 3438.00    0.45178   0.47727   43.321
 3439.00    0.43663   0.46007   45.447
 3440.00    0.41618   0.44446   48.304
 3441.00    0.40187   0.42902   51.926
 3442.00    0.40292   0.42278   53.728
 3443.00    0.40921   0.42598   53.753
 3444.00    0.42029   0.43568   53.259
 3445.00    0.43122   0.44884   51.010
 3446.00    0.44068   0.47068   48.204
 3447.00    0.45437   0.49461   45.670
 3448.00    0.46772   0.51271   50.118
 3449.00    0.48468   0.52068   -1.000
 3450.00    0.48409   0.50760   -1.000
 3451.00    0.48023   0.48543   -1.000
 3452.00    0.47109   0.47110  403.951
 3453.00    0.47487   0.47113  419.134
 3454.00    0.47797   0.48073  424.537
 3455.00    0.48656   0.49146  418.093
 3456.00    0.48742   0.49313  406.703
 3457.00    0.48767   0.48846  401.217
 3458.00    0.48422   0.47973  404.168
 3459.00    0.47594   0.47000  197.655
 3460.00    0.46810   0.45808   43.264
 3461.00    0.46564   0.45461   43.742
 3462.00    0.46785   0.46672   49.036
 3463.00    0.47741   0.47833  417.708
 3464.00    0.49140   0.48221   -1.000
 3465.00    0.49284   0.47588   -1.000
 3466.00    0.49301   0.47802   -1.000
 3467.00    0.49412   0.49153  393.990
 3468.00    0.50260   0.50864  388.140
 3469.00    0.51435   0.52129  374.642
 3470.00    0.51610   0.52476   -1.000
 3471.00    0.51538   0.51699  365.438
 3472.00    0.50952   0.50428  370.053
 3473.00    0.49780   0.48001   -1.000
 3474.00    0.48280   0.45975   -1.000
 3475.00    0.46330   0.45145  202.156
 3476.00    0.46208   0.45683   43.746
 3477.00    0.46497   0.47752   45.076
 3478.00    0.47607   0.49581   49.604
 3479.00    0.49664   0.50753   -1.000
 3480.00    0.51169   0.51762  380.712
 3481.00    0.51663   0.51848  370.053
 3482.00    0.51628   0.51235  368.267
 3483.00    0.51565   0.50609   -1.000
 3484.00    0.50870   0.50437  374.656
 3485.00    0.51498   0.51296  377.417
 3486.00    0.52267   0.52262  368.443
 3487.00    0.53411   0.52252   -1.000
 3488.00    0.52691   0.51210   -1.000
 3489.00    0.50611   0.49431   -1.000
 3490.00    0.49207   0.48098   -1.000
 3491.00    0.48022   0.48474  404.311
 3492.00    0.48193   0.49795   -1.000
 3493.00    0.49580   0.50299  406.645
 3494.00    0.49267   0.50040   -1.000
 3495.00    0.48457   0.49128  396.430
 3496.00    0.48194   0.48342  395.775
 3497.00    0.48445   0.48710  403.403
 3498.00    0.49339   0.49185  403.868
 3499.00    0.51272   0.49941   -1.000
 3500.00    0.52723   0.50049   -1.000
 3501.00    0.53354   0.50068   -1.000
 3502.00    0.53398   0.50974   -1.000
 3503.00    0.54356   0.51580   -1.000
 3504.00    0.53877   0.51532   -1.000
 3505.00    0.53121   0.50564   -1.000
 3506.00    0.51806   0.49552   -1.000
 3507.00    0.52235   0.49090   -1.000
 3508.00    0.52870   0.48885   -1.000
 3509.00    0.53270   0.49285   -1.000
 3510.00    0.52173   0.49416   -1.000
 3511.00    0.50901   0.49147   -1.000
 3512.00    0.50728   0.48251   -1.000
 3513.00    0.50257   0.47312   -1.000
 3514.00    0.49517   0.47424   -1.000
 3515.00    0.50271   0.48821   -1.000
 3516.00    0.51910   0.51603  387.248
 3517.00    0.53761   0.53622  366.364
 3518.00    0.54484   0.53820  346.215
 3519.00    0.53059   0.51923   -1.000
 3520.00    0.52074   0.50051   -1.000
 3521.00    0.51342   0.48870   -1.000
 3522.00    0.50300   0.48104   -1.000
 3523.00    0.48722   0.47215   -1.000
 3524.00    0.47044   0.45873  212.878
 3525.00    0.46301   0.45106   43.339
 3526.00    0.46817   0.46141   44.705
 3527.00    0.48117   0.47884   49.260
 3528.00    0.49900   0.49979  412.420
 3529.00    0.51501   0.51619  382.384
 3530.00    0.52444   0.52545  363.443
 3531.00    0.52490   0.52951  359.325
 3532.00    0.52764   0.52107  366.558
 3533.00    0.52954   0.49914   -1.000
 3534.00    0.53351   0.48692   -1.000
 3535.00    0.53846   0.48931   -1.000
 3536.00    0.54606   0.51168   -1.000
 3537.00    0.54432   0.53676  345.465
 3538.00    0.55142   0.54906  346.918
 3539.00    0.55251   0.55332  342.977
 3540.00    0.54971   0.54887  339.352
 3541.00    0.55392   0.54321   -1.000
 3542.00    0.54317   0.54331  348.994
 3543.00    0.53996   0.55283   -1.000
 3544.00    0.54500   0.55909   -1.000
 3545.00    0.54539   0.55617   -1.000
 3546.00    0.54320   0.54957  343.639
 3547.00    0.54762   0.54302  350.297
 3548.00    0.53926   0.54132  357.680
 3549.00    0.54195   0.54504  358.758
 3550.00    0.54886   0.55219  357.772
 3551.00    0.54514   0.55673   -1.000
 3552.00    0.53130   0.54947   -1.000
 3553.00    0.52495   0.53321   -1.000
 3554.00    0.52388   0.52333  383.281
 3555.00    0.52300   0.52677  388.427
 3556.00    0.52300   0.53622   -1.000
 3557.00    0.52426   0.54829   -1.000
 3558.00    0.52852   0.55519   -1.000
 3559.00    0.52431   0.55604   -1.000
 3560.00    0.52766   0.55681   -1.000
 3561.00    0.53301   0.55794   -1.000
 3562.00    0.53454   0.55408   -1.000
 3563.00    0.53675   0.53924  375.725
 3564.00    0.52042   0.51764  378.784
 3565.00    0.49441   0.49641  219.638
 3566.00    0.48033   0.48832   43.785
 3567.00    0.47766   0.49042   45.353
 3568.00    0.47789   0.49190   44.833
 3569.00    0.47355   0.48794   44.761
 3570.00    0.46737   0.47660   46.245
 3571.00    0.46553   0.47012   46.850
 3572.00    0.47521   0.47369   45.291
 3573.00    0.48976   0.47998   47.669
 3574.00    0.49821   0.48794   -1.000
 3575.00    0.50310   0.49755  412.227
 3576.00    0.50687   0.50457  411.703
 3577.00    0.50906   0.50763  410.928
 3578.00    0.49843   0.50760   -1.000
 3579.00    0.49382   0.49751  233.734
 3580.00    0.47405   0.48278   45.401
 3581.00    0.45441   0.47027   48.937
 3582.00    0.44610   0.46438   51.379
 3583.00    0.45172   0.46595   51.673
 3584.00    0.45354   0.46316   51.989
 3585.00    0.43300   0.45069   53.357
 3586.00    0.42676   0.43610   55.031
 3587.00    0.43377   0.43296   55.437
 3588.00    0.44778   0.44712   52.578
 3589.00    0.46115   0.47557   49.799
 3590.00    0.48198   0.50149   47.182
 3591.00    0.50112   0.51558   47.284
 3592.00    0.51888   0.51548  398.660
 3593.00    0.53028   0.51379   -1.000
 3594.00    0.53133   0.51985   -1.000
 3595.00    0.53554   0.53388  376.990
 3596.00    0.54587   0.54731  364.232
 3597.00    0.55843   0.55374  347.104
 3598.00    0.56248   0.55618  337.144
 3599.00    0.57594   0.55701   -1.000
 3600.00    0.56803   0.55292   -1.000
 3601.00    0.55567   0.53697   -1.000
 3602.00    0.54331   0.52299   -1.000
 3603.00    0.52966   0.51588   -1.000
 3604.00    0.52409   0.52036  380.390
 3605.00    0.52378   0.52525  386.459
 3606.00    0.52660   0.52106  388.249
 3607.00    0.52429   0.51212   -1.000
 3608.00    0.50918   0.50273  390.652
 3609.00    0.49653   0.50043  410.190
 3610.00    0.49685   0.50313  415.483
 3611.00    0.50352   0.51063   -1.000
 3612.00    0.51536   0.52070  393.636
 3613.00    0.52272   0.53044   -1.000
 3614.00    0.52955   0.54317   -1.000
 3615.00    0.53801   0.55832   -1.000
 3616.00    0.54072   0.55471   -1.000
 3617.00    0.52954   0.53754  355.189
 3618.00    0.50449   0.51501   -1.000
 3619.00    0.48859   0.50424   -1.000
 3620.00    0.50054   0.51498   46.549
 3621.00    0.52359   0.53404   -1.000
 3622.00    0.54531   0.54863  365.815
 3623.00    0.55449   0.55845  346.164
 3624.00    0.56004   0.56826   -1.000
 3625.00    0.56934   0.58648   -1.000
 3626.00    0.58378   0.60910   -1.000
 3627.00    0.59701   0.62490   -1.000
 3628.00    0.58831   0.61395   -1.000
 3629.00    0.56750   0.58170   -1.000
 3630.00    0.53455   0.53889  332.240
 3631.00    0.50763   0.51715   -1.000
 3632.00    0.50329   0.52193   -1.000
 3633.00    0.51550   0.54154   -1.000
 3634.00    0.52715   0.55435   -1.000
 3635.00    0.53080   0.55464   -1.000
 3636.00    0.54042   0.55675   -1.000
 3637.00    0.55180   0.57084   -1.000
 3638.00    0.57473   0.58668   -1.000
 3639.00    0.58228   0.59570   -1.000
 3640.00    0.58827   0.59773   -1.000
 3641.00    0.57791   0.59101   -1.000
 3642.00    0.55673   0.57745   -1.000
 3643.00    0.55217   0.56451   -1.000
 3644.00    0.54123   0.55425   -1.000
 3645.00    0.53464   0.54738   -1.000
 3646.00    0.53107   0.54162   -1.000
 3647.00    0.52705   0.53726   -1.000
 3648.00    0.52408   0.53675   -1.000
 3649.00    0.52923   0.53867   -1.000
 3650.00    0.53902   0.54549  365.902
 3651.00    0.55721   0.55619  350.771
 3652.00    0.57634   0.57353  333.882
 3653.00    0.59034   0.58747  320.372
 3654.00    0.59138   0.60073   -1.000
 3655.00    0.59228   0.61393   -1.000
 3656.00    0.60237   0.62382   -1.000
 3657.00    0.60713   0.62882   -1.000
 3658.00    0.61047   0.62776   -1.000
 3659.00    0.61007   0.62578   -1.000
 3660.00    0.60592   0.62218   -1.000
 3661.00    0.60554   0.61339  296.607
 3662.00    0.59945   0.60255  299.969
 3663.00    0.59360   0.59643  303.329
 3664.00    0.59150   0.59931  308.371
 3665.00    0.59059   0.60621   -1.000
 3666.00    0.60070   0.60921  306.594
 3667.00    0.60055   0.60661  307.343
 3668.00    0.58739   0.59690   -1.000
 3669.00    0.57380   0.58674   -1.000
 3670.00    0.57464   0.58616   -1.000
 3671.00    0.58915   0.59453  321.619
 3672.00    0.60559   0.60585  309.734
 3673.00    0.61169   0.61252  304.001
 3674.00    0.60834   0.61088  303.101
 3675.00    0.60532   0.60387  303.104
 3676.00    0.59563   0.58963  304.445
 3677.00    0.58419   0.57149   -1.000
 3678.00    0.57354   0.55747   -1.000
 3679.00    0.56229   0.55602  333.585
 3680.00    0.56186   0.56265  341.362
 3681.00    0.57524   0.57001  339.640
 3682.00    0.58225   0.57595  330.509
 3683.00    0.58277   0.57749  321.392
 3684.00    0.57979   0.57591  319.296
 3685.00    0.57027   0.56792  327.695
 3686.00    0.55382   0.55918  341.316
 3687.00    0.54732   0.56101   -1.000
 3688.00    0.56181   0.57539   -1.000
 3689.00    0.58330   0.59796   -1.000
 3690.00    0.60402   0.61214  324.998
 3691.00    0.61511   0.61768  304.290
 3692.00    0.61714   0.61532  296.087
 3693.00    0.61526   0.61027  298.979
 3694.00    0.61372   0.60870  307.158
 3695.00    0.61367   0.61052  310.881
 3696.00    0.61366   0.60889  309.303
 3697.00    0.61589   0.60798  306.443
 3698.00    0.62412   0.61994  302.223
 3699.00    0.64216   0.63743  292.304
 3700.00    0.65916   0.65322  285.176
 3701.00    0.65317   0.64501  282.050
 3702.00    0.62711   0.61259   -1.000
 3703.00    0.59264   0.56901   -1.000
 3704.00    0.55279   0.53752   -1.000
 3705.00    0.53847   0.52560   -1.000
 3706.00    0.54452   0.53238   -1.000
 3707.00    0.55618   0.54540   -1.000
 3708.00    0.56751   0.55852   -1.000
 3709.00    0.57298   0.56224   -1.000
 3710.00    0.58080   0.55744   -1.000
 3711.00    0.58654   0.55576   -1.000
 3712.00    0.60795   0.56636   -1.000
 3713.00    0.63504   0.59338   -1.000
 3714.00    0.65988   0.62300   -1.000
 3715.00    0.67334   0.64375   -1.000
 3716.00    0.67596   0.64998   -1.000
 3717.00    0.66224   0.63954   -1.000
 3718.00    0.63260   0.60866   -1.000
 3719.00    0.57496   0.56047   -1.000
 3720.00    0.52983   0.50084   -1.000
 3721.00    0.49688   0.47058   -1.000
 3722.00    0.50134   0.48230   46.352
 3723.00    0.54579   0.52548   -1.000
 3724.00    0.60227   0.57963   -1.000
 3725.00    0.63495   0.61545   -1.000
 3726.00    0.64620   0.62482   -1.000
 3727.00    0.63181   0.62465  314.747
 3728.00    0.63231   0.62772  324.834
 3729.00    0.63544   0.63241  326.882
 3730.00    0.63771   0.62862  321.809
 3731.00    0.61543   0.60100   -1.000
 3732.00    0.57046   0.54037   -1.000
 3733.00    0.51636   0.48247   -1.000
 3734.00    0.47362   0.44159   43.295
 3735.00    0.45597   0.43571   48.360
 3736.00    0.47125   0.46511   49.880
 3737.00    0.51388   0.51800   47.204
 3738.00    0.55927   0.56973   45.261
 3739.00    0.60784   0.61983   -1.000
 3740.00    0.64451   0.64815  340.479
 3741.00    0.65630   0.65197  321.939
 3742.00    0.64377   0.63257   -1.000
 3743.00    0.62492   0.60952   -1.000
 3744.00    0.60444   0.58632   -1.000
 3745.00    0.57662   0.56686   -1.000
 3746.00    0.55858   0.54837   -1.000
 3747.00    0.53222   0.51867   -1.000
 3748.00    0.49285   0.48735   43.780
 3749.00    0.46887   0.46263   46.510
 3750.00    0.48117   0.46486   49.317
 3751.00    0.53221   0.50139   -1.000
 3752.00    0.58684   0.55634   -1.000
 3753.00    0.63857   0.61280   -1.000
 3754.00    0.68480   0.65349   -1.000
 3755.00    0.70531   0.66960   -1.000
 3756.00    0.69640   0.66194   -1.000
 3757.00    0.66231   0.63484   -1.000
 3758.00    0.62649   0.60935   -1.000
 3759.00    0.61262   0.60114   -1.000
 3760.00    0.62353   0.60804   -1.000
 3761.00    0.64962   0.62581   -1.000
 3762.00    0.66905   0.63640   -1.000
 3763.00    0.66480   0.63803   -1.000
 3764.00    0.66455   0.63320   -1.000
 3765.00    0.65901   0.62410   -1.000
 3766.00    0.64560   0.61001   -1.000
 3767.00    0.62469   0.58937   -1.000
 3768.00    0.60979   0.55910   -1.000
 3769.00    0.60124   0.52887   -1.000
 3770.00    0.58728   0.51311   -1.000
 3771.00    0.58855   0.52914   -1.000
 3772.00    0.61898   0.56706   -1.000
 3773.00    0.65253   0.61211   -1.000
 3774.00    0.67767   0.64058   -1.000
 3775.00    0.69094   0.65236   -1.000
 3776.00    0.69982   0.65976   -1.000
 3777.00    0.71613   0.67333   -1.000
 3778.00    0.73392   0.69639   -1.000
 3779.00    0.75181   0.71901   -1.000
 3780.00    0.76299   0.73736   -1.000
 3781.00    0.77529   0.74341   -1.000
 3782.00    0.77891   0.74051   -1.000
 3783.00    0.78077   0.73334   -1.000
 3784.00    0.77079   0.72411   -1.000
 3785.00    0.75620   0.70890   -1.000
 3786.00    0.72898   0.69151   -1.000
 3787.00    0.69620   0.67258   -1.000
 3788.00    0.68654   0.66050   -1.000
 3789.00    0.68336   0.66071   -1.000
 3790.00    0.68783   0.66550   -1.000
 3791.00    0.69162   0.66650   -1.000
 3792.00    0.67984   0.65879   -1.000
 3793.00    0.65750   0.63504   -1.000
 3794.00    0.62942   0.60305   -1.000
 3795.00    0.59930   0.56315   -1.000
 3796.00    0.56636   0.52216   -1.000
 3797.00    0.53376   0.48664   -1.000
 3798.00    0.52102   0.47615   -1.000
 3799.00    0.54804   0.50393   -1.000
 3800.00    0.58863   0.56958   -1.000
 3801.00    0.63808   0.62994  352.436
 3802.00    0.68059   0.67495  324.759
 3803.00    0.70779   0.69474   -1.000
 3804.00    0.72302   0.70158   -1.000
 3805.00    0.71867   0.69947   -1.000
 3806.00    0.70518   0.69604  308.275
 3807.00    0.70347   0.70049  320.033
 3808.00    0.72024   0.71500  325.539
 3809.00    0.74398   0.73364  316.498
 3810.00    0.75898   0.74679   -1.000
 3811.00    0.75665   0.74169   -1.000
 3812.00    0.73673   0.71432   -1.000
 3813.00    0.71090   0.68561   -1.000
 3814.00    0.68733   0.66398   -1.000
 3815.00    0.67292   0.66207   -1.000
 3816.00    0.68190   0.67616  381.718
 3817.00    0.69054   0.69231  374.209
 3818.00    0.69446   0.69188  360.481
 3819.00    0.67574   0.67094  367.786
 3820.00    0.65196   0.65269  394.103
 3821.00    0.64330   0.64975  413.327
 3822.00    0.66050   0.66333  402.674
 3823.00    0.66645   0.66497  385.035
 3824.00    0.64346   0.64303  390.404
 3825.00    0.60898   0.62157   -1.000
 3826.00    0.59556   0.60829   45.147
 3827.00    0.59369   0.60003   46.057
 3828.00    0.58879   0.59491   45.617
 3829.00    0.59145   0.58853   44.870
 3830.00    0.58026   0.57791   44.175
 3831.00    0.55780   0.55690   44.806
 3832.00    0.51956   0.52225   46.947
 3833.00    0.48427   0.47806   50.698
 3834.00    0.47010   0.44236   52.103
 3835.00    0.47004   0.43176   50.977
 3836.00    0.48278   0.44512   48.913
 3837.00    0.49241   0.47259   47.933
 3838.00    0.50600   0.50426   49.016
 3839.00    0.52489   0.53550   50.143
 3840.00    0.55457   0.56579   49.131
 3841.00    0.59492   0.60368   47.662
 3842.00    0.64018   0.64168  418.853
 3843.00    0.67923   0.67881  378.973
 3844.00    0.70072   0.70325  355.712
 3845.00    0.71384   0.71475  349.663
 3846.00    0.72160   0.72511  349.795
 3847.00    0.72227   0.73328   -1.000
 3848.00    0.72129   0.73376   -1.000
 3849.00    0.71440   0.72552   -1.000
 3850.00    0.71178   0.71940  373.565
 3851.00    0.71537   0.73009   -1.000
 3852.00    0.73396   0.74762   -1.000
 3853.00    0.73986   0.76055   -1.000
 3854.00    0.73423   0.75675   -1.000
 3855.00    0.72503   0.74269   -1.000
 3856.00    0.70563   0.72616   -1.000
 3857.00    0.69457   0.71165   -1.000
 3858.00    0.67597   0.69653   -1.000
 3859.00    0.65304   0.69224   42.786
 3860.00    0.65367   0.70142   45.424
 3861.00    0.68652   0.72366   45.397
 3862.00    0.72431   0.74559   -1.000
 3863.00    0.75516   0.75737  356.180
 3864.00    0.76560   0.75587   -1.000
 3865.00    0.75782   0.75113  343.839
 3866.00    0.74870   0.75203  350.806
 3867.00    0.74556   0.75732   -1.000
 3868.00    0.74649   0.76201   -1.000
 3869.00    0.72633   0.75737   -1.000
 3870.00    0.69737   0.74103   -1.000
 3871.00    0.67701   0.72227   -1.000
 3872.00    0.67027   0.70526   44.180
 3873.00    0.68611   0.70289   -1.000
 3874.00    0.71891   0.71243  378.645
 3875.00    0.73879   0.72398   -1.000
 3876.00    0.73176   0.71832   -1.000
 3877.00    0.70091   0.69780  344.285
 3878.00    0.67150   0.67988   -1.000
 3879.00    0.66910   0.67582  398.376
 3880.00    0.66568   0.68575   -1.000
 3881.00    0.65415   0.68952   -1.000
 3882.00    0.64275   0.68023   -1.000
 3883.00    0.65317   0.66949   -1.000
 3884.00    0.66619   0.65212   -1.000
 3885.00    0.64769   0.61512   -1.000
 3886.00    0.61186   0.56720   -1.000
 3887.00    0.58442   0.51600   -1.000
 3888.00    0.56263   0.48793   -1.000
 3889.00    0.56785   0.49551   -1.000
 3890.00    0.60445   0.53818   -1.000
 3891.00    0.65161   0.59429   -1.000
 3892.00    0.70107   0.64281   -1.000
 3893.00    0.71906   0.66459   -1.000
 3894.00    0.72396   0.67225   -1.000
 3895.00    0.72879   0.68250   -1.000
 3896.00    0.74436   0.69596   -1.000
 3897.00    0.76794   0.71159   -1.000
 3898.00    0.77318   0.72092   -1.000
 3899.00    0.76611   0.72176   -1.000
 3900.00    0.77018   0.72749   -1.000
 3901.00    0.78217   0.73656   -1.000
 3902.00    0.79476   0.73762   -1.000
 3903.00    0.78768   0.73307   -1.000
 3904.00    0.77136   0.72284   -1.000
 3905.00    0.75763   0.72027   -1.000
 3906.00    0.76071   0.72880   -1.000
 3907.00    0.78297   0.75369   -1.000
 3908.00    0.81543   0.78266   -1.000
 3909.00    0.83805   0.80638   -1.000
 3910.00    0.85473   0.81688   -1.000
 3911.00    0.86213   0.81972   -1.000
 3912.00    0.85847   0.81909   -1.000
 3913.00    0.84619   0.81292   -1.000
 3914.00    0.83602   0.80034   -1.000
 3915.00    0.83167   0.79353   -1.000
 3916.00    0.82571   0.79200   -1.000
 3917.00    0.81614   0.78675   -1.000
 3918.00    0.80768   0.77599   -1.000
 3919.00    0.78649   0.76191   -1.000
 3920.00    0.77509   0.75300   -1.000
 3921.00    0.76162   0.74759   -1.000
 3922.00    0.76500   0.74942   -1.000
 3923.00    0.77513   0.75591   -1.000
 3924.00    0.77323   0.75740   -1.000
 3925.00    0.75463   0.75009  318.881
 3926.00    0.71700   0.72365  335.415
 3927.00    0.67075   0.68790   -1.000
 3928.00    0.61948   0.64109   -1.000
 3929.00    0.55660   0.58618   47.824
 3930.00    0.50363   0.52143   56.079
 3931.00    0.44731   0.43077   65.606
 3932.00    0.38041   0.34457   77.660
 3933.00    0.33167   0.28826   -1.000
 3934.00    0.31161   0.29427   98.959
 3935.00    0.34977   0.35988   94.554
 3936.00    0.42574   0.45776   81.903
 3937.00    0.50626   0.54436   67.672
 3938.00    0.57657   0.62540   55.572
 3939.00    0.63386   0.67944   47.027
 3940.00    0.67091   0.71390   -1.000
 3941.00    0.69191   0.73327   -1.000
 3942.00    0.71035   0.73805   -1.000
 3943.00    0.71047   0.73564   -1.000
 3944.00    0.72382   0.74116   -1.000
 3945.00    0.75862   0.75656  347.169
 3946.00    0.78459   0.77584  315.044
 3947.00    0.79531   0.78604  297.073
 3948.00    0.79941   0.78458   -1.000
 3949.00    0.80613   0.78191   -1.000
 3950.00    0.81496   0.78200   -1.000
 3951.00    0.81886   0.78022   -1.000
 3952.00    0.81492   0.78138   -1.000
 3953.00    0.82239   0.79178   -1.000
 3954.00    0.83452   0.79755   -1.000
 3955.00    0.82437   0.79264   -1.000
 3956.00    0.80328   0.78055   -1.000
 3957.00    0.79369   0.76954   -1.000
 3958.00    0.79879   0.76932   -1.000
 3959.00    0.78772   0.76444   -1.000
 3960.00    0.75052   0.73658   -1.000
 3961.00    0.70116   0.70339  315.859
 3962.00    0.64921   0.66635   -1.000
 3963.00    0.61557   0.63396   -1.000
 3964.00    0.58132   0.59740   -1.000
 3965.00    0.51811   0.52694   44.933
 3966.00    0.43688   0.44052   52.778
 3967.00    0.35688   0.34216   65.195
 3968.00    0.29974   0.27990   79.741
 3969.00    0.28770   0.27468   87.948
 3970.00    0.32738   0.33124   81.471
 3971.00    0.40375   0.41463   67.056
 3972.00    0.48400   0.50820   55.084
 3973.00    0.55507   0.57966   46.093
 3974.00    0.62248   0.63915   -1.000
 3975.00    0.68392   0.68594  351.339
 3976.00    0.73013   0.72249  316.609
 3977.00    0.76907   0.75549   -1.000
 3978.00    0.80095   0.78206   -1.000
 3979.00    0.84063   0.80447   -1.000
 3980.00    0.85705   0.81159   -1.000
 3981.00    0.85776   0.81031   -1.000
 3982.00    0.85847   0.81163   -1.000
 3983.00    0.85713   0.81838   -1.000
 3984.00    0.87065   0.83286   -1.000
 3985.00    0.89343   0.84789   -1.000
 3986.00    0.90921   0.86004   -1.000
 3987.00    0.91659   0.87248   -1.000
 3988.00    0.92754   0.88172   -1.000
 3989.00    0.93148   0.88206   -1.000
 3990.00    0.93035   0.88261   -1.000
 3991.00    0.94226   0.88901   -1.000
 3992.00    0.96671   0.89967   -1.000
 3993.00    0.96426   0.90832   -1.000
 3994.00    0.94716   0.90714   -1.000
 3995.00    0.93501   0.89527   -1.000
 3996.00    0.91650   0.87586   -1.000
 3997.00    0.90769   0.86614   -1.000
 3998.00    0.92086   0.87065   -1.000
 3999.00    0.94225   0.88962   -1.000
 4000.00    0.96536   0.90685   -1.000
 4001.00    0.97836   0.91884   -1.000
 4002.00    0.98960   0.92137   -1.000
 4003.00    0.98314   0.91349   -1.000
 4004.00    0.95357   0.89280   -1.000
 4005.00    0.92253   0.87520   -1.000
 4006.00    0.91892   0.87816   -1.000
 4007.00    0.94470   0.89762   -1.000
 4008.00    0.97730   0.92216   -1.000
 4009.00    0.99176   0.93528   -1.000
 4010.00    0.99077   0.94016   -1.000
 4011.00    0.99256   0.94196   -1.000
 4012.00    0.98943   0.94152   -1.000
 4013.00    0.98965   0.94157   -1.000
 4014.00    0.99270   0.94541   -1.000
 4015.00    0.99981   0.95161   -1.000
 4016.00    1.00017   0.95533   -1.000
 4017.00    0.99603   0.95698   -1.000
 4018.00    1.00046   0.96205   -1.000
 4019.00    1.01059   0.96731   -1.000
 4020.00    1.01063   0.97040   -1.000
 4021.00    1.00378   0.96576   -1.000
 4022.00    0.99613   0.95848   -1.000
 4023.00    0.99344   0.95150   -1.000
 4024.00    0.99331   0.94646   -1.000
 4025.00    0.99199   0.94937   -1.000
 4026.00    1.01017   0.96278   -1.000
 4027.00    1.03517   0.97853   -1.000
 4028.00    1.03176   0.97868   -1.000
 4029.00    1.00634   0.96129   -1.000
 4030.00    0.97235   0.93007   -1.000
 4031.00    0.94770   0.90639   -1.000
 4032.00    0.94280   0.89642   -1.000
 4033.00    0.95012   0.90051   -1.000
 4034.00    0.96045   0.91581   -1.000
 4035.00    0.98636   0.94295   -1.000
 4036.00    1.02357   0.97271   -1.000
 4037.00    1.05075   0.99904   -1.000
 4038.00    1.05778   1.00633   -1.000
 4039.00    1.04631   1.00034   -1.000
 4040.00    1.03008   0.98920   -1.000
 4041.00    1.02517   0.98216   -1.000
 4042.00    1.02032   0.97442   -1.000
 4043.00    1.00170   0.95053   -1.000
 4044.00    0.95051   0.91354   -1.000
 4045.00    0.89741   0.88250   -1.000
 4046.00    0.91233   0.88322   -1.000
 4047.00    0.96320   0.91904   -1.000
 4048.00    1.01290   0.95886   -1.000
 4049.00    1.04020   0.98576   -1.000
 4050.00    1.04028   0.99271   -1.000
 4051.00    1.03719   0.99328   -1.000
 4052.00    1.02911   0.98592   -1.000
 4053.00    1.01175   0.97531   -1.000
 4054.00    1.00000   0.96744   -1.000
 4055.00    0.99761   0.96239   -1.000
 4056.00    0.99578   0.96005   -1.000
 4057.00    0.98930   0.95874   -1.000
 4058.00    0.99158   0.96549   -1.000
 4059.00    1.01329   0.98100   -1.000
 4060.00    1.03301   0.98667   -1.000
 4061.00    1.02279   0.97143   -1.000
 4062.00    0.98164   0.93453   -1.000
 4063.00    0.94204   0.90756   -1.000
 4064.00    0.93821   0.89941   -1.000
 4065.00    0.95869   0.90783   -1.000
 4066.00    0.97753   0.92494   -1.000
 4067.00    0.99276   0.93823   -1.000
 4068.00    1.01634   0.94461   -1.000
 4069.00    1.02719   0.94436   -1.000
 4070.00    1.01355   0.93050   -1.000
 4071.00    0.98194   0.90876   -1.000
 4072.00    0.97548   0.90491   -1.000
 4073.00    0.98836   0.91701   -1.000
 4074.00    1.00476   0.92778   -1.000
 4075.00    0.98400   0.91911   -1.000
 4076.00    0.93746   0.89328   -1.000
 4077.00    0.90554   0.87484   -1.000
 4078.00    0.90862   0.87547   -1.000
 4079.00    0.94359   0.90386   -1.000
 4080.00    0.99113   0.93669   -1.000
 4081.00    1.01378   0.95934   -1.000
 4082.00    1.01705   0.96096   -1.000
 4083.00    0.99790   0.94877   -1.000
 4084.00    0.98053   0.93566   -1.000
 4085.00    0.97891   0.93272   -1.000
 4086.00    0.99970   0.94481   -1.000
 4087.00    1.02870   0.96200   -1.000
 4088.00    1.04553   0.97647   -1.000
 4089.00    1.04600   0.97761   -1.000
 4090.00    1.03360   0.96988   -1.000
 4091.00    1.02222   0.96085   -1.000
 4092.00    1.00226   0.95481   -1.000
 4093.00    0.99825   0.94230   -1.000
 4094.00    0.98794   0.92487   -1.000
 4095.00    0.96196   0.89990   -1.000
 4096.00    0.93329   0.87302   -1.000
 4097.00    0.90540   0.84808   -1.000
 4098.00    0.88458   0.81416   -1.000
 4099.00    0.84375   0.76481   -1.000
 4100.00    0.77842   0.69839   -1.000
 4101.00    0.71514   0.65089   -1.000
 4102.00    0.71019   0.64979   -1.000
 4103.00    0.76230   0.70937   -1.000
 4104.00    0.83080   0.78141   -1.000
 4105.00    0.88672   0.84350   -1.000
 4106.00    0.92588   0.87795   -1.000
 4107.00    0.94358   0.89590   -1.000
 4108.00    0.94437   0.90550   -1.000
 4109.00    0.94961   0.90919   -1.000
 4110.00    0.95387   0.91514   -1.000
 4111.00    0.96048   0.92459   -1.000
 4112.00    0.97797   0.93789   -1.000
 4113.00    0.99490   0.95327   -1.000
 4114.00    1.00724   0.96879   -1.000
 4115.00    1.01936   0.98179   -1.000
 4116.00    1.02429   0.98186   -1.000
 4117.00    1.01547   0.97123   -1.000
 4118.00    1.00115   0.95682   -1.000
 4119.00    0.99033   0.94685   -1.000
 4120.00    0.98964   0.95025   -1.000
 4121.00    0.99734   0.95908   -1.000
 4122.00    1.00075   0.96716   -1.000
 4123.00    1.00877   0.97296   -1.000
 4124.00    1.02149   0.98003   -1.000
 4125.00    1.03362   0.98781   -1.000
 4126.00    1.02048   0.98849   -1.000
 4127.00    1.00529   0.98275   -1.000
 4128.00    0.99690   0.97797   -1.000
 4129.00    1.00004   0.97641   -1.000
 4130.00    0.99674   0.96867   -1.000
 4131.00    0.99027   0.95382   -1.000
 4132.00    0.96684   0.93917   -1.000
 4133.00    0.95595   0.94228  233.131
 4134.00    0.96619   0.96159  233.810
 4135.00    1.00189   0.98453   -1.000
 4136.00    1.03058   1.00375   -1.000
 4137.00    1.04308   1.01896   -1.000
 4138.00    1.05816   1.03048   -1.000
 4139.00    1.06590   1.03794   -1.000
 4140.00    1.06103   1.02928   -1.000
 4141.00    1.03035   1.00457   -1.000
 4142.00    0.98392   0.97134  215.124
 4143.00    0.94634   0.94912  233.376
 4144.00    0.95605   0.95217  245.844
 4145.00    0.98889   0.97458  237.070
 4146.00    1.02020   0.99866   -1.000
 4147.00    1.02867   1.00565   -1.000
 4148.00    1.02012   1.00401  212.098
 4149.00    1.01194   1.00310  216.092
 4150.00    1.00927   1.00416  222.172
 4151.00    1.01036   1.00511  224.985
 4152.00    1.00802   1.00046  223.387
 4153.00    0.99753   0.99355  222.089
 4154.00    0.98959   0.98701  224.138
 4155.00    0.98955   0.98638  227.843
 4156.00    0.99678   0.99535  222.228
 4157.00    1.00760   1.00808  220.295
 4158.00    1.01609   1.02234  223.124
 4159.00    1.01325   1.03167   -1.000
 4160.00    1.02510   1.03609   -1.000
 4161.00    1.05603   1.03903  214.155
 4162.00    1.05563   1.04268  207.612
 4163.00    1.04070   1.04852  205.254
 4164.00    1.04601   1.05138  206.440
 4165.00    1.04271   1.04853  209.844
 4166.00    1.03179   1.03557  212.983
 4167.00    1.02111   1.02779  217.787
 4168.00    1.02544   1.02642  221.156
 4169.00    1.03428   1.02750  219.548
 4170.00    1.02824   1.02083  215.727
 4171.00    0.99234   0.99464  217.894
 4172.00    0.94892   0.97043   -1.000
 4173.00    0.93516   0.96230   -1.000
 4174.00    0.94653   0.97221   -1.000
 4175.00    0.96826   0.99238   -1.000
 4176.00    0.97796   1.00075   -1.000
 4177.00    0.97550   1.00282   -1.000
 4178.00    0.97697   1.00766   -1.000
 4179.00    0.99527   1.01569   -1.000
 4180.00    1.00602   1.02563   -1.000
 4181.00    1.01002   1.02122   -1.000
 4182.00    1.00388   1.01650   -1.000
 4183.00    1.00506   1.02611   -1.000
 4184.00    1.01842   1.03426   -1.000
 4185.00    1.02092   1.03307   -1.000
 4186.00    1.00693   1.01946   -1.000
 4187.00    0.98738   1.00597   -1.000
 4188.00    0.98420   1.00706   -1.000
 4189.00    1.00753   1.01594  224.262
 4190.00    1.02013   1.02315  219.179
 4191.00    1.02232   1.02590  217.788
 4192.00    1.02914   1.02940  214.914
 4193.00    1.04377   1.03719  210.258
 4194.00    1.03979   1.03986  207.435
 4195.00    1.01147   1.02438   -1.000
 4196.00    0.98689   1.00225   -1.000
 4197.00    0.97576   0.98138  232.137
 4198.00    0.96173   0.96875  236.288
 4199.00    0.96533   0.96474  236.860
 4200.00    0.97406   0.97069  234.307
 4201.00    0.97851   0.97620  230.541
 4202.00    0.98368   0.97984  229.865
 4203.00    0.99138   0.99222  228.401
 4204.00    0.99809   1.01000   -1.000
 4205.00    1.00869   1.02442   -1.000
 4206.00    1.02202   1.03447   -1.000
 4207.00    1.03499   1.04267  213.393
 4208.00    1.04193   1.04504  209.214
 4209.00    1.03871   1.04340  208.123
 4210.00    1.04261   1.04382  208.967
 4211.00    1.04470   1.04931  208.551
 4212.00    1.04423   1.05774   -1.000
 4213.00    1.03230   1.04890   -1.000
 4214.00    1.00568   1.02483   -1.000
 4215.00    0.98033   1.00783   -1.000
 4216.00    0.98352   1.00574   -1.000
 4217.00    1.01101   1.02648   -1.000
 4218.00    1.04942   1.04865  209.422
 4219.00    1.07285   1.06398  200.048
 4220.00    1.08166   1.06991  194.416
 4221.00    1.08492   1.06776  192.254
 4222.00    1.06185   1.05279  193.920
 4223.00    1.02700   1.02188  201.820
 4224.00    0.97524   0.96655  215.933
 4225.00    0.90818   0.91634  237.253
 4226.00    0.85927   0.88628   -1.000
 4227.00    0.86650   0.90595   -1.000
 4228.00    0.93614   0.96145   -1.000
 4229.00    1.01714   1.03079   -1.000
 4230.00    1.06108   1.06434  212.994
 4231.00    1.06245   1.06517  201.636
 4232.00    1.04518   1.05275  199.862
 4233.00    1.03250   1.03471  204.263
 4234.00    1.02036   1.01929  209.654
 4235.00    1.01326   1.01982  211.803
 4236.00    1.00378   1.02330   -1.000
 4237.00    1.00950   1.02845   -1.000
 4238.00    1.01788   1.03914   -1.000
 4239.00    1.02669   1.04935   -1.000
 4240.00    1.03963   1.06289   -1.000
 4241.00    1.05458   1.07860   -1.000
 4242.00    1.06028   1.08913   -1.000
 4243.00    1.06570   1.09475   -1.000
 4244.00    1.07552   1.09384   -1.000
 4245.00    1.06820   1.08574   -1.000
 4246.00    1.04176   1.06340   -1.000
 4247.00    1.01467   1.03937   -1.000
 4248.00    1.00346   1.02115   -1.000
 4249.00    0.98968   1.01272   -1.000
 4250.00    0.99306   1.01338   -1.000
 4251.00    1.01688   1.02912   -1.000
 4252.00    1.03810   1.04195  215.575
 4253.00    1.03950   1.04349  209.468
 4254.00    1.02864   1.03909  210.485
 4255.00    1.02801   1.04267   -1.000
 4256.00    1.04343   1.06014   -1.000
 4257.00    1.05442   1.06865   -1.000
 4258.00    1.04154   1.05392  203.472
 4259.00    1.00747   1.02968   -1.000
 4260.00    0.99182   1.01689   -1.000
 4261.00    0.99926   1.03128   -1.000
 4262.00    1.03343   1.06092   -1.000
 4263.00    1.06479   1.09138   -1.000
 4264.00    1.08888   1.10649   -1.000
 4265.00    1.09545   1.10579  192.261
 4266.00    1.09446   1.10020  191.690
 4267.00    1.07759   1.08950  194.750
 4268.00    1.05406   1.06933   -1.000
 4269.00    1.03211   1.04316  207.312
 4270.00    0.99711   1.00846  215.264
 4271.00    0.95427   0.98433   -1.000
 4272.00    0.94156   0.97518   -1.000
 4273.00    0.95221   0.98302   -1.000
 4274.00    0.96976   1.00080   -1.000
 4275.00    0.99463   1.02456   -1.000
 4276.00    1.03109   1.05541   -1.000
 4277.00    1.06557   1.08707   -1.000
 4278.00    1.07420   1.09559   -1.000
 4279.00    1.05295   1.08689   -1.000
 4280.00    1.03445   1.06569   -1.000
 4281.00    1.02158   1.05338   -1.000
 4282.00    1.02039   1.05385   -1.000
 4283.00    1.02935   1.05706   -1.000
 4284.00    1.02656   1.06009   -1.000
 4285.00    1.01088   1.05429   -1.000
 4286.00    0.99406   1.04122   -1.000
 4287.00    0.98598   1.01950   -1.000
 4288.00    0.95954   0.99354   -1.000
 4289.00    0.92849   0.96788   -1.000
 4290.00    0.91289   0.96302   -1.000
 4291.00    0.93704   0.98153   -1.000
 4292.00    0.98460   1.00892   -1.000
 4293.00    1.00832   1.02083   -1.000
 4294.00    0.99921   1.01651   -1.000
 4295.00    0.99376   1.01224   -1.000
 4296.00    0.98224   1.00609   -1.000
 4297.00    0.94999   0.98160   -1.000
 4298.00    0.90547   0.94976   -1.000
 4299.00    0.86481   0.91396   -1.000
 4300.00    0.84542   0.89331   -1.000
 4301.00    0.84686   0.89096   -1.000
 4302.00    0.86023   0.90145   -1.000
 4303.00    0.87027   0.91448   -1.000
 4304.00    0.88439   0.92755   -1.000
 4305.00    0.89559   0.92663   -1.000
 4306.00    0.88387   0.91039   -1.000
 4307.00    0.85670   0.89219   -1.000
 4308.00    0.82985   0.88401   -1.000
 4309.00    0.83523   0.89568   -1.000
 4310.00    0.86629   0.91704   -1.000
 4311.00    0.89405   0.94108   -1.000
 4312.00    0.91850   0.95915   -1.000
 4313.00    0.94164   0.97653   -1.000
 4314.00    0.96913   1.00912   -1.000
 4315.00    1.01647   1.05132   -1.000
 4316.00    1.07927   1.10562   -1.000
 4317.00    1.11925   1.13775   -1.000
 4318.00    1.12440   1.14438   -1.000
 4319.00    1.11498   1.13379   -1.000
 4320.00    1.10207   1.11927   -1.000
 4321.00    1.08713   1.10111   -1.000
 4322.00    1.05904   1.07517   -1.000
 4323.00    1.01321   1.03728   -1.000
 4324.00    0.95918   0.99625   -1.000
 4325.00    0.93041   0.97674   -1.000
 4326.00    0.95062   1.00024   -1.000
 4327.00    1.00719   1.04538   -1.000
 4328.00    1.05966   1.09027   -1.000
 4329.00    1.07800   1.10639   -1.000
 4330.00    1.07771   1.10293   -1.000
 4331.00    1.07473   1.09973   -1.000
 4332.00    1.07532   1.10215   -1.000
 4333.00    1.07492   1.10165   -1.000
 4334.00    1.07153   1.08854   -1.000
 4335.00    1.05613   1.05914  183.036
 4336.00    1.00996   1.00705  186.064
 4337.00    0.94068   0.93517  197.766
 4338.00    0.86493   0.84431   -1.000
 4339.00    0.79020   0.77907  237.101
 4340.00    0.75388   0.75391  256.848
 4341.00    0.78488   0.79117   -1.000
 4342.00    0.85866   0.87149   -1.000
 4343.00    0.93081   0.96034   -1.000
 4344.00    0.98046   1.01381   -1.000
 4345.00    1.01735   1.04969   -1.000
 4346.00    1.04505   1.07554   -1.000
 4347.00    1.06509   1.09839   -1.000
 4348.00    1.07988   1.11428   -1.000
 4349.00    1.08016   1.10923   -1.000
 4350.00    1.05401   1.07913   -1.000
 4351.00    1.01155   1.04946   -1.000
 4352.00    0.99051   1.03835   -1.000
 4353.00    1.01870   1.06047   -1.000
 4354.00    1.06500   1.09584   -1.000
 4355.00    1.08902   1.12533   -1.000
 4356.00    1.10592   1.13829   -1.000
 4357.00    1.11125   1.13959   -1.000
 4358.00    1.10072   1.13390   -1.000
 4359.00    1.09406   1.13016   -1.000
 4360.00    1.10560   1.13799   -1.000
 4361.00    1.12966   1.15134   -1.000
 4362.00    1.14277   1.16602   -1.000
 4363.00    1.14515   1.17479   -1.000
 4364.00    1.15595   1.17845   -1.000
 4365.00    1.15953   1.17588   -1.000
 4366.00    1.13839   1.16300   -1.000
 4367.00    1.11346   1.14332   -1.000
 4368.00    1.10418   1.13263   -1.000
 4369.00    1.10410   1.12948   -1.000
 4370.00    1.10695   1.12907   -1.000
 4371.00    1.11223   1.12621   -1.000
 4372.00    1.10489   1.11271  190.130
 4373.00    1.08222   1.09176  191.952
 4374.00    1.05361   1.06738   -1.000
 4375.00    1.04263   1.06375   -1.000
 4376.00    1.07149   1.08666   -1.000
 4377.00    1.11720   1.12598  199.794
 4378.00    1.13289   1.14928   -1.000
 4379.00    1.13689   1.15053   -1.000
 4380.00    1.12900   1.13332  187.083
 4381.00    1.10647   1.09731  190.359
 4382.00    1.04642   1.04257  199.145
 4383.00    0.97191   1.00062   -1.000
 4384.00    0.94775   0.99164   -1.000
 4385.00    0.99133   1.01946   -1.000
 4386.00    1.05000   1.06503   -1.000
 4387.00    1.08637   1.09391  206.028
 4388.00    1.08994   1.10457   -1.000
 4389.00    1.08650   1.10640   -1.000
 4390.00    1.08991   1.10756   -1.000
 4391.00    1.09888   1.11326   -1.000
 4392.00    1.11339   1.12007  197.739
 4393.00    1.11126   1.11871  193.281
 4394.00    1.09906   1.10615  194.332
 4395.00    1.09214   1.10513   -1.000
 4396.00    1.11112   1.12499   -1.000
 4397.00    1.13506   1.14274  189.318
 4398.00    1.14171   1.14386  183.633
 4399.00    1.11563   1.12873   -1.000
 4400.00    1.09027   1.11645   -1.000
 4401.00    1.09645   1.11455   -1.000
 4402.00    1.11070   1.11449  196.487
 4403.00    1.10369   1.10488  192.943
 4404.00    1.06843   1.08665   -1.000
 4405.00    1.05869   1.08010   -1.000
 4406.00    1.07605   1.09183   -1.000
 4407.00    1.08710   1.10778   -1.000
 4408.00    1.08911   1.12051   -1.000
 4409.00    1.10769   1.13981   -1.000
 4410.00    1.13653   1.16855   -1.000
 4411.00    1.16618   1.19021   -1.000
 4412.00    1.18343   1.18902  179.077
 4413.00    1.16756   1.16722  176.777
 4414.00    1.12165   1.13540   -1.000
 4415.00    1.08639   1.10589   -1.000
 4416.00    1.08194   1.10360   -1.000
 4417.00    1.09699   1.12485   -1.000
 4418.00    1.12940   1.16203   -1.000
 4419.00    1.15850   1.18832   -1.000
 4420.00    1.16310   1.19792   -1.000
 4421.00    1.14667   1.18778   -1.000
 4422.00    1.13564   1.17510   -1.000
 4423.00    1.13610   1.17088   -1.000
 4424.00    1.13457   1.17082   -1.000
 4425.00    1.12811   1.16796   -1.000
 4426.00    1.11868   1.16425   -1.000
 4427.00    1.12040   1.16697   -1.000
 4428.00    1.12479   1.17679   -1.000
 4429.00    1.12416   1.18402   -1.000
 4430.00    1.12190   1.18660   -1.000
 4431.00    1.12210   1.18775   -1.000
 4432.00    1.12592   1.18614   -1.000
 4433.00    1.11635   1.17087   -1.000
 4434.00    1.09010   1.14859   -1.000
 4435.00    1.07690   1.13609   -1.000
 4436.00    1.10195   1.15367   -1.000
 4437.00    1.14689   1.19588   -1.000
 4438.00    1.18110   1.22894   -1.000
 4439.00    1.19416   1.23884   -1.000
 4440.00    1.18097   1.21527   -1.000
 4441.00    1.14312   1.18086   -1.000
 4442.00    1.10376   1.14989   -1.000
 4443.00    1.09098   1.14742   -1.000
 4444.00    1.11095   1.17039   -1.000
 4445.00    1.14630   1.20230   -1.000
 4446.00    1.17318   1.22404   -1.000
 4447.00    1.18158   1.22815   -1.000
 4448.00    1.18341   1.22886   -1.000
 4449.00    1.18084   1.22844   -1.000
 4450.00    1.17681   1.22606   -1.000
 4451.00    1.17620   1.22394   -1.000
 4452.00    1.17870   1.21811   -1.000
 4453.00    1.16048   1.20066   -1.000
 4454.00    1.12807   1.17119   -1.000
 4455.00    1.10632   1.15522   -1.000
 4456.00    1.11167   1.15956   -1.000
 4457.00    1.12949   1.17651   -1.000
 4458.00    1.14007   1.18389   -1.000
 4459.00    1.13588   1.18186   -1.000
 4460.00    1.12633   1.17806   -1.000
 4461.00    1.12415   1.17857   -1.000
 4462.00    1.13341   1.19011   -1.000
 4463.00    1.15542   1.20713   -1.000
 4464.00    1.18029   1.21969   -1.000
 4465.00    1.18456   1.22167   -1.000
 4466.00    1.17739   1.21448   -1.000
 4467.00    1.17177   1.20094   -1.000
 4468.00    1.15488   1.18997   -1.000
 4469.00    1.14403   1.18815   -1.000
 4470.00    1.15109   1.20172   -1.000
 4471.00    1.18194   1.22882   -1.000
 4472.00    1.21247   1.25284   -1.000
 4473.00    1.23526   1.27000   -1.000
 4474.00    1.24708   1.27330   -1.000
 4475.00    1.25110   1.27321   -1.000
 4476.00    1.25101   1.27502   -1.000
 4477.00    1.25942   1.27873   -1.000
 4478.00    1.25512   1.27440   -1.000
 4479.00    1.23482   1.24975   -1.000
 4480.00    1.20190   1.21917   -1.000
 4481.00    1.17018   1.20202   -1.000
 4482.00    1.17017   1.20925   -1.000
 4483.00    1.19474   1.24005   -1.000
 4484.00    1.23123   1.27419   -1.000
 4485.00    1.25206   1.29684   -1.000
 4486.00    1.25911   1.30034   -1.000
 4487.00    1.24963   1.28758   -1.000
 4488.00    1.22556   1.26327   -1.000
 4489.00    1.19976   1.24805   -1.000
 4490.00    1.19936   1.25028   -1.000
 4491.00    1.21767   1.26689   -1.000
 4492.00    1.22992   1.27685   -1.000
 4493.00    1.22427   1.26625   -1.000
 4494.00    1.21273   1.25021   -1.000
 4495.00    1.19779   1.24242   -1.000
 4496.00    1.19958   1.24848   -1.000
 4497.00    1.22043   1.26209   -1.000
 4498.00    1.24331   1.27377   -1.000
 4499.00    1.25432   1.27490   -1.000
 4500.00    1.24410   1.26337   -1.000
 4501.00    1.23363   1.25964   -1.000
 4502.00    1.24117   1.27231   -1.000
 4503.00    1.26573   1.29793   -1.000
 4504.00    1.28634   1.31844   -1.000
 4505.00    1.29893   1.32370   -1.000
 4506.00    1.29142   1.31631   -1.000
 4507.00    1.27930   1.30632   -1.000
 4508.00    1.28251   1.30392   -1.000
 4509.00    1.28644   1.30825   -1.000
 4510.00    1.28976   1.31434   -1.000
 4511.00    1.28968   1.31193   -1.000
 4512.00    1.27877   1.30374   -1.000
 4513.00    1.26664   1.29641   -1.000
 4514.00    1.26415   1.29025   -1.000
 4515.00    1.26242   1.28755   -1.000
 4516.00    1.25419   1.28645   -1.000
 4517.00    1.24685   1.28381   -1.000
 4518.00    1.24442   1.27848   -1.000
 4519.00    1.25023   1.27789   -1.000
 4520.00    1.26163   1.28556   -1.000
 4521.00    1.26112   1.29066   -1.000
 4522.00    1.24886   1.28522   -1.000
 4523.00    1.24075   1.27182   -1.000
 4524.00    1.23499   1.26287   -1.000
 4525.00    1.22687   1.25689   -1.000
 4526.00    1.20950   1.24423   -1.000
 4527.00    1.18801   1.22545   -1.000
 4528.00    1.17489   1.20938   -1.000
 4529.00    1.17332   1.20675   -1.000
 4530.00    1.18233   1.21479   -1.000
 4531.00    1.20604   1.22528   -1.000
 4532.00    1.20436   1.22499   -1.000
 4533.00    1.18509   1.20985   -1.000
 4534.00    1.15944   1.19565   -1.000
 4535.00    1.15769   1.20201   -1.000
 4536.00    1.19987   1.22916   -1.000
 4537.00    1.25513   1.26780   -1.000
 4538.00    1.28193   1.29927   -1.000
 4539.00    1.28591   1.30902   -1.000
 4540.00    1.27433   1.30300   -1.000
 4541.00    1.27000   1.29498   -1.000
 4542.00    1.26825   1.29380   -1.000
 4543.00    1.26421   1.29668   -1.000
 4544.00    1.25245   1.29464   -1.000
 4545.00    1.24147   1.28777   -1.000
 4546.00    1.27098   1.28331   84.975
 4547.00    1.12104   1.27700   -1.000
 4548.00    0.23368   1.26041   -1.000
 4549.00   -0.02469   1.24244    0.000
 4550.00    0.15730   1.24191   -1.000
 4551.00    0.86551   1.26094   -1.000
 4552.00    0.34480   1.27205   -1.000
 4553.00    0.94231   1.26299   -1.000
 4554.00    1.22147   1.24899   -1.000
 4555.00    1.21335   1.24785   -1.000
 4556.00    1.24125   1.26748   -1.000
 4557.00    1.27275   1.29793   -1.000
 4558.00    1.29302   1.32235   -1.000
 4559.00    1.30331   1.33315   -1.000
 4560.00    1.30776   1.33847   -1.000
 4561.00    1.30437   1.33661   -1.000
 4562.00    1.29616   1.32430   -1.000
 4563.00    1.27459   1.30543   -1.000
 4564.00    1.25800   1.29288   -1.000
 4565.00    1.26066   1.29600   -1.000
 4566.00    1.27915   1.31315   -1.000
 4567.00    1.30027   1.33151   -1.000
 4568.00    1.31183   1.34180   -1.000
 4569.00    1.31103   1.33552   -1.000
 4570.00    1.28742   1.31817   -1.000
 4571.00    1.25871   1.29770   -1.000
 4572.00    1.25861   1.29045   -1.000
 4573.00    1.27709   1.30844   -1.000
 4574.00    1.30018   1.33072   -1.000
 4575.00    1.31085   1.33901   -1.000
 4576.00    1.30718   1.33472   -1.000
 4577.00    1.30150   1.32797   -1.000
 4578.00    1.29050   1.31774   -1.000
 4579.00    1.27291   1.30120   -1.000
 4580.00    1.25521   1.28373   -1.000
 4581.00    1.24925   1.27606   -1.000
 4582.00    1.25147   1.27823   -1.000
 4583.00    1.25724   1.28147   -1.000
 4584.00    1.25787   1.28423   -1.000
 4585.00    1.25833   1.28994   -1.000
 4586.00    1.27157   1.29812   -1.000
 4587.00    1.28804   1.30951   -1.000
 4588.00    1.30041   1.32148   -1.000
 4589.00    1.30318   1.32720   -1.000
 4590.00    1.29674   1.32726   -1.000
 4591.00    1.28990   1.32235   -1.000
 4592.00    1.27853   1.31229   -1.000
 4593.00    1.27376   1.30877   -1.000
 4594.00    1.28518   1.31228   -1.000
 4595.00    1.29431   1.31861   -1.000
 4596.00    1.30156   1.32528   -1.000
 4597.00    1.30602   1.33055   -1.000
 4598.00    1.30566   1.33110   -1.000
 4599.00    1.29838   1.32770   -1.000
 4600.00    1.28502   1.31972   -1.000
 4601.00    1.27742   1.31193   -1.000
 4602.00    1.28297   1.31044   -1.000
 4603.00    1.28948   1.31464   -1.000
 4604.00    1.29626   1.32165   -1.000
 4605.00    1.30934   1.32688   -1.000
 4606.00    1.31639   1.33053   -1.000
 4607.00    1.32355   1.34068   -1.000
 4608.00    1.33706   1.35395   -1.000
 4609.00    1.34447   1.36735   -1.000
 4610.00    1.34965   1.36890   -1.000
 4611.00    1.34629   1.35984  158.213
 4612.00    1.33640   1.35240   -1.000
 4613.00    1.32882   1.35000   -1.000
 4614.00    1.32818   1.35196   -1.000
 4615.00    1.33273   1.35532   -1.000
 4616.00    1.33209   1.35671   -1.000
 4617.00    1.33231   1.35624   -1.000
 4618.00    1.32268   1.35423   -1.000
 4619.00    1.32393   1.35293   -1.000
 4620.00    1.33415   1.35800   -1.000
 4621.00    1.34777   1.36862   -1.000
 4622.00    1.35736   1.37628   -1.000
 4623.00    1.35558   1.37577   -1.000
 4624.00    1.34893   1.36795   -1.000
 4625.00    1.34538   1.36263   -1.000
 4626.00    1.34750   1.35915  160.396
 4627.00    1.34746   1.35967  160.924
 4628.00    1.34095   1.36051   -1.000
 4629.00    1.33362   1.35962   -1.000
 4630.00    1.34061   1.36277   -1.000
 4631.00    1.35193   1.37020   -1.000
 4632.00    1.35344   1.37265   -1.000
 4633.00    1.34071   1.36785   -1.000
 4634.00    1.33732   1.36044   -1.000
 4635.00    1.33629   1.35878   -1.000
 4636.00    1.33144   1.35862   -1.000
 4637.00    1.32504   1.35361   -1.000
 4638.00    1.32070   1.34781   -1.000
 4639.00    1.32659   1.34684   -1.000
 4640.00    1.34144   1.35373   -1.000
 4641.00    1.36354   1.36622  165.755
 4642.00    1.37298   1.37530  161.806
 4643.00    1.36696   1.37737  159.370
 4644.00    1.35593   1.36727  159.695
 4645.00    1.34065   1.35436  162.424
 4646.00    1.31893   1.33690   -1.000
 4647.00    1.30868   1.32443   -1.000
 4648.00    1.31872   1.33004  172.719
 4649.00    1.33690   1.34863  170.072
 4650.00    1.34904   1.36525   -1.000
 4651.00    1.34907   1.37372   -1.000
 4652.00    1.34432   1.37394   -1.000
 4653.00    1.33588   1.36917   -1.000
 4654.00    1.32367   1.35878   -1.000
 4655.00    1.31428   1.35103   -1.000
 4656.00    1.31730   1.35252   -1.000
 4657.00    1.33552   1.36281   -1.000
 4658.00    1.36374   1.38589   -1.000
 4659.00    1.39072   1.41099   -1.000
 4660.00    1.40360   1.42379   -1.000
 4661.00    1.39203   1.41833   -1.000
 4662.00    1.37295   1.40335   -1.000
 4663.00    1.36359   1.38839   -1.000
 4664.00    1.36228   1.37625  162.254
 4665.00    1.35061   1.36199  162.976
 4666.00    1.31917   1.34136   -1.000
 4667.00    1.28507   1.31714   -1.000
 4668.00    1.27100   1.30840   -1.000
 4669.00    1.29146   1.32177   -1.000
 4670.00    1.31897   1.34652   -1.000
 4671.00    1.34799   1.36868   -1.000
 4672.00    1.36372   1.38026   -1.000
 4673.00    1.36321   1.37998   -1.000
 4674.00    1.36502   1.38149   -1.000
 4675.00    1.37088   1.38736   -1.000
 4676.00    1.38460   1.39535  159.978
 4677.00    1.38517   1.39485  157.585
 4678.00    1.37005   1.38126  157.972
 4679.00    1.35188   1.36730   -1.000
 4680.00    1.34230   1.35501  164.364
 4681.00    1.33555   1.34833  167.148
 4682.00    1.33934   1.35161  168.908
 4683.00    1.35968   1.36270  167.268
 4684.00    1.37678   1.37529  163.266
 4685.00    1.38116   1.38026  160.852
 4686.00    1.37448   1.37959  161.078
 4687.00    1.37291   1.37661  161.229
 4688.00    1.37155   1.37532  162.037
 4689.00    1.37068   1.37667  162.173
 4690.00    1.36618   1.37729  162.178
 4691.00    1.36763   1.37521  163.201
 4692.00    1.37640   1.37622  163.662
 4693.00    1.38920   1.38102  162.003
 4694.00    1.40395   1.38604  159.629
 4695.00    1.41373   1.39126  156.212
 4696.00    1.41500   1.39474  154.012
 4697.00    1.39816   1.38789  154.428
 4698.00    1.37424   1.37228  158.423
 4699.00    1.36614   1.35851  163.234
 4700.00    1.36774   1.35253  165.547
 4701.00    1.35780   1.34723  164.614
 4702.00    1.34228   1.33981  165.473
 4703.00    1.34015   1.33521  168.214
 4704.00    1.34856   1.34360  169.391
 4705.00    1.35651   1.35690  166.691
 4706.00    1.35557   1.36068  164.098
 4707.00    1.34287   1.35219  165.756
 4708.00    1.33016   1.34123  169.008
 4709.00    1.33103   1.34121  170.891
 4710.00    1.34944   1.35450  170.320
 4711.00    1.37801   1.37067  165.814
 4712.00    1.39741   1.37948  161.179
 4713.00    1.39176   1.37629  159.206
 4714.00    1.37781   1.36843  160.335
 4715.00    1.37777   1.36916  163.207
 4716.00    1.39050   1.38155  163.652
 4717.00    1.40719   1.39831  160.804
 4718.00    1.40977   1.40903  157.665
 4719.00    1.41243   1.41512  156.410
 4720.00    1.41165   1.41846  155.820
 4721.00    1.40496   1.41794  155.287
 4722.00    1.40300   1.41461  156.356
 4723.00    1.40547   1.41528  157.520
 4724.00    1.41411   1.42191  156.876
 4725.00    1.41472   1.42300  155.257
 4726.00    1.39493   1.41531   -1.000
 4727.00    1.36880   1.39805   -1.000
 4728.00    1.34926   1.37685   -1.000
 4729.00    1.35247   1.36793   -1.000
 4730.00    1.35938   1.36693  168.345
 4731.00    1.36468   1.37037  166.730
 4732.00    1.37259   1.38132  165.354
 4733.00    1.38199   1.39303  163.459
 4734.00    1.39505   1.39842  161.955
 4735.00    1.38662   1.39840  160.972
 4736.00    1.38064   1.39460  160.078
 4737.00    1.38457   1.39315  161.428
 4738.00    1.39424   1.39745  161.884
 4739.00    1.39691   1.40392  160.090
 4740.00    1.39927   1.40595  159.829
 4741.00    1.39754   1.40428  160.663
 4742.00    1.40060   1.40682  160.988
 4743.00    1.40997   1.41474  159.902
 4744.00    1.41563   1.42094  158.203
 4745.00    1.41730   1.42419  158.222
 4746.00    1.42239   1.42715  158.410
 4747.00    1.42578   1.43583  157.413
 4748.00    1.42581   1.44522   -1.000
 4749.00    1.42687   1.44819   -1.000
 4750.00    1.42759   1.45156   -1.000
 4751.00    1.42441   1.45399   -1.000
 4752.00    1.41341   1.45027   -1.000
 4753.00    1.40498   1.44084   -1.000
 4754.00    1.39910   1.43291   -1.000
 4755.00    1.39717   1.43104   -1.000
 4756.00    1.39333   1.43292   -1.000
 4757.00    1.39193   1.43626   -1.000
 4758.00    1.39275   1.44025   -1.000
 4759.00    1.39549   1.44188   -1.000
 4760.00    1.40186   1.44094   -1.000
 4761.00    1.39052   1.43340   -1.000
 4762.00    1.36369   1.41839   -1.000
 4763.00    1.34732   1.40417   -1.000
 4764.00    1.34555   1.39727   -1.000
 4765.00    1.35334   1.39762   -1.000
 4766.00    1.36808   1.40312   -1.000
 4767.00    1.38338   1.41345   -1.000
 4768.00    1.39989   1.42980   -1.000
 4769.00    1.41291   1.44751   -1.000
 4770.00    1.41425   1.45666   -1.000
 4771.00    1.40927   1.45314   -1.000
 4772.00    1.40433   1.44413   -1.000
 4773.00    1.40951   1.44406   -1.000
 4774.00    1.42883   1.45567   -1.000
 4775.00    1.44249   1.46794   -1.000
 4776.00    1.43985   1.47144   -1.000
 4777.00    1.43765   1.47013   -1.000
 4778.00    1.43192   1.46782   -1.000
 4779.00    1.42208   1.46198   -1.000
 4780.00    1.41218   1.45556   -1.000
 4781.00    1.40916   1.45356   -1.000
 4782.00    1.40773   1.45213   -1.000
 4783.00    1.40635   1.44602   -1.000
 4784.00    1.40809   1.44096   -1.000
 4785.00    1.40442   1.43981   -1.000
 4786.00    1.39160   1.43728   -1.000
 4787.00    1.38406   1.43448   -1.000
 4788.00    1.38559   1.43554   -1.000
 4789.00    1.39216   1.43833   -1.000
 4790.00    1.40325   1.44232   -1.000
 4791.00    1.41487   1.45244   -1.000
 4792.00    1.42432   1.46915   -1.000
 4793.00    1.43886   1.48401   -1.000
 4794.00    1.45486   1.49816   -1.000
 4795.00    1.46145   1.50497   -1.000
 4796.00    1.45697   1.50214   -1.000
 4797.00    1.44024   1.49238   -1.000
 4798.00    1.42160   1.47803   -1.000
 4799.00    1.41540   1.46846   -1.000
 4800.00    1.41765   1.47012   -1.000
 4801.00    1.43152   1.48277   -1.000
 4802.00    1.44555   1.49726   -1.000
 4803.00    1.44674   1.50431   -1.000
 4804.00    1.43464   1.49097   -1.000
 4805.00    1.42351   1.47495   -1.000
 4806.00    1.42599   1.46707   -1.000
 4807.00    1.43037   1.46672   -1.000
 4808.00    1.43720   1.47255   -1.000
 4809.00    1.44138   1.48134   -1.000
 4810.00    1.44426   1.48594   -1.000
 4811.00    1.44352   1.48862   -1.000
 4812.00    1.44541   1.49179   -1.000
 4813.00    1.45131   1.49654   -1.000
 4814.00    1.45696   1.50322   -1.000
 4815.00    1.46169   1.50809   -1.000
 4816.00    1.46608   1.51220   -1.000
 4817.00    1.47360   1.51639   -1.000
 4818.00    1.47662   1.51917   -1.000
 4819.00    1.47363   1.51979   -1.000
 4820.00    1.47075   1.51900   -1.000
 4821.00    1.46493   1.51314   -1.000
 4822.00    1.44641   1.49796   -1.000
 4823.00    1.42534   1.47577   -1.000
 4824.00    1.42064   1.46128   -1.000
 4825.00    1.43417   1.46524   -1.000
 4826.00    1.44848   1.48062   -1.000
 4827.00    1.45399   1.49004   -1.000
 4828.00    1.44705   1.48763   -1.000
 4829.00    1.44093   1.48110   -1.000
 4830.00    1.43453   1.47700   -1.000
 4831.00    1.43021   1.47472   -1.000
 4832.00    1.43041   1.47063   -1.000
 4833.00    1.43941   1.47280   -1.000
 4834.00    1.44992   1.47890   -1.000
 4835.00    1.45960   1.48787   -1.000
 4836.00    1.45863   1.49036   -1.000
 4837.00    1.45184   1.48995   -1.000
 4838.00    1.44189   1.48752   -1.000
 4839.00    1.42794   1.47938   -1.000
 4840.00    1.41833   1.47197   -1.000
 4841.00    1.41858   1.47164   -1.000
 4842.00    1.42465   1.47176   -1.000
 4843.00    1.43204   1.46945   -1.000
 4844.00    1.44505   1.47019   -1.000
 4845.00    1.45211   1.47660   -1.000
 4846.00    1.45287   1.48578   -1.000
 4847.00    1.44030   1.48359   -1.000
 4848.00    1.42614   1.47035   -1.000
 4849.00    1.42250   1.46205   -1.000
 4850.00    1.42749   1.46302   -1.000
 4851.00    1.43033   1.46418   -1.000
 4852.00    1.42863   1.46204   -1.000
 4853.00    1.41292   1.45186   -1.000
 4854.00    1.38116   1.42719   -1.000
 4855.00    1.35104   1.39313   -1.000
 4856.00    1.33542   1.37175   -1.000
 4857.00    1.32966   1.36122   -1.000
 4858.00    1.29232   1.33254   -1.000
 4859.00    1.20310   1.25564   -1.000
 4860.00    1.08345   1.12104   -1.000
 4861.00    1.01001   1.01958   -1.000
 4862.00    1.04062   1.01217   -1.000
 4863.00    1.14167   1.11626   -1.000
 4864.00    1.24037   1.24086  191.054
 4865.00    1.29939   1.32523   -1.000
 4866.00    1.33415   1.36929   -1.000
 4867.00    1.35952   1.39708   -1.000
 4868.00    1.37338   1.41940   -1.000
 4869.00    1.37227   1.42836   -1.000
 4870.00    1.35679   1.41427   -1.000
 4871.00    1.33520   1.38674   -1.000
 4872.00    1.33354   1.37083   -1.000
 4873.00    1.35930   1.38708   -1.000
 4874.00    1.38279   1.42156   -1.000
 4875.00    1.39764   1.44626   -1.000
 4876.00    1.39585   1.45699   -1.000
 4877.00    1.39527   1.46120   -1.000
 4878.00    1.40595   1.46896   -1.000
 4879.00    1.42158   1.48360   -1.000
 4880.00    1.42992   1.50003   -1.000
 4881.00    1.42220   1.50370   -1.000
 4882.00    1.41637   1.48964   -1.000
 4883.00    1.41315   1.48140   -1.000
 4884.00    1.41390   1.47902   -1.000
 4885.00    1.40519   1.47541   -1.000
 4886.00    1.40547   1.47156   -1.000
 4887.00    1.40365   1.47191   -1.000
 4888.00    1.40205   1.47205   -1.000
 4889.00    1.39465   1.46224   -1.000
 4890.00    1.37812   1.44374   -1.000
 4891.00    1.37411   1.42747   -1.000
 4892.00    1.40540   1.44075   -1.000
 4893.00    1.45032   1.48232   -1.000
 4894.00    1.49444   1.52586   -1.000
 4895.00    1.51533   1.55602   -1.000
 4896.00    1.51662   1.56841   -1.000
 4897.00    1.51228   1.57099   -1.000
 4898.00    1.50121   1.56617   -1.000
 4899.00    1.48421   1.55365   -1.000
 4900.00    1.47258   1.53838   -1.000
 4901.00    1.47262   1.53073   -1.000
 4902.00    1.47132   1.52819   -1.000
 4903.00    1.46902   1.52207   -1.000
 4904.00    1.47194   1.52036   -1.000
 4905.00    1.48678   1.53552   -1.000
 4906.00    1.50071   1.55816   -1.000
 4907.00    1.49919   1.56144   -1.000
 4908.00    1.48651   1.54744   -1.000
 4909.00    1.46489   1.52925   -1.000
 4910.00    1.44715   1.51153   -1.000
 4911.00    1.45037   1.50433   -1.000
 4912.00    1.46771   1.51175   -1.000
 4913.00    1.48530   1.52777   -1.000
 4914.00    1.49913   1.54207   -1.000
 4915.00    1.51173   1.55337   -1.000
 4916.00    1.51302   1.55388   -1.000
 4917.00    1.48507   1.53462   -1.000
 4918.00    1.43152   1.48908   -1.000
 4919.00    1.38421   1.43803   -1.000
 4920.00    1.36798   1.40177   -1.000
 4921.00    1.38125   1.40216   -1.000
 4922.00    1.41248   1.43215   -1.000
 4923.00    1.43315   1.45995   -1.000
 4924.00    1.44171   1.47062   -1.000
 4925.00    1.45861   1.48096   -1.000
 4926.00    1.48325   1.50637   -1.000
 4927.00    1.50429   1.53539   -1.000
 4928.00    1.52010   1.55577   -1.000
 4929.00    1.52952   1.57101   -1.000
 4930.00    1.53790   1.57902   -1.000
 4931.00    1.53011   1.57416   -1.000
 4932.00    1.50283   1.55242   -1.000
 4933.00    1.46821   1.51875   -1.000
 4934.00    1.45303   1.49372   -1.000
 4935.00    1.46557   1.49784   -1.000
 4936.00    1.47742   1.51119   -1.000
 4937.00    1.46290   1.50631   -1.000
 4938.00    1.44053   1.48177   -1.000
 4939.00    1.43477   1.46616   -1.000
 4940.00    1.46317   1.48021   -1.000
 4941.00    1.50121   1.51518  163.837
 4942.00    1.52077   1.55286   -1.000
 4943.00    1.52918   1.57274   -1.000
 4944.00    1.53285   1.57858   -1.000
 4945.00    1.53039   1.57415   -1.000
 4946.00    1.52601   1.56870   -1.000
 4947.00    1.53063   1.56916   -1.000
 4948.00    1.53934   1.57767   -1.000
 4949.00    1.54769   1.58843   -1.000
 4950.00    1.54942   1.59274   -1.000
 4951.00    1.54760   1.59253   -1.000
 4952.00    1.54337   1.58846   -1.000
 4953.00    1.53871   1.58219   -1.000
 4954.00    1.53477   1.57427   -1.000
 4955.00    1.51430   1.55251   -1.000
 4956.00    1.46635   1.50695   -1.000
 4957.00    1.42227   1.45059   -1.000
 4958.00    1.42813   1.43136  173.613
 4959.00    1.47647   1.46975  172.441
 4960.00    1.52448   1.52613  163.827
 4961.00    1.54586   1.56516   -1.000
 4962.00    1.54697   1.57526   -1.000
 4963.00    1.54182   1.57380   -1.000
 4964.00    1.52975   1.56447   -1.000
 4965.00    1.51209   1.54720   -1.000
 4966.00    1.49812   1.52969   -1.000
 4967.00    1.49592   1.52446   -1.000
 4968.00    1.49828   1.52705   -1.000
 4969.00    1.50371   1.53342   -1.000
 4970.00    1.51338   1.54416   -1.000
 4971.00    1.52298   1.55776   -1.000
 4972.00    1.53607   1.56948   -1.000
 4973.00    1.54804   1.57884   -1.000
 4974.00    1.55492   1.58147   -1.000
 4975.00    1.55386   1.57809   -1.000
 4976.00    1.54258   1.57280   -1.000
 4977.00    1.52958   1.56383   -1.000
 4978.00    1.52040   1.55239   -1.000
 4979.00    1.50840   1.54499   -1.000
 4980.00    1.48852   1.53194   -1.000
 4981.00    1.45646   1.50552   -1.000
 4982.00    1.42473   1.47360   -1.000
 4983.00    1.41162   1.45003   -1.000
 4984.00    1.42274   1.45283   -1.000
 4985.00    1.45093   1.47513   -1.000
 4986.00    1.48378   1.50380   -1.000
 4987.00    1.50712   1.53363   -1.000
 4988.00    1.52160   1.55620   -1.000
 4989.00    1.51598   1.55473   -1.000
 4990.00    1.49940   1.53895   -1.000
 4991.00    1.49615   1.52673   -1.000
 4992.00    1.50511   1.52810   -1.000
 4993.00    1.50879   1.53715   -1.000
 4994.00    1.51091   1.54401   -1.000
 4995.00    1.52076   1.55209   -1.000
 4996.00    1.53168   1.56176   -1.000
 4997.00    1.52852   1.56364   -1.000
 4998.00    1.51513   1.54934   -1.000
 4999.00    1.49936   1.52349   -1.000
 5000.00    1.48424   1.49690  166.434
 5001.00    1.48128   1.49164  168.843
 5002.00    1.48995   1.50047  169.430
 5003.00    1.49522   1.51165   -1.000
 5004.00    1.48776   1.51081   -1.000
 5005.00    1.46413   1.48996   -1.000
 5006.00    1.44665   1.46419   -1.000
 5007.00    1.46253   1.46167  174.234
 5008.00    1.49697   1.49179  171.172
 5009.00    1.51930   1.52072  166.140
 5010.00    1.51558   1.53021  163.568
 5011.00    1.49134   1.51755   -1.000
 5012.00    1.45601   1.49029   -1.000
 5013.00    1.42923   1.46439   -1.000
 5014.00    1.42724   1.45199   -1.000
 5015.00    1.44514   1.46170   -1.000
 5016.00    1.46388   1.47724  176.941
 5017.00    1.46683   1.48285  173.155
 5018.00    1.46523   1.47663  171.725
 5019.00    1.47593   1.47985  171.603
 5020.00    1.49356   1.49983  170.132
 5021.00    1.49730   1.51309  168.590
 5022.00    1.49749   1.51586   -1.000
 5023.00    1.50660   1.51950  169.310
 5024.00    1.51573   1.53408   -1.000
 5025.00    1.52352   1.55048   -1.000
 5026.00    1.52302   1.55446   -1.000
 5027.00    1.51880   1.54561   -1.000
 5028.00    1.52118   1.54064   -1.000
 5029.00    1.53620   1.54666  165.958
 5030.00    1.55011   1.55866  163.194
 5031.00    1.56251   1.57199  160.671
 5032.00    1.57424   1.58655  158.140
 5033.00    1.57558   1.59480   -1.000
 5034.00    1.55734   1.58521   -1.000
 5035.00    1.52098   1.55960   -1.000
 5036.00    1.49464   1.53441   -1.000
 5037.00    1.48827   1.52882   -1.000
 5038.00    1.48172   1.52742   -1.000
 5039.00    1.45553   1.50687   -1.000
 5040.00    1.41473   1.46880   -1.000
 5041.00    1.40676   1.43942   -1.000
 5042.00    1.43864   1.45238   -1.000
 5043.00    1.49149   1.49853  180.268
 5044.00    1.54050   1.55091  169.596
 5045.00    1.57266   1.59044   -1.000
 5046.00    1.58515   1.61100   -1.000
 5047.00    1.57106   1.60914   -1.000
 5048.00    1.55727   1.58559   -1.000
 5049.00    1.41388   1.55130   -1.000
 5050.00    1.20109   1.52600   -1.000
 5051.00    0.63759   1.51607   -1.000
 5052.00    0.56104   1.52428   -1.000
 5053.00    1.37516   1.54961   -1.000
 5054.00    1.61326   1.58171   -1.000
 5055.00    1.60099   1.60160  157.941
 5056.00    1.60698   1.60945  156.108
 5057.00    1.60445   1.61232  155.374
 5058.00    1.60264   1.61424  155.473
 5059.00    1.59759   1.61871   -1.000
 5060.00    1.59629   1.62372   -1.000
 5061.00    1.59999   1.62915   -1.000
 5062.00    1.59882   1.62864   -1.000
 5063.00    1.58176   1.61179   -1.000
 5064.00    1.54568   1.58125   -1.000
 5065.00    1.52605   1.55456   -1.000
 5066.00    1.53330   1.54922   -1.000
 5067.00    1.54855   1.55666  167.662
 5068.00    1.55562   1.56218  165.201
 5069.00    1.56414   1.56641  164.177
 5070.00    1.57294   1.57393  163.482
 5071.00    1.57154   1.57847  162.474
 5072.00    1.56155   1.57318  163.187
 5073.00    1.56153   1.56701  164.515
 5074.00    1.56200   1.56821  163.312
 5075.00    1.56877   1.57157  161.815
 5076.00    1.57741   1.57347  161.344
 5077.00    1.56478   1.56912  161.205
 5078.00    1.53051   1.55115   -1.000
 5079.00    1.49157   1.52008   -1.000
 5080.00    1.47677   1.49796   -1.000
 5081.00    1.49233   1.50348  178.129
 5082.00    1.51918   1.51943  175.745
 5083.00    1.53635   1.53057  171.938
 5084.00    1.55707   1.54415  169.289
 5085.00    1.58039   1.56605  166.332
 5086.00    1.59078   1.58449  163.395
 5087.00    1.59506   1.59302  161.820
 5088.00    1.59750   1.59454  161.380
 5089.00    1.59740   1.59789  160.725
 5090.00    1.60422   1.60312  159.643
 5091.00    1.61223   1.60748  158.689
 5092.00    1.61884   1.61582  157.857
 5093.00    1.62615   1.62768  156.285
 5094.00    1.62446   1.63281  154.766
 5095.00    1.61319   1.62555  155.470
 5096.00    1.60290   1.60554  158.288
 5097.00    1.57976   1.58109  161.706
 5098.00    1.54354   1.55864  165.523
 5099.00    1.53481   1.54561  169.143
 5100.00    1.55770   1.55759  170.444
 5101.00    1.59115   1.58311  167.403
 5102.00    1.60838   1.60346  162.673
 5103.00    1.60683   1.60750  160.402
 5104.00    1.59577   1.60197  160.783
 5105.00    1.58372   1.59297  162.633
 5106.00    1.56349   1.57725  164.731
 5107.00    1.54193   1.55530  166.765
 5108.00    1.53666   1.54345  168.846
 5109.00    1.54144   1.54231  169.198
 5110.00    1.54889   1.54946  168.293
 5111.00    1.56483   1.56551  167.107
 5112.00    1.58409   1.58902  165.006
 5113.00    1.60397   1.60745  162.879
 5114.00    1.61565   1.61858  160.895
 5115.00    1.62836   1.62577  159.314
 5116.00    1.63401   1.63376  158.318
 5117.00    1.64045   1.64211  156.860
 5118.00    1.64339   1.64621  155.448
 5119.00    1.63780   1.64280  155.459
 5120.00    1.62204   1.63193  157.111
 5121.00    1.59980   1.61509  159.421
 5122.00    1.57275   1.59334   -1.000
 5123.00    1.54890   1.56885   -1.000
 5124.00    1.53771   1.55215  170.628
 5125.00    1.54331   1.55097  172.860
 5126.00    1.55321   1.55812  171.972
 5127.00    1.55386   1.56086  170.920
 5128.00    1.55091   1.55869  169.956
 5129.00    1.55485   1.55904  169.872
 5130.00    1.56862   1.56650  169.840
 5131.00    1.58276   1.58158  168.146
 5132.00    1.59280   1.59541  165.419
 5133.00    1.60186   1.60487  163.683
 5134.00    1.61039   1.61160  162.202
 5135.00    1.61249   1.61590  160.739
 5136.00    1.59989   1.61265  160.066
 5137.00    1.57570   1.59522   -1.000
 5138.00    1.55089   1.56899   -1.000
 5139.00    1.53983   1.55454  168.863
 5140.00    1.54714   1.55694  169.718
 5141.00    1.55227   1.56699  168.612
 5142.00    1.54469   1.56879   -1.000
 5143.00    1.54334   1.56804   -1.000
 5144.00    1.55588   1.57812   -1.000
 5145.00    1.57311   1.59064   -1.000
 5146.00    1.57592   1.58831  167.873
 5147.00    1.57393   1.58099  168.913
 5148.00    1.58101   1.58073  169.669
 5149.00    1.58413   1.58402  168.213
 5150.00    1.57538   1.58061  166.939
 5151.00    1.56145   1.56747  168.230
 5152.00    1.55193   1.55621  171.095
 5153.00    1.56002   1.55788  172.767
 5154.00    1.58059   1.56587  172.388
 5155.00    1.60262   1.58228   -1.000
 5156.00    1.62665   1.60703  165.614
 5157.00    1.64742   1.63144  161.386
 5158.00    1.65664   1.64505  158.085
 5159.00    1.65909   1.64998  156.463
 5160.00    1.65375   1.64907  156.166
 5161.00    1.64817   1.64164  156.560
 5162.00    1.63821   1.62858  157.370
 5163.00    1.62567   1.61356  158.921
 5164.00    1.59531   1.59150  161.224
 5165.00    1.52850   1.54402  166.407
 5166.00    1.43870   1.46038   -1.000
 5167.00    1.36720   1.36913  195.878
 5168.00    1.36305   1.33833   -1.000
 5169.00    1.40867   1.37146   -1.000
 5170.00    1.43894   1.42072   -1.000
 5171.00    1.40924   1.41454  196.031
 5172.00    1.36258   1.36392  204.575
 5173.00    1.37351   1.35161   -1.000
 5174.00    1.45967   1.41152   -1.000
 5175.00    1.55639   1.51042   -1.000
 5176.00    1.61536   1.57696   -1.000
 5177.00    1.63930   1.60168   -1.000
 5178.00    1.64346   1.60994   -1.000
 5179.00    1.63963   1.60943   -1.000
 5180.00    1.62030   1.59505   -1.000
 5181.00    1.56447   1.55130  171.484
 5182.00    1.46700   1.46581  182.186
 5183.00    1.38065   1.38135  201.247
 5184.00    1.37929   1.35126   -1.000
 5185.00    1.46336   1.41482   -1.000
 5186.00    1.55645   1.51286   -1.000
 5187.00    1.59979   1.57304   -1.000
 5188.00    1.61005   1.59315  168.700
 5189.00    1.60787   1.59602  166.338
 5190.00    1.59585   1.59171  165.497
 5191.00    1.56898   1.56945  166.624
 5192.00    1.54517   1.53930  171.017
 5193.00    1.54293   1.52837  176.011
 5194.00    1.56014   1.54359  176.320
 5195.00    1.57849   1.56103  173.627
 5196.00    1.59667   1.57665   -1.000
 5197.00    1.61898   1.59472   -1.000
 5198.00    1.63130   1.61297  165.281
 5199.00    1.64719   1.62828  162.317
 5200.00    1.65583   1.63677  160.614
 5201.00    1.64964   1.63586  160.168
 5202.00    1.63448   1.62109  161.089
 5203.00    1.60772   1.59386  163.600
 5204.00    1.57106   1.55402  167.165
 5205.00    1.54649   1.51614   -1.000
 5206.00    1.54594   1.49715   -1.000
 5207.00    1.54761   1.49668   -1.000
 5208.00    1.54510   1.49897   -1.000
 5209.00    1.55277   1.50328   -1.000
 5210.00    1.58128   1.52916   -1.000
 5211.00    1.62483   1.57834   -1.000
 5212.00    1.66663   1.62214   -1.000
 5213.00    1.68583   1.64979   -1.000
 5214.00    1.67111   1.64687   -1.000
 5215.00    1.64200   1.62465  157.435
 5216.00    1.62562   1.60363   -1.000
 5217.00    1.62954   1.60470   -1.000
 5218.00    1.65395   1.63024   -1.000
 5219.00    1.68379   1.65863   -1.000
 5220.00    1.70099   1.67845   -1.000
 5221.00    1.70536   1.68654  155.490
 5222.00    1.69799   1.68484  154.730
 5223.00    1.67358   1.66818  156.024
 5224.00    1.62987   1.63407  160.084
 5225.00    1.57632   1.58089  166.278
 5226.00    1.53467   1.52679  173.862
 5227.00    1.53621   1.50566   -1.000
 5228.00    1.58534   1.53973   -1.000
 5229.00    1.64091   1.60039   -1.000
 5230.00    1.67244   1.64693   -1.000
 5231.00    1.67887   1.65228   -1.000
 5232.00    1.66312   1.63118   -1.000
 5233.00    1.64356   1.60378   -1.000
 5234.00    1.64079   1.59743   -1.000
 5235.00    1.65751   1.62158   -1.000
 5236.00    1.68547   1.65575   -1.000
 5237.00    1.70522   1.68512   -1.000
 5238.00    1.71194   1.69688  153.996
 5239.00    1.71759   1.69626  153.457
 5240.00    1.71995   1.69370   -1.000
 5241.00    1.72047   1.69163   -1.000
 5242.00    1.72240   1.69008   -1.000
 5243.00    1.71798   1.69207   -1.000
 5244.00    1.71820   1.69712  152.767
 5245.00    1.70985   1.69609  152.491
 5246.00    1.68582   1.67781  154.636
 5247.00    1.66050   1.64987  159.076
 5248.00    1.64895   1.63348  163.179
 5249.00    1.64833   1.63083  164.504
 5250.00    1.63959   1.62882  164.774
 5251.00    1.64334   1.62966  165.627
 5252.00    1.65985   1.64057  165.367
 5253.00    1.67059   1.64932   -1.000
 5254.00    1.67542   1.65086   -1.000
 5255.00    1.68295   1.65337   -1.000
 5256.00    1.70231   1.66739   -1.000
 5257.00    1.73330   1.69530   -1.000
 5258.00    1.74998   1.71589   -1.000
 5259.00    1.74303   1.71875   -1.000
 5260.00    1.71077   1.70074  151.755
 5261.00    1.65896   1.66436  155.203
 5262.00    1.60911   1.61864  161.189
 5263.00    1.57381   1.57779  168.685
 5264.00    1.55445   1.54457  175.178
 5265.00    1.54622   1.52922   -1.000
 5266.00    1.55838   1.53144   -1.000
 5267.00    1.57894   1.54347   -1.000
 5268.00    1.56723   1.53662   -1.000
 5269.00    1.53218   1.49626   -1.000
 5270.00    1.52862   1.47028   -1.000
 5271.00    1.57735   1.50066   -1.000
 5272.00    1.63363   1.57402   -1.000
 5273.00    1.65810   1.62489   -1.000
 5274.00    1.65683   1.63361   -1.000
 5275.00    1.66248   1.63507   -1.000
 5276.00    1.68721   1.64715   -1.000
 5277.00    1.71843   1.67649   -1.000
 5278.00    1.74602   1.70827   -1.000
 5279.00    1.75025   1.71923   -1.000
 5280.00    1.73094   1.70461   -1.000
 5281.00    1.69960   1.67602   -1.000
 5282.00    1.67547   1.64932   -1.000
 5283.00    1.66929   1.63179   -1.000
 5284.00    1.68701   1.64080   -1.000
 5285.00    1.72276   1.67439   -1.000
 5286.00    1.75708   1.71903   -1.000
 5287.00    1.77319   1.74455   -1.000
 5288.00    1.77010   1.75007  149.120
 5289.00    1.77344   1.75176  149.443
 5290.00    1.77980   1.75238   -1.000
 5291.00    1.78141   1.75041   -1.000
 5292.00    1.77387   1.74618   -1.000
 5293.00    1.76354   1.74230  149.089
 5294.00    1.75187   1.73732  150.375
 5295.00    1.72770   1.72257  152.221
 5296.00    1.68981   1.69074  155.758
 5297.00    1.65952   1.65447  161.292
 5298.00    1.65761   1.63499   -1.000
 5299.00    1.67947   1.64541   -1.000
 5300.00    1.70050   1.67075   -1.000
 5301.00    1.71095   1.68702   -1.000
 5302.00    1.72304   1.69777   -1.000
 5303.00    1.74345   1.71483   -1.000
 5304.00    1.76812   1.73793   -1.000
 5305.00    1.77762   1.75449   -1.000
 5306.00    1.76959   1.75303  148.760
 5307.00    1.76320   1.74450  149.733
 5308.00    1.76674   1.74180   -1.000
 5309.00    1.78149   1.74946   -1.000
 5310.00    1.79502   1.76170   -1.000
 5311.00    1.79866   1.76487   -1.000
 5312.00    1.79751   1.76094   -1.000
 5313.00    1.78907   1.75514   -1.000
 5314.00    1.78229   1.74562   -1.000
 5315.00    1.76790   1.73226   -1.000
 5316.00    1.74528   1.71796   -1.000
 5317.00    1.74025   1.71134   -1.000
 5318.00    1.75345   1.72043   -1.000
 5319.00    1.76900   1.73339   -1.000
 5320.00    1.77092   1.74038   -1.000
 5321.00    1.76214   1.73770   -1.000
 5322.00    1.74789   1.72438   -1.000
 5323.00    1.73097   1.69985   -1.000
 5324.00    1.71968   1.67694   -1.000
 5325.00    1.70954   1.66516   -1.000
 5326.00    1.68126   1.64428   -1.000
 5327.00    1.62567   1.59418   -1.000
 5328.00    1.58523   1.54545   -1.000
 5329.00    1.60940   1.54463   -1.000
 5330.00    1.67496   1.61119   -1.000
 5331.00    1.72603   1.67939   -1.000
 5332.00    1.74397   1.71037   -1.000
 5333.00    1.75174   1.71981   -1.000
 5334.00    1.76510   1.72816   -1.000
 5335.00    1.76903   1.73632   -1.000
 5336.00    1.76436   1.73869   -1.000
 5337.00    1.76117   1.73292   -1.000
 5338.00    1.74781   1.72113   -1.000
 5339.00    1.72675   1.69838   -1.000
 5340.00    1.70790   1.67121   -1.000
 5341.00    1.71196   1.66105   -1.000
 5342.00    1.73930   1.68441   -1.000
 5343.00    1.76597   1.71448   -1.000
 5344.00    1.77078   1.72841   -1.000
 5345.00    1.76298   1.72513   -1.000
 5346.00    1.75780   1.71450   -1.000
 5347.00    1.74812   1.70486   -1.000
 5348.00    1.73689   1.69820   -1.000
 5349.00    1.73727   1.69322   -1.000
 5350.00    1.75320   1.70275   -1.000
 5351.00    1.77547   1.72589   -1.000
 5352.00    1.78965   1.74730   -1.000
 5353.00    1.79662   1.76108   -1.000
 5354.00    1.80755   1.76751   -1.000
 5355.00    1.82064   1.77779   -1.000
 5356.00    1.83167   1.78883   -1.000
 5357.00    1.83480   1.79355   -1.000
 5358.00    1.83069   1.79396   -1.000
 5359.00    1.82681   1.79170   -1.000
 5360.00    1.81777   1.78418   -1.000
 5361.00    1.79798   1.77208   -1.000
 5362.00    1.77794   1.75823  149.956
 5363.00    1.76419   1.74511  152.270
 5364.00    1.75237   1.73276  153.679
 5365.00    1.74793   1.72432   -1.000
 5366.00    1.75135   1.72277   -1.000
 5367.00    1.75403   1.72646   -1.000
 5368.00    1.74961   1.72227   -1.000
 5369.00    1.72466   1.69699   -1.000
 5370.00    1.69254   1.65816   -1.000
 5371.00    1.68319   1.62849   -1.000
 5372.00    1.71579   1.63814   -1.000
 5373.00    1.76802   1.68744   -1.000
 5374.00    1.80588   1.73792   -1.000
 5375.00    1.82391   1.76861   -1.000
 5376.00    1.82696   1.77324   -1.000
 5377.00    1.82419   1.77213   -1.000
 5378.00    1.82087   1.77472   -1.000
 5379.00    1.81149   1.77604   -1.000
 5380.00    1.79750   1.77056   -1.000
 5381.00    1.78752   1.75819   -1.000
 5382.00    1.78156   1.74609   -1.000
 5383.00    1.78375   1.74082   -1.000
 5384.00    1.79530   1.74432   -1.000
 5385.00    1.80963   1.75695   -1.000
 5386.00    1.81884   1.77212   -1.000
 5387.00    1.81784   1.77827   -1.000
 5388.00    1.81113   1.77179   -1.000
 5389.00    1.79608   1.75727   -1.000
 5390.00    1.78186   1.73961   -1.000
 5391.00    1.77762   1.72787   -1.000
 5392.00    1.77199   1.72115   -1.000
 5393.00    1.76230   1.71765   -1.000
 5394.00    1.75187   1.71427   -1.000
 5395.00    1.73743   1.70444   -1.000
 5396.00    1.72080   1.68097   -1.000
 5397.00    1.71610   1.65817   -1.000
 5398.00    1.73442   1.66683   -1.000
 5399.00    1.76506   1.70044   -1.000
 5400.00    1.78691   1.73272   -1.000
 5401.00    1.79081   1.74667   -1.000
 5402.00    1.77882   1.74420   -1.000
 5403.00    1.74835   1.72144   -1.000
 5404.00    1.70655   1.67861   -1.000
 5405.00    1.68409   1.63689   -1.000
 5406.00    1.69728   1.62970   -1.000
 5407.00    1.72784   1.66059   -1.000
 5408.00    1.74208   1.68898   -1.000
 5409.00    1.73692   1.69472   -1.000
 5410.00    1.73708   1.68715   -1.000
 5411.00    1.76254   1.70062   -1.000
 5412.00    1.79454   1.73348   -1.000
 5413.00    1.80899   1.75322   -1.000
 5414.00    1.80165   1.75636   -1.000
 5415.00    1.79773   1.75512   -1.000
 5416.00    1.80351   1.76243   -1.000
 5417.00    1.81149   1.77693   -1.000
 5418.00    1.81193   1.78283   -1.000
 5419.00    1.80734   1.77943   -1.000
 5420.00    1.80402   1.77596   -1.000
 5421.00    1.80582   1.77235   -1.000
 5422.00    1.80109   1.76710   -1.000
 5423.00    1.78682   1.75794   -1.000
 5424.00    1.77839   1.74671   -1.000
 5425.00    1.78627   1.75182   -1.000
 5426.00    1.80160   1.77280   -1.000
 5427.00    1.80588   1.78600   -1.000
 5428.00    1.78237   1.76733  151.928
 5429.00    1.75200   1.72421   -1.000
 5430.00    1.74753   1.70256   -1.000
 5431.00    1.76399   1.71272   -1.000
 5432.00    1.77136   1.72895   -1.000
 5433.00    1.75736   1.72407   -1.000
 5434.00    1.73713   1.69997   -1.000
 5435.00    1.73970   1.69315   -1.000
 5436.00    1.76777   1.71387   -1.000
 5437.00    1.80334   1.74887   -1.000
 5438.00    1.83600   1.78325   -1.000
 5439.00    1.85298   1.80374   -1.000
 5440.00    1.85909   1.81444   -1.000
 5441.00    1.86232   1.82013   -1.000
 5442.00    1.85802   1.82318   -1.000
 5443.00    1.84243   1.81927   -1.000
 5444.00    1.80843   1.79726  148.852
 5445.00    1.76314   1.75325  152.127
 5446.00    1.72971   1.70158   -1.000
 5447.00    1.73270   1.67997   -1.000
 5448.00    1.77164   1.70104   -1.000
 5449.00    1.81591   1.74535   -1.000
 5450.00    1.84000   1.78087   -1.000
 5451.00    1.84399   1.79096   -1.000
 5452.00    1.83472   1.78583   -1.000
 5453.00    1.81116   1.76711   -1.000
 5454.00    1.77241   1.73291   -1.000
 5455.00    1.74662   1.69483   -1.000
 5456.00    1.76082   1.68802   -1.000
 5457.00    1.80286   1.72231   -1.000
 5458.00    1.83675   1.77430   -1.000
 5459.00    1.84566   1.80051   -1.000
 5460.00    1.83951   1.80034   -1.000
 5461.00    1.82287   1.78555   -1.000
 5462.00    1.80497   1.76522   -1.000
 5463.00    1.79850   1.75158   -1.000
 5464.00    1.80981   1.75449   -1.000
 5465.00    1.82523   1.76990   -1.000
 5466.00    1.83545   1.78367   -1.000
 5467.00    1.84246   1.79215   -1.000
 5468.00    1.84655   1.79606   -1.000
 5469.00    1.84668   1.79680   -1.000
 5470.00    1.84383   1.79427   -1.000
 5471.00    1.83993   1.78656   -1.000
 5472.00    1.83365   1.77895   -1.000
 5473.00    1.82303   1.77303   -1.000
 5474.00    1.80364   1.76128   -1.000
 5475.00    1.77487   1.73793   -1.000
 5476.00    1.75263   1.71135   -1.000
 5477.00    1.75510   1.70046   -1.000
 5478.00    1.78701   1.72648   -1.000
 5479.00    1.81706   1.76158   -1.000
 5480.00    1.81711   1.77342   -1.000
 5481.00    1.80693   1.76440   -1.000
 5482.00    1.80651   1.75494   -1.000
 5483.00    1.81930   1.76484   -1.000
 5484.00    1.83832   1.78834   -1.000
 5485.00    1.84831   1.80485   -1.000
 5486.00    1.84339   1.80606   -1.000
 5487.00    1.82549   1.79337   -1.000
 5488.00    1.81221   1.78179   -1.000
 5489.00    1.81536   1.77748   -1.000
 5490.00    1.82433   1.78467   -1.000
 5491.00    1.83418   1.79375   -1.000
 5492.00    1.84239   1.79953   -1.000
 5493.00    1.84658   1.80021   -1.000
 5494.00    1.84751   1.79801   -1.000
 5495.00    1.84038   1.79340   -1.000
 5496.00    1.82947   1.78309   -1.000
 5497.00    1.82263   1.76972   -1.000
 5498.00    1.82909   1.76960   -1.000
 5499.00    1.84395   1.78189   -1.000
 5500.00    1.84106   1.78367   -1.000
 5501.00    1.82537   1.77072   -1.000
 5502.00    1.82149   1.75751   -1.000
 5503.00    1.83301   1.76145   -1.000
 5504.00    1.83905   1.77242   -1.000
 5505.00    1.82935   1.76573   -1.000
 5506.00    1.81080   1.74926   -1.000
 5507.00    1.80913   1.74455   -1.000
 5508.00    1.82551   1.75982   -1.000
 5509.00    1.83787   1.78547   -1.000
 5510.00    1.83559   1.79138   -1.000
 5511.00    1.82233   1.77756   -1.000
 5512.00    1.80263   1.75924   -1.000
 5513.00    1.79283   1.74600   -1.000
 5514.00    1.80434   1.74614   -1.000
 5515.00    1.83033   1.75613   -1.000
 5516.00    1.85527   1.77255   -1.000
 5517.00    1.87549   1.79157   -1.000
 5518.00    1.89225   1.81082   -1.000
 5519.00    1.89817   1.82327   -1.000
 5520.00    1.89393   1.82652   -1.000
 5521.00    1.88524   1.82274   -1.000
 5522.00    1.87591   1.82272   -1.000
 5523.00    1.87355   1.82513   -1.000
 5524.00    1.86891   1.82381   -1.000
 5525.00    1.85103   1.81257   -1.000
 5526.00    1.82322   1.78395   -1.000
 5527.00    1.79269   1.75028   -1.000
 5528.00    1.78266   1.72768   -1.000
 5529.00    1.80419   1.73836   -1.000
 5530.00    1.83766   1.77376   -1.000
 5531.00    1.85901   1.80596   -1.000
 5532.00    1.86343   1.81485   -1.000
 5533.00    1.85609   1.80612   -1.000
 5534.00    1.84514   1.79574   -1.000
 5535.00    1.84104   1.79140   -1.000
 5536.00    1.84848   1.79768   -1.000
 5537.00    1.86237   1.80691   -1.000
 5538.00    1.87639   1.81565   -1.000
 5539.00    1.88367   1.82347   -1.000
 5540.00    1.88617   1.83147   -1.000
 5541.00    1.88675   1.83626   -1.000
 5542.00    1.88000   1.83349   -1.000
 5543.00    1.86910   1.82411   -1.000
 5544.00    1.86165   1.81814   -1.000
 5545.00    1.86223   1.81868   -1.000
 5546.00    1.87053   1.82193   -1.000
 5547.00    1.88177   1.82645   -1.000
 5548.00    1.89493   1.83705   -1.000
 5549.00    1.90544   1.84950   -1.000
 5550.00    1.91053   1.85426   -1.000
 5551.00    1.90963   1.85217   -1.000
 5552.00    1.89848   1.84537   -1.000
 5553.00    1.88395   1.83839   -1.000
 5554.00    1.87847   1.83236   -1.000
 5555.00    1.88199   1.83120   -1.000
 5556.00    1.89057   1.83200   -1.000
 5557.00    1.89677   1.83421   -1.000
 5558.00    1.89860   1.83500   -1.000
 5559.00    1.90234   1.83674   -1.000
 5560.00    1.90215   1.83931   -1.000
 5561.00    1.89312   1.83651   -1.000
 5562.00    1.87840   1.82789   -1.000
 5563.00    1.86730   1.82068   -1.000
 5564.00    1.86333   1.81825   -1.000
 5565.00    1.86114   1.81767   -1.000
 5566.00    1.86130   1.81339   -1.000
 5567.00    1.86381   1.80866   -1.000
 5568.00    1.86251   1.80572   -1.000
 5569.00    1.85683   1.80294   -1.000
 5570.00    1.85629   1.80441   -1.000
 5571.00    1.85685   1.80365   -1.000
 5572.00    1.85146   1.79684   -1.000
 5573.00    1.85224   1.79603   -1.000
 5574.00    1.86010   1.80248   -1.000
 5575.00    1.86131   1.81528   -1.000
 5576.00    1.83735   1.82454  155.238
 5577.00    1.79076   1.82837   -1.000
 5578.00    1.76706   1.83456   -1.000
 5579.00    1.79381   1.84223   -1.000
 5580.00    1.85260   1.84446  156.226
 5581.00    1.89573   1.83995   -1.000
 5582.00    1.89349   1.83505   -1.000
 5583.00    1.88507   1.83392   -1.000
 5584.00    1.87934   1.83222   -1.000
 5585.00    1.85663   1.81407   -1.000
 5586.00    1.82173   1.77993   -1.000
 5587.00    1.78821   1.74584   -1.000
 5588.00    1.77607   1.72907   -1.000
 5589.00    1.78953   1.73589   -1.000
 5590.00    1.81606   1.75578   -1.000
 5591.00    1.84019   1.78138   -1.000
 5592.00    1.84711   1.79481   -1.000
 5593.00    1.84296   1.79724   -1.000
 5594.00    1.84185   1.79711   -1.000
 5595.00    1.85473   1.80794   -1.000
 5596.00    1.86765   1.82502   -1.000
 5597.00    1.86477   1.82311   -1.000
 5598.00    1.84972   1.80578   -1.000
 5599.00    1.84192   1.79135   -1.000
 5600.00    1.83739   1.78235   -1.000
 5601.00    1.82630   1.77207   -1.000
 5602.00    1.82244   1.76826   -1.000
 5603.00    1.83960   1.78239   -1.000
 5604.00    1.87377   1.81324   -1.000
 5605.00    1.90551   1.84659   -1.000
 5606.00    1.92759   1.86722   -1.000
 5607.00    1.93980   1.87595   -1.000
 5608.00    1.94012   1.87714   -1.000
 5609.00    1.93638   1.87576   -1.000
 5610.00    1.93392   1.87772   -1.000
 5611.00    1.93338   1.88202   -1.000
 5612.00    1.92770   1.87946   -1.000
 5613.00    1.90291   1.86067   -1.000
 5614.00    1.86371   1.82163   -1.000
 5615.00    1.83439   1.78023   -1.000
 5616.00    1.83747   1.77397   -1.000
 5617.00    1.86885   1.79768   -1.000
 5618.00    1.89742   1.82894   -1.000
 5619.00    1.90912   1.84163   -1.000
 5620.00    1.91452   1.84491   -1.000
 5621.00    1.91621   1.85033   -1.000
 5622.00    1.90575   1.85285   -1.000
 5623.00    1.88591   1.84138   -1.000
 5624.00    1.87271   1.82315   -1.000
 5625.00    1.87344   1.81190   -1.000
 5626.00    1.89153   1.82064   -1.000
 5627.00    1.91296   1.83847   -1.000
 5628.00    1.92996   1.85153   -1.000
 5629.00    1.94275   1.86318   -1.000
 5630.00    1.95059   1.87086   -1.000
 5631.00    1.95043   1.87288   -1.000
 5632.00    1.94620   1.87075   -1.000
 5633.00    1.93663   1.86641   -1.000
 5634.00    1.92977   1.86293   -1.000
 5635.00    1.92441   1.85655   -1.000
 5636.00    1.91737   1.84665   -1.000
 5637.00    1.90781   1.83914   -1.000
 5638.00    1.90354   1.83816   -1.000
 5639.00    1.90244   1.84022   -1.000
 5640.00    1.90075   1.83938   -1.000
 5641.00    1.90265   1.83449   -1.000
 5642.00    1.90773   1.83249   -1.000
 5643.00    1.91022   1.83897   -1.000
 5644.00    1.91393   1.84553   -1.000
 5645.00    1.91963   1.84897   -1.000
 5646.00    1.92617   1.85212   -1.000
 5647.00    1.93240   1.85341   -1.000
 5648.00    1.93473   1.85356   -1.000
 5649.00    1.93115   1.85303   -1.000
 5650.00    1.92970   1.85383   -1.000
 5651.00    1.93318   1.85997   -1.000
 5652.00    1.93544   1.86704   -1.000
 5653.00    1.93446   1.86746   -1.000
 5654.00    1.92214   1.86171   -1.000
 5655.00    1.90331   1.85374   -1.000
 5656.00    1.88043   1.83725   -1.000
 5657.00    1.84878   1.80808   -1.000
 5658.00    1.82728   1.78379   -1.000
 5659.00    1.83680   1.78235   -1.000
 5660.00    1.86431   1.80363   -1.000
 5661.00    1.87982   1.82281   -1.000
 5662.00    1.88216   1.82311   -1.000
 5663.00    1.88935   1.83029   -1.000
 5664.00    1.90716   1.85149   -1.000
 5665.00    1.92285   1.86529   -1.000
 5666.00    1.91921   1.86228   -1.000
 5667.00    1.90679   1.84755   -1.000
 5668.00    1.90288   1.83784   -1.000
 5669.00    1.90461   1.84012   -1.000
 5670.00    1.91316   1.84697   -1.000
 5671.00    1.92919   1.85585   -1.000
 5672.00    1.94225   1.86688   -1.000
 5673.00    1.94635   1.87729   -1.000
 5674.00    1.94658   1.88152   -1.000
 5675.00    1.94410   1.88176   -1.000
 5676.00    1.94568   1.88190   -1.000
 5677.00    1.95019   1.88431   -1.000
 5678.00    1.94868   1.88458   -1.000
 5679.00    1.94203   1.87975   -1.000
 5680.00    1.93771   1.87188   -1.000
 5681.00    1.92936   1.86070   -1.000
 5682.00    1.91756   1.84620   -1.000
 5683.00    1.90853   1.83479   -1.000
 5684.00    1.90274   1.83770   -1.000
 5685.00    1.90753   1.84727   -1.000
 5686.00    1.91063   1.85103   -1.000
 5687.00    1.90079   1.84681   -1.000
 5688.00    1.89930   1.84154   -1.000
 5689.00    1.90918   1.84289   -1.000
 5690.00    1.92536   1.85319   -1.000
 5691.00    1.94122   1.86854   -1.000
 5692.00    1.95036   1.88185   -1.000
 5693.00    1.95203   1.88770   -1.000
 5694.00    1.94825   1.88727   -1.000
 5695.00    1.94838   1.88587   -1.000
 5696.00    1.94876   1.88365   -1.000
 5697.00    1.94280   1.87895   -1.000
 5698.00    1.93281   1.87050   -1.000
 5699.00    1.92077   1.86009   -1.000
 5700.00    1.90671   1.85032   -1.000
 5701.00    1.89647   1.84202   -1.000
 5702.00    1.89714   1.84100   -1.000
 5703.00    1.90683   1.85146   -1.000
 5704.00    1.90996   1.86120   -1.000
 5705.00    1.89813   1.86209   -1.000
 5706.00    1.87973   1.85222   -1.000
 5707.00    1.85824   1.83435   -1.000
 5708.00    1.83802   1.81750   -1.000
 5709.00    1.82872   1.80317   -1.000
 5710.00    1.82956   1.79735   -1.000
 5711.00    1.84547   1.80435   -1.000
 5712.00    1.87930   1.82280   -1.000
 5713.00    1.91043   1.84693   -1.000
 5714.00    1.92956   1.86718   -1.000
 5715.00    1.94221   1.87593   -1.000
 5716.00    1.94934   1.88209   -1.000
 5717.00    1.95174   1.88758   -1.000
 5718.00    1.95619   1.89205   -1.000
 5719.00    1.96344   1.89755   -1.000
 5720.00    1.96975   1.90398   -1.000
 5721.00    1.97248   1.90924   -1.000
 5722.00    1.97476   1.91213   -1.000
 5723.00    1.97710   1.91454   -1.000
 5724.00    1.97687   1.91478   -1.000
 5725.00    1.96882   1.90788   -1.000
 5726.00    1.95772   1.89321   -1.000
 5727.00    1.95277   1.88255   -1.000
 5728.00    1.95633   1.88405   -1.000
 5729.00    1.95545   1.89151   -1.000
 5730.00    1.95015   1.89414   -1.000
 5731.00    1.95107   1.89207   -1.000
 5732.00    1.96039   1.89131   -1.000
 5733.00    1.97202   1.89827   -1.000
 5734.00    1.97820   1.91142   -1.000
 5735.00    1.97720   1.91551   -1.000
 5736.00    1.97160   1.91335   -1.000
 5737.00    1.97154   1.91201   -1.000
 5738.00    1.97588   1.90981   -1.000
 5739.00    1.97350   1.91061   -1.000
 5740.00    1.96807   1.91151   -1.000
 5741.00    1.96757   1.91091   -1.000
 5742.00    1.96344   1.90753   -1.000
 5743.00    1.96344   1.90732   -1.000
 5744.00    1.97260   1.91391   -1.000
 5745.00    1.97408   1.92187   -1.000
 5746.00    1.96670   1.92230   -1.000
 5747.00    1.95805   1.91301   -1.000
 5748.00    1.95255   1.90564   -1.000
 5749.00    1.95734   1.91058   -1.000
 5750.00    1.96489   1.91690   -1.000
 5751.00    1.95933   1.91549   -1.000
 5752.00    1.94296   1.90080   -1.000
 5753.00    1.92824   1.88251   -1.000
 5754.00    1.92710   1.87923   -1.000
 5755.00    1.94365   1.89347   -1.000
 5756.00    1.96879   1.91585   -1.000
 5757.00    1.98396   1.93069   -1.000
 5758.00    1.98370   1.93705   -1.000
 5759.00    1.98034   1.93100   -1.000
 5760.00    1.97086   1.91544   -1.000
 5761.00    1.95360   1.89726   -1.000
 5762.00    1.94445   1.88616   -1.000
 5763.00    1.95121   1.89134   -1.000
 5764.00    1.96751   1.91370   -1.000
 5765.00    1.98038   1.93528   -1.000
 5766.00    1.98507   1.94156   -1.000
 5767.00    1.98797   1.94251   -1.000
 5768.00    1.99188   1.94071   -1.000
 5769.00    1.98921   1.93891   -1.000
 5770.00    1.98206   1.93577   -1.000
 5771.00    1.97689   1.93236   -1.000
 5772.00    1.97318   1.92850   -1.000
 5773.00    1.96772   1.92374   -1.000
 5774.00    1.96142   1.91869   -1.000
 5775.00    1.96099   1.91473   -1.000
 5776.00    1.96677   1.91729   -1.000
 5777.00    1.96453   1.92045   -1.000
 5778.00    1.94933   1.91607   -1.000
 5779.00    1.91729   1.90404  152.698
 5780.00    1.87138   1.88569  154.290
 5781.00    1.83809   1.86893   -1.000
 5782.00    1.83589   1.86013   -1.000
 5783.00    1.85811   1.86275  160.627
 5784.00    1.88641   1.86644   -1.000
 5785.00    1.91251   1.86922   -1.000
 5786.00    1.93652   1.87719   -1.000
 5787.00    1.95383   1.89044   -1.000
 5788.00    1.96273   1.90215   -1.000
 5789.00    1.96415   1.91017   -1.000
 5790.00    1.96070   1.90965   -1.000
 5791.00    1.95886   1.90645   -1.000
 5792.00    1.96466   1.91073   -1.000
 5793.00    1.97339   1.92424   -1.000
 5794.00    1.97880   1.93889   -1.000
 5795.00    1.97589   1.94615   -1.000
 5796.00    1.96228   1.94208   -1.000
 5797.00    1.94573   1.92975  151.438
 5798.00    1.94498   1.92390   -1.000
 5799.00    1.96061   1.93281   -1.000
 5800.00    1.98156   1.94947   -1.000
 5801.00    1.99826   1.96041   -1.000
 5802.00    2.00245   1.96133   -1.000
 5803.00    1.99826   1.95352   -1.000
 5804.00    1.99097   1.94216   -1.000
 5805.00    1.98649   1.93724   -1.000
 5806.00    1.98997   1.93825   -1.000
 5807.00    1.99241   1.94441   -1.000
 5808.00    1.99397   1.94938   -1.000
 5809.00    2.00148   1.95110   -1.000
 5810.00    2.00550   1.95375   -1.000
 5811.00    2.00510   1.95701   -1.000
 5812.00    2.00794   1.95780   -1.000
 5813.00    2.01121   1.95482   -1.000
 5814.00    2.00770   1.94682   -1.000
 5815.00    2.00197   1.93655   -1.000
 5816.00    2.00247   1.93117   -1.000
 5817.00    2.01070   1.93868   -1.000
 5818.00    2.02435   1.95224   -1.000
 5819.00    2.03217   1.96237   -1.000
 5820.00    2.03061   1.96499   -1.000
 5821.00    2.03118   1.96441   -1.000
 5822.00    2.03282   1.96404   -1.000
 5823.00    2.03234   1.96258   -1.000
 5824.00    2.03233   1.96211   -1.000
 5825.00    2.03553   1.96187   -1.000
 5826.00    2.03402   1.96437   -1.000
 5827.00    2.03091   1.96749   -1.000
 5828.00    2.03577   1.97102   -1.000
 5829.00    2.03973   1.97514   -1.000
 5830.00    2.04075   1.97483   -1.000
 5831.00    2.04068   1.97234   -1.000
 5832.00    2.04048   1.96967   -1.000
 5833.00    2.03689   1.96545   -1.000
 5834.00    2.03105   1.96117   -1.000
 5835.00    2.02981   1.95881   -1.000
 5836.00    2.03347   1.96182   -1.000
 5837.00    2.03649   1.96423   -1.000
 5838.00    2.03422   1.96576   -1.000
 5839.00    2.03498   1.96957   -1.000
 5840.00    2.04199   1.97470   -1.000
 5841.00    2.04334   1.97905   -1.000
 5842.00    2.03815   1.98011   -1.000
 5843.00    2.03396   1.97514   -1.000
 5844.00    2.03063   1.96779   -1.000
 5845.00    2.02451   1.96145   -1.000
 5846.00    2.02001   1.95599   -1.000
 5847.00    2.01750   1.95144   -1.000
 5848.00    2.01930   1.95060   -1.000
 5849.00    2.02241   1.95186   -1.000
 5850.00    2.01596   1.95131   -1.000
 5851.00    2.00191   1.94337   -1.000
 5852.00    1.99183   1.92841   -1.000
 5853.00    1.98959   1.91653   -1.000
 5854.00    1.98723   1.91586   -1.000
 5855.00    1.98433   1.91685   -1.000
 5856.00    1.97704   1.90474   -1.000
 5857.00    1.96372   1.88552   -1.000
 5858.00    1.96557   1.87963   -1.000
 5859.00    1.98664   1.89410   -1.000
 5860.00    2.00497   1.91714   -1.000
 5861.00    2.01133   1.92947   -1.000
 5862.00    2.01446   1.93436   -1.000
 5863.00    2.01907   1.93596   -1.000
 5864.00    2.01914   1.93651   -1.000
 5865.00    2.01323   1.93303   -1.000
 5866.00    2.00585   1.92496   -1.000
 5867.00    2.01045   1.92229   -1.000
 5868.00    2.02643   1.93316   -1.000
 5869.00    2.03650   1.94753   -1.000
 5870.00    2.03924   1.95686   -1.000
 5871.00    2.03879   1.95793   -1.000
 5872.00    2.03957   1.95303   -1.000
 5873.00    2.04131   1.94849   -1.000
 5874.00    2.04194   1.94584   -1.000
 5875.00    2.03887   1.94371   -1.000
 5876.00    2.03565   1.94149   -1.000
 5877.00    2.03370   1.93758   -1.000
 5878.00    2.02575   1.92924   -1.000
 5879.00    2.02024   1.91894   -1.000
 5880.00    2.02025   1.91314   -1.000
 5881.00    2.01733   1.91252   -1.000
 5882.00    2.01142   1.91416   -1.000
 5883.00    2.00900   1.91055   -1.000
 5884.00    2.00779   1.90305   -1.000
 5885.00    2.00146   1.89603   -1.000
 5886.00    1.97495   1.88294   -1.000
 5887.00    1.90773   1.84377   -1.000
 5888.00    1.78170   1.76129   -1.000
 5889.00    1.60818   1.66206   -1.000
 5890.00    1.46321   1.62008   -1.000
 5891.00    1.44694   1.65524   -1.000
 5892.00    1.56727   1.72927   -1.000
 5893.00    1.70779   1.76528   -1.000
 5894.00    1.74095   1.74611  172.914
 5895.00    1.65977   1.69685   -1.000
 5896.00    1.56527   1.67433   -1.000
 5897.00    1.56135   1.71897   -1.000
 5898.00    1.67340   1.78140   -1.000
 5899.00    1.82435   1.82821  169.170
 5900.00    1.92876   1.85935   -1.000
 5901.00    1.97493   1.88250   -1.000
 5902.00    1.99020   1.89748   -1.000
 5903.00    1.99701   1.90688   -1.000
 5904.00    2.00800   1.91108   -1.000
 5905.00    2.01612   1.91234   -1.000
 5906.00    2.01638   1.91427   -1.000
 5907.00    2.02085   1.91771   -1.000
 5908.00    2.02335   1.92261   -1.000
 5909.00    2.01999   1.92718   -1.000
 5910.00    2.01426   1.93105   -1.000
 5911.00    2.00862   1.93120   -1.000
 5912.00    2.00363   1.92494   -1.000
 5913.00    1.99138   1.91132   -1.000
 5914.00    1.98097   1.89559   -1.000
 5915.00    1.97766   1.88804   -1.000
 5916.00    1.98197   1.89253   -1.000
 5917.00    1.99413   1.90147   -1.000
 5918.00    2.00395   1.91213   -1.000
 5919.00    2.00734   1.91949   -1.000
 5920.00    2.00291   1.92310   -1.000
 5921.00    1.99858   1.92370   -1.000
 5922.00    2.00353   1.92327   -1.000
 5923.00    2.00800   1.92317   -1.000
 5924.00    2.00910   1.92899   -1.000
 5925.00    2.01037   1.93803   -1.000
 5926.00    2.01135   1.94320   -1.000
 5927.00    2.01202   1.94256   -1.000
 5928.00    2.00941   1.93382   -1.000
 5929.00    2.00668   1.92361   -1.000
 5930.00    2.00733   1.92100   -1.000
 5931.00    2.01212   1.92965   -1.000
 5932.00    2.01584   1.93738   -1.000
 5933.00    2.01141   1.93779   -1.000
 5934.00    2.00885   1.93103   -1.000
 5935.00    2.01175   1.92630   -1.000
 5936.00    2.01520   1.93183   -1.000
 5937.00    2.02358   1.94099   -1.000
 5938.00    2.02819   1.94419   -1.000
 5939.00    2.02337   1.93993   -1.000
 5940.00    2.01435   1.92999   -1.000
 5941.00    2.00595   1.92160   -1.000
 5942.00    2.00170   1.91840   -1.000
 5943.00    2.00156   1.92374   -1.000
 5944.00    2.00545   1.93449   -1.000
 5945.00    2.00850   1.94193   -1.000
 5946.00    2.00719   1.94268   -1.000
 5947.00    1.99703   1.93685   -1.000
 5948.00    1.98667   1.92824   -1.000
 5949.00    1.98858   1.92830   -1.000
 5950.00    1.99867   1.93619   -1.000
 5951.00    2.00036   1.93815   -1.000
 5952.00    1.99760   1.93600   -1.000
 5953.00    2.00183   1.93306   -1.000
 5954.00    2.00495   1.93326   -1.000
 5955.00    2.00787   1.93286   -1.000
 5956.00    2.00720   1.92798   -1.000
 5957.00    2.00523   1.92448   -1.000
 5958.00    2.00932   1.93015   -1.000
 5959.00    2.01651   1.94254   -1.000
 5960.00    2.02718   1.95414   -1.000
 5961.00    2.03745   1.96213   -1.000
 5962.00    2.04010   1.96396   -1.000
 5963.00    2.03416   1.96122   -1.000
 5964.00    2.03073   1.95530   -1.000
 5965.00    2.03292   1.94834   -1.000
 5966.00    2.03236   1.94516   -1.000
 5967.00    2.03011   1.94986   -1.000
 5968.00    2.02995   1.95629   -1.000
 5969.00    2.03122   1.96116   -1.000
 5970.00    2.03165   1.96540   -1.000
 5971.00    2.03312   1.96819   -1.000
 5972.00    2.03673   1.96736   -1.000
 5973.00    2.03483   1.96446   -1.000
 5974.00    2.02144   1.96068   -1.000
 5975.00    2.00751   1.95119   -1.000
 5976.00    2.00116   1.94049   -1.000
 5977.00    1.99794   1.93659   -1.000
 5978.00    1.99984   1.93871   -1.000
 5979.00    2.01093   1.94835   -1.000
 5980.00    2.02570   1.95774   -1.000
 5981.00    2.02777   1.96134   -1.000
 5982.00    2.01336   1.95307   -1.000
 5983.00    1.99812   1.93839   -1.000
 5984.00    1.99250   1.92785   -1.000
 5985.00    1.99774   1.93059   -1.000
 5986.00    2.00782   1.94249   -1.000
 5987.00    2.01906   1.95144   -1.000
 5988.00    2.02674   1.95836   -1.000
 5989.00    2.02526   1.96264   -1.000
 5990.00    2.02106   1.96158   -1.000
 5991.00    2.01900   1.95991   -1.000
 5992.00    2.02102   1.96538   -1.000
 5993.00    2.02865   1.97744   -1.000
 5994.00    2.03503   1.98669   -1.000
 5995.00    2.03311   1.98502   -1.000
 5996.00    2.02895   1.97461   -1.000
 5997.00    2.02292   1.96488   -1.000
 5998.00    2.01900   1.96170   -1.000
 5999.00    2.02401   1.96637   -1.000
 6000.00    2.02762   1.96943   -1.000
 6001.00    2.02541   1.96816   -1.000
 6002.00    2.01928   1.96391   -1.000
 6003.00    2.01258   1.95996   -1.000
 6004.00    2.01104   1.96254   -1.000
 6005.00    2.00766   1.96162   -1.000
 6006.00    1.99772   1.95086   -1.000
 6007.00    1.99012   1.93816   -1.000
 6008.00    1.98907   1.93437   -1.000
 6009.00    1.99690   1.94752   -1.000
 6010.00    2.00686   1.96547   -1.000
 6011.00    2.00801   1.96932   -1.000
 6012.00    2.00126   1.96397   -1.000
 6013.00    2.00082   1.95856   -1.000
 6014.00    2.00724   1.96023   -1.000
 6015.00    2.01270   1.96420   -1.000
 6016.00    2.01549   1.96137   -1.000
 6017.00    2.01524   1.95890   -1.000
 6018.00    2.01257   1.95870   -1.000
 6019.00    2.00600   1.95418   -1.000
 6020.00    1.99857   1.94884   -1.000
 6021.00    1.99650   1.94885   -1.000
 6022.00    1.99845   1.95105   -1.000
 6023.00    2.00356   1.95513   -1.000
 6024.00    2.01056   1.96268   -1.000
 6025.00    2.01448   1.97211   -1.000
 6026.00    2.02055   1.97930   -1.000
 6027.00    2.02549   1.98350   -1.000
 6028.00    2.02916   1.98837   -1.000
 6029.00    2.03483   1.99282   -1.000
 6030.00    2.04043   1.99436   -1.000
 6031.00    2.04572   1.99638   -1.000
 6032.00    2.04927   1.99868   -1.000
 6033.00    2.05260   2.00272   -1.000
 6034.00    2.05429   2.00979   -1.000
 6035.00    2.05290   2.01493   -1.000
 6036.00    2.05008   2.01424   -1.000
 6037.00    2.04517   2.00797   -1.000
 6038.00    2.03799   1.99926   -1.000
 6039.00    2.03478   1.99075   -1.000
 6040.00    2.03724   1.98616   -1.000
 6041.00    2.04033   1.98971   -1.000
 6042.00    2.04356   1.99335   -1.000
 6043.00    2.04736   1.99609   -1.000
 6044.00    2.05069   2.00565   -1.000
 6045.00    2.05257   2.01375   -1.000
 6046.00    2.05491   2.01768   -1.000
 6047.00    2.05582   2.01854   -1.000
 6048.00    2.05072   2.01914   -1.000
 6049.00    2.04969   2.01802   -1.000
 6050.00    2.05732   2.01661   -1.000
 6051.00    2.05957   2.01271   -1.000
 6052.00    2.05413   2.00690   -1.000
 6053.00    2.05029   2.00320   -1.000
 6054.00    2.04796   1.99836   -1.000
 6055.00    2.04335   1.99248   -1.000
 6056.00    2.04207   1.98876   -1.000
 6057.00    2.04728   1.99000   -1.000
 6058.00    2.05095   1.99265   -1.000
 6059.00    2.05144   1.99755   -1.000
 6060.00    2.04913   2.00239   -1.000
 6061.00    2.04190   2.00147   -1.000
 6062.00    2.03328   1.99300   -1.000
 6063.00    2.02499   1.97577   -1.000
 6064.00    2.02362   1.95887   -1.000
 6065.00    2.01553   1.95259   -1.000
 6066.00    2.00617   1.96426   -1.000
 6067.00    2.08203   1.98762   -1.000
 6068.00    1.89590   2.00701   -1.000
 6069.00    1.02055   2.01501   -1.000
 6070.00    0.74920   2.01947   -1.000
 6071.00    1.59476   2.02232   -1.000
 6072.00    2.05616   2.02440   -1.000
 6073.00    2.05268   2.02567   -1.000
 6074.00    2.07477   2.02410   -1.000
 6075.00    2.06887   2.01949   -1.000
 6076.00    2.04942   2.01138   -1.000
 6077.00    2.04220   2.00260   -1.000
 6078.00    2.03000   1.99608   -1.000
 6079.00    2.02366   1.99349   -1.000
 6080.00    2.02578   1.99175   -1.000
 6081.00    2.02510   1.98797   -1.000
 6082.00    2.02025   1.98357   -1.000
 6083.00    2.02132   1.98426   -1.000
 6084.00    2.02340   1.98719   -1.000
 6085.00    2.02240   1.98994   -1.000
 6086.00    2.02336   1.99430   -1.000
 6087.00    2.02548   1.99987   -1.000
 6088.00    2.02751   2.00216   -1.000
 6089.00    2.02131   1.99725   -1.000
 6090.00    2.01500   1.98825   -1.000
 6091.00    2.01661   1.98342   -1.000
 6092.00    2.02188   1.98602   -1.000
 6093.00    2.02940   1.99382   -1.000
 6094.00    2.03798   2.00341   -1.000
 6095.00    2.04019   2.01019   -1.000
 6096.00    2.03896   2.01273   -1.000
 6097.00    2.04095   2.01533   -1.000
 6098.00    2.04303   2.01889   -1.000
 6099.00    2.03911   2.01715   -1.000
 6100.00    2.01738   2.00329  155.693
 6101.00    1.98475   1.97533  156.682
 6102.00    1.96463   1.94498   -1.000
 6103.00    1.97176   1.94078   -1.000
 6104.00    1.99764   1.96043   -1.000
 6105.00    2.02132   1.98597   -1.000
 6106.00    2.03043   1.99986   -1.000
 6107.00    2.02650   2.00675   -1.000
 6108.00    2.02549   2.01313  157.088
 6109.00    2.03003   2.01870  157.641
 6110.00    2.03293   2.01854  157.764
 6111.00    2.03165   2.01524  157.524
 6112.00    2.03253   2.01512   -1.000
 6113.00    2.03711   2.01999   -1.000
 6114.00    2.03403   2.02388  156.208
 6115.00    2.02641   2.02274  155.550
 6116.00    2.02511   2.01973  155.731
 6117.00    2.02233   2.01966  156.627
 6118.00    2.01165   2.01139  157.257
 6119.00    1.99992   1.98589  157.698
 6120.00    1.98158   1.96023   -1.000
 6121.00    1.96320   1.93567   -1.000
 6122.00    1.95930   1.92606   -1.000
 6123.00    1.97550   1.94815   -1.000
 6124.00    1.99708   1.97933   -1.000
 6125.00    2.00477   1.99592  160.181
 6126.00    2.00625   2.00069  159.233
 6127.00    2.00632   1.99858  159.829
 6128.00    2.00590   1.99711  160.221
 6129.00    2.01321   2.00495  159.851
 6130.00    2.02221   2.01885  159.003
 6131.00    2.02595   2.02989  157.527
 6132.00    2.02296   2.03336  156.639
 6133.00    2.00918   2.02575  156.723
 6134.00    1.98180   1.99970  157.673
 6135.00    1.94418   1.95411  160.325
 6136.00    1.90957   1.90775  164.690
 6137.00    1.90257   1.89847  169.265
 6138.00    1.92785   1.92687  171.508
 6139.00    1.95965   1.96387  169.230
 6140.00    1.97262   1.97625  164.403
 6141.00    1.96855   1.97120  161.223
 6142.00    1.97256   1.97798  160.706
 6143.00    1.98867   1.99773  161.100
 6144.00    2.00827   2.01568  160.359
 6145.00    2.02134   2.02195  158.448
 6146.00    2.01889   2.01867  157.402
 6147.00    2.01205   2.01105  157.783
 6148.00    2.00469   2.00006  158.709
 6149.00    1.99544   1.99204  159.805
 6150.00    1.99457   1.99102  160.856
 6151.00    2.00219   1.99736  161.298
 6152.00    2.00705   2.00495  160.932
 6153.00    2.00631   2.00833  160.029
 6154.00    2.00177   2.00262  159.350
 6155.00    1.99875   1.99490  160.027
 6156.00    1.99977   1.99131  161.217
 6157.00    1.99788   1.98898  161.622
 6158.00    1.98726   1.98355  161.980
 6159.00    1.96464   1.96559  163.243
 6160.00    1.92616   1.92593  165.759
 6161.00    1.89014   1.87701  169.976
 6162.00    1.87638   1.85000   -1.000
 6163.00    1.88837   1.86209   -1.000
 6164.00    1.91678   1.89496   -1.000
 6165.00    1.94105   1.92464   -1.000
 6166.00    1.94644   1.93890  169.769
 6167.00    1.93766   1.94069  168.305
 6168.00    1.92148   1.92794  168.290
 6169.00    1.90855   1.91297  169.700
 6170.00    1.91671   1.91430  171.792
 6171.00    1.93973   1.93585  171.927
 6172.00    1.95645   1.95751  169.372
 6173.00    1.96101   1.96738  166.436
 6174.00    1.96224   1.97308  165.471
 6175.00    1.96618   1.97860  165.791
 6176.00    1.97091   1.98056  165.615
 6177.00    1.97703   1.98321  165.218
 6178.00    1.97887   1.98743  164.848
 6179.00    1.97834   1.98869  164.198
 6180.00    1.98615   1.98970  163.470
 6181.00    1.99557   1.99561  162.937
 6182.00    1.99871   2.00091  162.295
 6183.00    1.99996   2.00106  161.696
 6184.00    1.99868   1.99934  161.693
 6185.00    1.99311   1.99443  162.198
 6186.00    1.98327   1.98389  163.152
 6187.00    1.97454   1.97317  164.763
 6188.00    1.96231   1.96402  166.548
 6189.00    1.94566   1.94712  168.185
 6190.00    1.92682   1.92391  169.580
 6191.00    1.92210   1.91096  171.287
 6192.00    1.94028   1.92350  173.039
 6193.00    1.96683   1.95323  172.477
 6194.00    1.98889   1.97901  169.105
 6195.00    1.99737   1.99108  165.491
 6196.00    1.99321   1.99713  163.791
 6197.00    1.98585   1.99530  163.283
 6198.00    1.97482   1.98344  163.751
 6199.00    1.96666   1.96986  165.351
 6200.00    1.96848   1.97270  167.039
 6201.00    1.97434   1.98557  167.568
 6202.00    1.97797   1.99825   -1.000
 6203.00    1.97910   2.00620   -1.000
 6204.00    1.98022   2.00936   -1.000
 6205.00    1.98344   2.01179   -1.000
 6206.00    1.99011   2.01419   -1.000
 6207.00    1.99741   2.01619  162.869
 6208.00    1.99691   2.01555  163.217
 6209.00    1.99429   2.01103  163.571
 6210.00    1.99012   2.00402  163.866
 6211.00    1.97841   1.99383  165.061
 6212.00    1.96162   1.97672  166.518
 6213.00    1.94577   1.95597  167.957
 6214.00    1.93840   1.94321  170.105
 6215.00    1.94497   1.94305  172.333
 6216.00    1.95254   1.94854  173.330
 6217.00    1.95709   1.95049  172.303
 6218.00    1.95932   1.94634  170.557
 6219.00    1.95708   1.93971   -1.000
 6220.00    1.95657   1.94138  171.441
 6221.00    1.96505   1.95084  170.293
 6222.00    1.97565   1.95956  170.176
 6223.00    1.98270   1.96181   -1.000
 6224.00    1.99862   1.96356   -1.000
 6225.00    1.89146   1.96781   -1.000
 6226.00    1.74562   1.97140   -1.000
 6227.00    1.86946   1.96831   -1.000
 6228.00    1.97579   1.95217   -1.000
 6229.00    1.93891   1.92486  171.156
 6230.00    1.92557   1.90137   -1.000
 6231.00    1.92461   1.89769   -1.000
 6232.00    1.94234   1.91612   -1.000
 6233.00    1.96526   1.94466   -1.000
 6234.00    1.98210   1.96972  172.205
 6235.00    1.99012   1.98273  169.128
 6236.00    1.98811   1.97949  167.403
 6237.00    1.97727   1.96901  167.722
 6238.00    1.96528   1.95572  169.266
 6239.00    1.96023   1.94616  171.011
 6240.00    1.95685   1.94173  172.788
 6241.00    1.94845   1.94116  174.084
 6242.00    1.93939   1.93658  174.321
 6243.00    1.93608   1.92804  174.871
 6244.00    1.93427   1.92192  176.211
 6245.00    1.93083   1.92015  176.713
 6246.00    1.93577   1.92758  176.000
 6247.00    1.95166   1.94613  174.503
 6248.00    1.96928   1.96492  172.486
 6249.00    1.97653   1.97306  170.452
 6250.00    1.96846   1.96734  169.499
 6251.00    1.94649   1.94711  170.301
 6252.00    1.92157   1.92547  172.777
 6253.00    1.90990   1.91543  175.572
 6254.00    1.90809   1.91617  177.159
 6255.00    1.90350   1.91919  177.960
 6256.00    1.90246   1.91568  178.130
 6257.00    1.91264   1.90874  178.842
 6258.00    1.92642   1.91128  180.599
 6259.00    1.93630   1.92611  181.024
 6260.00    1.95035   1.94648  179.112
 6261.00    1.96334   1.96312  176.293
 6262.00    1.97085   1.97669  173.791
 6263.00    1.97590   1.98209  171.285
 6264.00    1.97327   1.97962  169.472
 6265.00    1.96812   1.97561  169.828
 6266.00    1.96783   1.97855  171.224
 6267.00    1.97153   1.98431  171.402
 6268.00    1.97430   1.98348  170.260
 6269.00    1.96881   1.97994  169.887
 6270.00    1.96275   1.97875  170.760
 6271.00    1.96459   1.98112  171.101
 6272.00    1.96841   1.98166  170.617
 6273.00    1.97522   1.97479  170.101
 6274.00    1.98029   1.96035   -1.000
 6275.00    1.97944   1.94198   -1.000
 6276.00    1.96721   1.92598   -1.000
 6277.00    1.94074   1.91397   -1.000
 6278.00    1.89856   1.90939  178.107
 6279.00    1.85443   1.90753   -1.000
 6280.00    1.82907   1.91030   -1.000
 6281.00    1.82560   1.92221   -1.000
 6282.00    1.83195   1.94310   -1.000
 6283.00    1.83541   1.96477   -1.000
 6284.00    1.84139   1.98130   -1.000
 6285.00    1.85066   1.98922   -1.000
 6286.00    1.86988   1.99491   -1.000
 6287.00    1.90424   1.99997   -1.000
 6288.00    1.93184   2.00059   -1.000
 6289.00    1.94746   1.99395   -1.000
 6290.00    1.95273   1.98512   -1.000
 6291.00    1.95269   1.97844   -1.000
 6292.00    1.95492   1.97646   -1.000
 6293.00    1.95371   1.97466   -1.000
 6294.00    1.95143   1.97224   -1.000
 6295.00    1.95160   1.96388  172.873
 6296.00    1.94386   1.95181  173.676
 6297.00    1.93590   1.94462  175.008
 6298.00    1.93437   1.94602  175.718
 6299.00    1.93770   1.95253  175.673
 6300.00    1.94004   1.95166  175.155
 6301.00    1.95003   1.94624  174.365
 6302.00    1.96668   1.94981   -1.000
 6303.00    1.97379   1.96144  176.538
 6304.00    1.97814   1.97439  176.939
 6305.00    1.98119   1.98339  174.579
 6306.00    1.98443   1.99102  172.039
 6307.00    1.98555   2.00008  170.283
 6308.00    1.98268   2.00589   -1.000
 6309.00    1.97580   2.00688   -1.000
 6310.00    1.96785   2.00487   -1.000
 6311.00    1.96176   2.00030   -1.000
 6312.00    1.95770   1.99560   -1.000
 6313.00    1.95290   1.99022   -1.000
 6314.00    1.94609   1.98233   -1.000
 6315.00    1.94193   1.97640   -1.000
 6316.00    1.93837   1.97287   -1.000
 6317.00    1.92985   1.96591   -1.000
 6318.00    1.93022   1.96301   -1.000
 6319.00    1.93827   1.97524   -1.000
 6320.00    1.95054   1.99154   -1.000
 6321.00    1.96354   2.00082   -1.000
 6322.00    1.97067   2.00616   -1.000
 6323.00    1.97927   2.01356   -1.000
 6324.00    1.98923   2.02306   -1.000
 6325.00    1.99455   2.02832   -1.000
 6326.00    1.99782   2.02839   -1.000
 6327.00    2.00156   2.02764   -1.000
 6328.00    2.00499   2.02727   -1.000
 6329.00    2.00330   2.02688   -1.000
 6330.00    1.99835   2.02809   -1.000
 6331.00    1.99557   2.03366   -1.000
 6332.00    1.99454   2.03728   -1.000
 6333.00    1.98561   2.02978   -1.000
 6334.00    1.97256   2.01067   -1.000
 6335.00    1.95575   1.98925   -1.000
 6336.00    1.95356   1.98415   -1.000
 6337.00    1.99395   1.99421  170.139
 6338.00    2.02812   2.00892   -1.000
 6339.00    2.00377   2.02263  167.763
 6340.00    1.99773   2.03223   -1.000
 6341.00    2.00345   2.03369   -1.000
 6342.00    2.00051   2.02779   -1.000
 6343.00    1.99361   2.01701   -1.000
 6344.00    1.99030   2.01120  164.277
 6345.00    1.99134   2.01583   -1.000
 6346.00    1.99495   2.02471   -1.000
 6347.00    1.99841   2.03458   -1.000
 6348.00    2.00198   2.04351   -1.000
 6349.00    2.00360   2.05220   -1.000
 6350.00    2.00612   2.05667   -1.000
 6351.00    2.00470   2.05558   -1.000
 6352.00    2.00144   2.04919   -1.000
 6353.00    1.99161   2.03851   -1.000
 6354.00    1.97886   2.02799   -1.000
 6355.00    1.97002   2.02362   -1.000
 6356.00    1.96701   2.02170   -1.000
 6357.00    1.96634   2.01544   -1.000
 6358.00    1.96143   2.00445   -1.000
 6359.00    1.95479   1.99766   -1.000
 6360.00    1.95502   1.99574   -1.000
 6361.00    1.96195   1.99242   -1.000
 6362.00    1.96709   1.99061   -1.000
 6363.00    1.96775   1.99527   -1.000
 6364.00    1.97926   2.00628   -1.000
 6365.00    1.99387   2.01809   -1.000
 6366.00    1.99716   2.02826   -1.000
 6367.00    2.00295   2.03756   -1.000
 6368.00    2.00072   2.04373   -1.000
 6369.00    1.99226   2.04248   -1.000
 6370.00    1.99238   2.03922   -1.000
 6371.00    2.00001   2.03917   -1.000
 6372.00    2.00322   2.04483   -1.000
 6373.00    2.00420   2.05264   -1.000
 6374.00    2.00591   2.05604   -1.000
 6375.00    1.99772   2.05529   -1.000
 6376.00    1.98543   2.05338   -1.000
 6377.00    1.98107   2.04871   -1.000
 6378.00    1.97947   2.04284   -1.000
 6379.00    1.96984   2.03743   -1.000
 6380.00    1.95985   2.03399   -1.000
 6381.00    1.95948   2.03365   -1.000
 6382.00    1.96179   2.03595   -1.000
 6383.00    1.96380   2.03850   -1.000
 6384.00    1.96684   2.04070   -1.000
 6385.00    1.96782   2.04351   -1.000
 6386.00    1.96618   2.04799   -1.000
 6387.00    1.96110   2.05052   -1.000
 6388.00    1.95300   2.05067   -1.000
 6389.00    1.94338   2.05002   -1.000
 6390.00    1.93264   2.04472   -1.000
 6391.00    1.91743   2.02971   -1.000
 6392.00    1.89610   2.00874   -1.000
 6393.00    1.88131   1.99697   -1.000
 6394.00    1.88024   2.00764   -1.000
 6395.00    1.88836   2.02916   -1.000
 6396.00    1.89389   2.04523   -1.000
 6397.00    1.88240   2.04498   -1.000
 6398.00    1.85682   2.02584   -1.000
 6399.00    1.82953   2.00160   -1.000
 6400.00    1.81831   1.99413   -1.000
 6401.00    1.82893   2.01413   -1.000
 6402.00    1.84458   2.04151   -1.000
 6403.00    1.85217   2.06052   -1.000
 6404.00    1.85073   2.06708   -1.000
 6405.00    1.84050   2.06136   -1.000
 6406.00    1.82361   2.04728   -1.000
 6407.00    1.80719   2.03556   -1.000
 6408.00    1.79670   2.03216   -1.000
 6409.00    1.78565   2.03786   -1.000
 6410.00    1.77122   2.04074   -1.000
 6411.00    1.75710   2.03514   -1.000
 6412.00    1.75011   2.03296   -1.000
 6413.00    1.74736   2.03778   -1.000
 6414.00    1.74211   2.04434   -1.000
 6415.00    1.73763   2.04982   -1.000
 6416.00    1.73088   2.05335   -1.000
 6417.00    1.72039   2.05091   -1.000
 6418.00    1.69926   2.04129   -1.000
 6419.00    1.67380   2.02475   -1.000
 6420.00    1.65336   2.01136   -1.000
 6421.00    1.64137   2.01532   -1.000
 6422.00    1.64199   2.03434   -1.000
 6423.00    1.64579   2.05499   -1.000
 6424.00    1.64234   2.06861   -1.000
 6425.00    1.63182   2.07513   -1.000
 6426.00    1.61527   2.07903   -1.000
 6427.00    1.59614   2.07809   -1.000
 6428.00    1.57734   2.06481   -1.000
