###################################################################
## OUTPUT of StarlightChains_v04.for    [Cid@UFSC - 01/Apr/2007] ##
###################################################################

## Some input info
NGC6362_a_1.cxt                          [arq_obs]
Base.BC03.S                              [arq_base]
NGC6362_a_1.msk                          [arq_masks]
StCv04.C11.config                        [arq_config]
  150                                    [N_base]
    0                                    [N_YAV_components = # of components with extra extinction!]
    0                                    [i_FitPowerLaw (1/0 = Yes/No)]
-9.99                                    [alpha_PowerLaw]
CCM                                      [red_law_option]
 1.458241                                [q_norm = A(l_norm)/A(V)]

## (Re)Sampling Parameters
 3359.00                                 [l_ini (A)]
 6428.00                                 [l_fin (A)]
    1.00                                 [dl    (A)]     (OBS: dl_cushion =    50.00 A)

## Normalization info
 4020.00                                 [l_norm (A) - for base]
 4010.00                                 [llow_norm (A) - window for f_obs]
 4060.00                                 [lupp_norm (A) - window for f_obs]
1.238399E-14                             [fobs_norm (in input units)]

## S/N
 4730.00                                 [llow_SN (A) - window for S/N]
 4780.00                                 [lupp_SN (A) - window for S/N]
  69.165                                 [S/N in S/N window]
  59.492                                 [S/N in norm. window]
  54.471                                 [S/N_err in S/N window]
  46.853                                 [S/N_err in norm. window]
  1.0000                                 [fscale_chi2]

## etc...
  2147483611                             [idum_orig]
  3061                                   [NOl_eff]
  2473                                   [Nl_eff]
   588    NSIGMA                         [Ntot_cliped & clip_method]
  1570660                                [Nglobal_steps]
   7                                     [N_chains]
  25                                     [NEX0s_base = N_base in EX0s-fits]
 0   0   1      376   2.0   8.432E+02    [Clip-Bug, RC-Crash & Burn-In warning-flags, n_censored_weights, wei_nsig_threshold & wei_limit]
    54     53.979     53.975      0.004  [idt_all, wdt_TotTime, wdt_UsrTime & wdt_SysTime (sec)]

## Synthesis Results - Best model ##

 1.38663E+00                             [chi2/Nl_eff]
     1.66361                             [adev (%)]

   101.40224                             [sum-of-x (%)]
 1.78883E-14                             [Flux_tot (units of input spectrum!)]
 3.54875E-10                             [Mini_tot (???)]
 1.80407E-10                             [Mcor_tot (???)]

 -14.29                                  [v0_min  (km/s)]
  69.21                                  [vd_min  (km/s)]
 0.2634                                  [AV_min  (mag)]
 0.0000                                  [YAV_min (mag)]

# j     x_j(%)      Mini_j(%)     Mcor_j(%)     age_j(yr)     Z_j      (L/M)_j    YAV?  Mstars   component_j        a/Fe...       SSP_chi2r SSP_adev(%)   SSP_AV   SSP_x(%)
  1      0.0000     0.0000E+00    0.0000E+00    1.000000E+06  0.00010  8.160E-03    0   1.0000   age020_m22            0.0000     1.7274E+02    11.5940   4.0000    72.0948
  2     16.7463     1.7492E-02    3.4409E-02    3.160000E+06  0.00010  4.759E-02    0   1.0000   age045_m22            0.0000     3.8709E+01     5.1572   1.8942    94.0393
  3      0.0000     0.0000E+00    0.0000E+00    5.010000E+06  0.00010  1.932E-02    0   0.9582   age055_m22            0.0000     1.3318E+02    11.9385   2.3296    77.5724
  4      0.0000     0.0000E+00    0.0000E+00    6.610000E+06  0.00010  9.973E-03    0   0.9297   age061_m22            0.0000     1.5954E+02    12.1136   3.9828    74.5578
  5      0.0000     0.0000E+00    0.0000E+00    8.710000E+06  0.00010  7.690E-03    0   0.9030   age067_m22            0.0000     1.5089E+02    11.7972   3.9689    75.1134
  6      0.0000     0.0000E+00    0.0000E+00    1.000000E+07  0.00010  6.375E-03    0   0.8902   age070_m22            0.0000     1.4535E+02    11.5233   3.9771    75.4249
  7      0.0000     0.0000E+00    0.0000E+00    1.445000E+07  0.00010  4.874E-03    0   0.8589   age078_m22            0.0000     1.0101E+02    10.0927   3.7739    78.7704
  8      0.0000     0.0000E+00    0.0000E+00    2.512000E+07  0.00010  4.103E-03    0   0.8174   age090_m22            0.0000     4.8665E+01     7.1388   3.3094    86.4844
  9      0.0000     0.0000E+00    0.0000E+00    4.000000E+07  0.00010  3.654E-03    0   0.7830   age104_m22            0.0000     8.6135E+01     5.3908   2.9557    92.4298
 10      0.0000     0.0000E+00    0.0000E+00    5.500000E+07  0.00010  3.093E-03    0   0.7597   age110_m22            0.0000     1.0875E+02     4.9581   2.8233    94.9706
 11      0.0000     0.0000E+00    0.0000E+00    1.015200E+08  0.00010  2.431E-03    0   0.7138   age116_m22            0.0000     1.7419E+02     5.0562   2.4405    98.9764
 12      0.0000     0.0000E+00    0.0000E+00    1.609000E+08  0.00010  1.319E-03    0   0.6775   age120_m22            0.0000     1.6568E+02     5.0391   1.9290   102.8813
 13      0.0000     0.0000E+00    0.0000E+00    2.861200E+08  0.00010  1.075E-03    0   0.6412   age125_m22            0.0000     4.0373E+02     7.8856   1.8499   111.5844
 14      0.0000     0.0000E+00    0.0000E+00    5.088000E+08  0.00010  7.183E-04    0   0.6083   age130_m22            0.0000     4.6353E+02     9.3376   1.5484   116.3094
 15      0.0000     0.0000E+00    0.0000E+00    9.047900E+08  0.00010  4.524E-04    0   0.5785   age135_m22            0.0000     4.5780E+02     9.7073   1.3282   118.5254
 16      0.0000     0.0000E+00    0.0000E+00    1.278050E+09  0.00010  3.018E-04    0   0.5588   age138_m22            0.0000     2.1840E+02     6.7669   0.9008   113.0037
 17      0.0000     0.0000E+00    0.0000E+00    1.434000E+09  0.00010  2.691E-04    0   0.5532   age139_m22            0.0000     1.7572E+02     6.2213   0.7619   111.8673
 18      0.0000     0.0000E+00    0.0000E+00    2.500000E+09  0.00010  1.582E-04    0   0.5296   age150_m22            0.0000     1.5368E+02     5.6881   0.6786   111.4376
 19      0.0027     1.3446E-03    1.3515E-03    4.250000E+09  0.00010  1.007E-04    0   0.5110   age158_m22            0.0000     8.4575E+01     4.4037   0.5761   107.9667
 20      0.5145     3.7231E-01    3.6509E-01    6.250000E+09  0.00010  6.869E-05    0   0.4985   age166_m22            0.0000     3.7695E+01     3.3390   0.5656   103.5133
 21      0.0000     0.0000E+00    0.0000E+00    7.500000E+09  0.00010  5.873E-05    0   0.4931   age171_m22            0.0000     3.2981E+01     3.3170   0.5663   102.4487
 22      0.0000     0.0000E+00    0.0000E+00    1.000000E+10  0.00010  4.481E-05    0   0.4854   age181_m22            0.0000     3.0661E+01     3.2467   0.5279   102.1418
 23      0.0531     7.5653E-02    7.1297E-02    1.300000E+10  0.00010  3.489E-05    0   0.4791   age193_m22            0.0000     2.6151E+01     3.0845   0.4726   101.6105
 24      0.4490     7.3546E-01    6.8951E-01    1.500000E+10  0.00010  3.035E-05    0   0.4766   age201_m22            0.0000     2.3885E+01     3.0016   0.4363   101.3437
 25      0.0000     0.0000E+00    0.0000E+00    1.800000E+10  0.00010  2.510E-05    0   0.4735   age213_m22            0.0000     1.8793E+01     2.8359   0.3752   100.5129
 26      0.0000     0.0000E+00    0.0000E+00    1.000000E+06  0.00040  8.458E-03    0   1.0000   age020_m32            0.0000     1.7050E+02    11.4441   4.0000    72.7681
 27      0.0000     0.0000E+00    0.0000E+00    3.160000E+06  0.00040  3.973E-02    0   1.0000   age045_m32            0.0000     5.1805E+01     7.6005   3.2183    85.9949
 28      0.0000     0.0000E+00    0.0000E+00    5.010000E+06  0.00040  1.935E-02    0   0.9532   age055_m32            0.0000     1.0338E+02    10.9839   3.5144    78.4520
 29      0.0000     0.0000E+00    0.0000E+00    6.610000E+06  0.00040  1.204E-02    0   0.9243   age061_m32            0.0000     1.2509E+02    11.2151   3.8292    76.7539
 30      0.0000     0.0000E+00    0.0000E+00    8.710000E+06  0.00040  9.433E-03    0   0.9001   age067_m32            0.0000     1.0978E+02    10.6666   3.7908    77.8675
 31      0.0000     0.0000E+00    0.0000E+00    1.000000E+07  0.00040  8.053E-03    0   0.8877   age070_m32            0.0000     1.0415E+02    10.4579   3.7524    78.4096
 32      0.0000     0.0000E+00    0.0000E+00    1.445000E+07  0.00040  7.027E-03    0   0.8578   age078_m32            0.0000     5.8832E+01     8.6532   3.1982    84.0657
 33      0.0000     0.0000E+00    0.0000E+00    2.512000E+07  0.00040  4.707E-03    0   0.8166   age090_m32            0.0000     4.9114E+01     6.9470   2.8603    89.1121
 34      0.0000     0.0000E+00    0.0000E+00    4.000000E+07  0.00040  3.714E-03    0   0.7827   age104_m32            0.0000     7.6000E+01     5.5370   2.6119    93.6450
 35      0.0000     0.0000E+00    0.0000E+00    5.500000E+07  0.00040  2.982E-03    0   0.7593   age110_m32            0.0000     9.7957E+01     5.1420   2.5264    95.6051
 36      0.0000     0.0000E+00    0.0000E+00    1.015200E+08  0.00040  2.188E-03    0   0.7143   age116_m32            0.0000     2.4068E+02     5.5512   2.1582   103.3726
 37      0.0000     0.0000E+00    0.0000E+00    1.609000E+08  0.00040  1.690E-03    0   0.6856   age120_m32            0.0000     3.5524E+02     6.7301   1.8906   108.1634
 38      0.0000     0.0000E+00    0.0000E+00    2.861200E+08  0.00040  1.152E-03    0   0.6509   age125_m32            0.0000     4.1528E+02     8.3149   1.5758   113.9230
 39      0.0000     0.0000E+00    0.0000E+00    5.088000E+08  0.00040  7.331E-04    0   0.6182   age130_m32            0.0000     4.3227E+02     9.1446   1.3703   116.4585
 40      0.0000     0.0000E+00    0.0000E+00    9.047900E+08  0.00040  3.960E-04    0   0.5890   age135_m32            0.0000     2.1216E+02     7.1857   0.9700   113.3418
 41      0.0000     0.0000E+00    0.0000E+00    1.278050E+09  0.00040  2.854E-04    0   0.5687   age138_m32            0.0000     1.7690E+02     6.1049   0.7258   113.1805
 42      0.0000     0.0000E+00    0.0000E+00    1.434000E+09  0.00040  2.531E-04    0   0.5632   age139_m32            0.0000     1.7321E+02     5.9996   0.6687   112.9984
 43      2.4755     8.2698E-01    8.7616E-01    2.500000E+09  0.00040  1.488E-04    0   0.5386   age150_m32            0.0000     1.1853E+02     5.0930   0.4365   110.2894
 44     33.1990     1.8171E+01    1.8584E+01    4.250000E+09  0.00040  9.082E-05    0   0.5199   age158_m32            0.0000     3.4992E+01     3.1250   0.4124   104.3670
 45      0.7265     5.6768E-01    5.6682E-01    6.250000E+09  0.00040  6.362E-05    0   0.5076   age166_m32            0.0000     8.7204E+00     2.5850   0.4330    98.8253
 46      1.7722     1.6656E+00    1.6471E+00    7.500000E+09  0.00040  5.289E-05    0   0.5027   age171_m32            0.0000     6.9025E+00     2.5164   0.4019    97.5002
 47      5.0327     6.2985E+00    6.1304E+00    1.000000E+10  0.00040  3.972E-05    0   0.4948   age181_m32            0.0000     6.3865E+00     2.3504   0.3372    96.3999
 48      2.6223     3.9707E+00    3.8038E+00    1.300000E+10  0.00040  3.283E-05    0   0.4870   age193_m32            0.0000     8.7068E+00     2.2463   0.2624   100.1472
 49      0.0000     0.0000E+00    0.0000E+00    1.500000E+10  0.00040  2.925E-05    0   0.4854   age201_m32            0.0000     1.5537E+01     2.4942   0.2259   102.3542
 50      0.0000     0.0000E+00    0.0000E+00    1.800000E+10  0.00040  2.469E-05    0   0.4819   age213_m32            0.0000     1.8946E+01     2.6156   0.1772   103.1723
 51      0.0000     0.0000E+00    0.0000E+00    1.000000E+06  0.00400  1.114E-02    0   1.0000   age020_m42            0.0000     1.6392E+02    11.6087   3.9630    73.2678
 52      0.0000     0.0000E+00    0.0000E+00    3.160000E+06  0.00400  4.073E-02    0   0.9999   age045_m42            0.0000     4.3168E+01     6.1791   2.8877    89.5269
 53      0.0000     0.0000E+00    0.0000E+00    5.010000E+06  0.00400  2.534E-02    0   0.9488   age055_m42            0.0000     6.8400E+01     8.9798   3.3577    81.7050
 54      0.0000     0.0000E+00    0.0000E+00    6.610000E+06  0.00400  2.583E-02    0   0.9220   age061_m42            0.0000     5.5534E+01     5.6868   2.6940    90.5536
 55      0.0000     0.0000E+00    0.0000E+00    8.710000E+06  0.00400  1.706E-02    0   0.8983   age067_m42            0.0000     4.7644E+01     7.7172   2.5670    87.2048
 56      0.0000     0.0000E+00    0.0000E+00    1.000000E+07  0.00400  1.271E-02    0   0.8862   age070_m42            0.0000     5.7083E+01     9.3420   2.5817    84.8265
 57      0.0000     0.0000E+00    0.0000E+00    1.445000E+07  0.00400  7.666E-03    0   0.8571   age078_m42            0.0000     7.7551E+01     9.9398   2.9978    81.6734
 58      0.0000     0.0000E+00    0.0000E+00    2.512000E+07  0.00400  5.070E-03    0   0.8174   age090_m42            0.0000     4.9730E+01     8.6891   2.4309    87.1721
 59      0.0000     0.0000E+00    0.0000E+00    4.000000E+07  0.00400  3.505E-03    0   0.7851   age104_m42            0.0000     3.9461E+01     6.8245   2.0687    91.7905
 60      0.0000     0.0000E+00    0.0000E+00    5.500000E+07  0.00400  3.059E-03    0   0.7629   age110_m42            0.0000     8.7401E+01     4.2699   2.0289    99.4305
 61      0.0000     0.0000E+00    0.0000E+00    1.015200E+08  0.00400  2.268E-03    0   0.7207   age116_m42            0.0000     3.0459E+02     6.1815   1.8079   109.0096
 62      0.0000     0.0000E+00    0.0000E+00    1.609000E+08  0.00400  1.720E-03    0   0.6930   age120_m42            0.0000     3.2114E+02     6.7628   1.6283   112.2460
 63      0.0000     0.0000E+00    0.0000E+00    2.861200E+08  0.00400  1.079E-03    0   0.6613   age125_m42            0.0000     2.9680E+02     7.3305   1.2438   114.2593
 64      0.0000     0.0000E+00    0.0000E+00    5.088000E+08  0.00400  6.261E-04    0   0.6313   age130_m42            0.0000     3.3644E+02     8.0694   1.0191   118.4571
 65      0.0000     0.0000E+00    0.0000E+00    9.047900E+08  0.00400  3.535E-04    0   0.6024   age135_m42            0.0000     1.7899E+02     6.4164   0.6701   117.1693
 66      0.0000     0.0000E+00    0.0000E+00    1.278050E+09  0.00400  2.677E-04    0   0.5837   age138_m42            0.0000     3.7402E+01     5.5208   0.0000   114.6331
 67      0.0000     0.0000E+00    0.0000E+00    1.434000E+09  0.00400  1.910E-04    0   0.5716   age139_m42            0.0000     5.7927E+01     5.4289   0.1739   115.5363
 68      0.0000     0.0000E+00    0.0000E+00    2.500000E+09  0.00400  9.818E-05    0   0.5463   age150_m42            0.0000     1.0616E+01     3.4121  -0.0221   108.4254
 69      0.0000     0.0000E+00    0.0000E+00    4.250000E+09  0.00400  5.491E-05    0   0.5269   age158_m42            0.0000     2.3914E+01     2.8300  -0.1103   104.4163
 70      0.0000     0.0000E+00    0.0000E+00    6.250000E+09  0.00400  3.857E-05    0   0.5151   age166_m42            0.0000     4.1808E+01     3.1523  -0.2301   103.0768
 71     15.8471     2.4291E+01    2.4417E+01    7.500000E+09  0.00400  3.243E-05    0   0.5110   age171_m42            0.0000     5.5206E+01     3.4453  -0.3090   102.6857
 72     14.5388     2.9815E+01    2.9489E+01    1.000000E+10  0.00400  2.424E-05    0   0.5028   age181_m42            0.0000     7.9151E+01     3.8280  -0.3882   102.2254
 73      0.8378     2.2118E+00    2.1436E+00    1.300000E+10  0.00400  1.883E-05    0   0.4927   age193_m42            0.0000     1.0372E+02     4.1104  -0.4248   101.9414
 74      0.0079     2.3166E-02    2.2416E-02    1.500000E+10  0.00400  1.685E-05    0   0.4919   age201_m42            0.0000     9.7075E+01     4.0265  -0.4186   101.8403
 75      0.0000     3.1619E-05    3.0314E-05    1.800000E+10  0.00400  1.452E-05    0   0.4874   age213_m42            0.0000     8.6003E+01     3.9020  -0.4009   101.9494
 76      0.0000     0.0000E+00    0.0000E+00    1.000000E+06  0.00800  1.286E-02    0   1.0000   age020_m52            0.0000     1.4330E+02    10.9727   3.9246    75.3378
 77      0.0000     0.0000E+00    0.0000E+00    3.160000E+06  0.00800  3.147E-02    0   0.9966   age045_m52            0.0000     1.2759E+02    10.8606   3.8360    76.7289
 78      0.0000     0.0000E+00    0.0000E+00    5.010000E+06  0.00800  2.664E-02    0   0.9443   age055_m52            0.0000     8.5161E+01     9.4148   3.4848    80.7011
 79      0.0000     0.0000E+00    0.0000E+00    6.610000E+06  0.00800  2.151E-02    0   0.9177   age061_m52            0.0000     5.2674E+01     8.0292   2.1568    87.6033
 80      0.0000     0.0000E+00    0.0000E+00    8.710000E+06  0.00800  1.628E-02    0   0.8948   age067_m52            0.0000     5.0681E+01     8.1262   2.5232    87.8005
 81      0.0000     0.0000E+00    0.0000E+00    1.000000E+07  0.00800  1.215E-02    0   0.8827   age070_m52            0.0000     5.9979E+01     8.7673   2.8758    85.6270
 82      0.0000     0.0000E+00    0.0000E+00    1.445000E+07  0.00800  8.739E-03    0   0.8552   age078_m52            0.0000     5.6156E+01     7.9065   2.8964    87.4096
 83      0.0000     0.0000E+00    0.0000E+00    2.512000E+07  0.00800  5.676E-03    0   0.8162   age090_m52            0.0000     8.0727E+01     6.6932   2.4524    93.0719
 84      0.0000     0.0000E+00    0.0000E+00    4.000000E+07  0.00800  3.939E-03    0   0.7841   age104_m52            0.0000     1.0570E+02     5.3061   2.2395    97.3788
 85      0.0000     0.0000E+00    0.0000E+00    5.500000E+07  0.00800  3.155E-03    0   0.7627   age110_m52            0.0000     1.3952E+02     4.7565   2.1669   100.6894
 86      0.0000     0.0000E+00    0.0000E+00    1.015200E+08  0.00800  2.206E-03    0   0.7226   age116_m52            0.0000     2.3047E+02     5.3898   1.9024   107.5804
 87      0.0000     0.0000E+00    0.0000E+00    1.609000E+08  0.00800  1.596E-03    0   0.6963   age120_m52            0.0000     2.6090E+02     6.0931   1.6430   111.1742
 88      0.0000     0.0000E+00    0.0000E+00    2.861200E+08  0.00800  1.002E-03    0   0.6665   age125_m52            0.0000     3.4658E+02     8.6664   1.2337   118.9634
 89      0.0000     0.0000E+00    0.0000E+00    5.088000E+08  0.00800  5.759E-04    0   0.6377   age130_m52            0.0000     3.1286E+02    10.1179   0.8133   126.8245
 90      0.0000     0.0000E+00    0.0000E+00    9.047900E+08  0.00800  2.972E-04    0   0.6086   age135_m52            0.0000     1.0096E+02     8.8327   0.3192   125.1106
 91      0.0000     0.0000E+00    0.0000E+00    1.278050E+09  0.00800  2.242E-04    0   0.5907   age138_m52            0.0000     3.0235E+01     6.1618  -0.1879   119.9411
 92      0.0000     0.0000E+00    0.0000E+00    1.434000E+09  0.00800  1.645E-04    0   0.5787   age139_m52            0.0000     2.4333E+01     5.4002  -0.0163   118.0756
 93      0.0000     0.0000E+00    0.0000E+00    2.500000E+09  0.00800  7.723E-05    0   0.5519   age150_m52            0.0000     4.1667E+01     4.4308  -0.2974   112.2625
 94      0.0032     3.8300E-03    4.0081E-03    4.250000E+09  0.00800  4.151E-05    0   0.5320   age158_m52            0.0000     5.2295E+01     4.0181  -0.3358   108.3836
 95      0.6623     1.0938E+00    1.1182E+00    6.250000E+09  0.00800  3.010E-05    0   0.5197   age166_m52            0.0000     9.9357E+01     4.5995  -0.5279   107.2832
 96      0.4904     9.8819E-01    9.9894E-01    7.500000E+09  0.00800  2.467E-05    0   0.5139   age171_m52            0.0000     1.1367E+02     4.8119  -0.5721   107.0732
 97      0.7790     2.0798E+00    2.0676E+00    1.000000E+10  0.00800  1.862E-05    0   0.5054   age181_m52            0.0000     1.5901E+02     5.5624  -0.7151   107.4445
 98      0.0000     0.0000E+00    0.0000E+00    1.300000E+10  0.00800  1.433E-05    0   0.4988   age193_m52            0.0000     2.2673E+02     6.2347  -0.8192   108.7817
 99      0.0000     0.0000E+00    0.0000E+00    1.500000E+10  0.00800  1.244E-05    0   0.4936   age201_m52            0.0000     2.5749E+02     6.4641  -0.8514   109.5179
100      0.9574     4.4477E+00    4.2765E+00    1.800000E+10  0.00800  1.070E-05    0   0.4888   age213_m52            0.0000     2.7417E+02     6.6619  -0.8885   109.5214
101      0.0000     0.0000E+00    0.0000E+00    1.000000E+06  0.02000  1.989E-02    0   1.0000   age020_m62            0.0000     1.6762E+02    11.5484   3.9210    74.1667
102      0.0000     0.0000E+00    0.0000E+00    3.160000E+06  0.02000  3.772E-02    0   0.9858   age045_m62            0.0000     1.3500E+02    11.1354   3.7753    76.2851
103      0.0000     0.0000E+00    0.0000E+00    5.010000E+06  0.02000  3.227E-02    0   0.9342   age055_m62            0.0000     5.0195E+01     7.5737   3.1810    85.3509
104      0.0000     0.0000E+00    0.0000E+00    6.610000E+06  0.02000  2.387E-02    0   0.9090   age061_m62            0.0000     6.6248E+01     9.7592   2.9727    83.3014
105      0.0000     0.0000E+00    0.0000E+00    8.710000E+06  0.02000  1.102E-02    0   0.8861   age067_m62            0.0000     1.8046E+02    15.8929   2.6867    75.8915
106      0.0000     0.0000E+00    0.0000E+00    1.000000E+07  0.02000  1.011E-02    0   0.8751   age070_m62            0.0000     1.2897E+02    13.3937   2.6712    79.4755
107      0.0000     0.0000E+00    0.0000E+00    1.445000E+07  0.02000  7.331E-03    0   0.8472   age078_m62            0.0000     9.4550E+01    11.2103   2.6548    82.1454
108      0.0000     0.0000E+00    0.0000E+00    2.512000E+07  0.02000  4.206E-03    0   0.8099   age090_m62            0.0000     1.0362E+02    11.1273   2.5616    82.0370
109      0.0000     0.0000E+00    0.0000E+00    4.000000E+07  0.02000  3.373E-03    0   0.7799   age104_m62            0.0000     5.6858E+01     6.3188   2.2455    94.3181
110      0.0000     0.0000E+00    0.0000E+00    5.500000E+07  0.02000  2.747E-03    0   0.7595   age110_m62            0.0000     1.0153E+02     4.9843   2.1116    99.9855
111      0.0000     0.0000E+00    0.0000E+00    1.015200E+08  0.02000  1.878E-03    0   0.7221   age116_m62            0.0000     2.5347E+02     5.8467   1.8640   108.5644
112      0.0000     0.0000E+00    0.0000E+00    1.609000E+08  0.02000  1.378E-03    0   0.6978   age120_m62            0.0000     3.5185E+02     7.2940   1.6334   114.2788
113      0.0000     0.0000E+00    0.0000E+00    2.861200E+08  0.02000  8.869E-04    0   0.6700   age125_m62            0.0000     5.0017E+02     9.9635   1.1382   124.0482
114      0.0000     0.0000E+00    0.0000E+00    5.088000E+08  0.02000  4.834E-04    0   0.6430   age130_m62            0.0000     3.4207E+02    10.9103   0.6427   130.1922
115      0.0000     0.0000E+00    0.0000E+00    9.047900E+08  0.02000  2.312E-04    0   0.6152   age135_m62            0.0000     1.0431E+02     7.9487   0.1631   125.1298
116      0.0000     0.0000E+00    0.0000E+00    1.278050E+09  0.02000  1.387E-04    0   0.5927   age138_m62            0.0000     2.2312E+01     5.3575  -0.1227   117.1514
117      0.0000     0.0000E+00    0.0000E+00    1.434000E+09  0.02000  1.168E-04    0   0.5865   age139_m62            0.0000     1.8457E+01     4.9293  -0.1306   114.8931
118      0.0000     0.0000E+00    0.0000E+00    2.500000E+09  0.02000  5.505E-05    0   0.5610   age150_m62            0.0000     5.5752E+01     5.0109  -0.4702   111.1766
119      0.0000     0.0000E+00    0.0000E+00    4.250000E+09  0.02000  3.070E-05    0   0.5407   age158_m62            0.0000     1.5067E+02     6.6351  -0.7941   113.0117
120      0.0000     0.0000E+00    0.0000E+00    6.250000E+09  0.02000  2.104E-05    0   0.5277   age166_m62            0.0000     2.2790E+02     7.4104  -0.9400   114.3845
121      0.0000     0.0000E+00    0.0000E+00    7.500000E+09  0.02000  1.770E-05    0   0.5223   age171_m62            0.0000     2.6278E+02     7.7137  -1.0000   115.2339
122      0.0000     0.0000E+00    0.0000E+00    1.000000E+10  0.02000  1.297E-05    0   0.5121   age181_m62            0.0000     3.6457E+02    11.1948  -1.0000   115.9136
123      0.0000     0.0000E+00    0.0000E+00    1.300000E+10  0.02000  9.691E-06    0   0.5047   age193_m62            0.0000     4.4836E+02    14.0342  -1.0000   116.2915
124      0.0000     0.0000E+00    0.0000E+00    1.500000E+10  0.02000  8.360E-06    0   0.4999   age201_m62            0.0000     5.2337E+02    16.4893  -1.0000   116.4954
125      0.0000     0.0000E+00    0.0000E+00    1.800000E+10  0.02000  6.911E-06    0   0.4946   age213_m62            0.0000     6.1776E+02    19.1785  -1.0000   116.7715
126      0.0000     0.0000E+00    0.0000E+00    1.000000E+06  0.05000  2.651E-02    0   0.9998   age020_m72            0.0000     1.6094E+02    11.0182   3.9128    75.3493
127      0.0000     0.0000E+00    0.0000E+00    3.160000E+06  0.05000  4.817E-02    0   0.9577   age045_m72            0.0000     8.7634E+01     9.4969   3.6017    80.2017
128      0.0000     0.0000E+00    0.0000E+00    5.010000E+06  0.05000  3.101E-02    0   0.9147   age055_m72            0.0000     7.5810E+01     9.3961   3.2403    82.6298
129      0.0000     0.0000E+00    0.0000E+00    6.610000E+06  0.05000  1.472E-02    0   0.8877   age061_m72            0.0000     1.5673E+02    13.4440   2.8594    78.5551
130      0.0000     0.0000E+00    0.0000E+00    8.710000E+06  0.05000  1.050E-02    0   0.8638   age067_m72            0.0000     1.2267E+02    10.9695   3.2165    80.6835
131      0.0000     0.0000E+00    0.0000E+00    1.000000E+07  0.05000  8.954E-03    0   0.8524   age070_m72            0.0000     9.9667E+01     9.1212   3.4642    82.1462
132      0.0000     0.0000E+00    0.0000E+00    1.445000E+07  0.05000  6.392E-03    0   0.8262   age078_m72            0.0000     8.5191E+01     8.3649   3.3939    83.7687
133      0.0000     0.0000E+00    0.0000E+00    2.512000E+07  0.05000  4.207E-03    0   0.7902   age090_m72            0.0000     4.7970E+01     6.4541   2.9585    89.7223
134      0.0000     0.0000E+00    0.0000E+00    4.000000E+07  0.05000  3.198E-03    0   0.7618   age104_m72            0.0000     1.3507E+02     4.4591   2.2980   102.3157
135      0.0000     0.0000E+00    0.0000E+00    5.500000E+07  0.05000  2.593E-03    0   0.7432   age110_m72            0.0000     1.9718E+02     5.1124   2.1715   105.1123
136      0.0000     0.0000E+00    0.0000E+00    1.015200E+08  0.05000  1.716E-03    0   0.7092   age116_m72            0.0000     3.0540E+02     6.3617   1.9194   109.8075
137      0.0000     0.0000E+00    0.0000E+00    1.609000E+08  0.05000  1.218E-03    0   0.6876   age120_m72            0.0000     4.1532E+02     7.9694   1.5713   115.8667
138      0.0000     0.0000E+00    0.0000E+00    2.861200E+08  0.05000  7.047E-04    0   0.6618   age125_m72            0.0000     4.6690E+02    10.3129   0.9154   125.2890
139      0.0000     0.0000E+00    0.0000E+00    5.088000E+08  0.05000  3.590E-04    0   0.6356   age130_m72            0.0000     2.8170E+02    10.3943   0.3224   129.8963
140      0.0000     0.0000E+00    0.0000E+00    9.047900E+08  0.05000  1.484E-04    0   0.6088   age135_m72            0.0000     3.3356E+01     7.0148  -0.2727   118.7841
141      0.0000     0.0000E+00    0.0000E+00    1.278050E+09  0.05000  9.435E-05    0   0.5924   age138_m72            0.0000     6.2410E+01     7.1920  -0.6486   115.3332
142      3.6839     2.3397E+00    2.6910E+00    1.434000E+09  0.05000  7.827E-05    0   0.5847   age139_m72            0.0000     7.3353E+01     6.7677  -0.6166   113.9910
143      0.0000     0.0000E+00    0.0000E+00    2.500000E+09  0.05000  3.759E-05    0   0.5583   age150_m72            0.0000     1.9163E+02     7.4961  -0.9350   113.6099
144      0.0000     4.9496E-05    5.2322E-05    4.250000E+09  0.05000  1.842E-05    0   0.5374   age158_m72            0.0000     3.3368E+02    12.7880  -1.0000   113.0201
145      0.0006     2.3115E-03    2.3834E-03    6.250000E+09  0.05000  1.207E-05    0   0.5242   age166_m72            0.0000     5.3997E+02    20.6439  -1.0000   112.0039
146      0.0000     4.7477E-08    4.8404E-08    7.500000E+09  0.05000  9.993E-06    0   0.5183   age171_m72            0.0000     5.7642E+02    22.0144  -1.0000   111.6659
147      0.0000     0.0000E+00    0.0000E+00    1.000000E+10  0.05000  7.291E-06    0   0.5081   age181_m72            0.0000     7.3381E+02    26.2904  -1.0000   111.0642
148      0.0000     0.0000E+00    0.0000E+00    1.300000E+10  0.05000  5.316E-06    0   0.5018   age193_m72            0.0000     1.0259E+03    32.1812  -1.0000   109.3001
149      0.0000     0.0000E+00    0.0000E+00    1.500000E+10  0.05000  4.497E-06    0   0.4972   age201_m72            0.0000     1.1713E+03    34.4960  -1.0000   108.7950
150      0.0000     0.0000E+00    0.0000E+00    1.800000E+10  0.05000  3.739E-06    0   0.4924   age213_m72            0.0000     1.3892E+03    37.3727  -1.0000   107.3446


## Synthesis Results - Average & Chains ##

# j      x_j: min, <> & last-chain-values for 1 ...  7 chains
  1      0.0000      0.0049      0.0440      0.0000      0.0000      0.0000      0.0000      0.0000      0.0000
  2     16.7463     14.9237     15.6700     15.3798     15.6317     15.3062     15.1091     15.4189     14.9121
  3      0.0000      0.0211      0.0000      0.0000      0.0000      0.0000      0.0000      0.0000      0.0000
  4      0.0000      0.0068      0.0000      0.0046      0.0000      0.0000      0.0000      0.0051      0.0000
  5      0.0000      0.0026      0.0000      0.0000      0.0000      0.0000      0.0000      0.0000      0.0000
  6      0.0000      0.0043      0.0027      0.0000      0.0000      0.0238      0.0000      0.0000      0.0000
  7      0.0000      0.0086      0.0000      0.0000      0.0000      0.0000      0.0000      0.0000      0.0000
  8      0.0000      0.0061      0.0000      0.0276      0.0000      0.0574      0.0000      0.0000      0.0000
  9      0.0000      0.0234      0.0000      0.0000      0.0000      0.0000      0.0576      0.0000      0.0000
 10      0.0000      0.0471      0.0000      0.0000      0.0000      0.0000      0.1448      0.0019      0.0000
 11      0.0000      0.0371      0.0000      0.0000      0.0000      0.0000      0.0000      0.0000      0.2211
 12      0.0000      0.0164      0.0000      0.0000      0.0000      0.1099      0.0000      0.0000      0.0000
 13      0.0000      0.0128      0.0629      0.0000      0.0000      0.0002      0.0000      0.0192      0.0000
 14      0.0000      0.0045      0.0000      0.0000      0.0000      0.0000      0.0000      0.0000      0.0000
 15      0.0000      0.0102      0.0000      0.0000      0.0000      0.0000      0.0000      0.0000      0.0000
 16      0.0000      0.0164      0.0000      0.0000      0.0000      0.0000      0.0000      0.0000      0.0276
 17      0.0000      0.0194      0.0000      0.0000      0.0000      0.0000      0.0000      0.0167      0.0000
 18      0.0000      0.0240      0.0000      0.0000      0.0170      0.0000      0.1239      0.0000      0.0232
 19      0.0027      0.0692      0.0000      0.0111      0.0677      0.0108      0.0522      0.2327      0.3313
 20      0.5145      0.3168      0.2752      0.4794      0.0000      0.0967      0.1826      0.7395      0.0000
 21      0.0000      0.3034      0.4582      0.0000      0.3080      0.1604      0.1393      0.0308      0.0000
 22      0.0000      0.3240      0.1564      0.4845      0.0000      0.3053      0.0057      0.0000      0.1374
 23      0.0531      0.3667      0.5052      0.0000      0.3287      0.7064      0.6327      0.2434      0.9744
 24      0.4490      0.4943      0.6059      1.5858      0.5943      0.1450      0.0000      0.2770      0.3443
 25      0.0000      0.4695      0.3983      0.0000      0.8256      0.4687      0.1028      0.1000      0.4086
 26      0.0000      0.0130      0.0000      0.0000      0.0000      0.0000      0.0000      0.0306      0.0000
 27      0.0000      0.0090      0.0039      0.0000      0.0000      0.0000      0.0000      0.0000      0.0000
 28      0.0000      0.0079      0.0000      0.0000      0.0000      0.0000      0.0000      0.0000      0.0000
 29      0.0000      0.0153      0.0000      0.0000      0.0000      0.0000      0.1254      0.0000      0.0000
 30      0.0000      0.0037      0.0078      0.0000      0.0000      0.0000      0.0000      0.0000      0.0536
 31      0.0000      0.0082      0.0000      0.0000      0.0000      0.0000      0.0000      0.0000      0.0000
 32      0.0000      0.0110      0.0000      0.0000      0.0000      0.0000      0.0000      0.0078      0.0000
 33      0.0000      0.0119      0.0000      0.0000      0.0000      0.0000      0.0000      0.0945      0.0000
 34      0.0000      0.0229      0.0000      0.0000      0.0000      0.0000      0.0000      0.0000      0.0000
 35      0.0000      0.0227      0.0000      0.0000      0.0000      0.0000      0.0000      0.0000      0.0000
 36      0.0000      0.0188      0.2226      0.0098      0.0000      0.0795      0.0144      0.0000      0.2727
 37      0.0000      0.0251      0.0000      0.0000      0.0000      0.0000      0.0000      0.0000      0.0000
 38      0.0000      0.0114      0.0000      0.0000      0.0000      0.0000      0.0000      0.0000      0.0000
 39      0.0000      0.0144      0.0000      0.0000      0.0000      0.0000      0.0000      0.0223      0.0000
 40      0.0000      0.0175      0.0000      0.0562      0.1529      0.0000      0.0000      0.0058      0.0000
 41      0.0000      0.0194      0.0974      0.0000      0.0000      0.0000      0.0000      0.0000      0.0000
 42      0.0000      0.0377      0.0000      0.0135      0.0000      0.1550      0.0000      0.0349      0.0000
 43      2.4755      3.3599      3.1049      2.9168      2.6740      3.5597      2.7513      3.2054      2.7512
 44     33.1990     34.0430     33.4060     34.4878     34.2333     33.3038     35.4624     33.5338     34.6248
 45      0.7265      1.1090      1.3141      1.6816      1.3093      1.4827      1.4627      1.8950      1.0820
 46      1.7722      1.9465      2.3433      2.6713      1.7662      4.0463      1.7631      3.9543      2.8135
 47      5.0327      2.5161      2.9428      2.2095      3.2613      1.8555      3.1872      2.2005      2.8856
 48      2.6223      0.8197      0.5568      0.6874      1.0273      0.5663      1.7614      1.0083      0.9868
 49      0.0000      0.3827      0.4564      0.1130      0.4131      0.0000      0.0000      0.0788      0.6172
 50      0.0000      0.3951      0.2509      0.0000      0.0000      0.4979      0.0000      0.1419      0.0000
 51      0.0000      0.0120      0.0000      0.0000      0.0000      0.0000      0.0000      0.0000      0.0000
 52      0.0000      0.0116      0.0000      0.0000      0.0000      0.0000      0.0000      0.0000      0.0000
 53      0.0000      0.0141      0.0000      0.0579      0.0000      0.0000      0.0000      0.0000      0.0000
 54      0.0000      0.0525      0.0000      0.0011      0.1976      0.0000      0.0000      0.0000      0.0898
 55      0.0000      0.0316      0.0000      0.0005      0.0000      0.0000      0.0000      0.0000      0.0000
 56      0.0000      0.0328      0.0000      0.0000      0.0000      0.0000      0.0000      0.0000      0.0000
 57      0.0000      0.0092      0.0000      0.0000      0.0000      0.0000      0.0000      0.0000      0.0019
 58      0.0000      0.0147      0.0000      0.0000      0.0000      0.0000      0.0000      0.0000      0.0000
 59      0.0000      0.0130      0.0000      0.0732      0.0722      0.0000      0.0000      0.0000      0.0008
 60      0.0000      0.0153      0.0000      0.0000      0.0000      0.0000      0.0000      0.0000      0.0000
 61      0.0000      0.0139      0.0188      0.0000      0.0000      0.0000      0.0000      0.1245      0.0000
 62      0.0000      0.0329      0.1939      0.0000      0.0000      0.0000      0.0305      0.0079      0.0000
 63      0.0000      0.0199      0.0000      0.0000      0.0000      0.0000      0.0000      0.0000      0.0000
 64      0.0000      0.0209      0.0000      0.0000      0.2502      0.0000      0.0000      0.0000      0.0000
 65      0.0000      0.0224      0.0000      0.0000      0.0000      0.0190      0.0000      0.0000      0.0012
 66      0.0000      0.0229      0.0000      0.0000      0.0000      0.0000      0.0000      0.0000      0.0000
 67      0.0000      0.0378      0.0043      0.0000      0.0000      0.0000      0.0000      0.0000      0.0429
 68      0.0000      0.1153      0.0000      0.7288      0.3017      0.0000      0.1855      0.0331      0.0000
 69      0.0000      0.1446      0.0000      0.0000      0.0765      0.0000      0.0000      0.0570      0.0000
 70      0.0000      0.1881      0.0000      0.3437      0.1321      0.0000      0.5269      0.0388      0.0000
 71     15.8471     15.8761     16.0658     16.1104     15.8430     16.0241     16.7128     16.0711     16.2309
 72     14.5388     13.7791     13.6400     13.9054     13.4541     14.0609     13.3844     13.7970     13.9293
 73      0.8378      2.0656      1.9215      1.9721      2.0298      2.0052      1.8627      0.8404      2.0527
 74      0.0079      1.2442      1.4226      0.6797      0.8935      1.5125      0.7697      1.1007      1.5104
 75      0.0000      0.1192      0.1207      0.0000      0.5120      0.0000      0.0000      0.3614      0.0000
 76      0.0000      0.0051      0.0000      0.0000      0.0000      0.0000      0.0000      0.0000      0.0000
 77      0.0000      0.0043      0.0000      0.0000      0.0000      0.0035      0.0000      0.0000      0.0000
 78      0.0000      0.0049      0.0000      0.0000      0.0000      0.0847      0.0000      0.0000      0.0000
 79      0.0000      0.0162      0.0000      0.0000      0.0000      0.0000      0.0000      0.0000      0.0000
 80      0.0000      0.0055      0.0000      0.0000      0.0000      0.0000      0.0000      0.0000      0.0000
 81      0.0000      0.0074      0.0000      0.0000      0.0000      0.0000      0.0000      0.0000      0.0000
 82      0.0000      0.0058      0.0000      0.0000      0.0000      0.0000      0.0000      0.0000      0.0000
 83      0.0000      0.0140      0.0000      0.0000      0.0000      0.0278      0.0000      0.0000      0.0000
 84      0.0000      0.0185      0.0000      0.0000      0.0000      0.0000      0.0435      0.0000      0.0000
 85      0.0000      0.0228      0.0000      0.0000      0.0200      0.0119      0.0000      0.0000      0.0000
 86      0.0000      0.0177      0.0787      0.0000      0.0000      0.1808      0.0211      0.1911      0.0000
 87      0.0000      0.0193      0.0273      0.0000      0.0000      0.0154      0.0000      0.0000      0.0000
 88      0.0000      0.0115      0.0000      0.0000      0.0000      0.0185      0.0000      0.0000      0.0000
 89      0.0000      0.0087      0.0000      0.0000      0.0000      0.0000      0.0000      0.0151      0.0000
 90      0.0000      0.0088      0.0000      0.0000      0.0000      0.0000      0.0186      0.0000      0.0000
 91      0.0000      0.0135      0.0000      0.0000      0.0000      0.0000      0.0000      0.0000      0.0000
 92      0.0000      0.0227      0.0000      0.0000      0.0000      0.0000      0.0841      0.0000      0.0000
 93      0.0000      0.1206      0.0000      0.4241      0.0000      0.0000      0.0113      0.0000      0.1395
 94      0.0032      0.3842      0.4742      0.5271      0.2077      0.3553      0.6262      0.7663      0.1538
 95      0.6623      0.2675      0.2679      0.4335      0.0000      0.6698      0.1944      0.9183      0.3907
 96      0.4904      0.3413      0.0955      0.0865      0.6739      0.4022      0.2600      0.6728      0.3100
 97      0.7790      0.3908      0.4367      0.0000      0.8367      0.3757      0.6222      0.3546      0.4636
 98      0.0000      0.2528      0.8628      0.1958      0.2564      0.0000      0.0000      0.0891      0.4731
 99      0.0000      0.1730      0.1807      0.2182      0.1053      0.1525      0.2670      0.2032      0.0000
100      0.9574      1.1388      1.2071      1.1701      0.9985      1.1088      1.1610      1.0047      1.0484
101      0.0000      0.0019      0.0000      0.0000      0.0000      0.0000      0.0000      0.0000      0.0000
102      0.0000      0.0033      0.0000      0.0000      0.0000      0.0000      0.0000      0.0000      0.0000
103      0.0000      0.0056      0.0000      0.0000      0.0000      0.0000      0.0000      0.0000      0.0000
104      0.0000      0.0130      0.0093      0.0000      0.0000      0.0000      0.0000      0.0000      0.0092
105      0.0000      0.0037      0.0000      0.0000      0.0000      0.0000      0.0000      0.0000      0.0000
106      0.0000      0.0042      0.0000      0.0000      0.0000      0.0000      0.0000      0.0087      0.0000
107      0.0000      0.0058      0.0000      0.0000      0.0000      0.0000      0.0000      0.0000      0.0000
108      0.0000      0.0067      0.0000      0.0000      0.0097      0.0000      0.0000      0.0000      0.0000
109      0.0000      0.0093      0.0000      0.0000      0.0000      0.0000      0.0134      0.0000      0.0000
110      0.0000      0.0072      0.0000      0.0216      0.0000      0.0000      0.0000      0.0000      0.0000
111      0.0000      0.0069      0.0000      0.0000      0.0096      0.0000      0.0000      0.0000      0.0000
112      0.0000      0.0069      0.0000      0.0000      0.0426      0.0000      0.0000      0.0000      0.0000
113      0.0000      0.0058      0.1119      0.0000      0.0000      0.0000      0.0000      0.0182      0.0000
114      0.0000      0.0106      0.0000      0.0000      0.0267      0.0000      0.0000      0.0081      0.0000
115      0.0000      0.0137      0.0000      0.0000      0.0000      0.0000      0.0000      0.0000      0.0082
116      0.0000      0.0515      0.2948      0.0000      0.0000      0.0000      0.0000      0.0000      0.0000
117      0.0000      0.0635      0.0000      0.0000      0.1133      0.0000      0.0000      0.0000      0.0000
118      0.0000      0.1311      0.1220      0.0000      0.1066      0.0931      0.0000      0.1587      0.0000
119      0.0000      0.1192      0.1000      0.1529      0.0928      0.2367      0.0000      0.0656      0.0000
120      0.0000      0.0538      0.0000      0.0013      0.0000      0.0000      0.2414      0.0000      0.0000
121      0.0000      0.0576      0.2356      0.0001      0.0000      0.0000      0.0290      0.0000      0.0000
122      0.0000      0.0761      0.0659      0.0000      0.3604      0.0000      0.2207      0.0000      0.1013
123      0.0000      0.0519      0.0000      0.1082      0.0000      0.1035      0.0583      0.0000      0.0000
124      0.0000      0.0222      0.0000      0.0000      0.0000      0.0000      0.0000      0.0455      0.1718
125      0.0000      0.0130      0.0998      0.0402      0.0000      0.0000      0.0000      0.0000      0.0000
126      0.0000      0.0057      0.0000      0.0000      0.0000      0.0000      0.0000      0.0000      0.0000
127      0.0000      0.0121      0.0000      0.0140      0.0000      0.0000      0.0000      0.0000      0.0000
128      0.0000      0.0112      0.0000      0.0000      0.0000      0.0000      0.0087      0.0000      0.0000
129      0.0000      0.0052      0.0000      0.0000      0.0000      0.0000      0.0000      0.0000      0.0000
130      0.0000      0.0028      0.0000      0.0000      0.0001      0.0000      0.0000      0.0085      0.0000
131      0.0000      0.0029      0.0000      0.0000      0.0000      0.0000      0.0000      0.0000      0.0000
132      0.0000      0.0100      0.0000      0.0000      0.0000      0.0000      0.0000      0.0000      0.0000
133      0.0000      0.0042      0.0000      0.0000      0.0000      0.0000      0.0102      0.0000      0.0000
134      0.0000      0.0092      0.0000      0.0000      0.0061      0.0000      0.0060      0.0000      0.0000
135      0.0000      0.0107      0.0000      0.0000      0.0000      0.0000      0.0000      0.0000      0.0000
136      0.0000      0.0104      0.0000      0.0000      0.0000      0.0000      0.0000      0.0000      0.0000
137      0.0000      0.0114      0.0000      0.0000      0.0000      0.0000      0.1672      0.0000      0.0000
138      0.0000      0.0106      0.0000      0.0000      0.0000      0.0000      0.1310      0.0000      0.0000
139      0.0000      0.0131      0.0000      0.0000      0.0000      0.0114      0.0000      0.0000      0.0000
140      0.0000      0.0691      0.0000      0.0039      0.0000      0.0000      0.0152      0.0000      0.0467
141      0.0000      0.2057      0.2172      0.5696      0.3294      0.2080      0.2315      0.0000      0.0346
142      3.6839      0.3313      0.0830      0.4119      0.6570      0.3436      0.0968      0.2986      0.3638
143      0.0000      0.2750      0.3286      0.4133      0.3077      0.2956      0.2199      0.2153      0.3761
144      0.0000      0.0832      0.0000      0.1368      0.0394      0.0330      0.1097      0.2718      0.0935
145      0.0006      0.0817      0.0000      0.0000      0.0000      0.2698      0.0000      0.2679      0.0000
146      0.0000      0.0326      0.0000      0.0000      0.0336      0.0000      0.0000      0.2156      0.0000
147      0.0000      0.0269      0.0000      0.0000      0.0000      0.0000      0.2172      0.0015      0.0271
148      0.0000      0.0126      0.0000      0.0000      0.0000      0.0000      0.0000      0.0512      0.0000
149      0.0000      0.0739      0.0749      0.0373      0.0005      0.0000      0.0000      0.0000      0.0000
150      0.0000      0.0365      0.0000      0.0000      0.0000      0.0000      0.0000      0.0062      0.0000

# j      m_j: min, <> & last-chain-values for 1 ...  7 chains
  1  0.0000E+00  5.4946E-05  4.8625E-04  0.0000E+00  0.0000E+00  0.0000E+00  0.0000E+00  0.0000E+00  0.0000E+00
  2  3.4409E-02  2.8479E-02  2.9666E-02  3.0400E-02  3.0181E-02  2.9621E-02  2.9337E-02  2.9987E-02  2.8538E-02
  3  0.0000E+00  9.5048E-05  0.0000E+00  0.0000E+00  0.0000E+00  0.0000E+00  0.0000E+00  0.0000E+00  0.0000E+00
  4  0.0000E+00  5.7922E-05  0.0000E+00  4.0704E-05  0.0000E+00  0.0000E+00  0.0000E+00  4.4251E-05  0.0000E+00
  5  0.0000E+00  2.7982E-05  0.0000E+00  0.0000E+00  0.0000E+00  0.0000E+00  0.0000E+00  0.0000E+00  0.0000E+00
  6  0.0000E+00  5.4236E-05  3.4069E-05  0.0000E+00  0.0000E+00  3.0580E-04  0.0000E+00  0.0000E+00  0.0000E+00
  7  0.0000E+00  1.3823E-04  0.0000E+00  0.0000E+00  0.0000E+00  0.0000E+00  0.0000E+00  0.0000E+00  0.0000E+00
  8  0.0000E+00  1.1073E-04  0.0000E+00  5.1750E-04  0.0000E+00  1.0530E-03  0.0000E+00  0.0000E+00  0.0000E+00
  9  0.0000E+00  4.5492E-04  0.0000E+00  0.0000E+00  0.0000E+00  0.0000E+00  1.1406E-03  0.0000E+00  0.0000E+00
 10  0.0000E+00  1.0501E-03  0.0000E+00  0.0000E+00  0.0000E+00  0.0000E+00  3.2864E-03  4.2595E-05  0.0000E+00
 11  0.0000E+00  9.9023E-04  0.0000E+00  0.0000E+00  0.0000E+00  0.0000E+00  0.0000E+00  0.0000E+00  5.9139E-03
 12  0.0000E+00  7.6554E-04  0.0000E+00  0.0000E+00  0.0000E+00  5.2004E-03  0.0000E+00  0.0000E+00  0.0000E+00
 13  0.0000E+00  6.9316E-04  3.3792E-03  0.0000E+00  0.0000E+00  1.1353E-05  0.0000E+00  1.0611E-03  0.0000E+00
 14  0.0000E+00  3.4981E-04  0.0000E+00  0.0000E+00  0.0000E+00  0.0000E+00  0.0000E+00  0.0000E+00  0.0000E+00
 15  0.0000E+00  1.1807E-03  0.0000E+00  0.0000E+00  0.0000E+00  0.0000E+00  0.0000E+00  0.0000E+00  0.0000E+00
 16  0.0000E+00  2.7530E-03  0.0000E+00  0.0000E+00  0.0000E+00  0.0000E+00  0.0000E+00  0.0000E+00  4.6519E-03
 17  0.0000E+00  3.6296E-03  0.0000E+00  0.0000E+00  0.0000E+00  0.0000E+00  0.0000E+00  3.1780E-03  0.0000E+00
 18  0.0000E+00  7.2847E-03  0.0000E+00  0.0000E+00  5.2430E-03  0.0000E+00  3.8334E-02  0.0000E+00  7.0782E-03
 19  1.3515E-03  3.1889E-02  0.0000E+00  5.3087E-03  3.1565E-02  5.0607E-03  2.4460E-02  1.0928E-01  1.5312E-01
 20  3.6509E-01  2.0876E-01  1.7992E-01  3.2728E-01  0.0000E+00  6.4608E-02  1.2247E-01  4.9669E-01  0.0000E+00
 21  0.0000E+00  2.3135E-01  3.4662E-01  0.0000E+00  2.3761E-01  1.2401E-01  1.0806E-01  2.3935E-02  0.0000E+00
 22  0.0000E+00  3.1877E-01  1.5264E-01  4.9370E-01  0.0000E+00  3.0458E-01  5.7493E-03  0.0000E+00  1.3560E-01
 23  7.1297E-02  4.5727E-01  6.2499E-01  0.0000E+00  4.1474E-01  8.9332E-01  8.0285E-01  3.0940E-01  1.2186E+00
 24  6.8951E-01  7.0488E-01  8.5728E-01  2.3426E+00  8.5753E-01  2.0971E-01  0.0000E+00  4.0263E-01  4.9240E-01
 25  0.0000E+00  8.0437E-01  6.7691E-01  0.0000E+00  1.4311E+00  8.1431E-01  1.7921E-01  1.7453E-01  7.0207E-01
 26  0.0000E+00  1.3963E-04  0.0000E+00  0.0000E+00  0.0000E+00  0.0000E+00  0.0000E+00  3.3499E-04  0.0000E+00
 27  0.0000E+00  2.0588E-05  8.9399E-06  0.0000E+00  0.0000E+00  0.0000E+00  0.0000E+00  0.0000E+00  0.0000E+00
 28  0.0000E+00  3.5134E-05  0.0000E+00  0.0000E+00  0.0000E+00  0.0000E+00  0.0000E+00  0.0000E+00  0.0000E+00
 29  0.0000E+00  1.0649E-04  0.0000E+00  0.0000E+00  0.0000E+00  0.0000E+00  8.8962E-04  0.0000E+00  0.0000E+00
 30  0.0000E+00  3.2188E-05  6.6854E-05  0.0000E+00  0.0000E+00  0.0000E+00  0.0000E+00  0.0000E+00  4.6592E-04
 31  0.0000E+00  8.2394E-05  0.0000E+00  0.0000E+00  0.0000E+00  0.0000E+00  0.0000E+00  0.0000E+00  0.0000E+00
 32  0.0000E+00  1.2146E-04  0.0000E+00  0.0000E+00  0.0000E+00  0.0000E+00  0.0000E+00  8.7769E-05  0.0000E+00
 33  0.0000E+00  1.8693E-04  0.0000E+00  0.0000E+00  0.0000E+00  0.0000E+00  0.0000E+00  1.5166E-03  0.0000E+00
 34  0.0000E+00  4.3838E-04  0.0000E+00  0.0000E+00  0.0000E+00  0.0000E+00  0.0000E+00  0.0000E+00  0.0000E+00
 35  0.0000E+00  5.2524E-04  0.0000E+00  0.0000E+00  0.0000E+00  0.0000E+00  0.0000E+00  0.0000E+00  0.0000E+00
 36  0.0000E+00  5.5813E-04  6.5476E-03  3.0062E-04  0.0000E+00  2.3895E-03  4.3489E-04  0.0000E+00  8.1069E-03
 37  0.0000E+00  9.2564E-04  0.0000E+00  0.0000E+00  0.0000E+00  0.0000E+00  0.0000E+00  0.0000E+00  0.0000E+00
 38  0.0000E+00  5.8595E-04  0.0000E+00  0.0000E+00  0.0000E+00  0.0000E+00  0.0000E+00  0.0000E+00  0.0000E+00
 39  0.0000E+00  1.1007E-03  0.0000E+00  0.0000E+00  0.0000E+00  0.0000E+00  0.0000E+00  1.7416E-03  0.0000E+00
 40  0.0000E+00  2.3595E-03  0.0000E+00  7.8698E-03  2.0892E-02  0.0000E+00  0.0000E+00  7.9789E-04  0.0000E+00
 41  0.0000E+00  3.5151E-03  1.7479E-02  0.0000E+00  0.0000E+00  0.0000E+00  0.0000E+00  0.0000E+00  0.0000E+00
 42  0.0000E+00  7.6147E-03  0.0000E+00  2.8340E-03  0.0000E+00  3.1772E-02  0.0000E+00  7.1897E-03  0.0000E+00
 43  8.7616E-01  1.1044E+00  1.0126E+00  9.9314E-01  8.8934E-01  1.1867E+00  9.2021E-01  1.0738E+00  9.0697E-01
 44  1.8584E+01  1.7698E+01  1.7230E+01  1.8571E+01  1.8007E+01  1.7558E+01  1.8758E+01  1.7767E+01  1.8052E+01
 45  5.6682E-01  8.0354E-01  9.4465E-01  1.2621E+00  9.5986E-01  1.0895E+00  1.0784E+00  1.3994E+00  7.8626E-01
 46  1.6471E+00  1.6801E+00  2.0067E+00  2.3883E+00  1.5425E+00  3.5419E+00  1.5485E+00  3.4785E+00  2.4354E+00
 47  6.1304E+00  2.8464E+00  3.3029E+00  2.5891E+00  3.7330E+00  2.1288E+00  3.6688E+00  2.5370E+00  3.2738E+00
 48  3.8038E+00  1.1043E+00  7.4423E-01  9.5912E-01  1.4002E+00  7.7364E-01  2.4144E+00  1.3843E+00  1.3332E+00
 49  0.0000E+00  5.7679E-01  6.8238E-01  1.7640E-01  6.2984E-01  0.0000E+00  0.0000E+00  1.2103E-01  9.3290E-01
 50  0.0000E+00  7.0035E-01  4.4116E-01  0.0000E+00  0.0000E+00  8.9509E-01  0.0000E+00  2.5635E-01  0.0000E+00
 51  0.0000E+00  9.7726E-05  0.0000E+00  0.0000E+00  0.0000E+00  0.0000E+00  0.0000E+00  0.0000E+00  0.0000E+00
 52  0.0000E+00  2.5920E-05  0.0000E+00  0.0000E+00  0.0000E+00  0.0000E+00  0.0000E+00  0.0000E+00  0.0000E+00
 53  0.0000E+00  4.7834E-05  0.0000E+00  2.0407E-04  0.0000E+00  0.0000E+00  0.0000E+00  0.0000E+00  0.0000E+00
 54  0.0000E+00  1.7022E-04  0.0000E+00  3.7409E-06  6.4796E-04  0.0000E+00  0.0000E+00  0.0000E+00  2.9202E-04
 55  0.0000E+00  1.5099E-04  0.0000E+00  2.3974E-06  0.0000E+00  0.0000E+00  0.0000E+00  0.0000E+00  0.0000E+00
 56  0.0000E+00  2.0787E-04  0.0000E+00  0.0000E+00  0.0000E+00  0.0000E+00  0.0000E+00  0.0000E+00  0.0000E+00
 57  0.0000E+00  9.3785E-05  0.0000E+00  0.0000E+00  0.0000E+00  0.0000E+00  0.0000E+00  0.0000E+00  1.9115E-05
 58  0.0000E+00  2.1583E-04  0.0000E+00  0.0000E+00  0.0000E+00  0.0000E+00  0.0000E+00  0.0000E+00  0.0000E+00
 59  0.0000E+00  2.6374E-04  0.0000E+00  1.5415E-03  1.4866E-03  0.0000E+00  0.0000E+00  0.0000E+00  1.7301E-05
 60  0.0000E+00  3.4765E-04  0.0000E+00  0.0000E+00  0.0000E+00  0.0000E+00  0.0000E+00  0.0000E+00  0.0000E+00
 61  0.0000E+00  4.0098E-04  5.3955E-04  0.0000E+00  0.0000E+00  0.0000E+00  0.0000E+00  3.6627E-03  0.0000E+00
 62  0.0000E+00  1.2053E-03  7.0370E-03  0.0000E+00  0.0000E+00  0.0000E+00  1.1338E-03  2.9285E-04  0.0000E+00
 63  0.0000E+00  1.1059E-03  0.0000E+00  0.0000E+00  0.0000E+00  0.0000E+00  0.0000E+00  0.0000E+00  0.0000E+00
 64  0.0000E+00  1.9125E-03  0.0000E+00  0.0000E+00  2.3179E-02  0.0000E+00  0.0000E+00  0.0000E+00  0.0000E+00
 65  0.0000E+00  3.4669E-03  0.0000E+00  0.0000E+00  0.0000E+00  2.9776E-03  0.0000E+00  0.0000E+00  1.8925E-04
 66  0.0000E+00  4.5312E-03  0.0000E+00  0.0000E+00  0.0000E+00  0.0000E+00  0.0000E+00  0.0000E+00  0.0000E+00
 67  0.0000E+00  1.0274E-02  1.1654E-03  0.0000E+00  0.0000E+00  0.0000E+00  0.0000E+00  0.0000E+00  1.1697E-02
 68  0.0000E+00  5.8278E-02  0.0000E+00  3.8146E-01  1.5428E-01  0.0000E+00  9.5374E-02  1.7029E-02  0.0000E+00
 69  0.0000E+00  1.2598E-01  0.0000E+00  0.0000E+00  6.7426E-02  0.0000E+00  0.0000E+00  5.0605E-02  0.0000E+00
 70  0.0000E+00  2.2816E-01  0.0000E+00  4.3172E-01  1.6207E-01  0.0000E+00  6.5023E-01  4.8013E-02  0.0000E+00
 71  2.4417E+01  2.2718E+01  2.2808E+01  2.3879E+01  2.2938E+01  2.3254E+01  2.4334E+01  2.3438E+01  2.3293E+01
 72  2.9489E+01  2.5956E+01  2.5491E+01  2.7132E+01  2.5643E+01  2.6861E+01  2.5654E+01  2.6487E+01  2.6314E+01
 73  2.1436E+00  4.9083E+00  4.5298E+00  4.8539E+00  4.8800E+00  4.8320E+00  4.5036E+00  2.0353E+00  4.8917E+00
 74  2.2416E-02  3.2986E+00  3.7417E+00  1.8664E+00  2.3966E+00  4.0664E+00  2.0763E+00  2.9739E+00  4.0158E+00
 75  3.0314E-05  3.6341E-01  3.6497E-01  0.0000E+00  1.5793E+00  0.0000E+00  0.0000E+00  1.1229E+00  0.0000E+00
 76  0.0000E+00  3.6039E-05  0.0000E+00  0.0000E+00  0.0000E+00  0.0000E+00  0.0000E+00  0.0000E+00  0.0000E+00
 77  0.0000E+00  1.2416E-05  0.0000E+00  0.0000E+00  0.0000E+00  1.0146E-05  0.0000E+00  0.0000E+00  0.0000E+00
 78  0.0000E+00  1.5901E-05  0.0000E+00  0.0000E+00  0.0000E+00  2.7644E-04  0.0000E+00  0.0000E+00  0.0000E+00
 79  0.0000E+00  6.2941E-05  0.0000E+00  0.0000E+00  0.0000E+00  0.0000E+00  0.0000E+00  0.0000E+00  0.0000E+00
 80  0.0000E+00  2.7331E-05  0.0000E+00  0.0000E+00  0.0000E+00  0.0000E+00  0.0000E+00  0.0000E+00  0.0000E+00
 81  0.0000E+00  4.8625E-05  0.0000E+00  0.0000E+00  0.0000E+00  0.0000E+00  0.0000E+00  0.0000E+00  0.0000E+00
 82  0.0000E+00  5.1159E-05  0.0000E+00  0.0000E+00  0.0000E+00  0.0000E+00  0.0000E+00  0.0000E+00  0.0000E+00
 83  0.0000E+00  1.8264E-04  0.0000E+00  0.0000E+00  0.0000E+00  3.6797E-04  0.0000E+00  0.0000E+00  0.0000E+00
 84  0.0000E+00  3.3488E-04  0.0000E+00  0.0000E+00  0.0000E+00  0.0000E+00  8.0030E-04  0.0000E+00  0.0000E+00
 85  0.0000E+00  5.0148E-04  0.0000E+00  0.0000E+00  4.4445E-04  2.6580E-04  0.0000E+00  0.0000E+00  0.0000E+00
 86  0.0000E+00  5.2749E-04  2.3219E-03  0.0000E+00  0.0000E+00  5.4544E-03  6.4000E-04  5.7948E-03  0.0000E+00
 87  0.0000E+00  7.6296E-04  1.0726E-03  0.0000E+00  0.0000E+00  6.1753E-04  0.0000E+00  0.0000E+00  0.0000E+00
 88  0.0000E+00  6.9531E-04  0.0000E+00  0.0000E+00  0.0000E+00  1.1342E-03  0.0000E+00  0.0000E+00  0.0000E+00
 89  0.0000E+00  8.7809E-04  0.0000E+00  0.0000E+00  0.0000E+00  0.0000E+00  0.0000E+00  1.5515E-03  0.0000E+00
 90  0.0000E+00  1.6342E-03  0.0000E+00  0.0000E+00  0.0000E+00  0.0000E+00  3.5222E-03  0.0000E+00  0.0000E+00
 91  0.0000E+00  3.2196E-03  0.0000E+00  0.0000E+00  0.0000E+00  0.0000E+00  0.0000E+00  0.0000E+00  0.0000E+00
 92  0.0000E+00  7.2618E-03  0.0000E+00  0.0000E+00  0.0000E+00  0.0000E+00  2.7330E-02  0.0000E+00  0.0000E+00
 93  0.0000E+00  7.8288E-02  0.0000E+00  2.8510E-01  0.0000E+00  0.0000E+00  7.4795E-03  0.0000E+00  9.0795E-02
 94  4.0081E-03  4.4720E-01  5.4756E-01  6.3551E-01  2.4454E-01  4.1932E-01  7.4158E-01  9.0900E-01  1.7954E-01
 95  1.1182E+00  4.1939E-01  4.1668E-01  7.0401E-01  0.0000E+00  1.0651E+00  3.1009E-01  1.4674E+00  6.1435E-01
 96  9.9894E-01  6.4559E-01  1.7921E-01  1.6953E-01  1.2898E+00  7.7165E-01  5.0052E-01  1.2971E+00  5.8816E-01
 97  2.0676E+00  9.6332E-01  1.0678E+00  0.0000E+00  2.0868E+00  9.3914E-01  1.5606E+00  8.9070E-01  1.1461E+00
 98  0.0000E+00  7.9926E-01  2.7059E+00  6.4116E-01  8.2010E-01  0.0000E+00  0.0000E+00  2.8712E-01  1.4998E+00
 99  0.0000E+00  6.2341E-01  6.4601E-01  8.1440E-01  3.8378E-01  5.5720E-01  9.7906E-01  7.4607E-01  0.0000E+00
100  4.2765E+00  4.7246E+00  4.9681E+00  5.0279E+00  4.1913E+00  4.6649E+00  4.9007E+00  4.2478E+00  4.3617E+00
101  0.0000E+00  8.8247E-06  0.0000E+00  0.0000E+00  0.0000E+00  0.0000E+00  0.0000E+00  0.0000E+00  0.0000E+00
102  0.0000E+00  7.9055E-06  0.0000E+00  0.0000E+00  0.0000E+00  0.0000E+00  0.0000E+00  0.0000E+00  0.0000E+00
103  0.0000E+00  1.4600E-05  0.0000E+00  0.0000E+00  0.0000E+00  0.0000E+00  0.0000E+00  0.0000E+00  0.0000E+00
104  0.0000E+00  4.5030E-05  3.1850E-05  0.0000E+00  0.0000E+00  0.0000E+00  0.0000E+00  0.0000E+00  3.1880E-05
105  0.0000E+00  2.6755E-05  0.0000E+00  0.0000E+00  0.0000E+00  0.0000E+00  0.0000E+00  0.0000E+00  0.0000E+00
106  0.0000E+00  3.3214E-05  0.0000E+00  0.0000E+00  0.0000E+00  0.0000E+00  0.0000E+00  7.0001E-05  0.0000E+00
107  0.0000E+00  6.0954E-05  0.0000E+00  0.0000E+00  0.0000E+00  0.0000E+00  0.0000E+00  0.0000E+00  0.0000E+00
108  0.0000E+00  1.1755E-04  0.0000E+00  0.0000E+00  1.7160E-04  0.0000E+00  0.0000E+00  0.0000E+00  0.0000E+00
109  0.0000E+00  1.9446E-04  0.0000E+00  0.0000E+00  0.0000E+00  0.0000E+00  2.8706E-04  0.0000E+00  0.0000E+00
110  0.0000E+00  1.8168E-04  0.0000E+00  5.6289E-04  0.0000E+00  0.0000E+00  0.0000E+00  0.0000E+00  0.0000E+00
111  0.0000E+00  2.4068E-04  0.0000E+00  0.0000E+00  3.4086E-04  0.0000E+00  0.0000E+00  0.0000E+00  0.0000E+00
112  0.0000E+00  3.1882E-04  0.0000E+00  0.0000E+00  1.9824E-03  0.0000E+00  0.0000E+00  0.0000E+00  0.0000E+00
113  0.0000E+00  3.9491E-04  7.6167E-03  0.0000E+00  0.0000E+00  0.0000E+00  0.0000E+00  1.2718E-03  0.0000E+00
114  0.0000E+00  1.2761E-03  0.0000E+00  0.0000E+00  3.2661E-03  0.0000E+00  0.0000E+00  1.0033E-03  0.0000E+00
115  0.0000E+00  3.3084E-03  0.0000E+00  0.0000E+00  0.0000E+00  0.0000E+00  0.0000E+00  0.0000E+00  1.9780E-03
116  0.0000E+00  2.0000E-02  1.1350E-01  0.0000E+00  0.0000E+00  0.0000E+00  0.0000E+00  0.0000E+00  0.0000E+00
117  0.0000E+00  2.8966E-02  0.0000E+00  0.0000E+00  5.2267E-02  0.0000E+00  0.0000E+00  0.0000E+00  0.0000E+00
118  0.0000E+00  1.2132E-01  1.1198E-01  0.0000E+00  9.9830E-02  8.7389E-02  0.0000E+00  1.4973E-01  0.0000E+00
119  0.0000E+00  1.9061E-01  1.5875E-01  2.5329E-01  1.5023E-01  3.8389E-01  0.0000E+00  1.0694E-01  0.0000E+00
120  0.0000E+00  1.2249E-01  0.0000E+00  3.1258E-03  0.0000E+00  0.0000E+00  5.5939E-01  0.0000E+00  0.0000E+00
121  0.0000E+00  1.5444E-01  6.2641E-01  2.9333E-04  0.0000E+00  0.0000E+00  7.8943E-02  0.0000E+00  0.0000E+00
122  0.0000E+00  2.7299E-01  2.3460E-01  0.0000E+00  1.3076E+00  0.0000E+00  8.0537E-01  0.0000E+00  3.6437E-01
123  0.0000E+00  2.4560E-01  0.0000E+00  5.2983E-01  0.0000E+00  4.9660E-01  2.8049E-01  0.0000E+00  0.0000E+00
124  0.0000E+00  1.2041E-01  0.0000E+00  0.0000E+00  0.0000E+00  0.0000E+00  0.0000E+00  2.5173E-01  9.3547E-01
125  0.0000E+00  8.4276E-02  6.4361E-01  2.7069E-01  0.0000E+00  0.0000E+00  0.0000E+00  0.0000E+00  0.0000E+00
126  0.0000E+00  1.9648E-05  0.0000E+00  0.0000E+00  0.0000E+00  0.0000E+00  0.0000E+00  0.0000E+00  0.0000E+00
127  0.0000E+00  2.1922E-05  0.0000E+00  2.6181E-05  0.0000E+00  0.0000E+00  0.0000E+00  0.0000E+00  0.0000E+00
128  0.0000E+00  2.9916E-05  0.0000E+00  0.0000E+00  0.0000E+00  0.0000E+00  2.3649E-05  0.0000E+00  0.0000E+00
129  0.0000E+00  2.8258E-05  0.0000E+00  0.0000E+00  0.0000E+00  0.0000E+00  0.0000E+00  0.0000E+00  0.0000E+00
130  0.0000E+00  2.0850E-05  0.0000E+00  0.0000E+00  9.4304E-07  0.0000E+00  0.0000E+00  6.4513E-05  0.0000E+00
131  0.0000E+00  2.5383E-05  0.0000E+00  0.0000E+00  0.0000E+00  0.0000E+00  0.0000E+00  0.0000E+00  0.0000E+00
132  0.0000E+00  1.1768E-04  0.0000E+00  0.0000E+00  0.0000E+00  0.0000E+00  0.0000E+00  0.0000E+00  0.0000E+00
133  0.0000E+00  7.2280E-05  0.0000E+00  0.0000E+00  0.0000E+00  0.0000E+00  1.7790E-04  0.0000E+00  0.0000E+00
134  0.0000E+00  1.9879E-04  0.0000E+00  0.0000E+00  1.3391E-04  0.0000E+00  1.3228E-04  0.0000E+00  0.0000E+00
135  0.0000E+00  2.7840E-04  0.0000E+00  0.0000E+00  0.0000E+00  0.0000E+00  0.0000E+00  0.0000E+00  0.0000E+00
136  0.0000E+00  3.9216E-04  0.0000E+00  0.0000E+00  0.0000E+00  0.0000E+00  0.0000E+00  0.0000E+00  0.0000E+00
137  0.0000E+00  5.8277E-04  0.0000E+00  0.0000E+00  0.0000E+00  0.0000E+00  8.7206E-03  0.0000E+00  0.0000E+00
138  0.0000E+00  9.0125E-04  0.0000E+00  0.0000E+00  0.0000E+00  0.0000E+00  1.1364E-02  0.0000E+00  0.0000E+00
139  0.0000E+00  2.1098E-03  0.0000E+00  0.0000E+00  0.0000E+00  1.8509E-03  0.0000E+00  0.0000E+00  0.0000E+00
140  0.0000E+00  2.5735E-02  0.0000E+00  1.5033E-03  0.0000E+00  0.0000E+00  5.7673E-03  0.0000E+00  1.7457E-02
141  0.0000E+00  1.1731E-01  1.2288E-01  3.3644E-01  1.9006E-01  1.2029E-01  1.3430E-01  0.0000E+00  1.9788E-02
142  2.6910E+00  2.2473E-01  5.5844E-02  2.8943E-01  4.5101E-01  2.3639E-01  6.6815E-02  2.0645E-01  2.4748E-01
143  0.0000E+00  3.7093E-01  4.3967E-01  5.7748E-01  4.1987E-01  4.0434E-01  3.0177E-01  2.9601E-01  5.0871E-01
144  5.2322E-05  2.2050E-01  0.0000E+00  3.7537E-01  1.0553E-01  8.8799E-02  2.9562E-01  7.3391E-01  2.4833E-01
145  2.3834E-03  3.2211E-01  0.0000E+00  0.0000E+00  0.0000E+00  1.0793E+00  0.0000E+00  1.0768E+00  0.0000E+00
146  4.8404E-08  1.5333E-01  0.0000E+00  0.0000E+00  1.6012E-01  0.0000E+00  0.0000E+00  1.0350E+00  0.0000E+00
147  0.0000E+00  1.7007E-01  0.0000E+00  0.0000E+00  0.0000E+00  0.0000E+00  1.3988E+00  9.8593E-03  1.7182E-01
148  0.0000E+00  1.0775E-01  0.0000E+00  0.0000E+00  0.0000E+00  0.0000E+00  0.0000E+00  4.4722E-01  0.0000E+00
149  0.0000E+00  7.4188E-01  7.4574E-01  3.8828E-01  4.6225E-03  0.0000E+00  0.0000E+00  0.0000E+00  0.0000E+00
150  0.0000E+00  4.3697E-01  0.0000E+00  0.0000E+00  0.0000E+00  0.0000E+00  0.0000E+00  7.5101E-02  0.0000E+00

# AV, chi2 & Mass for <> & i_chain = 1 ...  7 solutions
AV       0.2634      0.2491      0.2506      0.2508      0.2516      0.2511      0.2499      0.2490      0.2490
chi2 1.3866E+00  1.4217E+00  1.4115E+00  1.4093E+00  1.4067E+00  1.4095E+00  1.4150E+00  1.4067E+00  1.4090E+00
Mass 1.8041E-10  1.9056E-10  1.9246E-10  1.8438E-10  1.8897E-10  1.8841E-10  1.8747E-10  1.8695E-10  1.8997E-10
 -14.29                                  [v0_min (km/s) before EX0s...]
  69.21                                  [vd_min (km/s) before EX0s...]


## Synthetic spectrum (Best Model) ##l_obs f_obs f_syn wei
 3070    [Nl_obs]
 3359.00    0.00000   0.45944   -2.000
 3360.00    0.04239   0.44022   -1.000
 3361.00    0.28427   0.44669   -1.000
 3362.00    0.30571   0.47416   -1.000
 3363.00    0.34639   0.50772   -1.000
 3364.00    0.33084   0.52960   -1.000
 3365.00    0.35083   0.53198   -1.000
 3366.00    0.36539   0.52051   -1.000
 3367.00    0.35746   0.50374   -1.000
 3368.00    0.33949   0.48802   -1.000
 3369.00    0.34000   0.47445   -1.000
 3370.00    0.34346   0.46130   -1.000
 3371.00    0.32823   0.45361   -1.000
 3372.00    0.33358   0.45833   -1.000
 3373.00    0.36769   0.47735   -1.000
 3374.00    0.38750   0.50557   -1.000
 3375.00    0.40662   0.53336   -1.000
 3376.00    0.42218   0.54811   -1.000
 3377.00    0.41473   0.54375   -1.000
 3378.00    0.38889   0.52664   -1.000
 3379.00    0.39442   0.51003   -1.000
 3380.00    0.41423   0.50368   -1.000
 3381.00    0.42314   0.50889   -1.000
 3382.00    0.41692   0.52038   -1.000
 3383.00    0.43029   0.53161   -1.000
 3384.00    0.42840   0.54050   -1.000
 3385.00    0.45168   0.54664   -1.000
 3386.00    0.46077   0.54633   -1.000
 3387.00    0.46866   0.54108   -1.000
 3388.00    0.46457   0.53840   -1.000
 3389.00    0.45067   0.54112   -1.000
 3390.00    0.46372   0.54414   -1.000
 3391.00    0.47688   0.54091   -1.000
 3392.00    0.48937   0.53113   -1.000
 3393.00    0.48932   0.52589   -1.000
 3394.00    0.45873   0.53368   -1.000
 3395.00    0.47724   0.55149   -1.000
 3396.00    0.50602   0.57204   -1.000
 3397.00    0.51740   0.58908   -1.000
 3398.00    0.51406   0.59855   -1.000
 3399.00    0.53534   0.59823   -1.000
 3400.00    0.53210   0.58991   -1.000
 3401.00    0.51045   0.57582   -1.000
 3402.00    0.51700   0.55935   -1.000
 3403.00    0.50656   0.54751   -1.000
 3404.00    0.50407   0.54264   -1.000
 3405.00    0.49307   0.54154   -1.000
 3406.00    0.49647   0.53814   -1.000
 3407.00    0.48964   0.53204   -1.000
 3408.00    0.49332   0.52855   -1.000
 3409.00    0.50833   0.53247   -1.000
 3410.00    0.48662   0.53932   -1.000
 3411.00    0.47748   0.53961   -1.000
 3412.00    0.50846   0.53245   -1.000
 3413.00    0.45820   0.52422   -1.000
 3414.00    0.43706   0.52358   -1.000
 3415.00    0.47692   0.53248   -1.000
 3416.00    0.49728   0.54583   -1.000
 3417.00    0.50865   0.55965   -1.000
 3418.00    0.51771   0.57292   -1.000
 3419.00    0.50670   0.58427   -1.000
 3420.00    0.53551   0.59014   -1.000
 3421.00    0.54113   0.58661   -1.000
 3422.00    0.52472   0.57495   -1.000
 3423.00    0.53713   0.56332   -1.000
 3424.00    0.52670   0.55913   -1.000
 3425.00    0.53017   0.56217   -1.000
 3426.00    0.53959   0.56901   -1.000
 3427.00    0.55904   0.58059  126.092
 3428.00    0.56883   0.59748   -1.000
 3429.00    0.58783   0.61189   -1.000
 3430.00    0.58598   0.61260   -1.000
 3431.00    0.59223   0.59770   -1.000
 3432.00    0.56861   0.57923   -1.000
 3433.00    0.55250   0.57085   -1.000
 3434.00    0.54385   0.57687   -1.000
 3435.00    0.55541   0.58775   -1.000
 3436.00    0.57623   0.59004   -1.000
 3437.00    0.57541   0.57987  567.082
 3438.00    0.56158   0.56036  125.909
 3439.00    0.52000   0.53546  132.085
 3440.00    0.49294   0.50964  140.387
 3441.00    0.49650   0.49062  150.919
 3442.00    0.48344   0.48486  156.167
 3443.00    0.49583   0.49118  156.242
 3444.00    0.51317   0.50449  154.813
 3445.00    0.50641   0.52191  148.285
 3446.00    0.54213   0.54403  140.124
 3447.00    0.54925   0.56854  132.755
 3448.00    0.57597   0.58886  145.460
 3449.00    0.58491   0.59718   -1.000
 3450.00    0.57327   0.58951   -1.000
 3451.00    0.56755   0.57184   -1.000
 3452.00    0.55703   0.55638  843.194
 3453.00    0.57077   0.55214   -1.000
 3454.00    0.57134   0.55832   -1.000
 3455.00    0.56734   0.56693  843.194
 3456.00    0.57623   0.56932   -1.000
 3457.00    0.60243   0.56254   -1.000
 3458.00    0.60449   0.55052   -1.000
 3459.00    0.55250   0.53756   -1.000
 3460.00    0.54003   0.52751  125.750
 3461.00    0.54780   0.52797  127.143
 3462.00    0.55081   0.54124  142.321
 3463.00    0.54676   0.55654   -1.000
 3464.00    0.57296   0.56269   -1.000
 3465.00    0.55784   0.56074  843.194
 3466.00    0.54711   0.56077   -1.000
 3467.00    0.56380   0.56952   -1.000
 3468.00    0.58564   0.58434  843.194
 3469.00    0.58594   0.59722   -1.000
 3470.00    0.61020   0.60056   -1.000
 3471.00    0.60297   0.59253   -1.000
 3472.00    0.58588   0.57566   -1.000
 3473.00    0.57535   0.55307   -1.000
 3474.00    0.55311   0.53090   -1.000
 3475.00    0.51767   0.51802  591.194
 3476.00    0.53101   0.52048  127.146
 3477.00    0.54053   0.53623  131.026
 3478.00    0.57134   0.55610  143.901
 3479.00    0.59099   0.57295   -1.000
 3480.00    0.57795   0.58316   -1.000
 3481.00    0.57065   0.58457   -1.000
 3482.00    0.60170   0.57893   -1.000
 3483.00    0.61312   0.57245   -1.000
 3484.00    0.62491   0.57272   -1.000
 3485.00    0.60642   0.58300   -1.000
 3486.00    0.60664   0.59570   -1.000
 3487.00    0.63299   0.59846   -1.000
 3488.00    0.61699   0.58701   -1.000
 3489.00    0.62395   0.56768   -1.000
 3490.00    0.57889   0.55334   -1.000
 3491.00    0.56448   0.55183   -1.000
 3492.00    0.56751   0.55813   -1.000
 3493.00    0.57217   0.56220   -1.000
 3494.00    0.57192   0.55892   -1.000
 3495.00    0.57564   0.54976   -1.000
 3496.00    0.57249   0.54320   -1.000
 3497.00    0.56003   0.54798   -1.000
 3498.00    0.56769   0.56230   -1.000
 3499.00    0.58621   0.57654   -1.000
 3500.00    0.59244   0.58367   -1.000
 3501.00    0.61919   0.58701   -1.000
 3502.00    0.65714   0.59141   -1.000
 3503.00    0.62991   0.59457   -1.000
 3504.00    0.60127   0.59186   -1.000
 3505.00    0.59347   0.58383   -1.000
 3506.00    0.60179   0.57620   -1.000
 3507.00    0.59971   0.57254   -1.000
 3508.00    0.60106   0.57137   -1.000
 3509.00    0.60031   0.56908   -1.000
 3510.00    0.61400   0.56408   -1.000
 3511.00    0.60640   0.55763   -1.000
 3512.00    0.60326   0.54994   -1.000
 3513.00    0.58794   0.54341   -1.000
 3514.00    0.59117   0.54556   -1.000
 3515.00    0.56144   0.56132  843.194
 3516.00    0.60582   0.58594   -1.000
 3517.00    0.63149   0.60532   -1.000
 3518.00    0.61856   0.60797   -1.000
 3519.00    0.60418   0.59433   -1.000
 3520.00    0.61646   0.57440   -1.000
 3521.00    0.57675   0.55753   -1.000
 3522.00    0.57619   0.54459   -1.000
 3523.00    0.55781   0.53165   -1.000
 3524.00    0.52932   0.51939   -1.000
 3525.00    0.53293   0.51485  125.963
 3526.00    0.52177   0.52435  129.943
 3527.00    0.54486   0.54566  142.973
 3528.00    0.55571   0.57031   -1.000
 3529.00    0.57877   0.58927   -1.000
 3530.00    0.59644   0.59849  843.194
 3531.00    0.61734   0.59937   -1.000
 3532.00    0.61144   0.59544   -1.000
 3533.00    0.63249   0.59128   -1.000
 3534.00    0.62476   0.59061   -1.000
 3535.00    0.60879   0.59477   -1.000
 3536.00    0.61452   0.60375   -1.000
 3537.00    0.60193   0.61548   -1.000
 3538.00    0.59729   0.62654   -1.000
 3539.00    0.70047   0.63263   -1.000
 3540.00    0.64753   0.63147   -1.000
 3541.00    0.63854   0.62756   -1.000
 3542.00    0.63035   0.62751  843.194
 3543.00    0.62906   0.63231   -1.000
 3544.00    0.62408   0.63706   -1.000
 3545.00    0.63647   0.63685  843.194
 3546.00    0.62776   0.63229   -1.000
 3547.00    0.63796   0.62745   -1.000
 3548.00    0.59969   0.62595   -1.000
 3549.00    0.62576   0.62838  843.194
 3550.00    0.62021   0.63195   -1.000
 3551.00    0.60736   0.63154   -1.000
 3552.00    0.60875   0.62397   -1.000
 3553.00    0.57574   0.61348   -1.000
 3554.00    0.59194   0.60744   -1.000
 3555.00    0.60417   0.60895   -1.000
 3556.00    0.59633   0.61476   -1.000
 3557.00    0.59258   0.61937   -1.000
 3558.00    0.58682   0.62011   -1.000
 3559.00    0.60067   0.61964   -1.000
 3560.00    0.60542   0.62244   -1.000
 3561.00    0.59210   0.62815   -1.000
 3562.00    0.62466   0.62894   -1.000
 3563.00    0.60527   0.61537   -1.000
 3564.00    0.60127   0.58793   -1.000
 3565.00    0.56266   0.56125  644.056
 3566.00    0.53183   0.54770  127.261
 3567.00    0.52738   0.54532  131.828
 3568.00    0.51703   0.54356   -1.000
 3569.00    0.49189   0.53529   -1.000
 3570.00    0.48922   0.52565   -1.000
 3571.00    0.50611   0.52367  136.186
 3572.00    0.52903   0.52985  131.654
 3573.00    0.54234   0.53851  138.292
 3574.00    0.54871   0.54592   -1.000
 3575.00    0.54318   0.55273   -1.000
 3576.00    0.55986   0.55938  843.194
 3577.00    0.56202   0.56278  843.194
 3578.00    0.56091   0.55794   -1.000
 3579.00    0.55187   0.54339   -1.000
 3580.00    0.52951   0.52486  131.946
 3581.00    0.50082   0.51093  142.229
 3582.00    0.49353   0.50724  149.338
 3583.00    0.50852   0.50918  150.195
 3584.00    0.50730   0.50479  151.107
 3585.00    0.48655   0.49174  155.082
 3586.00    0.47892   0.48005  159.950
 3587.00    0.48536   0.48093  161.149
 3588.00    0.50378   0.49740  152.843
 3589.00    0.51295   0.52352  144.760
 3590.00    0.52249   0.55003   -1.000
 3591.00    0.56863   0.56894  137.242
 3592.00    0.55303   0.57761   -1.000
 3593.00    0.56965   0.58110   -1.000
 3594.00    0.58867   0.58770  843.194
 3595.00    0.57978   0.60037   -1.000
 3596.00    0.58637   0.61417   -1.000
 3597.00    0.61780   0.62475   -1.000
 3598.00    0.62668   0.63165   -1.000
 3599.00    0.62900   0.63396   -1.000
 3600.00    0.61147   0.62797   -1.000
 3601.00    0.61426   0.61211  843.194
 3602.00    0.60937   0.59236   -1.000
 3603.00    0.58345   0.57756   -1.000
 3604.00    0.58741   0.57264   -1.000
 3605.00    0.57694   0.57369   -1.000
 3606.00    0.56082   0.57281   -1.000
 3607.00    0.57867   0.56647   -1.000
 3608.00    0.55258   0.55766   -1.000
 3609.00    0.54691   0.55341   -1.000
 3610.00    0.54452   0.55738   -1.000
 3611.00    0.54894   0.56628   -1.000
 3612.00    0.56266   0.57579   -1.000
 3613.00    0.56863   0.58549   -1.000
 3614.00    0.58208   0.59746   -1.000
 3615.00    0.59831   0.60762   -1.000
 3616.00    0.59172   0.60380   -1.000
 3617.00    0.56933   0.58307   -1.000
 3618.00    0.54903   0.56014   -1.000
 3619.00    0.54465   0.55282   -1.000
 3620.00    0.54404   0.56552  135.111
 3621.00    0.56374   0.58780   -1.000
 3622.00    0.59750   0.60747   -1.000
 3623.00    0.61769   0.62097  843.194
 3624.00    0.62741   0.63428   -1.000
 3625.00    0.62320   0.65301   -1.000
 3626.00    0.65001   0.67360   -1.000
 3627.00    0.66236   0.68507   -1.000
 3628.00    0.67578   0.67512  843.194
 3629.00    0.62167   0.64250   -1.000
 3630.00    0.57786   0.60220   -1.000
 3631.00    0.54361   0.57519   -1.000
 3632.00    0.53229   0.57157   -1.000
 3633.00    0.55191   0.58428   -1.000
 3634.00    0.58053   0.59871   -1.000
 3635.00    0.59052   0.60733   -1.000
 3636.00    0.60901   0.61465   -1.000
 3637.00    0.62819   0.62747  843.194
 3638.00    0.61755   0.64402   -1.000
 3639.00    0.64244   0.65684   -1.000
 3640.00    0.64906   0.65916   -1.000
 3641.00    0.62324   0.64953   -1.000
 3642.00    0.63165   0.63246  843.194
 3643.00    0.60536   0.61516   -1.000
 3644.00    0.59730   0.60263   -1.000
 3645.00    0.57176   0.59462   -1.000
 3646.00    0.59296   0.58874   -1.000
 3647.00    0.56344   0.58563   -1.000
 3648.00    0.57231   0.58672   -1.000
 3649.00    0.57552   0.59232   -1.000
 3650.00    0.60282   0.60302  843.194
 3651.00    0.60362   0.61870   -1.000
 3652.00    0.62280   0.63657   -1.000
 3653.00    0.62951   0.65241   -1.000
 3654.00    0.64538   0.66438   -1.000
 3655.00    0.65827   0.67394   -1.000
 3656.00    0.65691   0.68252   -1.000
 3657.00    0.65810   0.68879   -1.000
 3658.00    0.66036   0.69153   -1.000
 3659.00    0.64815   0.69118   -1.000
 3660.00    0.64077   0.68725   -1.000
 3661.00    0.65093   0.67940   -1.000
 3662.00    0.65531   0.66996   -1.000
 3663.00    0.64722   0.66298   -1.000
 3664.00    0.64216   0.66138   -1.000
 3665.00    0.65191   0.66341   -1.000
 3666.00    0.66545   0.66425  843.194
 3667.00    0.68449   0.66000   -1.000
 3668.00    0.66716   0.65172   -1.000
 3669.00    0.63233   0.64638   -1.000
 3670.00    0.62698   0.64955   -1.000
 3671.00    0.63201   0.66014   -1.000
 3672.00    0.65068   0.67132   -1.000
 3673.00    0.64474   0.67649   -1.000
 3674.00    0.64952   0.67350   -1.000
 3675.00    0.66187   0.66289  843.194
 3676.00    0.64651   0.64694  843.194
 3677.00    0.62956   0.63008  843.194
 3678.00    0.61312   0.61799   -1.000
 3679.00    0.61855   0.61454   -1.000
 3680.00    0.60385   0.61854   -1.000
 3681.00    0.60867   0.62635   -1.000
 3682.00    0.63511   0.63375  843.194
 3683.00    0.64336   0.63606   -1.000
 3684.00    0.60662   0.62961   -1.000
 3685.00    0.61642   0.61577  843.194
 3686.00    0.60200   0.60415  843.194
 3687.00    0.59887   0.60557   -1.000
 3688.00    0.60682   0.62265   -1.000
 3689.00    0.62197   0.64714   -1.000
 3690.00    0.64907   0.66724   -1.000
 3691.00    0.66648   0.67644   -1.000
 3692.00    0.66229   0.67679   -1.000
 3693.00    0.65793   0.67431   -1.000
 3694.00    0.66586   0.67214   -1.000
 3695.00    0.66433   0.66990   -1.000
 3696.00    0.65261   0.66825   -1.000
 3697.00    0.67611   0.67319  843.194
 3698.00    0.67849   0.68925   -1.000
 3699.00    0.68330   0.71044   -1.000
 3700.00    0.70120   0.72218   -1.000
 3701.00    0.70863   0.71030  819.797
 3702.00    0.68900   0.67410   -1.000
 3703.00    0.63479   0.62815   -1.000
 3704.00    0.60117   0.59119   -1.000
 3705.00    0.57815   0.57557   -1.000
 3706.00    0.57459   0.58067   -1.000
 3707.00    0.58496   0.59539   -1.000
 3708.00    0.60888   0.60793  843.194
 3709.00    0.60574   0.61283   -1.000
 3710.00    0.63493   0.61368   -1.000
 3711.00    0.64840   0.61983   -1.000
 3712.00    0.67550   0.63828   -1.000
 3713.00    0.68900   0.66765   -1.000
 3714.00    0.70694   0.69867   -1.000
 3715.00    0.71997   0.71981  813.781
 3716.00    0.71261   0.72436   -1.000
 3717.00    0.70415   0.70950   -1.000
 3718.00    0.69776   0.67158   -1.000
 3719.00    0.62224   0.61416   -1.000
 3720.00    0.55446   0.55797  843.194
 3721.00    0.51977   0.52810   -1.000
 3722.00    0.55028   0.53567  134.482
 3723.00    0.57460   0.57579  843.194
 3724.00    0.62487   0.62908  843.194
 3725.00    0.67702   0.66943   -1.000
 3726.00    0.69411   0.68685   -1.000
 3727.00    0.67957   0.69186   -1.000
 3728.00    0.69568   0.69566  843.194
 3729.00    0.68769   0.69732   -1.000
 3730.00    0.66612   0.68568   -1.000
 3731.00    0.65622   0.64986   -1.000
 3732.00    0.61008   0.59318   -1.000
 3733.00    0.53566   0.53328  764.427
 3734.00    0.50715   0.49022  125.822
 3735.00    0.51411   0.47968   -1.000
 3736.00    0.52866   0.50494   -1.000
 3737.00    0.56342   0.55576  137.233
 3738.00    0.59463   0.61704  131.378
 3739.00    0.64486   0.67241   -1.000
 3740.00    0.68790   0.70637   -1.000
 3741.00    0.71147   0.71330  843.194
 3742.00    0.70604   0.69868   -1.000
 3743.00    0.67135   0.67321  843.194
 3744.00    0.66190   0.64571   -1.000
 3745.00    0.62707   0.61869   -1.000
 3746.00    0.60104   0.58913   -1.000
 3747.00    0.57042   0.55428   -1.000
 3748.00    0.53646   0.51917  127.240
 3749.00    0.51610   0.49944  135.187
 3750.00    0.52806   0.51089  143.085
 3751.00    0.58196   0.55452   -1.000
 3752.00    0.64948   0.61598   -1.000
 3753.00    0.69735   0.67655   -1.000
 3754.00    0.73279   0.72006   -1.000
 3755.00    0.75828   0.73692   -1.000
 3756.00    0.71492   0.72505   -1.000
 3757.00    0.68532   0.69367   -1.000
 3758.00    0.67124   0.66275   -1.000
 3759.00    0.64415   0.64944   -1.000
 3760.00    0.64549   0.65512   -1.000
 3761.00    0.67990   0.66990   -1.000
 3762.00    0.70426   0.68392   -1.000
 3763.00    0.71297   0.69192   -1.000
 3764.00    0.70206   0.69178   -1.000
 3765.00    0.71601   0.68302   -1.000
 3766.00    0.69875   0.66656   -1.000
 3767.00    0.67597   0.64349   -1.000
 3768.00    0.64409   0.61600   -1.000
 3769.00    0.63731   0.59028   -1.000
 3770.00    0.61894   0.57782   -1.000
 3771.00    0.62185   0.59009   -1.000
 3772.00    0.65719   0.62461   -1.000
 3773.00    0.69472   0.66434   -1.000
 3774.00    0.71810   0.69436   -1.000
 3775.00    0.74944   0.71358   -1.000
 3776.00    0.75362   0.72948   -1.000
 3777.00    0.75943   0.74904   -1.000
 3778.00    0.76188   0.77248   -1.000
 3779.00    0.79620   0.79549  843.194
 3780.00    0.80875   0.81375   -1.000
 3781.00    0.82284   0.82396   -1.000
 3782.00    0.81309   0.82609   -1.000
 3783.00    0.81476   0.82126   -1.000
 3784.00    0.81157   0.80813  792.771
 3785.00    0.78810   0.78563  812.573
 3786.00    0.76484   0.75815   -1.000
 3787.00    0.72892   0.73395   -1.000
 3788.00    0.71751   0.72049   -1.000
 3789.00    0.73589   0.71833   -1.000
 3790.00    0.73873   0.72112   -1.000
 3791.00    0.74523   0.71992   -1.000
 3792.00    0.71621   0.70785   -1.000
 3793.00    0.70103   0.68320   -1.000
 3794.00    0.67361   0.64876   -1.000
 3795.00    0.62497   0.60935   -1.000
 3796.00    0.58641   0.56886   -1.000
 3797.00    0.57829   0.53555   -1.000
 3798.00    0.57990   0.52728   -1.000
 3799.00    0.59944   0.55624   -1.000
 3800.00    0.63177   0.61387   -1.000
 3801.00    0.68954   0.67804   -1.000
 3802.00    0.73789   0.72949   -1.000
 3803.00    0.78366   0.76025   -1.000
 3804.00    0.80033   0.77205   -1.000
 3805.00    0.77177   0.76974  843.194
 3806.00    0.75939   0.76408   -1.000
 3807.00    0.76580   0.76795   -1.000
 3808.00    0.78003   0.78473   -1.000
 3809.00    0.78541   0.80585   -1.000
 3810.00    0.81947   0.81712  843.194
 3811.00    0.81116   0.80831  843.194
 3812.00    0.77224   0.78042   -1.000
 3813.00    0.74797   0.74527  843.194
 3814.00    0.72860   0.71869   -1.000
 3815.00    0.69641   0.71197   -1.000
 3816.00    0.73382   0.72254   -1.000
 3817.00    0.73160   0.73488   -1.000
 3818.00    0.73436   0.73315  843.194
 3819.00    0.71422   0.71576  843.194
 3820.00    0.70126   0.69822  843.194
 3821.00    0.70179   0.69497   -1.000
 3822.00    0.71075   0.70074   -1.000
 3823.00    0.69652   0.69708  843.194
 3824.00    0.70179   0.67713   -1.000
 3825.00    0.64943   0.65252  843.194
 3826.00    0.63224   0.63545  131.221
 3827.00    0.61059   0.62761  133.873
 3828.00    0.61150   0.62387  132.596
 3829.00    0.62191   0.61806  130.425
 3830.00    0.59628   0.60450  128.399
 3831.00    0.57830   0.57880  130.228
 3832.00    0.55874   0.54114  136.439
 3833.00    0.51455   0.49988  147.353
 3834.00    0.49769   0.47014   -1.000
 3835.00    0.51258   0.46139   -1.000
 3836.00    0.52841   0.47193   -1.000
 3837.00    0.52313   0.49425   -1.000
 3838.00    0.54631   0.52155   -1.000
 3839.00    0.56796   0.55245  145.753
 3840.00    0.60412   0.59002  142.824
 3841.00    0.63900   0.63440  138.289
 3842.00    0.70001   0.68027   -1.000
 3843.00    0.75064   0.71961   -1.000
 3844.00    0.77166   0.74649   -1.000
 3845.00    0.79853   0.76314   -1.000
 3846.00    0.80025   0.77519   -1.000
 3847.00    0.77358   0.78293   -1.000
 3848.00    0.78416   0.78313  843.194
 3849.00    0.77001   0.77830   -1.000
 3850.00    0.76848   0.77746   -1.000
 3851.00    0.77097   0.78651   -1.000
 3852.00    0.77735   0.80039   -1.000
 3853.00    0.79031   0.80743   -1.000
 3854.00    0.79412   0.80161   -1.000
 3855.00    0.75765   0.78686   -1.000
 3856.00    0.74227   0.76949   -1.000
 3857.00    0.72656   0.75222   -1.000
 3858.00    0.70985   0.73726   -1.000
 3859.00    0.70328   0.73156   -1.000
 3860.00    0.70934   0.74186   -1.000
 3861.00    0.73028   0.76585   -1.000
 3862.00    0.77107   0.79144   -1.000
 3863.00    0.80818   0.80615  843.194
 3864.00    0.81080   0.80843  843.194
 3865.00    0.80865   0.80553  843.194
 3866.00    0.79822   0.80435   -1.000
 3867.00    0.78988   0.80670   -1.000
 3868.00    0.79035   0.80765   -1.000
 3869.00    0.79162   0.79941   -1.000
 3870.00    0.75811   0.77957   -1.000
 3871.00    0.72361   0.75450   -1.000
 3872.00    0.70047   0.73657   -1.000
 3873.00    0.71254   0.73670   -1.000
 3874.00    0.72719   0.75248   -1.000
 3875.00    0.76164   0.76608   -1.000
 3876.00    0.76143   0.76166  843.194
 3877.00    0.72166   0.74225   -1.000
 3878.00    0.69842   0.72452   -1.000
 3879.00    0.70236   0.71947   -1.000
 3880.00    0.71729   0.72289   -1.000
 3881.00    0.71560   0.72351   -1.000
 3882.00    0.70336   0.71672   -1.000
 3883.00    0.71481   0.70357   -1.000
 3884.00    0.70435   0.68105   -1.000
 3885.00    0.67320   0.64415   -1.000
 3886.00    0.64402   0.59642   -1.000
 3887.00    0.60315   0.55242   -1.000
 3888.00    0.57442   0.52922   -1.000
 3889.00    0.58798   0.53750   -1.000
 3890.00    0.63429   0.57615   -1.000
 3891.00    0.68576   0.62936   -1.000
 3892.00    0.70560   0.67433   -1.000
 3893.00    0.71051   0.69975   -1.000
 3894.00    0.73251   0.71203   -1.000
 3895.00    0.72488   0.72315  843.194
 3896.00    0.75856   0.73789   -1.000
 3897.00    0.77582   0.75159   -1.000
 3898.00    0.75044   0.75885   -1.000
 3899.00    0.75950   0.76212  830.000
 3900.00    0.77973   0.76815   -1.000
 3901.00    0.81722   0.77700   -1.000
 3902.00    0.81006   0.78195   -1.000
 3903.00    0.77972   0.77873  830.287
 3904.00    0.75619   0.77074   -1.000
 3905.00    0.76524   0.76698   -1.000
 3906.00    0.75466   0.77564   -1.000
 3907.00    0.78730   0.79913   -1.000
 3908.00    0.80349   0.82979   -1.000
 3909.00    0.82332   0.85493   79.331
 3910.00    0.83548   0.86884   77.547
 3911.00    0.86295   0.87279   76.878
 3912.00    0.85731   0.86829   76.144
 3913.00    0.85595   0.85773   75.716
 3914.00    0.85511   0.84653   76.660
 3915.00    0.81828   0.83928   78.280
 3916.00    0.81870   0.83506   80.125
 3917.00    0.81301   0.82891   81.117
 3918.00    0.80138   0.81774   82.215
 3919.00    0.77449   0.80345   84.680
 3920.00    0.76292   0.79124   88.483
 3921.00    0.77042   0.78588   92.720
 3922.00    0.76193   0.78773   94.531
 3923.00    0.75837   0.79139   -1.000
 3924.00    0.75060   0.78863   -1.000
 3925.00    0.73964   0.77279   -1.000
 3926.00    0.69312   0.74136   -1.000
 3927.00    0.65478   0.69636   -1.000
 3928.00    0.60895   0.64218   -1.000
 3929.00    0.53664   0.58120   13.897
 3930.00    0.47329   0.51212   16.296
 3931.00    0.39743   0.43681   19.064
 3932.00    0.32778   0.36743   22.567
 3933.00    0.30822   0.32611   26.382
 3934.00    0.30994   0.33166   28.767
 3935.00    0.35909   0.38217   27.492
 3936.00    0.41448   0.45801   23.816
 3937.00    0.48461   0.53955   19.677
 3938.00    0.56900   0.61381   16.159
 3939.00    0.63898   0.67328   13.651
 3940.00    0.66268   0.71507   -1.000
 3941.00    0.69005   0.73907   -1.000
 3942.00    0.69987   0.74982   -1.000
 3943.00    0.72074   0.75586   -1.000
 3944.00    0.74632   0.76561  106.422
 3945.00    0.77150   0.78155  100.930
 3946.00    0.77754   0.79792   91.583
 3947.00    0.78093   0.80786   86.350
 3948.00    0.78927   0.81151   85.501
 3949.00    0.80154   0.81339   84.885
 3950.00    0.82213   0.81512   81.697
 3951.00    0.82354   0.81613   79.034
 3952.00    0.80450   0.81884   79.470
 3953.00    0.82722   0.82486   80.666
 3954.00    0.83895   0.82878   79.173
 3955.00    0.82800   0.82428   77.169
 3956.00    0.81103   0.81362   78.083
 3957.00    0.80461   0.80484   81.015
 3958.00    0.79966   0.79905   82.293
 3959.00    0.79609   0.78605   80.764
 3960.00    0.76657   0.75715   82.732
 3961.00    0.71072   0.71620   91.794
 3962.00    0.66203   0.67356  103.799
 3963.00    0.62136   0.63234  114.809
 3964.00    0.56464   0.58386  120.341
 3965.00    0.50189   0.51766   13.083
 3966.00    0.43224   0.43495   15.336
 3967.00    0.36591   0.35437   18.941
 3968.00    0.32284   0.30227   23.168
 3969.00    0.31124   0.29624   25.559
 3970.00    0.34711   0.33686   23.684
 3971.00    0.42805   0.40901   19.496
 3972.00    0.50635   0.49135   16.016
 3973.00    0.57772   0.56910   13.401
 3974.00    0.64242   0.63687  111.836
 3975.00    0.71836   0.69387  102.145
 3976.00    0.75932   0.74104   92.045
 3977.00    0.78243   0.78015   84.854
 3978.00    0.82630   0.81292   79.883
 3979.00    0.84144   0.83689   75.702
 3980.00    0.84165   0.84825   71.615
 3981.00    0.85622   0.84929   70.817
 3982.00    0.85099   0.84867   71.340
 3983.00    0.85347   0.85481   72.749
 3984.00    0.88435   0.86835   72.184
 3985.00    0.87894   0.88309   70.655
 3986.00    0.89317   0.89492   69.262
 3987.00    0.90935   0.90490   68.149
 3988.00    0.91749   0.91382   66.833
 3989.00    0.92132   0.92097   66.204
 3990.00    0.94032   0.92800   66.469
 3991.00    0.93552   0.93742   66.032
 3992.00    0.95844   0.94773   64.472
 3993.00    0.97075   0.95292   62.901
 3994.00    0.95072   0.94754   63.708
 3995.00    0.92632   0.93244   65.271
 3996.00    0.92213   0.91591   66.774
 3997.00    0.90093   0.90855   68.050
 3998.00    0.92096   0.91477   68.609
 3999.00    0.93529   0.93064   67.020
 4000.00    0.95218   0.94832   63.894
 4001.00    0.97795   0.96008   61.743
 4002.00    0.98661   0.96080   60.778
 4003.00    0.96963   0.94898   59.910
 4004.00    0.94733   0.92831   61.135
 4005.00    0.91238   0.91170   65.388
 4006.00    0.91134   0.91325   68.756
 4007.00    0.92782   0.93273   68.156
 4008.00    0.98406   0.95695   64.134
 4009.00    0.98208   0.97403   61.614
 4010.00    0.98704   0.98137   60.831
 4011.00    0.99957   0.98228   60.176
 4012.00    1.00850   0.98120   59.983
 4013.00    0.94049   0.98183   60.427
 4014.00    1.01123   0.98516   60.755
 4015.00    1.00784   0.98936   60.287
 4016.00    0.97682   0.99258   59.418
 4017.00    0.97893   0.99596   59.956
 4018.00    1.00657   1.00135   60.706
 4019.00    0.98671   1.00720   60.398
 4020.00    1.00000   1.00947   59.445
 4021.00    1.01462   1.00606   59.605
 4022.00    1.00701   0.99850   60.498
 4023.00    0.97994   0.98975   60.845
 4024.00    0.99220   0.98464   61.244
 4025.00    1.00410   0.98903   61.727
 4026.00    1.00243   1.00241   60.164
 4027.00    1.00647   1.01342   57.998
 4028.00    1.01027   1.00936   56.835
 4029.00    0.98753   0.98874   57.374
 4030.00    0.96496   0.96105   59.781
 4031.00    0.94422   0.93874   63.930
 4032.00    0.92484   0.92959   66.609
 4033.00    0.92219   0.93460   67.386
 4034.00    0.95619   0.95150   66.509
 4035.00    0.97533   0.97746   64.312
 4036.00    1.00987   1.00809   61.107
 4037.00    1.04412   1.03414   58.090
 4038.00    1.03151   1.04544   56.053
 4039.00    1.01156   1.04163   55.859
 4040.00    1.01627   1.03169   57.070
 4041.00    1.00127   1.02165   58.442
 4042.00    1.01925   1.00710   59.071
 4043.00    0.98862   0.97914   59.352
 4044.00    0.93612   0.94211   62.259
 4045.00    0.89893   0.91662   68.424
 4046.00    0.89069   0.92002   73.733
 4047.00    0.93594   0.94972   70.646
 4048.00    1.00121   0.98690   63.711
 4049.00    1.02738   1.01400   59.858
 4050.00    1.03568   1.02565   58.160
 4051.00    1.02349   1.02438   57.495
 4052.00    1.01593   1.01436   57.902
 4053.00    0.99090   1.00154   59.514
 4054.00    0.99765   0.99195   61.059
 4055.00    1.00538   0.98682   62.004
 4056.00    0.99058   0.98449   62.494
 4057.00    0.98805   0.98614   62.916
 4058.00    0.98713   0.99456   63.580
 4059.00    1.00915   1.00588   62.820
 4060.00    1.00885   1.00789   60.518
 4061.00    0.99359   0.99205   59.321
 4062.00    0.96816   0.96327   60.357
 4063.00    0.93608   0.93633   64.837
 4064.00    0.93277   0.92413   69.352
 4065.00    0.93298   0.92873   68.253
 4066.00    0.95822   0.94294   64.855
 4067.00    0.98306   0.95878   63.280
 4068.00    1.00904   0.97027   61.567
 4069.00    1.00819   0.97101   59.571
 4070.00    1.00213   0.95874   58.814
 4071.00    0.98051   0.94285   61.163
 4072.00    0.97474   0.93722   63.987
 4073.00    0.98707   0.94291   63.522
 4074.00    0.97161   0.94587   61.160
 4075.00    0.96113   0.93376   60.833
 4076.00    0.92342   0.91065   63.810
 4077.00    0.91637   0.89379   69.310
 4078.00    0.90892   0.89842   71.413
 4079.00    0.91189   0.92489   69.044
 4080.00    0.95825   0.95726   64.276
 4081.00    0.99427   0.97694   59.835
 4082.00    0.99856   0.97742   58.019
 4083.00    0.99474   0.96609   59.007
 4084.00    0.97116   0.95617   61.049
 4085.00    0.97112   0.95720   61.986
 4086.00    0.99670   0.97013   61.061
 4087.00    1.01700   0.98816   58.986
 4088.00    1.04663   1.00166   56.711
 4089.00    1.04740   1.00456   54.883
 4090.00    1.03484   0.99831   55.131
 4091.00    1.02927   0.98863   56.281
 4092.00    1.01090   0.97792   57.337
 4093.00    1.01133   0.96462   57.985
 4094.00    0.98780   0.94638   58.036
 4095.00    0.95900   0.92268   59.106
 4096.00    0.93984   0.89516   61.842
 4097.00    0.91146   0.86373   63.920
 4098.00    0.87569   0.82420   -1.000
 4099.00    0.82313   0.77188   -1.000
 4100.00    0.77046   0.71432   -1.000
 4101.00    0.73002   0.67476   -1.000
 4102.00    0.73510   0.67586   -1.000
 4103.00    0.76104   0.71960   -1.000
 4104.00    0.83130   0.78500   -1.000
 4105.00    0.87390   0.84456   66.813
 4106.00    0.90989   0.88452   63.211
 4107.00    0.92580   0.90626   61.271
 4108.00    0.92768   0.91615   60.964
 4109.00    0.95031   0.92132   61.546
 4110.00    0.95524   0.92790   62.755
 4111.00    0.94800   0.93886   63.688
 4112.00    0.96059   0.95377   62.903
 4113.00    0.98337   0.97085   61.475
 4114.00    1.00477   0.98714   60.417
 4115.00    0.99218   0.99783   59.487
 4116.00    1.01660   0.99873   58.904
 4117.00    0.98743   0.99064   59.191
 4118.00    0.96925   0.97921   60.455
 4119.00    0.96243   0.97165   62.511
 4120.00    0.96958   0.97131   63.254
 4121.00    0.96785   0.97523   62.468
 4122.00    0.98518   0.97984   61.818
 4123.00    0.98884   0.98580   61.878
 4124.00    0.99988   0.99359   61.217
 4125.00    0.99908   0.99909   60.127
 4126.00    1.01470   0.99759   59.917
 4127.00    0.99446   0.99026   60.722
 4128.00    0.99141   0.98304   62.039
 4129.00    0.97622   0.97777   62.560
 4130.00    0.97707   0.96998   62.876
 4131.00    0.95504   0.95783   63.666
 4132.00    0.95170   0.94828   65.676
 4133.00    0.94879   0.95095   67.759
 4134.00    0.95062   0.96768   67.960
 4135.00    0.97289   0.99200   65.738
 4136.00    1.01700   1.01578   62.410
 4137.00    1.01525   1.03474   60.364
 4138.00    1.03756   1.04775   59.381
 4139.00    1.04472   1.05166   58.452
 4140.00    1.04122   1.04098   58.214
 4141.00    1.00963   1.01570   59.396
 4142.00    0.97371   0.98481   62.522
 4143.00    0.92987   0.96389   67.823
 4144.00    0.93845   0.96478   71.451
 4145.00    0.96443   0.98394   68.913
 4146.00    0.99137   1.00518   64.757
 4147.00    1.01718   1.01576   62.318
 4148.00    1.00748   1.01605   61.650
 4149.00    0.99514   1.01418   62.808
 4150.00    0.99529   1.01470   64.574
 4151.00    0.99386   1.01482   65.394
 4152.00    0.99998   1.00994   64.932
 4153.00    0.99053   1.00048   64.554
 4154.00    0.97335   0.99237   65.148
 4155.00    0.98153   0.99140   66.224
 4156.00    0.97544   0.99841   64.598
 4157.00    1.04479   1.01060   64.033
 4158.00    1.32995   1.02395   -1.000
 4159.00    1.26937   1.03459   -1.000
 4160.00    0.63434   1.04078   -1.000
 4161.00    0.83003   1.04427   -1.000
 4162.00    1.12842   1.04798   -1.000
 4163.00    1.04325   1.05238   59.661
 4164.00    1.03082   1.05470   60.004
 4165.00    1.02080   1.05141   60.992
 4166.00    1.01614   1.04323   61.905
 4167.00    1.01768   1.03544   63.300
 4168.00    1.02086   1.03082   64.280
 4169.00    1.00821   1.02410   63.816
 4170.00    0.99300   1.00717   62.707
 4171.00    0.95322   0.97993   63.333
 4172.00    0.92606   0.95487   67.081
 4173.00    0.91725   0.94651   71.195
 4174.00    0.93378   0.95768   71.482
 4175.00    0.96369   0.97612   68.942
 4176.00    0.96541   0.98839   66.440
 4177.00    0.96623   0.99325   66.340
 4178.00    0.98862   0.99808   66.733
 4179.00    0.99417   1.00609   66.456
 4180.00    1.00713   1.01216   65.421
 4181.00    0.97786   1.01213   64.781
 4182.00    1.00108   1.01056   64.822
 4183.00    1.00294   1.01307   64.139
 4184.00    0.99641   1.01684   62.854
 4185.00    0.98933   1.01489   61.737
 4186.00    0.97074   1.00589   61.805
 4187.00    0.95984   0.99707   63.873
 4188.00    0.96428   0.99600   65.720
 4189.00    0.98017   1.00201   65.186
 4190.00    0.99433   1.00994   63.711
 4191.00    1.00230   1.01801   63.304
 4192.00    1.00783   1.02636   62.469
 4193.00    1.02258   1.03169   61.117
 4194.00    1.00926   1.02766   60.295
 4195.00    0.98940   1.01192   62.012
 4196.00    0.97181   0.98989   65.277
 4197.00    0.95152   0.96958   67.470
 4198.00    0.92731   0.95577   68.678
 4199.00    0.91906   0.95008   68.847
 4200.00    0.93667   0.95103   68.106
 4201.00    0.94352   0.95509   67.012
 4202.00    0.94077   0.96140   66.814
 4203.00    0.95392   0.97191   66.389
 4204.00    0.96166   0.98610   65.349
 4205.00    0.97514   1.00120   64.870
 4206.00    0.98861   1.01521   63.620
 4207.00    0.99867   1.02570   62.029
 4208.00    1.02286   1.03041   60.813
 4209.00    1.00595   1.03089   60.495
 4210.00    0.99968   1.03195   60.739
 4211.00    1.00931   1.03589   60.619
 4212.00    1.00706   1.03762   60.194
 4213.00    1.00172   1.02924   60.529
 4214.00    0.96604   1.01131   -1.000
 4215.00    0.94280   0.99406   -1.000
 4216.00    0.94864   0.98949   67.199
 4217.00    0.95390   1.00118   -1.000
 4218.00    0.97150   1.02114   -1.000
 4219.00    1.00694   1.03803   58.152
 4220.00    1.03576   1.04540   56.513
 4221.00    1.01618   1.03989   55.883
 4222.00    0.99895   1.01821   56.365
 4223.00    0.95390   0.97955   58.657
 4224.00    0.90978   0.93057   62.755
 4225.00    0.86254   0.88611   68.947
 4226.00    0.81256   0.86557   -1.000
 4227.00    0.81700   0.88258   -1.000
 4228.00    0.86069   0.92999   -1.000
 4229.00    0.92191   0.98118   -1.000
 4230.00    0.97776   1.01188   61.922
 4231.00    0.98655   1.01706   58.614
 4232.00    0.98713   1.00662   58.094
 4233.00    0.97519   0.99276   59.369
 4234.00    0.97199   0.98286   60.936
 4235.00    0.95274   0.97853   61.563
 4236.00    0.94393   0.97863   62.994
 4237.00    0.94354   0.98363   64.150
 4238.00    0.95724   0.99365   63.714
 4239.00    0.96483   1.00667   62.235
 4240.00    0.97359   1.01949   61.337
 4241.00    0.96798   1.02978   -1.000
 4242.00    0.99038   1.03715   59.340
 4243.00    1.01114   1.04195   59.069
 4244.00    1.01699   1.04223   58.070
 4245.00    0.99449   1.03328   56.844
 4246.00    0.97696   1.01440   57.393
 4247.00    0.93580   0.99308   -1.000
 4248.00    0.92079   0.97840   -1.000
 4249.00    0.92986   0.97408   63.932
 4250.00    0.93308   0.97898   -1.000
 4251.00    0.95196   0.98914   64.485
 4252.00    0.96849   0.99715   62.664
 4253.00    0.96408   0.99796   60.888
 4254.00    0.95731   0.99609   61.180
 4255.00    0.95634   0.99997   62.835
 4256.00    0.97683   1.00861   62.095
 4257.00    0.98030   1.01062   59.687
 4258.00    0.97648   0.99875   59.143
 4259.00    0.94878   0.98090   61.352
 4260.00    0.93486   0.97308   64.746
 4261.00    0.93125   0.98490   -1.000
 4262.00    0.95787   1.01115   -1.000
 4263.00    0.98284   1.03803   -1.000
 4264.00    1.02139   1.05405   57.262
 4265.00    1.00891   1.05718   55.886
 4266.00    1.00897   1.05085   55.718
 4267.00    0.98910   1.03757   56.605
 4268.00    0.97776   1.01691   58.469
 4269.00    0.94082   0.98916   60.255
 4270.00    0.91816   0.95849   62.565
 4271.00    0.89641   0.93329   66.660
 4272.00    0.89049   0.92206   70.804
 4273.00    0.88108   0.92695   -1.000
 4274.00    0.89217   0.94404   -1.000
 4275.00    0.92631   0.96959   68.358
 4276.00    0.94925   0.99921   -1.000
 4277.00    0.98507   1.02329   61.105
 4278.00    1.00032   1.03211   58.222
 4279.00    0.97290   1.02556   -1.000
 4280.00    0.95733   1.01295   -1.000
 4281.00    0.94120   1.00428   -1.000
 4282.00    0.94871   1.00165   -1.000
 4283.00    0.96114   1.00045   62.145
 4284.00    0.94611   0.99631   -1.000
 4285.00    0.93412   0.98727   -1.000
 4286.00    0.92376   0.97267   -1.000
 4287.00    0.90462   0.95258   -1.000
 4288.00    0.88988   0.92861   66.729
 4289.00    0.86298   0.90876   -1.000
 4290.00    0.83924   0.90487   -1.000
 4291.00    0.86016   0.91943   -1.000
 4292.00    0.89447   0.94023   -1.000
 4293.00    0.91378   0.95175   65.007
 4294.00    0.92152   0.95030   63.665
 4295.00    0.91284   0.94081   64.201
 4296.00    0.90091   0.92542   65.254
 4297.00    0.86638   0.90129   66.736
 4298.00    0.82272   0.86916   -1.000
 4299.00    0.78530   0.83743   -1.000
 4300.00    0.76475   0.81654   -1.000
 4301.00    0.76220   0.81076   -1.000
 4302.00    0.76769   0.81726   -1.000
 4303.00    0.78179   0.83068   -1.000
 4304.00    0.80850   0.84319   78.194
 4305.00    0.81520   0.84560   77.238
 4306.00    0.78465   0.83518   -1.000
 4307.00    0.75381   0.81923   -1.000
 4308.00    0.74668   0.81068   -1.000
 4309.00    0.74572   0.81761   -1.000
 4310.00    0.76790   0.83754   -1.000
 4311.00    0.81372   0.86107   -1.000
 4312.00    0.83235   0.88361   -1.000
 4313.00    0.85299   0.90908   -1.000
 4314.00    0.89308   0.94431   -1.000
 4315.00    0.95280   0.98953   64.638
 4316.00    1.00320   1.03443   59.039
 4317.00    1.02210   1.06516   54.559
 4318.00    1.04127   1.07566   52.555
 4319.00    1.04309   1.06970   52.484
 4320.00    1.02975   1.05339   53.284
 4321.00    1.00616   1.02892   54.485
 4322.00    0.97703   0.99590   56.315
 4323.00    0.93595   0.95727   59.066
 4324.00    0.88757   0.92414   63.392
 4325.00    0.86807   0.91284   -1.000
 4326.00    0.87970   0.93191   -1.000
 4327.00    0.92415   0.97044   67.680
 4328.00    0.98207   1.00616   60.552
 4329.00    1.00441   1.02469   56.117
 4330.00    0.99483   1.02885   54.929
 4331.00    0.99220   1.02897   55.126
 4332.00    0.99727   1.02946   54.845
 4333.00    1.00891   1.02645   53.901
 4334.00    1.00329   1.01277   53.333
 4335.00    0.97676   0.98168   53.202
 4336.00    0.93881   0.92857   54.080
 4337.00    0.88848   0.85774   57.474
 4338.00    0.81587   0.78544   63.017
 4339.00    0.74924   0.73300   68.904
 4340.00    0.73180   0.71839   74.645
 4341.00    0.74644   0.74820   76.650
 4342.00    0.79209   0.80880   71.272
 4343.00    0.87392   0.87389   64.256
 4344.00    0.92101   0.92607   60.203
 4345.00    0.94206   0.96408   58.241
 4346.00    0.96571   0.99352   56.652
 4347.00    0.98857   1.01585   55.670
 4348.00    0.99706   1.02652   55.072
 4349.00    0.99383   1.01916   54.177
 4350.00    0.96702   0.99622   54.284
 4351.00    0.94388   0.97242   57.192
 4352.00    0.93447   0.96498   61.479
 4353.00    0.93186   0.97988   62.510
 4354.00    0.95725   1.00743   60.072
 4355.00    0.98598   1.03270   57.339
 4356.00    0.99239   1.04737   55.539
 4357.00    1.01033   1.05185   54.363
 4358.00    1.01827   1.05098   54.341
 4359.00    1.01059   1.05173   55.490
 4360.00    1.02763   1.05893   56.201
 4361.00    1.03233   1.07126   55.188
 4362.00    1.03226   1.08364   53.513
 4363.00    1.04661   1.09258   52.876
 4364.00    1.04928   1.09599   52.650
 4365.00    1.06467   1.09114   52.071
 4366.00    1.04526   1.07786   52.001
 4367.00    1.01371   1.06161   53.549
 4368.00    1.01247   1.04894   55.513
 4369.00    1.01200   1.04193   56.193
 4370.00    1.00307   1.03781   55.682
 4371.00    1.00267   1.03141   55.325
 4372.00    0.99087   1.01845   55.264
 4373.00    0.97862   0.99954   55.792
 4374.00    0.96667   0.98378   58.010
 4375.00    0.95046   0.98357   60.337
 4376.00    0.97690   1.00189   60.482
 4377.00    1.00858   1.02794   58.078
 4378.00    1.03608   1.04653   55.164
 4379.00    1.03434   1.04879   54.105
 4380.00    1.02465   1.03180   54.377
 4381.00    0.99725   0.99601   55.329
 4382.00    0.94739   0.94874   57.879
 4383.00    0.89112   0.90943   64.143
 4384.00    0.87224   0.89876   71.458
 4385.00    0.89979   0.92040   72.581
 4386.00    0.95366   0.95669   66.178
 4387.00    0.99215   0.98649   59.899
 4388.00    0.99445   1.00161   57.774
 4389.00    1.00064   1.00645   57.733
 4390.00    0.98778   1.00895   58.346
 4391.00    0.99251   1.01350   58.556
 4392.00    1.00882   1.01719   57.479
 4393.00    1.01863   1.01488   56.183
 4394.00    0.99675   1.00976   56.484
 4395.00    0.99588   1.01217   57.714
 4396.00    1.00528   1.02442   57.577
 4397.00    1.01145   1.03570   55.033
 4398.00    1.02414   1.03561   53.379
 4399.00    1.01162   1.02628   54.020
 4400.00    0.99500   1.01833   55.981
 4401.00    1.00835   1.01671   57.675
 4402.00    1.01331   1.01528   57.114
 4403.00    0.99884   1.00676   56.084
 4404.00    0.96702   0.99449   57.907
 4405.00    0.96124   0.98848   61.268
 4406.00    0.96480   0.99295   61.937
 4407.00    0.97880   1.00327   59.960
 4408.00    0.98550   1.01650   59.020
 4409.00    1.00744   1.03527   58.483
 4410.00    1.03285   1.05818   56.324
 4411.00    1.05695   1.07537   53.910
 4412.00    1.06951   1.07682   52.055
 4413.00    1.06962   1.06021   51.384
 4414.00    1.03212   1.03253   52.678
 4415.00    0.99551   1.00892   55.658
 4416.00    0.98500   1.00382   57.748
 4417.00    1.00416   1.02022   57.539
 4418.00    1.04448   1.04881   55.595
 4419.00    1.06950   1.07482   53.292
 4420.00    1.06449   1.08680   51.749
 4421.00    1.06155   1.08433   51.960
 4422.00    1.06562   1.07664   53.295
 4423.00    1.05044   1.07173   54.289
 4424.00    1.04635   1.06955   54.051
 4425.00    1.04599   1.06675   53.776
 4426.00    1.03202   1.06414   53.955
 4427.00    1.04397   1.06485   54.208
 4428.00    1.04645   1.06907   53.867
 4429.00    1.03141   1.07399   53.636
 4430.00    1.03528   1.07726   54.139
 4431.00    1.04199   1.07748   54.346
 4432.00    1.03860   1.07211   53.747
 4433.00    1.03157   1.05913   53.308
 4434.00    1.01773   1.04381   54.960
 4435.00    1.00303   1.03893   57.630
 4436.00    1.01892   1.05326   58.407
 4437.00    1.05479   1.08069   56.224
 4438.00    1.08290   1.10476   52.801
 4439.00    1.09533   1.11114   50.515
 4440.00    1.09149   1.09651   50.261
 4441.00    1.05958   1.06934   51.770
 4442.00    1.02136   1.04575   54.229
 4443.00    0.99533   1.04024   56.552
 4444.00    1.01038   1.05569   56.876
 4445.00    1.04244   1.08122   54.863
 4446.00    1.06940   1.10192   52.526
 4447.00    1.07690   1.11132   51.452
 4448.00    1.07274   1.11230   51.421
 4449.00    1.06496   1.10973   51.519
 4450.00    1.06504   1.10592   52.066
 4451.00    1.06119   1.10056   52.588
 4452.00    1.05505   1.08992   52.243
 4453.00    1.04572   1.07070   52.546
 4454.00    1.02314   1.04793   54.398
 4455.00    1.01331   1.03314   56.901
 4456.00    1.00882   1.03245   58.178
 4457.00    1.01431   1.04058   57.320
 4458.00    1.03583   1.04823   56.289
 4459.00    1.02956   1.05136   56.259
 4460.00    1.01853   1.05235   56.541
 4461.00    1.01422   1.05559   57.119
 4462.00    1.02403   1.06354   57.636
 4463.00    1.04256   1.07464   56.600
 4464.00    1.06838   1.08423   54.421
 4465.00    1.06685   1.08767   53.079
 4466.00    1.06018   1.08308   52.930
 4467.00    1.05323   1.07287   52.966
 4468.00    1.03654   1.06387   53.534
 4469.00    1.03503   1.06373   54.549
 4470.00    1.03929   1.07593   54.930
 4471.00    1.05447   1.09693   54.230
 4472.00    1.08365   1.11908   52.574
 4473.00    1.10873   1.13537   50.759
 4474.00    1.11735   1.14348   49.354
 4475.00    1.11230   1.14577   48.874
 4476.00    1.12623   1.14587   48.937
 4477.00    1.12299   1.14363   48.546
 4478.00    1.11755   1.13442   48.249
 4479.00    1.11646   1.11509   48.636
 4480.00    1.09099   1.09157   50.352
 4481.00    1.04578   1.07673   52.629
 4482.00    1.03928   1.07995   54.187
 4483.00    1.07307   1.09963   53.727
 4484.00    1.10416   1.12523   51.550
 4485.00    1.12079   1.14419   49.576
 4486.00    1.12494   1.14855   48.459
 4487.00    1.12278   1.13853   48.456
 4488.00    1.10722   1.12199   49.496
 4489.00    1.08282   1.10969   51.357
 4490.00    1.08526   1.10847   52.607
 4491.00    1.08985   1.11628   52.160
 4492.00    1.09989   1.12381   50.805
 4493.00    1.09607   1.12338   49.951
 4494.00    1.08415   1.11691   50.589
 4495.00    1.07458   1.11251   52.100
 4496.00    1.07864   1.11506   53.267
 4497.00    1.09376   1.12253   52.813
 4498.00    1.10398   1.12941   51.065
 4499.00    1.10830   1.13101   49.594
 4500.00    1.10390   1.12892   49.027
 4501.00    1.10979   1.13093   49.532
 4502.00    1.12387   1.14245   49.833
 4503.00    1.13938   1.16008   48.658
 4504.00    1.15219   1.17497   47.000
 4505.00    1.16505   1.18070   46.107
 4506.00    1.16089   1.17713   46.336
 4507.00    1.15275   1.16978   47.249
 4508.00    1.15439   1.16525   47.757
 4509.00    1.15252   1.16602   47.826
 4510.00    1.15366   1.16857   47.486
 4511.00    1.15262   1.16770   47.150
 4512.00    1.14918   1.16189   47.493
 4513.00    1.13085   1.15333   48.400
 4514.00    1.11816   1.14523   49.278
 4515.00    1.12279   1.14000   49.630
 4516.00    1.11725   1.13749   49.424
 4517.00    1.10448   1.13506   49.368
 4518.00    1.09228   1.13184   49.922
 4519.00    1.10369   1.13025   50.245
 4520.00    1.11760   1.13104   49.482
 4521.00    1.11555   1.13070   48.505
 4522.00    1.11133   1.12594   48.559
 4523.00    1.09475   1.11816   49.638
 4524.00    1.08419   1.11019   50.669
 4525.00    1.08518   1.10131   51.152
 4526.00    1.07173   1.08859   51.972
 4527.00    1.05199   1.07255   53.510
 4528.00    1.04669   1.05951   55.041
 4529.00    1.04319   1.05576   55.778
 4530.00    1.04904   1.06090   55.458
 4531.00    1.06011   1.06675   54.522
 4532.00    1.06223   1.06451   53.524
 4533.00    1.04697   1.05438   53.199
 4534.00    1.02791   1.04694   54.543
 4535.00    1.02723   1.05393   56.388
 4536.00    1.05846   1.07757   55.888
 4537.00    1.09776   1.10888   52.884
 4538.00    1.12602   1.13412   49.754
 4539.00    1.13300   1.14496   48.274
 4540.00    1.12236   1.14359   48.591
 4541.00    1.12308   1.13871   49.719
 4542.00    1.11888   1.13630   49.787
 4543.00    1.11965   1.13518   49.441
 4544.00    1.12099   1.13167   49.239
 4545.00    1.12640   1.12574   67.927
 4546.00    1.01742   1.11861   24.746
 4547.00    0.42657   1.10828   -1.000
 4548.00    0.36366   1.09375   -1.000
 4549.00    0.21336   1.08159   -1.000
 4550.00    0.70220   1.08090   -1.000
 4551.00    0.37228   1.09030   -1.000
 4552.00    0.84518   1.09772   -1.000
 4553.00    1.08101   1.09551   51.577
 4554.00    1.05654   1.08894   52.338
 4555.00    1.06796   1.08932   52.859
 4556.00    1.08869   1.10239   52.183
 4557.00    1.11069   1.12341   50.369
 4558.00    1.11808   1.14315   48.347
 4559.00    1.13191   1.15673   47.390
 4560.00    1.13944   1.16368   47.554
 4561.00    1.13261   1.16293   47.562
 4562.00    1.11897   1.15351   47.573
 4563.00    1.10622   1.13927   48.574
 4564.00    1.09346   1.12875   49.790
 4565.00    1.10302   1.12869   50.683
 4566.00    1.12437   1.13878   50.264
 4567.00    1.13822   1.15188   49.046
 4568.00    1.15253   1.15935   47.746
 4569.00    1.15136   1.15624   47.188
 4570.00    1.13256   1.14387   47.612
 4571.00    1.11906   1.13010   48.762
 4572.00    1.10594   1.12567   50.049
 4573.00    1.11975   1.13402   49.858
 4574.00    1.13906   1.14695   48.450
 4575.00    1.15118   1.15470   47.671
 4576.00    1.14167   1.15516   47.631
 4577.00    1.11998   1.15034   47.836
 4578.00    1.11787   1.14062   48.109
 4579.00    1.11972   1.12662   48.878
 4580.00    1.10747   1.11199   50.285
 4581.00    1.10463   1.10111   51.381
 4582.00    1.10368   1.09561   51.362
 4583.00    1.09282   1.09533   50.687
 4584.00    1.08979   1.09948   50.272
 4585.00    1.09453   1.10655   50.369
 4586.00    1.10471   1.11502   50.674
 4587.00    1.11787   1.12415   50.082
 4588.00    1.13920   1.13234   48.822
 4589.00    1.15780   1.13695   47.754
 4590.00    1.15044   1.13644   47.582
 4591.00    1.13024   1.13182   48.203
 4592.00    1.11455   1.12682   49.090
 4593.00    1.11234   1.12558   49.959
 4594.00    1.11910   1.12894   50.098
 4595.00    1.12214   1.13468   49.716
 4596.00    1.13765   1.14033   49.317
 4597.00    1.14344   1.14390   49.158
 4598.00    1.14974   1.14369   49.054
 4599.00    1.13888   1.13935   48.944
 4600.00    1.13127   1.13279   49.316
 4601.00    1.12518   1.12747   49.763
 4602.00    1.11797   1.12602   49.937
 4603.00    1.12126   1.12854   49.479
 4604.00    1.12801   1.13312   48.921
 4605.00    1.13558   1.13819   48.931
 4606.00    1.13833   1.14399   48.872
 4607.00    1.14409   1.15142   48.389
 4608.00    1.14942   1.16012   47.475
 4609.00    1.16607   1.16735   46.462
 4610.00    1.16393   1.16943   45.863
 4611.00    1.16032   1.16596   45.986
 4612.00    1.16338   1.16053   46.579
 4613.00    1.15361   1.15685   47.115
 4614.00    1.14690   1.15553   47.444
 4615.00    1.14584   1.15467   47.270
 4616.00    1.15254   1.15250   46.865
 4617.00    1.13558   1.14905   46.649
 4618.00    1.14463   1.14609   46.906
 4619.00    1.14729   1.14626   47.255
 4620.00    1.16019   1.15143   47.257
 4621.00    1.17158   1.15989   46.848
 4622.00    1.17805   1.16675   46.132
 4623.00    1.16673   1.16845   46.031
 4624.00    1.16904   1.16597   46.139
 4625.00    1.17293   1.16212   46.233
 4626.00    1.16547   1.15861   46.621
 4627.00    1.15253   1.15563   46.775
 4628.00    1.15354   1.15317   46.763
 4629.00    1.14863   1.15245   47.027
 4630.00    1.15099   1.15506   47.155
 4631.00    1.14902   1.15963   46.956
 4632.00    1.15744   1.16167   46.445
 4633.00    1.15719   1.15881   46.561
 4634.00    1.14446   1.15376   47.194
 4635.00    1.13299   1.15007   47.740
 4636.00    1.14872   1.14791   47.763
 4637.00    1.14789   1.14600   48.095
 4638.00    1.13461   1.14495   48.709
 4639.00    1.13217   1.14704   48.965
 4640.00    1.13944   1.15344   48.924
 4641.00    1.16148   1.16221   48.181
 4642.00    1.17901   1.16890   47.034
 4643.00    1.18291   1.16935   46.325
 4644.00    1.17173   1.16245   46.417
 4645.00    1.15033   1.14999   47.209
 4646.00    1.13657   1.13632   48.494
 4647.00    1.13111   1.12794   49.846
 4648.00    1.13011   1.12935   50.203
 4649.00    1.13730   1.13869   49.436
 4650.00    1.14858   1.14948   48.302
 4651.00    1.14845   1.15601   47.580
 4652.00    1.14913   1.15638   47.431
 4653.00    1.15626   1.15160   47.339
 4654.00    1.13971   1.14426   47.821
 4655.00    1.11514   1.13838   48.873
 4656.00    1.10668   1.13882   49.513
 4657.00    1.12590   1.14881   49.207
 4658.00    1.16347   1.16658   47.768
 4659.00    1.18998   1.18429   45.960
 4660.00    1.20118   1.19338   44.835
 4661.00    1.19967   1.19120   44.675
 4662.00    1.18441   1.18143   45.164
 4663.00    1.17964   1.16890   46.213
 4664.00    1.17021   1.15517   47.160
 4665.00    1.15724   1.13852   47.371
 4666.00    1.13295   1.11886   48.057
 4667.00    1.10219   1.10185   49.970
 4668.00    1.10253   1.09578   52.079
 4669.00    1.11341   1.10350   52.403
 4670.00    1.11993   1.12004   50.981
 4671.00    1.14800   1.13718   48.897
 4672.00    1.15883   1.14927   47.477
 4673.00    1.16862   1.15607   47.074
 4674.00    1.16244   1.16098   47.079
 4675.00    1.16969   1.16616   47.044
 4676.00    1.17850   1.16905   46.501
 4677.00    1.18896   1.16539   45.806
 4678.00    1.17379   1.15504   45.916
 4679.00    1.16206   1.14247   46.826
 4680.00    1.15057   1.13259   47.773
 4681.00    1.14122   1.12821   48.582
 4682.00    1.14634   1.13003   49.094
 4683.00    1.14907   1.13645   48.620
 4684.00    1.15250   1.14390   47.458
 4685.00    1.17129   1.14915   46.755
 4686.00    1.18153   1.15138   46.819
 4687.00    1.17315   1.15163   46.864
 4688.00    1.16530   1.15104   47.098
 4689.00    1.17266   1.14999   47.138
 4690.00    1.17567   1.14848   47.139
 4691.00    1.16516   1.14759   47.436
 4692.00    1.16982   1.14917   47.571
 4693.00    1.18902   1.15329   47.090
 4694.00    1.19447   1.15788   46.400
 4695.00    1.20289   1.16065   45.407
 4696.00    1.20970   1.15938   44.767
 4697.00    1.20591   1.15242   44.886
 4698.00    1.18487   1.14132   46.045
 4699.00    1.15751   1.12998   47.444
 4700.00    1.14815   1.12050   48.117
 4701.00    1.14762   1.11234   47.848
 4702.00    1.14612   1.10580   48.096
 4703.00    1.14653   1.10401   48.892
 4704.00    1.13949   1.10865   49.236
 4705.00    1.14065   1.11523   48.454
 4706.00    1.15322   1.11684   47.699
 4707.00    1.14631   1.11217   48.178
 4708.00    1.12612   1.10722   49.122
 4709.00    1.12047   1.10861   49.671
 4710.00    1.13749   1.11725   49.507
 4711.00    1.15883   1.12849   48.199
 4712.00    1.17332   1.13609   46.852
 4713.00    1.17741   1.13702   46.277
 4714.00    1.16324   1.13462   46.603
 4715.00    1.16519   1.13542   47.437
 4716.00    1.17342   1.14232   47.568
 4717.00    1.16772   1.15221   46.742
 4718.00    1.17453   1.16042   45.829
 4719.00    1.18639   1.16490   45.463
 4720.00    1.18619   1.16612   45.292
 4721.00    1.18047   1.16544   45.137
 4722.00    1.17707   1.16484   45.446
 4723.00    1.17839   1.16592   45.785
 4724.00    1.18832   1.16761   45.599
 4725.00    1.19025   1.16632   45.129
 4726.00    1.18553   1.15901   45.117
 4727.00    1.17211   1.14652   46.073
 4728.00    1.15957   1.13376   47.750
 4729.00    1.14911   1.12549   48.939
 4730.00    1.14500   1.12277   48.932
 4731.00    1.14939   1.12472   48.464
 4732.00    1.15809   1.13029   48.063
 4733.00    1.15397   1.13682   47.513
 4734.00    1.15808   1.14080   47.075
 4735.00    1.16442   1.14097   46.790
 4736.00    1.15494   1.13918   46.530
 4737.00    1.14427   1.13838   46.920
 4738.00    1.16073   1.14020   47.054
 4739.00    1.16593   1.14352   46.534
 4740.00    1.16589   1.14628   46.457
 4741.00    1.16159   1.14842   46.698
 4742.00    1.17101   1.15137   46.793
 4743.00    1.17945   1.15530   46.479
 4744.00    1.18705   1.15894   45.985
 4745.00    1.17954   1.16176   45.989
 4746.00    1.18046   1.16483   46.044
 4747.00    1.18638   1.16924   45.755
 4748.00    1.19703   1.17422   45.305
 4749.00    1.19630   1.17806   45.154
 4750.00    1.18691   1.17981   45.203
 4751.00    1.18597   1.17869   45.241
 4752.00    1.18249   1.17401   45.525
 4753.00    1.17807   1.16689   46.019
 4754.00    1.17895   1.16035   46.428
 4755.00    1.17999   1.15717   46.755
 4756.00    1.16804   1.15796   46.733
 4757.00    1.15924   1.16133   46.871
 4758.00    1.15777   1.16518   47.198
 4759.00    1.15592   1.16713   47.296
 4760.00    1.15188   1.16431   46.967
 4761.00    1.14827   1.15477   46.830
 4762.00    1.14488   1.14027   47.441
 4763.00    1.13283   1.12651   48.572
 4764.00    1.12972   1.11892   49.295
 4765.00    1.12961   1.11885   49.449
 4766.00    1.12916   1.12483   49.367
 4767.00    1.14357   1.13533   49.055
 4768.00    1.15385   1.14826   48.424
 4769.00    1.15612   1.15962   47.383
 4770.00    1.15389   1.16528   46.657
 4771.00    1.15350   1.16503   46.627
 4772.00    1.14975   1.16333   46.981
 4773.00    1.15341   1.16497   47.399
 4774.00    1.15856   1.17046   47.001
 4775.00    1.16543   1.17623   46.053
 4776.00    1.17187   1.17890   45.628
 4777.00    1.17147   1.17759   45.617
 4778.00    1.17416   1.17291   45.739
 4779.00    1.17347   1.16674   46.013
 4780.00    1.15421   1.16196   46.500
 4781.00    1.14698   1.15968   46.817
 4782.00    1.14421   1.15798   46.957
 4783.00    1.14146   1.15507   47.167
 4784.00    1.13963   1.15129   47.526
 4785.00    1.14937   1.14740   47.572
 4786.00    1.15521   1.14398   47.699
 4787.00    1.14714   1.14213   48.128
 4788.00    1.12415   1.14296   48.442
 4789.00    1.13006   1.14668   48.443
 4790.00    1.14192   1.15313   48.232
 4791.00    1.14821   1.16199   47.942
 4792.00    1.16222   1.17241   47.473
 4793.00    1.17093   1.18312   46.736
 4794.00    1.17485   1.19218   45.734
 4795.00    1.19071   1.19674   44.908
 4796.00    1.18823   1.19480   44.647
 4797.00    1.17527   1.18723   45.003
 4798.00    1.15297   1.17776   45.845
 4799.00    1.15302   1.17128   46.721
 4800.00    1.16448   1.17130   47.329
 4801.00    1.16678   1.17715   47.072
 4802.00    1.17348   1.18365   46.194
 4803.00    1.17479   1.18491   45.480
 4804.00    1.17114   1.17987   45.430
 4805.00    1.16490   1.17292   45.957
 4806.00    1.15578   1.16879   46.557
 4807.00    1.16142   1.16864   47.009
 4808.00    1.16657   1.17117   47.069
 4809.00    1.16153   1.17471   46.963
 4810.00    1.16674   1.17793   46.766
 4811.00    1.17062   1.18039   46.376
 4812.00    1.16853   1.18279   46.027
 4813.00    1.17240   1.18600   45.776
 4814.00    1.17863   1.19012   45.700
 4815.00    1.18492   1.19475   45.602
 4816.00    1.18840   1.19922   45.446
 4817.00    1.18776   1.20241   45.179
 4818.00    1.18184   1.20339   44.897
 4819.00    1.18021   1.20226   44.698
 4820.00    1.18819   1.19882   44.655
 4821.00    1.19125   1.19118   44.656
 4822.00    1.18087   1.17830   44.982
 4823.00    1.16597   1.16386   46.040
 4824.00    1.15968   1.15530   46.988
 4825.00    1.16496   1.15680   47.066
 4826.00    1.16698   1.16460   46.348
 4827.00    1.17659   1.17125   45.606
 4828.00    1.17537   1.17284   45.640
 4829.00    1.16749   1.17050   46.131
 4830.00    1.17105   1.16656   46.468
 4831.00    1.16833   1.16216   46.505
 4832.00    1.17066   1.15875   46.855
 4833.00    1.17379   1.15836   47.003
 4834.00    1.18077   1.16106   46.389
 4835.00    1.18840   1.16458   45.742
 4836.00    1.17776   1.16643   45.497
 4837.00    1.17652   1.16556   45.534
 4838.00    1.18111   1.16187   45.729
 4839.00    1.16431   1.15607   46.284
 4840.00    1.15401   1.15041   47.085
 4841.00    1.14871   1.14711   47.262
 4842.00    1.15712   1.14648   47.175
 4843.00    1.16659   1.14759   46.961
 4844.00    1.16977   1.15017   46.629
 4845.00    1.17510   1.15368   46.183
 4846.00    1.18615   1.15521   45.501
 4847.00    1.17569   1.15191   45.177
 4848.00    1.16207   1.14586   45.890
 4849.00    1.14852   1.14205   46.636
 4850.00    1.15417   1.14189   46.757
 4851.00    1.15614   1.14174   46.209
 4852.00    1.15511   1.13678   45.995
 4853.00    1.15625   1.12397   46.196
 4854.00    1.13221   1.10383   46.570
 4855.00    1.11085   1.08142   47.779
 4856.00    1.09878   1.06171   49.163
 4857.00    1.08668   1.04117   49.332
 4858.00    1.06091   1.00654   48.885
 4859.00    0.98467   0.94795   49.870
 4860.00    0.88339   0.87720   53.616
 4861.00    0.84575   0.82739   59.655
 4862.00    0.88050   0.82708   -1.000
 4863.00    0.94021   0.87482   -1.000
 4864.00    1.00887   0.94220   -1.000
 4865.00    1.06496   1.00203   -1.000
 4866.00    1.09625   1.04489   49.896
 4867.00    1.10618   1.07298   48.717
 4868.00    1.11122   1.08873   48.168
 4869.00    1.11547   1.09159   47.922
 4870.00    1.10588   1.08249   48.221
 4871.00    1.10169   1.06918   49.408
 4872.00    1.09300   1.06403   50.669
 4873.00    1.09283   1.07352   50.557
 4874.00    1.11446   1.09186   49.286
 4875.00    1.11995   1.10808   48.314
 4876.00    1.12287   1.11727   47.856
 4877.00    1.13285   1.12302   47.578
 4878.00    1.14248   1.13097   47.400
 4879.00    1.15507   1.14188   46.812
 4880.00    1.15103   1.15097   46.271
 4881.00    1.15247   1.15315   46.505
 4882.00    1.14766   1.14855   47.216
 4883.00    1.14338   1.14170   47.602
 4884.00    1.14420   1.13586   47.523
 4885.00    1.14606   1.13153   47.691
 4886.00    1.13510   1.12847   48.339
 4887.00    1.13829   1.12589   48.702
 4888.00    1.14423   1.12133   48.540
 4889.00    1.14279   1.11229   48.429
 4890.00    1.12138   1.10130   48.990
 4891.00    1.12337   1.09771   50.018
 4892.00    1.13153   1.11042   49.981
 4893.00    1.16416   1.13801   48.288
 4894.00    1.19112   1.16907   46.081
 4895.00    1.20081   1.19250   44.560
 4896.00    1.20644   1.20453   43.634
 4897.00    1.20937   1.20642   43.304
 4898.00    1.20332   1.20083   43.341
 4899.00    1.18120   1.19135   44.110
 4900.00    1.16910   1.18246   45.149
 4901.00    1.17111   1.17647   45.769
 4902.00    1.16840   1.17220   45.689
 4903.00    1.16472   1.16903   45.687
 4904.00    1.17287   1.17018   46.153
 4905.00    1.18996   1.17765   45.877
 4906.00    1.19295   1.18651   44.979
 4907.00    1.19219   1.18889   44.496
 4908.00    1.18636   1.18170   44.755
 4909.00    1.17092   1.16817   45.704
 4910.00    1.15253   1.15515   46.993
 4911.00    1.15647   1.14941   47.757
 4912.00    1.17260   1.15343   47.378
 4913.00    1.17463   1.16389   46.556
 4914.00    1.18397   1.17500   45.872
 4915.00    1.19522   1.18123   45.270
 4916.00    1.19971   1.17699   44.829
 4917.00    1.18271   1.15829   44.914
 4918.00    1.14767   1.12735   46.198
 4919.00    1.10354   1.09439   48.553
 4920.00    1.08120   1.07276   50.964
 4921.00    1.09657   1.06974   51.951
 4922.00    1.11581   1.08094   50.724
 4923.00    1.12833   1.09613   48.898
 4924.00    1.13805   1.11046   47.946
 4925.00    1.15517   1.12632   47.766
 4926.00    1.16851   1.14538   47.283
 4927.00    1.16784   1.16476   46.172
 4928.00    1.18624   1.18054   45.258
 4929.00    1.19926   1.19058   44.754
 4930.00    1.20417   1.19341   44.425
 4931.00    1.20713   1.18700   44.150
 4932.00    1.18169   1.17119   44.432
 4933.00    1.15270   1.15166   45.480
 4934.00    1.14696   1.13820   47.058
 4935.00    1.15572   1.13533   47.534
 4936.00    1.14882   1.13659   46.873
 4937.00    1.13910   1.13253   46.654
 4938.00    1.13330   1.12365   47.725
 4939.00    1.12919   1.12022   49.082
 4940.00    1.14749   1.13015   49.048
 4941.00    1.16375   1.15095   47.626
 4942.00    1.17432   1.17270   46.064
 4943.00    1.18605   1.18680   45.076
 4944.00    1.18244   1.19123   44.575
 4945.00    1.17632   1.18949   44.513
 4946.00    1.18550   1.18723   44.772
 4947.00    1.19840   1.18883   44.921
 4948.00    1.20867   1.19459   44.625
 4949.00    1.21062   1.20086   44.118
 4950.00    1.20793   1.20381   43.897
 4951.00    1.19591   1.20264   43.726
 4952.00    1.19670   1.19879   43.861
 4953.00    1.19842   1.19286   44.151
 4954.00    1.18874   1.18213   44.617
 4955.00    1.17368   1.16156   45.167
 4956.00    1.14205   1.13126   46.228
 4957.00    1.10656   1.10383   48.360
 4958.00    1.09325   1.09664   50.459
 4959.00    1.11962   1.11445   50.125
 4960.00    1.16032   1.14475   47.627
 4961.00    1.18313   1.17060   45.726
 4962.00    1.18875   1.18383   45.103
 4963.00    1.17793   1.18542   45.195
 4964.00    1.16919   1.17911   45.527
 4965.00    1.16013   1.16879   46.028
 4966.00    1.14629   1.15885   46.910
 4967.00    1.13783   1.15260   47.614
 4968.00    1.13813   1.15077   47.763
 4969.00    1.15001   1.15290   47.653
 4970.00    1.16093   1.15842   47.348
 4971.00    1.16198   1.16616   46.875
 4972.00    1.17274   1.17436   46.371
 4973.00    1.18450   1.18128   45.828
 4974.00    1.18590   1.18522   45.369
 4975.00    1.19329   1.18518   45.128
 4976.00    1.19870   1.18121   45.329
 4977.00    1.18456   1.17409   45.773
 4978.00    1.18259   1.16508   46.365
 4979.00    1.16364   1.15420   47.094
 4980.00    1.14422   1.13905   47.721
 4981.00    1.11525   1.11810   48.374
 4982.00    1.09353   1.09534   49.755
 4983.00    1.09027   1.07998   51.388
 4984.00    1.09499   1.07963   51.785
 4985.00    1.10804   1.09412   51.023
 4986.00    1.12385   1.11637   49.691
 4987.00    1.14052   1.13752   48.149
 4988.00    1.15183   1.15028   46.875
 4989.00    1.15420   1.15175   46.632
 4990.00    1.14905   1.14557   47.176
 4991.00    1.15101   1.13918   47.719
 4992.00    1.14822   1.13772   47.851
 4993.00    1.14862   1.14110   47.525
 4994.00    1.15893   1.14676   47.267
 4995.00    1.15591   1.15283   47.205
 4996.00    1.15665   1.15717   47.015
 4997.00    1.15769   1.15613   46.776
 4998.00    1.14420   1.14665   46.936
 4999.00    1.13299   1.13034   47.487
 5000.00    1.13381   1.11472   48.375
 5001.00    1.13228   1.10733   49.075
 5002.00    1.13200   1.10843   49.247
 5003.00    1.13970   1.11141   48.895
 5004.00    1.13894   1.10894   48.533
 5005.00    1.12792   1.09961   48.983
 5006.00    1.11755   1.09060   50.112
 5007.00    1.11704   1.09149   50.643
 5008.00    1.12927   1.10349   49.756
 5009.00    1.14683   1.11751   48.295
 5010.00    1.14900   1.12271   47.545
 5011.00    1.12540   1.11479   47.898
 5012.00    1.09325   1.09813   49.149
 5013.00    1.08068   1.08203   50.914
 5014.00    1.08439   1.07401   52.287
 5015.00    1.09330   1.07467   52.389
 5016.00    1.10454   1.07864   51.433
 5017.00    1.11461   1.08101   50.333
 5018.00    1.12503   1.08305   49.915
 5019.00    1.12386   1.08939   49.879
 5020.00    1.12925   1.09984   49.453
 5021.00    1.13409   1.10928   49.004
 5022.00    1.13493   1.11521   49.071
 5023.00    1.14139   1.12049   49.212
 5024.00    1.14904   1.12783   49.025
 5025.00    1.14106   1.13472   48.560
 5026.00    1.14338   1.13701   48.185
 5027.00    1.15114   1.13529   48.281
 5028.00    1.14872   1.13397   48.517
 5029.00    1.15344   1.13624   48.240
 5030.00    1.16702   1.14250   47.437
 5031.00    1.18100   1.15145   46.703
 5032.00    1.18136   1.16001   45.967
 5033.00    1.17636   1.16311   45.383
 5034.00    1.16857   1.15680   45.311
 5035.00    1.14362   1.14292   46.423
 5036.00    1.12634   1.12843   48.197
 5037.00    1.12332   1.11767   49.283
 5038.00    1.11878   1.10707   49.607
 5039.00    1.10170   1.09068   50.105
 5040.00    1.07189   1.07101   51.739
 5041.00    1.05481   1.06048   53.848
 5042.00    1.08118   1.06956   54.418
 5043.00    1.11247   1.09626   52.403
 5044.00    1.14580   1.12853   49.303
 5045.00    1.17261   1.15438   47.034
 5046.00    1.16885   1.16765   45.825
 5047.00    1.19938   1.16693   44.264
 5048.00    0.90987   1.15425   -1.000
 5049.00    0.42757   1.13547   -1.000
 5050.00    0.14513   1.11841   -1.000
 5051.00    0.29344   1.10999   -1.000
 5052.00    0.90188   1.11435   -1.000
 5053.00    1.15366   1.13003   48.037
 5054.00    1.17442   1.14912   46.847
 5055.00    1.18802   1.16356   45.910
 5056.00    1.19952   1.17162   45.376
 5057.00    1.20295   1.17594   45.162
 5058.00    1.19969   1.17889   45.190
 5059.00    1.19444   1.18123   45.276
 5060.00    1.18520   1.18267   45.284
 5061.00    1.17419   1.18194   45.046
 5062.00    1.17734   1.17634   44.985
 5063.00    1.16875   1.16382   45.448
 5064.00    1.14227   1.14727   46.599
 5065.00    1.12948   1.13389   48.196
 5066.00    1.13853   1.12844   49.053
 5067.00    1.15187   1.12945   48.735
 5068.00    1.15850   1.13252   48.020
 5069.00    1.16091   1.13535   47.721
 5070.00    1.15685   1.13737   47.519
 5071.00    1.16384   1.13733   47.226
 5072.00    1.15629   1.13484   47.431
 5073.00    1.15326   1.13250   47.818
 5074.00    1.15812   1.13294   47.470
 5075.00    1.16024   1.13519   47.035
 5076.00    1.16621   1.13510   46.897
 5077.00    1.16218   1.12840   46.857
 5078.00    1.13869   1.11419   47.188
 5079.00    1.10739   1.09763   48.534
 5080.00    1.09619   1.08728   50.707
 5081.00    1.10610   1.08718   51.775
 5082.00    1.12035   1.09436   51.085
 5083.00    1.12406   1.10456   49.980
 5084.00    1.12541   1.11645   49.208
 5085.00    1.14174   1.12923   48.349
 5086.00    1.16337   1.14034   47.495
 5087.00    1.16868   1.14760   47.036
 5088.00    1.16542   1.15171   46.908
 5089.00    1.17039   1.15491   46.718
 5090.00    1.17049   1.15860   46.403
 5091.00    1.17281   1.16310   46.126
 5092.00    1.18333   1.16818   45.884
 5093.00    1.19175   1.17221   45.428
 5094.00    1.20125   1.17175   44.986
 5095.00    1.19978   1.16370   45.188
 5096.00    1.17895   1.14849   46.006
 5097.00    1.15190   1.13065   47.000
 5098.00    1.13886   1.11652   48.109
 5099.00    1.13798   1.11152   49.161
 5100.00    1.14674   1.11725   49.542
 5101.00    1.15367   1.12963   48.661
 5102.00    1.16203   1.14112   47.287
 5103.00    1.16879   1.14639   46.624
 5104.00    1.17071   1.14468   46.733
 5105.00    1.16162   1.13740   47.271
 5106.00    1.14745   1.12649   47.880
 5107.00    1.13358   1.11539   48.471
 5108.00    1.12160   1.10840   49.076
 5109.00    1.12603   1.10804   49.180
 5110.00    1.12876   1.11432   48.918
 5111.00    1.14030   1.12554   48.573
 5112.00    1.15704   1.13857   47.963
 5113.00    1.17443   1.15020   47.344
 5114.00    1.18303   1.15913   46.768
 5115.00    1.17918   1.16592   46.308
 5116.00    1.18745   1.17121   46.018
 5117.00    1.19852   1.17453   45.595
 5118.00    1.19022   1.17461   45.184
 5119.00    1.17788   1.17042   45.186
 5120.00    1.17446   1.16189   45.665
 5121.00    1.16662   1.14995   46.336
 5122.00    1.14888   1.13605   47.086
 5123.00    1.12211   1.12231   48.186
 5124.00    1.11138   1.11179   49.593
 5125.00    1.11648   1.10666   50.244
 5126.00    1.12835   1.10580   49.988
 5127.00    1.13103   1.10619   49.681
 5128.00    1.12883   1.10649   49.401
 5129.00    1.13620   1.10799   49.376
 5130.00    1.13689   1.11236   49.367
 5131.00    1.13370   1.11946   48.876
 5132.00    1.14978   1.12751   48.083
 5133.00    1.16660   1.13462   47.578
 5134.00    1.16935   1.13950   47.148
 5135.00    1.16696   1.14061   46.722
 5136.00    1.16336   1.13628   46.526
 5137.00    1.15161   1.12661   47.114
 5138.00    1.13469   1.11493   48.198
 5139.00    1.12574   1.10617   49.081
 5140.00    1.12281   1.10304   49.331
 5141.00    1.12220   1.10411   49.011
 5142.00    1.11657   1.10670   49.155
 5143.00    1.11606   1.11026   49.855
 5144.00    1.12261   1.11480   49.861
 5145.00    1.13400   1.11824   49.147
 5146.00    1.12305   1.11852   48.795
 5147.00    1.12086   1.11708   49.096
 5148.00    1.13577   1.11681   49.316
 5149.00    1.14201   1.11704   48.896
 5150.00    1.13174   1.11441   48.524
 5151.00    1.11812   1.10835   48.897
 5152.00    1.11193   1.10226   49.729
 5153.00    1.11806   1.10011   50.216
 5154.00    1.11999   1.10438   50.108
 5155.00    1.14250   1.11555   49.325
 5156.00    1.16880   1.13111   48.141
 5157.00    1.19036   1.14621   46.913
 5158.00    1.19388   1.15690   45.952
 5159.00    1.18943   1.16199   45.479
 5160.00    1.19483   1.16197   45.392
 5161.00    1.19207   1.15755   45.506
 5162.00    1.18894   1.14893   45.741
 5163.00    1.17130   1.13467   46.192
 5164.00    1.14653   1.10998   46.860
 5165.00    1.09801   1.06973   48.363
 5166.00    1.02971   1.01783   51.777
 5167.00    0.97157   0.97178   56.921
 5168.00    0.95732   0.95075   61.378
 5169.00    0.98710   0.95589   61.524
 5170.00    0.99914   0.96698   58.487
 5171.00    0.97868   0.96548   56.981
 5172.00    0.95411   0.95695   59.451
 5173.00    0.95853   0.96373   63.539
 5174.00    1.01293   0.99798   62.742
 5175.00    1.08134   1.04783   56.874
 5176.00    1.12390   1.09174   51.752
 5177.00    1.13996   1.11843   49.217
 5178.00    1.14013   1.12855   48.342
 5179.00    1.13719   1.12454   48.140
 5180.00    1.12430   1.10434   48.468
 5181.00    1.08406   1.06552   49.840
 5182.00    1.01371   1.01516   52.948
 5183.00    0.95580   0.97364   58.479
 5184.00    0.96481   0.96346   63.758
 5185.00    1.01994   0.98986   62.842
 5186.00    1.07778   1.03506   56.698
 5187.00    1.10885   1.07477   51.383
 5188.00    1.12694   1.09741   49.039
 5189.00    1.14088   1.10533   48.349
 5190.00    1.13337   1.10332   48.105
 5191.00    1.11618   1.09434   48.430
 5192.00    1.09771   1.08387   49.704
 5193.00    1.08789   1.07883   51.157
 5194.00    1.09707   1.08158   51.251
 5195.00    1.11435   1.08937   50.470
 5196.00    1.12671   1.09933   49.683
 5197.00    1.13776   1.11095   48.958
 5198.00    1.14866   1.12380   48.044
 5199.00    1.17024   1.13527   47.182
 5200.00    1.18234   1.14160   46.686
 5201.00    1.17469   1.13973   46.555
 5202.00    1.15622   1.12828   46.822
 5203.00    1.13701   1.10835   47.550
 5204.00    1.11835   1.08424   48.586
 5205.00    1.09362   1.06255   50.007
 5206.00    1.07496   1.04854   51.566
 5207.00    1.06578   1.04296   52.136
 5208.00    1.06683   1.04416   52.364
 5209.00    1.07596   1.05270   52.674
 5210.00    1.09565   1.07074   52.200
 5211.00    1.12429   1.09666   50.728
 5212.00    1.15986   1.12299   48.771
 5213.00    1.19421   1.14035   46.841
 5214.00    1.19551   1.14363   45.639
 5215.00    1.17479   1.13616   45.759
 5216.00    1.16574   1.12791   46.712
 5217.00    1.16800   1.12818   47.441
 5218.00    1.17649   1.13902   47.302
 5219.00    1.18514   1.15516   46.431
 5220.00    1.19690   1.16944   45.634
 5221.00    1.21662   1.17702   45.196
 5222.00    1.20797   1.17517   44.975
 5223.00    1.16548   1.16187   45.349
 5224.00    1.13601   1.13626   46.527
 5225.00    1.10798   1.10254   48.326
 5226.00    1.08440   1.07305   50.529
 5227.00    1.09352   1.06260   52.210
 5228.00    1.11038   1.07600   51.777
 5229.00    1.14949   1.10276   49.317
 5230.00    1.17796   1.12557   47.074
 5231.00    1.18610   1.13367   45.952
 5232.00    1.18409   1.12843   45.693
 5233.00    1.17479   1.11972   46.354
 5234.00    1.16725   1.11831   47.234
 5235.00    1.17257   1.12850   47.389
 5236.00    1.18643   1.14606   46.550
 5237.00    1.19029   1.16306   45.432
 5238.00    1.20115   1.17411   44.763
 5239.00    1.20701   1.17872   44.605
 5240.00    1.21158   1.17931   44.705
 5241.00    1.21760   1.17830   44.690
 5242.00    1.22276   1.17744   44.472
 5243.00    1.21338   1.17782   44.444
 5244.00    1.21045   1.17825   44.404
 5245.00    1.20413   1.17509   44.324
 5246.00    1.18153   1.16608   44.944
 5247.00    1.16853   1.15384   46.234
 5248.00    1.16036   1.14330   47.428
 5249.00    1.15575   1.13702   47.815
 5250.00    1.15079   1.13471   47.894
 5251.00    1.14694   1.13554   48.141
 5252.00    1.15250   1.13849   48.067
 5253.00    1.15501   1.14171   47.510
 5254.00    1.15857   1.14456   46.978
 5255.00    1.17104   1.14952   46.857
 5256.00    1.18914   1.15911   46.626
 5257.00    1.20132   1.17148   45.736
 5258.00    1.20905   1.18049   44.529
 5259.00    1.21487   1.17975   43.906
 5260.00    1.20640   1.16628   44.109
 5261.00    1.17509   1.14168   45.108
 5262.00    1.13560   1.11121   46.847
 5263.00    1.10769   1.08167   49.026
 5264.00    1.09416   1.05930   50.914
 5265.00    1.08924   1.04801   52.154
 5266.00    1.09316   1.04646   52.547
 5267.00    1.09741   1.04684   51.907
 5268.00    1.08342   1.04097   50.966
 5269.00    1.06403   1.03045   51.496
 5270.00    1.06115   1.02776   53.347
 5271.00    1.08435   1.04259   53.337
 5272.00    1.12403   1.06931   -1.000
 5273.00    1.14574   1.09368   48.249
 5274.00    1.15815   1.10853   47.329
 5275.00    1.17037   1.11816   47.241
 5276.00    1.17073   1.13038   47.178
 5277.00    1.18612   1.14740   46.491
 5278.00    1.20647   1.16340   45.076
 5279.00    1.21101   1.17001   44.024
 5280.00    1.20922   1.16399   43.994
 5281.00    1.18671   1.14951   44.849
 5282.00    1.15555   1.13452   46.012
 5283.00    1.15168   1.12683   46.959
 5284.00    1.16847   1.13170   47.363
 5285.00    1.18759   1.14868   46.727
 5286.00    1.20674   1.17054   45.407
 5287.00    1.19531   1.18844   43.978
 5288.00    1.20531   1.19849   43.345
 5289.00    1.21590   1.20247   43.437
 5290.00    1.21284   1.20318   43.510
 5291.00    1.21549   1.20192   43.320
 5292.00    1.22219   1.19931   43.176
 5293.00    1.21626   1.19521   43.334
 5294.00    1.21157   1.18770   43.708
 5295.00    1.19722   1.17427   44.244
 5296.00    1.16191   1.15538   45.270
 5297.00    1.13832   1.13679   46.877
 5298.00    1.14154   1.12657   48.310
 5299.00    1.15252   1.12804   48.455
 5300.00    1.16714   1.13712   47.453
 5301.00    1.17334   1.14783   46.459
 5302.00    1.17856   1.15817   46.006
 5303.00    1.19019   1.16929   45.530
 5304.00    1.19953   1.18029   44.485
 5305.00    1.21298   1.18752   43.542
 5306.00    1.21751   1.18923   43.239
 5307.00    1.21170   1.18813   43.521
 5308.00    1.20848   1.18882   43.925
 5309.00    1.21614   1.19316   43.830
 5310.00    1.22455   1.19874   43.405
 5311.00    1.22274   1.20179   43.072
 5312.00    1.22724   1.20035   43.026
 5313.00    1.22194   1.19456   43.218
 5314.00    1.22607   1.18542   43.426
 5315.00    1.22315   1.17474   43.702
 5316.00    1.20938   1.16625   44.105
 5317.00    1.20387   1.16424   44.513
 5318.00    1.20132   1.16943   44.637
 5319.00    1.20528   1.17726   44.398
 5320.00    1.21519   1.18130   44.160
 5321.00    1.21130   1.17788   44.223
 5322.00    1.19762   1.16731   44.499
 5323.00    1.19204   1.15291   44.964
 5324.00    1.19596   1.13843   45.682
 5325.00    1.18086   1.12389   46.224
 5326.00    1.15671   1.10528   46.328
 5327.00    1.12422   1.08225   47.204
 5328.00    1.09371   1.06506   49.753
 5329.00    1.09283   1.06720   51.885
 5330.00    1.12815   1.09013   50.888
 5331.00    1.16846   1.12069   48.067
 5332.00    1.18855   1.14467   46.114
 5333.00    1.20223   1.15817   45.365
 5334.00    1.19999   1.16493   44.940
 5335.00    1.19840   1.16800   44.444
 5336.00    1.20354   1.16761   44.153
 5337.00    1.19609   1.16331   44.304
 5338.00    1.18238   1.15485   44.602
 5339.00    1.17757   1.14336   45.031
 5340.00    1.16672   1.13342   45.982
 5341.00    1.15902   1.13142   46.915
 5342.00    1.16976   1.13937   46.876
 5343.00    1.18648   1.15156   45.835
 5344.00    1.19693   1.15968   44.870
 5345.00    1.19838   1.16020   44.640
 5346.00    1.19241   1.15544   44.862
 5347.00    1.18661   1.14974   45.159
 5348.00    1.18025   1.14637   45.401
 5349.00    1.18060   1.14743   45.754
 5350.00    1.19122   1.15389   45.959
 5351.00    1.20186   1.16430   45.483
 5352.00    1.21050   1.17504   44.508
 5353.00    1.22066   1.18360   43.804
 5354.00    1.23061   1.19056   43.555
 5355.00    1.22643   1.19745   43.282
 5356.00    1.22716   1.20378   42.785
 5357.00    1.23536   1.20775   42.391
 5358.00    1.23904   1.20833   42.328
 5359.00    1.23072   1.20549   42.394
 5360.00    1.22608   1.19931   42.522
 5361.00    1.21130   1.19008   42.920
 5362.00    1.20168   1.17917   43.585
 5363.00    1.20116   1.16859   44.258
 5364.00    1.19415   1.16022   44.668
 5365.00    1.18142   1.15533   44.935
 5366.00    1.17909   1.15340   45.202
 5367.00    1.18363   1.15126   45.187
 5368.00    1.18805   1.14438   45.133
 5369.00    1.17228   1.13068   45.457
 5370.00    1.15191   1.11411   46.399
 5371.00    1.14412   1.10424   47.754
 5372.00    1.14756   1.10960   48.303
 5373.00    1.16736   1.12990   47.064
 5374.00    1.20042   1.15582   44.976
 5375.00    1.22992   1.17670   43.576
 5376.00    1.23524   1.18800   43.054
 5377.00    1.23580   1.19135   43.064
 5378.00    1.22917   1.19000   43.126
 5379.00    1.22243   1.18587   43.187
 5380.00    1.21327   1.17983   43.389
 5381.00    1.19740   1.17309   43.770
 5382.00    1.19216   1.16762   44.207
 5383.00    1.19563   1.16576   44.490
 5384.00    1.19725   1.16896   44.529
 5385.00    1.19892   1.17625   44.367
 5386.00    1.20193   1.18385   43.965
 5387.00    1.21193   1.18752   43.754
 5388.00    1.21530   1.18527   43.877
 5389.00    1.20299   1.17810   44.241
 5390.00    1.19580   1.16878   44.849
 5391.00    1.18922   1.15984   45.416
 5392.00    1.17924   1.15257   45.706
 5393.00    1.17562   1.14700   45.776
 5394.00    1.17126   1.14142   45.875
 5395.00    1.16137   1.13329   46.159
 5396.00    1.14781   1.12313   46.693
 5397.00    1.14647   1.11658   47.548
 5398.00    1.15997   1.11962   47.875
 5399.00    1.17784   1.13178   46.859
 5400.00    1.18761   1.14579   45.460
 5401.00    1.19277   1.15359   44.876
 5402.00    1.18905   1.15073   44.881
 5403.00    1.16827   1.13704   45.162
 5404.00    1.14501   1.11753   46.229
 5405.00    1.13487   1.10169   47.740
 5406.00    1.13785   1.09733   48.719
 5407.00    1.14733   1.10377   48.551
 5408.00    1.15369   1.11302   47.639
 5409.00    1.15391   1.11888   47.033
 5410.00    1.15275   1.12317   47.212
 5411.00    1.16557   1.13098   47.205
 5412.00    1.18901   1.14245   46.240
 5413.00    1.20015   1.15275   45.091
 5414.00    1.20549   1.15892   44.450
 5415.00    1.20202   1.16299   44.343
 5416.00    1.19963   1.16799   44.379
 5417.00    1.20120   1.17355   44.152
 5418.00    1.19866   1.17728   43.845
 5419.00    1.19721   1.17808   43.887
 5420.00    1.20356   1.17655   44.259
 5421.00    1.20515   1.17322   44.586
 5422.00    1.20440   1.16797   44.537
 5423.00    1.19600   1.16176   44.345
 5424.00    1.19207   1.15799   44.719
 5425.00    1.19657   1.15992   45.222
 5426.00    1.19645   1.16545   45.006
 5427.00    1.19390   1.16670   44.302
 5428.00    1.17896   1.15823   44.159
 5429.00    1.16102   1.14427   45.072
 5430.00    1.15179   1.13441   46.492
 5431.00    1.15775   1.13262   47.018
 5432.00    1.16443   1.13382   46.412
 5433.00    1.15618   1.13188   46.113
 5434.00    1.14950   1.12808   46.589
 5435.00    1.15300   1.12930   47.187
 5436.00    1.16214   1.14001   47.231
 5437.00    1.17405   1.15784   46.503
 5438.00    1.19394   1.17615   45.306
 5439.00    1.21424   1.18975   44.256
 5440.00    1.22641   1.19768   43.552
 5441.00    1.23796   1.20119   43.123
 5442.00    1.24212   1.20012   42.968
 5443.00    1.22347   1.19211   42.952
 5444.00    1.19740   1.17528   43.265
 5445.00    1.16983   1.15229   44.215
 5446.00    1.14157   1.13159   45.862
 5447.00    1.13430   1.12300   47.523
 5448.00    1.14828   1.13020   47.760
 5449.00    1.16900   1.14756   46.523
 5450.00    1.18658   1.16482   45.129
 5451.00    1.19694   1.17422   44.448
 5452.00    1.19308   1.17273   44.345
 5453.00    1.17770   1.16102   44.620
 5454.00    1.16230   1.14363   45.463
 5455.00    1.14498   1.12952   46.718
 5456.00    1.14179   1.12806   47.847
 5457.00    1.15466   1.14108   47.683
 5458.00    1.18167   1.16025   46.268
 5459.00    1.19137   1.17424   44.872
 5460.00    1.18762   1.17721   44.326
 5461.00    1.18152   1.17069   44.634
 5462.00    1.17898   1.16061   45.400
 5463.00    1.17854   1.15358   46.101
 5464.00    1.18285   1.15345   46.463
 5465.00    1.18385   1.15928   46.133
 5466.00    1.18897   1.16718   45.558
 5467.00    1.19115   1.17392   45.247
 5468.00    1.18629   1.17840   44.843
 5469.00    1.18057   1.18032   44.546
 5470.00    1.18167   1.17934   44.785
 5471.00    1.18206   1.17564   45.259
 5472.00    1.17390   1.16981   45.519
 5473.00    1.16989   1.16170   45.718
 5474.00    1.16445   1.15042   46.116
 5475.00    1.14688   1.13665   46.722
 5476.00    1.13091   1.12497   47.621
 5477.00    1.13337   1.12180   48.467
 5478.00    1.15115   1.12913   48.394
 5479.00    1.16044   1.14140   47.195
 5480.00    1.16220   1.15069   46.094
 5481.00    1.16745   1.15453   46.072
 5482.00    1.16969   1.15687   46.617
 5483.00    1.17620   1.16208   46.746
 5484.00    1.18169   1.16985   46.134
 5485.00    1.18572   1.17596   45.208
 5486.00    1.18774   1.17690   44.642
 5487.00    1.18419   1.17326   44.830
 5488.00    1.17487   1.16887   45.437
 5489.00    1.17256   1.16722   45.833
 5490.00    1.17558   1.16894   45.909
 5491.00    1.18054   1.17229   45.683
 5492.00    1.18167   1.17517   45.342
 5493.00    1.18259   1.17640   45.123
 5494.00    1.18699   1.17547   45.144
 5495.00    1.18379   1.17194   45.197
 5496.00    1.17306   1.16633   45.194
 5497.00    1.16801   1.16107   45.416
 5498.00    1.17765   1.15864   45.753
 5499.00    1.17918   1.15825   45.687
 5500.00    1.17181   1.15648   45.235
 5501.00    1.17064   1.15225   45.304
 5502.00    1.16531   1.14871   45.951
 5503.00    1.17104   1.14832   46.256
 5504.00    1.17576   1.14884   45.996
 5505.00    1.17660   1.14667   45.794
 5506.00    1.16856   1.14244   46.195
 5507.00    1.15669   1.14078   46.735
 5508.00    1.16253   1.14448   46.585
 5509.00    1.17465   1.15058   45.905
 5510.00    1.17882   1.15343   45.523
 5511.00    1.16903   1.15032   45.683
 5512.00    1.15210   1.14360   46.403
 5513.00    1.14127   1.13831   47.241
 5514.00    1.13527   1.13838   47.772
 5515.00    1.14518   1.14441   47.513
 5516.00    1.17063   1.15425   46.730
 5517.00    1.18735   1.16504   45.979
 5518.00    1.19423   1.17434   45.174
 5519.00    1.20172   1.18051   44.385
 5520.00    1.20614   1.18319   44.074
 5521.00    1.20296   1.18348   44.106
 5522.00    1.20142   1.18272   44.192
 5523.00    1.20483   1.18062   44.325
 5524.00    1.19823   1.17496   44.429
 5525.00    1.18309   1.16366   44.631
 5526.00    1.16951   1.14780   45.134
 5527.00    1.15266   1.13276   46.048
 5528.00    1.14543   1.12574   47.214
 5529.00    1.15540   1.13065   47.803
 5530.00    1.16439   1.14428   47.156
 5531.00    1.17680   1.15820   45.936
 5532.00    1.18552   1.16536   45.130
 5533.00    1.17891   1.16490   45.021
 5534.00    1.17622   1.16116   45.359
 5535.00    1.17854   1.15930   45.660
 5536.00    1.18258   1.16154   45.621
 5537.00    1.18713   1.16649   45.304
 5538.00    1.19579   1.17161   45.098
 5539.00    1.20243   1.17579   44.941
 5540.00    1.20757   1.17889   44.577
 5541.00    1.20270   1.18002   44.187
 5542.00    1.19930   1.17826   44.088
 5543.00    1.20199   1.17462   44.413
 5544.00    1.20008   1.17177   44.883
 5545.00    1.18446   1.17160   45.110
 5546.00    1.17981   1.17412   45.052
 5547.00    1.19210   1.17849   44.934
 5548.00    1.21402   1.18384   44.713
 5549.00    1.21834   1.18863   44.314
 5550.00    1.21725   1.19107   43.915
 5551.00    1.21587   1.19044   43.727
 5552.00    1.21003   1.18741   43.859
 5553.00    1.20445   1.18346   44.205
 5554.00    1.20024   1.18033   44.678
 5555.00    1.19965   1.17917   44.999
 5556.00    1.19359   1.17979   45.015
 5557.00    1.18783   1.18117   44.887
 5558.00    1.19353   1.18258   44.787
 5559.00    1.19009   1.18344   44.726
 5560.00    1.18512   1.18267   44.676
 5561.00    1.19273   1.17944   44.724
 5562.00    1.18938   1.17452   44.915
 5563.00    1.17065   1.16979   45.302
 5564.00    1.15741   1.16634   45.677
 5565.00    1.16376   1.16377   45.864
 5566.00    1.17733   1.16137   45.963
 5567.00    1.17406   1.15897   46.026
 5568.00    1.16335   1.15683   45.976
 5569.00    1.16063   1.15509   45.873
 5570.00    1.16753   1.15340   45.929
 5571.00    1.17045   1.15125   45.962
 5572.00    1.14022   1.14922   45.946
 5573.00    1.04873   1.14910   -1.000
 5574.00    0.49594   1.15190   -1.000
 5575.00   -0.85274   1.15656    0.000
 5576.00   -2.42951   1.16146    0.000
 5577.00   -3.69668   1.16612    0.000
 5578.00   -3.57595   1.17042    0.000
 5579.00   -1.21205   1.17347    0.000
 5580.00    1.72919   1.17442   -1.000
 5581.00    2.35605   1.17370   -1.000
 5582.00    1.58147   1.17236   -1.000
 5583.00    1.23722   1.17005   -1.000
 5584.00    1.19796   1.16431   45.285
 5585.00    1.17623   1.15249   45.440
 5586.00    1.15568   1.13531   46.208
 5587.00    1.13626   1.11816   47.366
 5588.00    1.12786   1.10775   48.482
 5589.00    1.13255   1.10748   49.092
 5590.00    1.13343   1.11573   48.808
 5591.00    1.14680   1.12720   47.992
 5592.00    1.15772   1.13641   47.242
 5593.00    1.15051   1.14141   46.929
 5594.00    1.14785   1.14444   47.026
 5595.00    1.14748   1.14799   46.918
 5596.00    1.15180   1.15102   46.353
 5597.00    1.15420   1.15043   45.855
 5598.00    1.14856   1.14558   46.020
 5599.00    1.14350   1.13890   46.735
 5600.00    1.14299   1.13261   47.358
 5601.00    1.13840   1.12824   47.497
 5602.00    1.13000   1.12862   47.641
 5603.00    1.13089   1.13658   47.901
 5604.00    1.15174   1.15142   47.460
 5605.00    1.17554   1.16848   46.292
 5606.00    1.18559   1.18251   45.142
 5607.00    1.19743   1.19104   44.444
 5608.00    1.20439   1.19494   44.217
 5609.00    1.20057   1.19646   44.245
 5610.00    1.19851   1.19697   44.334
 5611.00    1.19920   1.19556   44.337
 5612.00    1.19537   1.18928   44.224
 5613.00    1.18030   1.17571   44.309
 5614.00    1.16673   1.15700   44.994
 5615.00    1.15268   1.14081   46.373
 5616.00    1.13535   1.13524   47.670
 5617.00    1.14034   1.14161   47.774
 5618.00    1.15845   1.15374   46.821
 5619.00    1.17049   1.16470   45.982
 5620.00    1.18410   1.17165   45.714
 5621.00    1.18269   1.17442   45.563
 5622.00    1.17690   1.17287   45.335
 5623.00    1.17122   1.16746   45.382
 5624.00    1.15636   1.16113   46.055
 5625.00    1.15616   1.15826   46.964
 5626.00    1.16588   1.16111   47.131
 5627.00    1.17169   1.16810   46.490
 5628.00    1.17813   1.17582   45.756
 5629.00    1.18542   1.18186   45.188
 5630.00    1.19402   1.18552   44.793
 5631.00    1.19533   1.18694   44.604
 5632.00    1.19542   1.18639   44.451
 5633.00    1.19196   1.18421   44.415
 5634.00    1.18627   1.18073   44.669
 5635.00    1.18739   1.17640   45.015
 5636.00    1.18272   1.17200   45.309
 5637.00    1.17276   1.16851   45.625
 5638.00    1.17178   1.16646   45.947
 5639.00    1.17025   1.16540   46.057
 5640.00    1.17110   1.16453   46.013
 5641.00    1.17767   1.16394   46.096
 5642.00    1.17129   1.16458   46.178
 5643.00    1.15489   1.16665   46.059
 5644.00    1.15820   1.16938   45.846
 5645.00    1.17333   1.17197   45.723
 5646.00    1.17654   1.17394   45.496
 5647.00    1.17718   1.17493   45.288
 5648.00    1.18269   1.17485   45.178
 5649.00    1.18434   1.17429   45.092
 5650.00    1.18261   1.17429   45.143
 5651.00    1.17952   1.17521   45.189
 5652.00    1.18481   1.17602   44.947
 5653.00    1.18724   1.17509   44.727
 5654.00    1.17765   1.17119   44.809
 5655.00    1.16767   1.16351   45.117
 5656.00    1.15743   1.15194   45.534
 5657.00    1.14030   1.13897   46.257
 5658.00    1.12441   1.12986   47.517
 5659.00    1.12303   1.12865   48.567
 5660.00    1.12641   1.13400   48.355
 5661.00    1.13081   1.14119   47.354
 5662.00    1.13775   1.14756   46.856
 5663.00    1.14394   1.15380   46.885
 5664.00    1.15423   1.16034   46.581
 5665.00    1.16222   1.16512   45.938
 5666.00    1.16207   1.16606   45.584
 5667.00    1.16295   1.16406   45.699
 5668.00    1.15517   1.16223   45.981
 5669.00    1.15323   1.16292   46.116
 5670.00    1.16301   1.16626   46.049
 5671.00    1.17204   1.17098   45.806
 5672.00    1.17467   1.17561   45.435
 5673.00    1.16823   1.17915   44.996
 5674.00    1.17145   1.18119   44.553
 5675.00    1.18165   1.18207   44.408
 5676.00    1.17882   1.18250   44.530
 5677.00    1.18174   1.18266   44.497
 5678.00    1.18338   1.18177   44.386
 5679.00    1.17626   1.17879   44.512
 5680.00    1.17460   1.17316   44.725
 5681.00    1.16969   1.16530   44.956
 5682.00    1.16375   1.15704   45.394
 5683.00    1.15507   1.15128   45.945
 5684.00    1.15126   1.14985   46.207
 5685.00    1.15995   1.15168   46.048
 5686.00    1.15966   1.15360   45.804
 5687.00    1.14684   1.15366   45.874
 5688.00    1.14388   1.15303   46.322
 5689.00    1.15405   1.15445   46.633
 5690.00    1.16515   1.15930   46.329
 5691.00    1.17874   1.16636   45.559
 5692.00    1.18850   1.17308   44.966
 5693.00    1.18249   1.17767   44.653
 5694.00    1.17820   1.17986   44.503
 5695.00    1.18068   1.18019   44.520
 5696.00    1.17905   1.17907   44.567
 5697.00    1.17198   1.17639   44.660
 5698.00    1.16561   1.17195   44.993
 5699.00    1.15854   1.16624   45.506
 5700.00    1.14731   1.16069   45.956
 5701.00    1.14385   1.15714   46.411
 5702.00    1.15008   1.15659   46.733
 5703.00    1.15420   1.15826   46.571
 5704.00    1.15550   1.15967   46.105
 5705.00    1.15258   1.15827   45.854
 5706.00    1.14218   1.15297   46.031
 5707.00    1.12980   1.14441   46.581
 5708.00    1.11339   1.13457   47.393
 5709.00    1.10182   1.12653   48.195
 5710.00    1.10449   1.12351   48.637
 5711.00    1.11162   1.12713   48.642
 5712.00    1.12625   1.13658   48.262
 5713.00    1.14297   1.14889   47.426
 5714.00    1.15716   1.16038   46.296
 5715.00    1.16863   1.16868   45.422
 5716.00    1.17522   1.17374   45.090
 5717.00    1.17314   1.17698   44.994
 5718.00    1.16944   1.17980   44.869
 5719.00    1.17361   1.18290   44.675
 5720.00    1.18154   1.18625   44.406
 5721.00    1.19104   1.18929   44.166
 5722.00    1.19536   1.19152   44.029
 5723.00    1.19107   1.19259   43.952
 5724.00    1.19185   1.19197   43.895
 5725.00    1.18848   1.18919   43.943
 5726.00    1.17816   1.18488   44.226
 5727.00    1.16213   1.18098   44.675
 5728.00    1.15946   1.17910   45.077
 5729.00    1.17007   1.17917   45.047
 5730.00    1.17086   1.17988   44.754
 5731.00    1.16903   1.18051   44.736
 5732.00    1.18135   1.18175   44.948
 5733.00    1.19701   1.18440   44.928
 5734.00    1.18860   1.18776   44.564
 5735.00    1.17547   1.19010   44.214
 5736.00    1.17285   1.19055   44.147
 5737.00    1.17979   1.18977   44.211
 5738.00    1.18332   1.18888   44.314
 5739.00    1.17777   1.18844   44.389
 5740.00    1.17577   1.18819   44.456
 5741.00    1.18112   1.18771   44.538
 5742.00    1.18834   1.18725   44.624
 5743.00    1.18552   1.18746   44.596
 5744.00    1.18249   1.18839   44.519
 5745.00    1.18780   1.18895   44.300
 5746.00    1.18830   1.18816   44.012
 5747.00    1.18529   1.18659   44.082
 5748.00    1.18763   1.18579   44.476
 5749.00    1.18558   1.18606   44.756
 5750.00    1.18242   1.18543   44.635
 5751.00    1.18100   1.18176   44.429
 5752.00    1.16814   1.17549   44.608
 5753.00    1.15198   1.17001   45.109
 5754.00    1.14866   1.16910   45.606
 5755.00    1.15676   1.17385   45.763
 5756.00    1.17072   1.18189   45.365
 5757.00    1.18432   1.18928   44.590
 5758.00    1.18832   1.19293   43.939
 5759.00    1.18471   1.19165   43.847
 5760.00    1.17544   1.18627   44.241
 5761.00    1.16213   1.17922   44.807
 5762.00    1.15539   1.17411   45.414
 5763.00    1.15731   1.17404   45.791
 5764.00    1.16309   1.17929   45.544
 5765.00    1.17912   1.18692   44.811
 5766.00    1.19330   1.19318   44.155
 5767.00    1.19563   1.19630   43.882
 5768.00    1.19525   1.19681   43.823
 5769.00    1.18843   1.19594   43.762
 5770.00    1.18076   1.19433   43.788
 5771.00    1.18628   1.19195   43.922
 5772.00    1.18498   1.18884   44.131
 5773.00    1.17745   1.18559   44.401
 5774.00    1.17894   1.18316   44.575
 5775.00    1.17866   1.18223   44.642
 5776.00    1.17684   1.18233   44.603
 5777.00    1.17624   1.18164   44.419
 5778.00    1.17352   1.17821   44.302
 5779.00    1.16532   1.17164   44.383
 5780.00    1.15589   1.16352   44.845
 5781.00    1.13911   1.15652   45.751
 5782.00    1.12938   1.15269   46.535
 5783.00    1.14251   1.15223   46.689
 5784.00    1.14794   1.15394   46.511
 5785.00    1.14847   1.15685   46.337
 5786.00    1.15950   1.16095   46.170
 5787.00    1.16472   1.16605   45.787
 5788.00    1.17030   1.17076   45.196
 5789.00    1.17361   1.17341   44.748
 5790.00    1.16977   1.17396   44.660
 5791.00    1.16334   1.17437   44.823
 5792.00    1.17006   1.17676   44.866
 5793.00    1.18536   1.18144   44.597
 5794.00    1.19763   1.18662   44.252
 5795.00    1.19942   1.18998   43.977
 5796.00    1.18873   1.19038   43.856
 5797.00    1.18518   1.18896   44.017
 5798.00    1.18951   1.18825   44.307
 5799.00    1.19651   1.18990   44.288
 5800.00    1.20104   1.19320   43.833
 5801.00    1.20109   1.19604   43.231
 5802.00    1.20012   1.19668   42.936
 5803.00    1.19471   1.19481   43.142
 5804.00    1.18210   1.19173   43.511
 5805.00    1.17428   1.18939   43.856
 5806.00    1.17603   1.18899   44.118
 5807.00    1.17779   1.19022   44.125
 5808.00    1.18364   1.19201   43.969
 5809.00    1.19384   1.19360   43.822
 5810.00    1.19693   1.19479   43.772
 5811.00    1.19635   1.19540   43.752
 5812.00    1.20202   1.19498   43.632
 5813.00    1.19654   1.19311   43.483
 5814.00    1.18537   1.18998   43.487
 5815.00    1.18436   1.18685   43.752
 5816.00    1.19126   1.18568   44.033
 5817.00    1.19913   1.18752   43.966
 5818.00    1.19977   1.19138   43.672
 5819.00    1.19696   1.19508   43.407
 5820.00    1.19967   1.19719   43.188
 5821.00    1.20671   1.19781   43.017
 5822.00    1.20282   1.19767   43.005
 5823.00    1.20217   1.19728   43.137
 5824.00    1.20438   1.19695   43.154
 5825.00    1.20239   1.19703   43.072
 5826.00    1.20358   1.19776   43.000
 5827.00    1.21183   1.19893   42.942
 5828.00    1.21328   1.20000   42.936
 5829.00    1.20496   1.20051   42.995
 5830.00    1.20711   1.20038   42.982
 5831.00    1.21067   1.19971   42.945
 5832.00    1.20647   1.19850   42.921
 5833.00    1.20497   1.19684   42.943
 5834.00    1.20201   1.19530   43.161
 5835.00    1.19469   1.19476   43.330
 5836.00    1.20039   1.19552   43.257
 5837.00    1.20683   1.19700   43.138
 5838.00    1.19786   1.19844   43.193
 5839.00    1.19483   1.19956   43.320
 5840.00    1.19956   1.20033   43.273
 5841.00    1.19939   1.20052   43.013
 5842.00    1.20590   1.19983   42.742
 5843.00    1.20762   1.19824   42.665
 5844.00    1.20371   1.19595   42.766
 5845.00    1.19538   1.19321   42.929
 5846.00    1.18584   1.19047   43.169
 5847.00    1.18884   1.18833   43.421
 5848.00    1.18963   1.18695   43.632
 5849.00    1.18062   1.18551   43.690
 5850.00    1.17563   1.18262   43.697
 5851.00    1.17163   1.17766   43.884
 5852.00    1.16552   1.17157   44.159
 5853.00    1.15968   1.16607   44.531
 5854.00    1.15499   1.16166   44.847
 5855.00    1.15288   1.15684   44.964
 5856.00    1.14740   1.15041   45.018
 5857.00    1.14562   1.14430   45.312
 5858.00    1.15064   1.14247   45.777
 5859.00    1.14886   1.14661   45.754
 5860.00    1.15436   1.15441   45.241
 5861.00    1.17181   1.16216   44.779
 5862.00    1.16677   1.16782   44.554
 5863.00    1.15800   1.17118   44.393
 5864.00    1.16169   1.17228   44.275
 5865.00    1.15934   1.17124   44.331
 5866.00    1.15333   1.16928   44.483
 5867.00    1.14776   1.16866   44.676
 5868.00    1.16324   1.17083   44.743
 5869.00    1.17739   1.17517   44.455
 5870.00    1.17925   1.17950   44.041
 5871.00    1.18594   1.18184   43.782
 5872.00    1.18466   1.18171   43.709
 5873.00    1.18233   1.17999   43.785
 5874.00    1.18410   1.17779   43.843
 5875.00    1.18100   1.17573   43.799
 5876.00    1.17946   1.17374   43.845
 5877.00    1.17870   1.17135   44.022
 5878.00    1.17149   1.16820   44.140
 5879.00    1.16406   1.16449   44.362
 5880.00    1.15787   1.16068   44.693
 5881.00    1.15222   1.15682   44.808
 5882.00    1.15279   1.15251   44.717
 5883.00    1.15689   1.14754   44.660
 5884.00    1.15076   1.14181   44.784
 5885.00    1.11307   1.13350   44.898
 5886.00    1.00052   1.11757   -1.000
 5887.00    0.71086   1.08887   -1.000
 5888.00    0.21546   1.04952   -1.000
 5889.00   -0.18740   1.01262    0.000
 5890.00   -0.35141   0.99409    0.000
 5891.00   -0.13393   0.99835    0.000
 5892.00    0.42563   1.01382   -1.000
 5893.00    0.73959   1.02390   -1.000
 5894.00    0.59395   1.02153   -1.000
 5895.00    0.31765   1.01360   -1.000
 5896.00    0.23185   1.01302   -1.000
 5897.00    0.44744   1.02675   -1.000
 5898.00    0.84337   1.05126   -1.000
 5899.00    1.12663   1.07816   49.177
 5900.00    1.18902   1.10166   -1.000
 5901.00    1.16444   1.12004   46.463
 5902.00    1.14762   1.13335   45.560
 5903.00    1.14740   1.14206   45.090
 5904.00    1.14578   1.14724   44.998
 5905.00    1.13579   1.15040   44.979
 5906.00    1.14467   1.15274   45.019
 5907.00    1.15756   1.15483   45.040
 5908.00    1.15431   1.15679   44.974
 5909.00    1.15722   1.15839   44.872
 5910.00    1.15980   1.15898   44.918
 5911.00    1.15393   1.15763   45.039
 5912.00    1.15305   1.15379   45.085
 5913.00    1.14485   1.14816   45.204
 5914.00    1.11925   1.14276   45.668
 5915.00    1.10737   1.13980   46.176
 5916.00    1.12376   1.14028   46.241
 5917.00    1.14342   1.14372   46.019
 5918.00    1.15214   1.14859   45.801
 5919.00    1.15304   1.15305   45.629
 5920.00    1.14483   1.15585   45.483
 5921.00    1.13899   1.15694   45.345
 5922.00    1.14034   1.15723   45.278
 5923.00    1.13536   1.15784   45.324
 5924.00    1.13520   1.15936   45.234
 5925.00    1.14866   1.16141   45.060
 5926.00    1.16059   1.16269   44.959
 5927.00    1.15653   1.16184   44.909
 5928.00    1.14637   1.15873   44.947
 5929.00    1.14453   1.15511   45.182
 5930.00    1.14057   1.15334   45.542
 5931.00    1.13565   1.15413   45.665
 5932.00    1.13499   1.15598   45.355
 5933.00    1.13865   1.15710   45.023
 5934.00    1.14970   1.15742   45.151
 5935.00    1.15840   1.15820   45.509
 5936.00    1.15741   1.16000   45.675
 5937.00    1.15204   1.16181   45.518
 5938.00    1.15252   1.16200   45.149
 5939.00    1.16146   1.15999   44.887
 5940.00    1.16416   1.15674   44.928
 5941.00    1.14924   1.15395   45.289
 5942.00    1.13722   1.15294   45.650
 5943.00    1.13759   1.15399   45.717
 5944.00    1.13658   1.15616   45.530
 5945.00    1.13756   1.15778   45.248
 5946.00    1.14459   1.15750   45.037
 5947.00    1.14875   1.15558   45.043
 5948.00    1.14465   1.15364   45.353
 5949.00    1.13829   1.15312   45.821
 5950.00    1.13568   1.15371   46.086
 5951.00    1.13399   1.15410   45.963
 5952.00    1.12631   1.15366   45.747
 5953.00    1.12254   1.15293   45.752
 5954.00    1.12819   1.15230   45.799
 5955.00    1.13525   1.15156   45.718
 5956.00    1.14055   1.15085   45.687
 5957.00    1.14192   1.15118   45.808
 5958.00    1.15020   1.15348   45.938
 5959.00    1.16022   1.15744   45.850
 5960.00    1.16138   1.16177   45.452
 5961.00    1.16581   1.16514   44.956
 5962.00    1.17454   1.16673   44.682
 5963.00    1.16567   1.16635   44.596
 5964.00    1.14838   1.16444   44.642
 5965.00    1.14815   1.16210   44.839
 5966.00    1.15208   1.16058   45.040
 5967.00    1.15083   1.16056   45.190
 5968.00    1.15208   1.16190   45.201
 5969.00    1.15121   1.16402   44.936
 5970.00    1.14744   1.16621   44.714
 5971.00    1.15494   1.16775   44.681
 5972.00    1.16575   1.16801   44.623
 5973.00    1.16081   1.16650   44.546
 5974.00    1.14315   1.16306   44.670
 5975.00    1.13183   1.15828   44.999
 5976.00    1.13033   1.15385   45.354
 5977.00    1.12955   1.15174   45.685
 5978.00    1.13890   1.15286   45.941
 5979.00    1.15112   1.15620   45.900
 5980.00    1.15080   1.15929   45.557
 5981.00    1.15443   1.15973   45.283
 5982.00    1.15167   1.15679   45.290
 5983.00    1.13515   1.15206   45.567
 5984.00    1.13255   1.14839   45.973
 5985.00    1.13597   1.14777   46.275
 5986.00    1.13745   1.15006   46.265
 5987.00    1.14723   1.15367   45.888
 5988.00    1.15159   1.15689   45.506
 5989.00    1.15067   1.15892   45.321
 5990.00    1.15363   1.16003   45.135
 5991.00    1.15683   1.16142   45.074
 5992.00    1.15970   1.16408   45.187
 5993.00    1.16764   1.16745   45.103
 5994.00    1.16968   1.16969   44.768
 5995.00    1.15784   1.16941   44.527
 5996.00    1.15170   1.16707   44.669
 5997.00    1.15619   1.16448   45.010
 5998.00    1.16225   1.16306   45.252
 5999.00    1.16280   1.16271   45.384
 6000.00    1.15727   1.16225   45.373
 6001.00    1.15348   1.16075   45.350
 6002.00    1.15263   1.15855   45.534
 6003.00    1.14856   1.15668   45.753
 6004.00    1.14726   1.15537   45.797
 6005.00    1.15065   1.15347   45.709
 6006.00    1.14423   1.15013   45.665
 6007.00    1.12663   1.14656   45.878
 6008.00    1.12179   1.14538   46.306
 6009.00    1.13817   1.14782   46.513
 6010.00    1.14361   1.15214   46.171
 6011.00    1.14555   1.15539   45.637
 6012.00    1.14943   1.15620   45.452
 6013.00    1.14634   1.15536   45.694
 6014.00    1.14625   1.15423   46.002
 6015.00    1.13774   1.15331   45.967
 6016.00    1.13796   1.15236   45.830
 6017.00    1.13880   1.15097   45.963
 6018.00    1.13530   1.14892   46.114
 6019.00    1.14658   1.14643   46.076
 6020.00    1.14985   1.14427   46.088
 6021.00    1.13805   1.14331   46.338
 6022.00    1.14128   1.14388   46.376
 6023.00    1.14889   1.14593   46.084
 6024.00    1.14091   1.14937   45.887
 6025.00    1.13726   1.15383   45.827
 6026.00    1.14674   1.15848   45.647
 6027.00    1.15451   1.16256   45.434
 6028.00    1.16567   1.16586   45.226
 6029.00    1.17419   1.16845   44.976
 6030.00    1.16759   1.17037   44.864
 6031.00    1.16229   1.17174   44.852
 6032.00    1.16693   1.17288   44.920
 6033.00    1.16921   1.17406   44.927
 6034.00    1.17110   1.17515   44.764
 6035.00    1.16943   1.17564   44.606
 6036.00    1.16304   1.17510   44.552
 6037.00    1.16764   1.17342   44.503
 6038.00    1.17228   1.17092   44.487
 6039.00    1.16794   1.16814   44.662
 6040.00    1.16662   1.16548   44.840
 6041.00    1.16349   1.16312   44.944
 6042.00    1.16058   1.16186   44.961
 6043.00    1.16482   1.16289   44.865
 6044.00    1.16895   1.16638   44.716
 6045.00    1.17229   1.17084   44.401
 6046.00    1.17538   1.17450   44.250
 6047.00    1.16892   1.17661   44.297
 6048.00    1.16005   1.17737   44.255
 6049.00    1.16025   1.17721   44.241
 6050.00    1.17069   1.17649   44.357
 6051.00    1.18660   1.17537   44.489
 6052.00    1.18888   1.17371   44.550
 6053.00    1.17557   1.17124   44.611
 6054.00    1.16635   1.16819   44.755
 6055.00    1.16569   1.16537   44.920
 6056.00    1.16512   1.16384   45.114
 6057.00    1.16375   1.16408   45.312
 6058.00    1.16193   1.16577   45.321
 6059.00    1.15827   1.16790   45.140
 6060.00    1.16444   1.16909   44.894
 6061.00    1.16959   1.16794   44.821
 6062.00    1.16018   1.16360   44.922
 6063.00    1.14978   1.15670   45.320
 6064.00    1.13656   1.14988   46.143
 6065.00    1.12608   1.14676   45.710
 6066.00    1.11636   1.14921   55.943
 6067.00    1.11097   1.15597   23.896
 6068.00    1.12002   1.16379   20.400
 6069.00    1.13870   1.17005   48.668
 6070.00    1.14750   1.17393   44.918
 6071.00    1.16895   1.17598   44.308
 6072.00    1.09254   1.17699   -1.000
 6073.00    0.72448   1.17733   -1.000
 6074.00    0.77740   1.17673   -1.000
 6075.00    1.16929   1.17470   44.459
 6076.00    1.17211   1.17122   44.551
 6077.00    1.16296   1.16712   44.755
 6078.00    1.16451   1.16355   45.005
 6079.00    1.16080   1.16101   45.314
 6080.00    1.15590   1.15911   45.633
 6081.00    1.15206   1.15731   45.769
 6082.00    1.15467   1.15563   45.785
 6083.00    1.15762   1.15456   45.879
 6084.00    1.15649   1.15453   45.945
 6085.00    1.15599   1.15568   45.915
 6086.00    1.14952   1.15766   45.872
 6087.00    1.14535   1.15958   45.777
 6088.00    1.14846   1.16041   45.610
 6089.00    1.14523   1.15965   45.569
 6090.00    1.14668   1.15798   45.780
 6091.00    1.14690   1.15677   46.024
 6092.00    1.14289   1.15715   46.095
 6093.00    1.14674   1.15924   45.911
 6094.00    1.15292   1.16226   45.633
 6095.00    1.15871   1.16528   45.397
 6096.00    1.16484   1.16772   45.168
 6097.00    1.16671   1.16903   45.090
 6098.00    1.15910   1.16816   45.172
 6099.00    1.15425   1.16343   45.246
 6100.00    1.15260   1.15385   45.254
 6101.00    1.14986   1.14121   45.540
 6102.00    1.15255   1.13058   46.427
 6103.00    1.15769   1.12710   47.400
 6104.00    1.16291   1.13178   47.544
 6105.00    1.16334   1.14118   46.827
 6106.00    1.15843   1.15071   46.002
 6107.00    1.15081   1.15796   45.607
 6108.00    1.14845   1.16281   45.659
 6109.00    1.14632   1.16571   45.820
 6110.00    1.14414   1.16692   45.857
 6111.00    1.14538   1.16702   45.787
 6112.00    1.14655   1.16699   45.629
 6113.00    1.15079   1.16751   45.522
 6114.00    1.15883   1.16837   45.405
 6115.00    1.15613   1.16887   45.213
 6116.00    1.14477   1.16836   45.265
 6117.00    1.14301   1.16586   45.525
 6118.00    1.14062   1.16015   45.709
 6119.00    1.13012   1.15039   45.837
 6120.00    1.12101   1.13762   46.304
 6121.00    1.11570   1.12586   46.971
 6122.00    1.11077   1.11989   47.487
 6123.00    1.11770   1.12181   47.714
 6124.00    1.13178   1.12953   47.298
 6125.00    1.13909   1.13860   46.560
 6126.00    1.13991   1.14539   46.283
 6127.00    1.13649   1.14921   46.456
 6128.00    1.13836   1.15190   46.571
 6129.00    1.14675   1.15557   46.463
 6130.00    1.15211   1.16050   46.218
 6131.00    1.15283   1.16500   45.789
 6132.00    1.14839   1.16632   45.530
 6133.00    1.14351   1.16161   45.554
 6134.00    1.13110   1.14945   45.829
 6135.00    1.11074   1.13210   46.598
 6136.00    1.09625   1.11621   47.865
 6137.00    1.08574   1.10864   49.196
 6138.00    1.08799   1.11071   49.851
 6139.00    1.10333   1.11783   49.193
 6140.00    1.11869   1.12494   47.790
 6141.00    1.11787   1.13101   46.863
 6142.00    1.10928   1.13777   46.711
 6143.00    1.12126   1.14560   46.826
 6144.00    1.14348   1.15240   46.612
 6145.00    1.15332   1.15592   46.057
 6146.00    1.14948   1.15573   45.751
 6147.00    1.14822   1.15307   45.861
 6148.00    1.14554   1.14962   46.130
 6149.00    1.14168   1.14678   46.449
 6150.00    1.14010   1.14565   46.754
 6151.00    1.13790   1.14644   46.884
 6152.00    1.13847   1.14795   46.778
 6153.00    1.14114   1.14841   46.516
 6154.00    1.13942   1.14705   46.318
 6155.00    1.13118   1.14454   46.513
 6156.00    1.12890   1.14187   46.860
 6157.00    1.12649   1.13860   46.978
 6158.00    1.12351   1.13215   47.081
 6159.00    1.11395   1.11967   47.447
 6160.00    1.09187   1.10146   48.177
 6161.00    1.06329   1.08268   49.401
 6162.00    1.04531   1.07057   50.910
 6163.00    1.04904   1.06913   51.876
 6164.00    1.06228   1.07654   51.651
 6165.00    1.07444   1.08715   50.461
 6166.00    1.08069   1.09530   49.348
 6167.00    1.08531   1.09803   48.921
 6168.00    1.08072   1.09651   48.915
 6169.00    1.06510   1.09500   49.324
 6170.00    1.06019   1.09737   49.932
 6171.00    1.07945   1.10423   49.974
 6172.00    1.09991   1.11323   49.234
 6173.00    1.10768   1.12154   48.379
 6174.00    1.11371   1.12767   48.096
 6175.00    1.11070   1.13159   48.190
 6176.00    1.10524   1.13397   48.139
 6177.00    1.10882   1.13556   48.023
 6178.00    1.11503   1.13686   47.916
 6179.00    1.11613   1.13832   47.727
 6180.00    1.11635   1.14026   47.516
 6181.00    1.11874   1.14255   47.360
 6182.00    1.12206   1.14445   47.174
 6183.00    1.12238   1.14507   47.000
 6184.00    1.11904   1.14389   46.998
 6185.00    1.11501   1.14094   47.145
 6186.00    1.11432   1.13663   47.421
 6187.00    1.10861   1.13116   47.889
 6188.00    1.10222   1.12419   48.408
 6189.00    1.08311   1.11574   48.884
 6190.00    1.07392   1.10789   49.290
 6191.00    1.07501   1.10431   49.785
 6192.00    1.07159   1.10716   50.296
 6193.00    1.08190   1.11507   50.135
 6194.00    1.09831   1.12441   49.157
 6195.00    1.11072   1.13190   48.104
 6196.00    1.11522   1.13600   47.609
 6197.00    1.11290   1.13645   47.461
 6198.00    1.10265   1.13420   47.596
 6199.00    1.08868   1.13147   48.060
 6200.00    1.08609   1.13066   48.551
 6201.00    1.09029   1.13272   48.706
 6202.00    1.10351   1.13683   48.399
 6203.00    1.11173   1.14127   47.816
 6204.00    1.11857   1.14480   47.447
 6205.00    1.12765   1.14712   47.423
 6206.00    1.12605   1.14844   47.389
 6207.00    1.11460   1.14891   47.340
 6208.00    1.11095   1.14822   47.441
 6209.00    1.10452   1.14580   47.544
 6210.00    1.09543   1.14106   47.629
 6211.00    1.09319   1.13399   47.976
 6212.00    1.08718   1.12565   48.400
 6213.00    1.07703   1.11804   48.818
 6214.00    1.07280   1.11292   49.441
 6215.00    1.07160   1.11061   50.090
 6216.00    1.06901   1.10976   50.381
 6217.00    1.07843   1.10882   50.085
 6218.00    1.09624   1.10751   49.575
 6219.00    1.08532   1.10701   49.691
 6220.00    1.06059   1.10856   49.833
 6221.00    1.05788   1.11189   49.499
 6222.00    1.08021   1.11560   49.463
 6223.00    1.08883   1.11846   51.467
 6224.00    1.17517   1.12006   -1.000
 6225.00    1.29568   1.12037   -1.000
 6226.00    1.18829   1.11878   -1.000
 6227.00    1.07998   1.11408   49.112
 6228.00    1.09329   1.10596   49.248
 6229.00    1.06907   1.09633   49.747
 6230.00    1.04589   1.08902   50.530
 6231.00    1.03525   1.08740   51.282
 6232.00    1.02888   1.09211   51.486
 6233.00    1.02583   1.10068   -1.000
 6234.00    1.01946   1.10917   -1.000
 6235.00    1.01402   1.11445   -1.000
 6236.00    1.01358   1.11542   -1.000
 6237.00    1.02957   1.11309   -1.000
 6238.00    1.05475   1.10945   49.198
 6239.00    1.05679   1.10616   49.705
 6240.00    1.04631   1.10359   50.222
 6241.00    1.04379   1.10091   50.600
 6242.00    1.04291   1.09718   50.669
 6243.00    1.04594   1.09235   50.828
 6244.00    1.05531   1.08773   51.218
 6245.00    1.06087   1.08568   51.364
 6246.00    1.06733   1.08802   51.158
 6247.00    1.07302   1.09450   50.723
 6248.00    1.07335   1.10225   50.138
 6249.00    1.07538   1.10715   49.546
 6250.00    1.07404   1.10645   49.267
 6251.00    1.06661   1.10058   49.499
 6252.00    1.04869   1.09274   50.217
 6253.00    1.03151   1.08643   51.031
 6254.00    1.02952   1.08322   51.493
 6255.00    1.02217   1.08240   51.726
 6256.00    0.99860   1.08259   -1.000
 6257.00    0.97218   1.08343   -1.000
 6258.00    0.96984   1.08565   -1.000
 6259.00    0.99699   1.09000   -1.000
 6260.00    1.03713   1.09634   52.064
 6261.00    1.06723   1.10349   51.245
 6262.00    1.07577   1.10971   50.517
 6263.00    1.07646   1.11379   49.789
 6264.00    1.07378   1.11594   49.260
 6265.00    1.06810   1.11734   49.361
 6266.00    1.06573   1.11876   49.768
 6267.00    1.06743   1.11975   49.821
 6268.00    1.07050   1.11948   49.490
 6269.00    1.07856   1.11811   49.379
 6270.00    1.08434   1.11670   49.633
 6271.00    1.08074   1.11581   49.733
 6272.00    1.07867   1.11450   49.593
 6273.00    1.07772   1.11098   49.443
 6274.00    1.07036   1.10432   49.448
 6275.00    1.05987   1.09532   49.706
 6276.00    1.05279   1.08609   50.103
 6277.00    1.04453   1.07866   50.697
 6278.00    1.02382   1.07426   51.766
 6279.00    1.01325   1.07355   52.937
 6280.00    1.01105   1.07675   -1.000
 6281.00    1.01620   1.08350   -1.000
 6282.00    1.03096   1.09257   53.057
 6283.00    1.03893   1.10199   52.140
 6284.00    1.04228   1.10999   -1.000
 6285.00    1.04847   1.11566   -1.000
 6286.00    1.04896   1.11894   -1.000
 6287.00    1.04768   1.11999   -1.000
 6288.00    1.05025   1.11901   -1.000
 6289.00    1.06905   1.11657   49.029
 6290.00    1.08829   1.11369   49.117
 6291.00    1.09230   1.11136   49.477
 6292.00    1.07542   1.10991   49.882
 6293.00    1.05672   1.10878   50.120
 6294.00    1.06186   1.10696   50.178
 6295.00    1.06286   1.10385   50.248
 6296.00    1.04626   1.09987   50.480
 6297.00    1.04129   1.09621   50.868
 6298.00    1.03917   1.09359   51.075
 6299.00    1.06144   1.09169   51.062
 6300.00    1.09433   1.09024   50.912
 6301.00    1.12995   1.09022   50.683
 6302.00    1.14461   1.09306   50.761
 6303.00    1.13406   1.09892   51.311
 6304.00    1.10609   1.10615   51.431
 6305.00    1.07880   1.11269   50.746
 6306.00    1.05239   1.11740   50.007
 6307.00    1.04301   1.12019   -1.000
 6308.00    1.05671   1.12158   49.072
 6309.00    1.10002   1.12196   48.791
 6310.00    1.11830   1.12149   48.875
 6311.00    1.10064   1.12010   49.163
 6312.00    1.08669   1.11751   49.438
 6313.00    1.07762   1.11384   49.622
 6314.00    1.06641   1.10968   49.756
 6315.00    1.05908   1.10571   49.980
 6316.00    1.06544   1.10258   50.347
 6317.00    1.07044   1.10120   50.403
 6318.00    1.07948   1.10253   50.350
 6319.00    1.07802   1.10654   50.357
 6320.00    1.07201   1.11188   50.319
 6321.00    1.07908   1.11715   49.920
 6322.00    1.08690   1.12188   49.340
 6323.00    1.09473   1.12617   49.003
 6324.00    1.10309   1.12977   48.845
 6325.00    1.09946   1.13211   48.635
 6326.00    1.08553   1.13296   48.414
 6327.00    1.08476   1.13282   48.328
 6328.00    1.07873   1.13248   48.211
 6329.00    1.07113   1.13255   48.082
 6330.00    1.08160   1.13308   48.146
 6331.00    1.10829   1.13320   48.176
 6332.00    1.12702   1.13138   48.115
 6333.00    1.13079   1.12659   47.968
 6334.00    1.11634   1.11973   47.992
 6335.00    1.09892   1.11356   48.132
 6336.00    1.10269   1.11086   48.699
 6337.00    1.11007   1.11246   49.453
 6338.00    1.10261   1.11718   49.245
 6339.00    1.11665   1.12290   48.764
 6340.00    1.13251   1.12763   48.246
 6341.00    1.13030   1.13009   47.844
 6342.00    1.12165   1.13002   47.632
 6343.00    1.12064   1.12835   47.516
 6344.00    1.11735   1.12665   47.748
 6345.00    1.11456   1.12637   48.045
 6346.00    1.11376   1.12828   47.995
 6347.00    1.11098   1.13218   47.795
 6348.00    1.11207   1.13696   47.493
 6349.00    1.12872   1.14108   47.223
 6350.00    1.14453   1.14331   47.140
 6351.00    1.13900   1.14303   47.111
 6352.00    1.12705   1.14048   47.064
 6353.00    1.12238   1.13653   47.189
 6354.00    1.10721   1.13241   47.409
 6355.00    1.08777   1.12891   47.772
 6356.00    1.08329   1.12586   48.286
 6357.00    1.08889   1.12285   48.516
 6358.00    1.10309   1.11983   48.565
 6359.00    1.11245   1.11703   48.900
 6360.00    1.11229   1.11463   49.334
 6361.00    1.10873   1.11288   49.336
 6362.00    1.11392   1.11230   49.131
 6363.00    1.12827   1.11340   49.028
 6364.00    1.14282   1.11610   48.935
 6365.00    1.15462   1.11971   48.688
 6366.00    1.16029   1.12330   48.362
 6367.00    1.15581   1.12596   48.077
 6368.00    1.14751   1.12722   47.800
 6369.00    1.14327   1.12741   47.486
 6370.00    1.14666   1.12763   47.253
 6371.00    1.14690   1.12888   47.212
 6372.00    1.15076   1.13121   47.171
 6373.00    1.15821   1.13363   46.986
 6374.00    1.14518   1.13498   46.934
 6375.00    1.13471   1.13475   47.041
 6376.00    1.14113   1.13318   47.098
 6377.00    1.13325   1.13089   47.236
 6378.00    1.11842   1.12827   47.445
 6379.00    1.11369   1.12559   47.726
 6380.00    1.11421   1.12313   47.995
 6381.00    1.11019   1.12128   48.103
 6382.00    1.11039   1.12040   48.153
 6383.00    1.11456   1.12069   48.205
 6384.00    1.11501   1.12205   48.135
 6385.00    1.10960   1.12404   48.150
 6386.00    1.10757   1.12588   48.350
 6387.00    1.10690   1.12688   48.386
 6388.00    1.10854   1.12664   48.417
 6389.00    1.10262   1.12481   48.581
 6390.00    1.08778   1.12099   48.842
 6391.00    1.08286   1.11559   49.255
 6392.00    1.07473   1.11053   49.713
 6393.00    1.06716   1.10842   50.376
 6394.00    1.06081   1.11036   51.014
 6395.00    1.06080   1.11466   51.173
 6396.00    1.06969   1.11779   50.719
 6397.00    1.07073   1.11693   50.210
 6398.00    1.06395   1.11249   50.337
 6399.00    1.05593   1.10797   50.861
 6400.00    1.04023   1.10720   -1.000
 6401.00    1.01812   1.11145   -1.000
 6402.00    1.02362   1.11876   -1.000
 6403.00    1.04409   1.12557   -1.000
 6404.00    1.05087   1.12894   -1.000
 6405.00    1.04401   1.12799   -1.000
 6406.00    1.03818   1.12404   -1.000
 6407.00    1.03274   1.11965   -1.000
 6408.00    1.02334   1.11711   -1.000
 6409.00    1.01601   1.11658   -1.000
 6410.00    1.00813   1.11701   -1.000
 6411.00    0.99577   1.11781   -1.000
 6412.00    0.98476   1.11891   -1.000
 6413.00    0.98203   1.12037   -1.000
 6414.00    0.98759   1.12185   -1.000
 6415.00    0.99128   1.12301   -1.000
 6416.00    0.98126   1.12333   -1.000
 6417.00    0.96813   1.12206   -1.000
 6418.00    0.95956   1.11878   -1.000
 6419.00    0.94566   1.11450   -1.000
 6420.00    0.92992   1.11176   -1.000
 6421.00    0.92328   1.11289   -1.000
 6422.00    0.93041   1.11804   -1.000
 6423.00    0.93430   1.12517   -1.000
 6424.00    0.92514   1.13190   -1.000
 6425.00    0.92111   1.13654   -1.000
 6426.00    0.91734   1.13820   -1.000
 6427.00    0.90931   1.13612   -1.000
 6428.00    0.89877   1.13036   -1.000
