###################################################################
## OUTPUT of StarlightChains_v04.for    [Cid@UFSC - 01/Apr/2007] ##
###################################################################

## Some input info
NGC6352_a_1.cxt                          [arq_obs]
Base.BC03.S                              [arq_base]
NGC6352_a_1.msk                          [arq_masks]
StCv04.C11.config                        [arq_config]
  150                                    [N_base]
    0                                    [N_YAV_components = # of components with extra extinction!]
    0                                    [i_FitPowerLaw (1/0 = Yes/No)]
-9.99                                    [alpha_PowerLaw]
CCM                                      [red_law_option]
 1.458241                                [q_norm = A(l_norm)/A(V)]

## (Re)Sampling Parameters
 3359.00                                 [l_ini (A)]
 6428.00                                 [l_fin (A)]
    1.00                                 [dl    (A)]     (OBS: dl_cushion =    50.00 A)

## Normalization info
 4020.00                                 [l_norm (A) - for base]
 4010.00                                 [llow_norm (A) - window for f_obs]
 4060.00                                 [lupp_norm (A) - window for f_obs]
4.889122E-15                             [fobs_norm (in input units)]

## S/N
 4730.00                                 [llow_SN (A) - window for S/N]
 4780.00                                 [lupp_SN (A) - window for S/N]
  33.884                                 [S/N in S/N window]
  22.882                                 [S/N in norm. window]
 274.330                                 [S/N_err in S/N window]
 185.259                                 [S/N_err in norm. window]
  1.0000                                 [fscale_chi2]

## etc...
  2147483613                             [idum_orig]
  3060                                   [NOl_eff]
   648                                   [Nl_eff]
  2412    NSIGMA                         [Ntot_cliped & clip_method]
  2028880                                [Nglobal_steps]
   7                                     [N_chains]
  28                                     [NEX0s_base = N_base in EX0s-fits]
 0   0   1      257   2.0   3.884E+02    [Clip-Bug, RC-Crash & Burn-In warning-flags, n_censored_weights, wei_nsig_threshold & wei_limit]
    73     73.048     73.036      0.012  [idt_all, wdt_TotTime, wdt_UsrTime & wdt_SysTime (sec)]

## Synthesis Results - Best model ##

 2.80267E+00                             [chi2/Nl_eff]
     1.14496                             [adev (%)]

   100.53172                             [sum-of-x (%)]
 1.06504E-14                             [Flux_tot (units of input spectrum!)]
 4.80316E-10                             [Mini_tot (???)]
 2.42749E-10                             [Mcor_tot (???)]

  15.95                                  [v0_min  (km/s)]
  59.16                                  [vd_min  (km/s)]
 0.5757                                  [AV_min  (mag)]
 0.0000                                  [YAV_min (mag)]

# j     x_j(%)      Mini_j(%)     Mcor_j(%)     age_j(yr)     Z_j      (L/M)_j    YAV?  Mstars   component_j        a/Fe...       SSP_chi2r SSP_adev(%)   SSP_AV   SSP_x(%)
  1      0.0000     0.0000E+00    0.0000E+00    1.000000E+06  0.00010  8.160E-03    0   1.0000   age020_m22            0.0000     2.3650E+03    27.9460   4.0000    93.6359
  2      3.7122     1.7205E-03    3.4042E-03    3.160000E+06  0.00010  4.759E-02    0   1.0000   age045_m22            0.0000     5.9029E+02    11.2754   2.7466    96.8484
  3      4.1601     4.7494E-03    9.0045E-03    5.010000E+06  0.00010  1.932E-02    0   0.9582   age055_m22            0.0000     1.1297E+03    18.0274   2.9343    87.3615
  4      0.0000     0.0000E+00    0.0000E+00    6.610000E+06  0.00010  9.973E-03    0   0.9297   age061_m22            0.0000     2.3127E+03    26.9288   4.0000    96.1560
  5      0.0000     0.0000E+00    0.0000E+00    8.710000E+06  0.00010  7.690E-03    0   0.9030   age067_m22            0.0000     2.2574E+03    26.6172   4.0000    96.4534
  6      0.0000     0.0000E+00    0.0000E+00    1.000000E+07  0.00010  6.375E-03    0   0.8902   age070_m22            0.0000     2.2818E+03    26.6915   4.0000    96.8684
  7      0.0000     0.0000E+00    0.0000E+00    1.445000E+07  0.00010  4.874E-03    0   0.8589   age078_m22            0.0000     1.6111E+03    22.7038   4.0000    96.2936
  8      0.0000     0.0000E+00    0.0000E+00    2.512000E+07  0.00010  4.103E-03    0   0.8174   age090_m22            0.0000     8.6997E+02    15.4839   4.0000    93.3891
  9      0.0000     0.0000E+00    0.0000E+00    4.000000E+07  0.00010  3.654E-03    0   0.7830   age104_m22            0.0000     8.4828E+02    13.4793   3.8652    93.7039
 10      0.0000     0.0000E+00    0.0000E+00    5.500000E+07  0.00010  3.093E-03    0   0.7597   age110_m22            0.0000     8.3694E+02    12.9554   3.7812    94.7469
 11      0.0000     0.0000E+00    0.0000E+00    1.015200E+08  0.00010  2.431E-03    0   0.7138   age116_m22            0.0000     8.9462E+02    12.8000   3.4560    96.9700
 12      0.0000     0.0000E+00    0.0000E+00    1.609000E+08  0.00010  1.319E-03    0   0.6775   age120_m22            0.0000     8.3840E+02    11.9238   2.9727    99.4847
 13      0.0000     0.0000E+00    0.0000E+00    2.861200E+08  0.00010  1.075E-03    0   0.6412   age125_m22            0.0000     1.1533E+03    13.5097   3.0912   101.4482
 14      0.0000     0.0000E+00    0.0000E+00    5.088000E+08  0.00010  7.183E-04    0   0.6083   age130_m22            0.0000     1.2459E+03    14.0013   2.8708   102.9562
 15      0.0000     0.0000E+00    0.0000E+00    9.047900E+08  0.00010  4.524E-04    0   0.5785   age135_m22            0.0000     1.2348E+03    13.9516   2.6703   104.1612
 16      0.0000     0.0000E+00    0.0000E+00    1.278050E+09  0.00010  3.018E-04    0   0.5588   age138_m22            0.0000     8.0613E+02    11.1534   2.1034   103.5180
 17      0.0000     0.0000E+00    0.0000E+00    1.434000E+09  0.00010  2.691E-04    0   0.5532   age139_m22            0.0000     7.2279E+02    10.6041   1.9386   103.2455
 18      0.0000     0.0000E+00    0.0000E+00    2.500000E+09  0.00010  1.582E-04    0   0.5296   age150_m22            0.0000     7.1182E+02    10.6779   1.8152   104.1789
 19      0.0000     0.0000E+00    0.0000E+00    4.250000E+09  0.00010  1.007E-04    0   0.5110   age158_m22            0.0000     5.6211E+02     9.5011   1.6430   103.0852
 20      0.0000     0.0000E+00    0.0000E+00    6.250000E+09  0.00010  6.869E-05    0   0.4985   age166_m22            0.0000     4.5266E+02     8.6161   1.5594   101.0677
 21      0.0000     0.0000E+00    0.0000E+00    7.500000E+09  0.00010  5.873E-05    0   0.4931   age171_m22            0.0000     4.5815E+02     8.7402   1.5420   100.6840
 22      0.0150     7.3606E-03    7.0693E-03    1.000000E+10  0.00010  4.481E-05    0   0.4854   age181_m22            0.0000     4.4657E+02     8.6444   1.5032   100.3490
 23      0.0000     0.0000E+00    0.0000E+00    1.300000E+10  0.00010  3.489E-05    0   0.4791   age193_m22            0.0000     4.2099E+02     8.3961   1.4457    99.8448
 24      0.0000     0.0000E+00    0.0000E+00    1.500000E+10  0.00010  3.035E-05    0   0.4766   age201_m22            0.0000     4.0887E+02     8.2809   1.4050    99.7075
 25      0.0000     0.0000E+00    0.0000E+00    1.800000E+10  0.00010  2.510E-05    0   0.4735   age213_m22            0.0000     3.8370E+02     8.0536   1.3324    99.2295
 26      0.0000     0.0000E+00    0.0000E+00    1.000000E+06  0.00040  8.458E-03    0   1.0000   age020_m32            0.0000     2.4319E+03    28.0203   4.0000    94.6685
 27      0.0000     0.0000E+00    0.0000E+00    3.160000E+06  0.00040  3.973E-02    0   1.0000   age045_m32            0.0000     8.5332E+02    15.0172   3.9918    91.0363
 28      0.0000     0.0000E+00    0.0000E+00    5.010000E+06  0.00040  1.935E-02    0   0.9532   age055_m32            0.0000     1.1933E+03    19.3249   4.0000    90.6916
 29      0.0000     0.0000E+00    0.0000E+00    6.610000E+06  0.00040  1.204E-02    0   0.9243   age061_m32            0.0000     1.7995E+03    23.9530   4.0000    95.4903
 30      0.0000     0.0000E+00    0.0000E+00    8.710000E+06  0.00040  9.433E-03    0   0.9001   age067_m32            0.0000     1.6900E+03    23.2106   4.0000    95.8317
 31      0.0000     0.0000E+00    0.0000E+00    1.000000E+07  0.00040  8.053E-03    0   0.8877   age070_m32            0.0000     1.5810E+03    22.4896   4.0000    95.5693
 32      0.0000     0.0000E+00    0.0000E+00    1.445000E+07  0.00040  7.027E-03    0   0.8578   age078_m32            0.0000     9.4927E+02    16.1291   3.9320    90.2603
 33      0.0000     0.0000E+00    0.0000E+00    2.512000E+07  0.00040  4.707E-03    0   0.8166   age090_m32            0.0000     8.5798E+02    14.5960   3.6700    93.1792
 34      0.0000     0.0000E+00    0.0000E+00    4.000000E+07  0.00040  3.714E-03    0   0.7827   age104_m32            0.0000     8.3423E+02    13.3885   3.5085    95.2612
 35      0.0000     0.0000E+00    0.0000E+00    5.500000E+07  0.00040  2.982E-03    0   0.7593   age110_m32            0.0000     8.3977E+02    13.0140   3.4619    95.9870
 36      0.0000     0.0000E+00    0.0000E+00    1.015200E+08  0.00040  2.188E-03    0   0.7143   age116_m32            0.0000     9.4241E+02    12.7160   3.2491    98.7097
 37      0.0000     0.0000E+00    0.0000E+00    1.609000E+08  0.00040  1.690E-03    0   0.6856   age120_m32            0.0000     1.0621E+03    13.2035   3.0587   100.8553
 38      0.0000     0.0000E+00    0.0000E+00    2.861200E+08  0.00040  1.152E-03    0   0.6509   age125_m32            0.0000     1.1542E+03    13.5008   2.8462   102.5185
 39      0.0000     0.0000E+00    0.0000E+00    5.088000E+08  0.00040  7.331E-04    0   0.6182   age130_m32            0.0000     1.1733E+03    13.5245   2.6881   103.1696
 40      0.0000     0.0000E+00    0.0000E+00    9.047900E+08  0.00040  3.960E-04    0   0.5890   age135_m32            0.0000     8.0314E+02    11.1154   2.1980   102.7630
 41      0.0000     0.0000E+00    0.0000E+00    1.278050E+09  0.00040  2.854E-04    0   0.5687   age138_m32            0.0000     7.4002E+02    10.8008   1.8906   104.8512
 42      0.0000     0.0000E+00    0.0000E+00    1.434000E+09  0.00040  2.531E-04    0   0.5632   age139_m32            0.0000     7.2788E+02    10.7520   1.8285   104.8596
 43      0.0000     0.0000E+00    0.0000E+00    2.500000E+09  0.00040  1.488E-04    0   0.5386   age150_m32            0.0000     5.8508E+02     9.7550   1.5617   103.4365
 44      0.0000     0.0000E+00    0.0000E+00    4.250000E+09  0.00040  9.082E-05    0   0.5199   age158_m32            0.0000     3.9347E+02     7.9946   1.4265   101.2377
 45      1.4311     4.9614E-01    4.9831E-01    6.250000E+09  0.00040  6.362E-05    0   0.5076   age166_m32            0.0000     3.2767E+02     7.4866   1.3511    98.8448
 46      3.2380     1.3503E+00    1.3431E+00    7.500000E+09  0.00040  5.289E-05    0   0.5027   age171_m32            0.0000     3.0285E+02     7.3414   1.3082    97.7996
 47      2.4641     1.3683E+00    1.3396E+00    1.000000E+10  0.00040  3.972E-05    0   0.4948   age181_m32            0.0000     2.7343E+02     7.1142   1.2433    96.5638
 48      0.0000     0.0000E+00    0.0000E+00    1.300000E+10  0.00040  3.283E-05    0   0.4870   age193_m32            0.0000     2.9339E+02     7.0633   1.2181    98.7402
 49      0.0000     0.0000E+00    0.0000E+00    1.500000E+10  0.00040  2.925E-05    0   0.4854   age201_m32            0.0000     3.1670E+02     7.2220   1.2108    99.9986
 50      0.0416     3.7135E-02    3.5409E-02    1.800000E+10  0.00040  2.469E-05    0   0.4819   age213_m32            0.0000     3.2057E+02     7.2399   1.1743   100.4136
 51      0.0000     0.0000E+00    0.0000E+00    1.000000E+06  0.00400  1.114E-02    0   1.0000   age020_m42            0.0000     2.1323E+03    26.4839   4.0000    93.8942
 52      0.0000     0.0000E+00    0.0000E+00    3.160000E+06  0.00400  4.073E-02    0   0.9999   age045_m42            0.0000     6.9016E+02    13.0410   3.7132    93.0821
 53      0.0000     0.0000E+00    0.0000E+00    5.010000E+06  0.00400  2.534E-02    0   0.9488   age055_m42            0.0000     9.0177E+02    16.5633   4.0000    89.9418
 54      0.0000     0.0000E+00    0.0000E+00    6.610000E+06  0.00400  2.583E-02    0   0.9220   age061_m42            0.0000     7.2731E+02    13.0788   3.5492    93.3335
 55      0.0000     0.0000E+00    0.0000E+00    8.710000E+06  0.00400  1.706E-02    0   0.8983   age067_m42            0.0000     8.1144E+02    14.7270   3.3363    92.6293
 56      0.0000     0.0000E+00    0.0000E+00    1.000000E+07  0.00400  1.271E-02    0   0.8862   age070_m42            0.0000     9.3583E+02    16.3022   3.3016    91.8213
 57      0.0000     0.0000E+00    0.0000E+00    1.445000E+07  0.00400  7.666E-03    0   0.8571   age078_m42            0.0000     9.7412E+02    17.2318   3.6766    89.3665
 58      0.0000     0.0000E+00    0.0000E+00    2.512000E+07  0.00400  5.070E-03    0   0.8174   age090_m42            0.0000     8.5347E+02    15.6103   3.1705    93.5146
 59      0.0000     0.0000E+00    0.0000E+00    4.000000E+07  0.00400  3.505E-03    0   0.7851   age104_m42            0.0000     6.7197E+02    13.5250   2.8736    95.9972
 60      0.0000     0.0000E+00    0.0000E+00    5.500000E+07  0.00400  3.059E-03    0   0.7629   age110_m42            0.0000     6.6832E+02    11.5411   2.9978    98.5569
 61      0.0000     0.0000E+00    0.0000E+00    1.015200E+08  0.00400  2.268E-03    0   0.7207   age116_m42            0.0000     9.1859E+02    12.1354   2.9741   101.6409
 62      0.0000     0.0000E+00    0.0000E+00    1.609000E+08  0.00400  1.720E-03    0   0.6930   age120_m42            0.0000     9.2252E+02    11.9818   2.8352   103.1194
 63      0.0000     0.0000E+00    0.0000E+00    2.861200E+08  0.00400  1.079E-03    0   0.6613   age125_m42            0.0000     9.0070E+02    11.7534   2.4766   103.9404
 64      0.0000     0.0000E+00    0.0000E+00    5.088000E+08  0.00400  6.261E-04    0   0.6313   age130_m42            0.0000     9.6399E+02    12.3572   2.2875   106.6233
 65      0.0000     0.0000E+00    0.0000E+00    9.047900E+08  0.00400  3.535E-04    0   0.6024   age135_m42            0.0000     6.5847E+02    10.1382   1.8654   107.5331
 66      0.0000     0.0000E+00    0.0000E+00    1.278050E+09  0.00400  2.677E-04    0   0.5837   age138_m42            0.0000     2.1829E+02     5.9065   1.1633   105.8390
 67      0.1179     1.3611E-02    1.5394E-02    1.434000E+09  0.00400  1.910E-04    0   0.5716   age139_m42            0.0000     3.0621E+02     6.7282   1.3356   106.4507
 68      0.0000     0.0000E+00    0.0000E+00    2.500000E+09  0.00400  9.818E-05    0   0.5463   age150_m42            0.0000     9.0638E+01     3.5450   1.0323   102.7051
 69      0.4630     1.8600E-01    1.9391E-01    4.250000E+09  0.00400  5.491E-05    0   0.5269   age158_m42            0.0000     4.1829E+01     2.6603   0.8898   100.5206
 70      0.0000     0.0000E+00    0.0000E+00    6.250000E+09  0.00400  3.857E-05    0   0.5151   age166_m42            0.0000     2.0938E+01     2.0564   0.7605    99.3007
 71      0.1404     9.5521E-02    9.6580E-02    7.500000E+09  0.00400  3.243E-05    0   0.5110   age171_m42            0.0000     1.6477E+01     1.8858   0.6826    98.7745
 72      8.6189     7.8425E+00    7.8022E+00    1.000000E+10  0.00400  2.424E-05    0   0.5028   age181_m42            0.0000     1.7541E+01     1.9019   0.6033    98.2018
 73      2.3185     2.7158E+00    2.6476E+00    1.300000E+10  0.00400  1.883E-05    0   0.4927   age193_m42            0.0000     2.4295E+01     2.1929   0.5617    97.9951
 74      0.0000     0.0000E+00    0.0000E+00    1.500000E+10  0.00400  1.685E-05    0   0.4919   age201_m42            0.0000     2.3509E+01     2.1143   0.5651    98.0507
 75      2.4885     3.7801E+00    3.6455E+00    1.800000E+10  0.00400  1.452E-05    0   0.4874   age213_m42            0.0000     2.3253E+01     2.0299   0.5787    98.3592
 76      0.0000     0.0000E+00    0.0000E+00    1.000000E+06  0.00800  1.286E-02    0   1.0000   age020_m52            0.0000     2.0207E+03    25.5320   4.0000    95.3929
 77      0.0000     0.0000E+00    0.0000E+00    3.160000E+06  0.00800  3.147E-02    0   0.9966   age045_m52            0.0000     1.7823E+03    23.9861   4.0000    95.3425
 78      0.0000     0.0000E+00    0.0000E+00    5.010000E+06  0.00800  2.664E-02    0   0.9443   age055_m52            0.0000     1.0417E+03    18.2406   4.0000    91.8214
 79      0.0000     0.0000E+00    0.0000E+00    6.610000E+06  0.00800  2.151E-02    0   0.9177   age061_m52            0.0000     6.9086E+02    14.2562   2.8840    93.9616
 80      0.0000     0.0000E+00    0.0000E+00    8.710000E+06  0.00800  1.628E-02    0   0.8948   age067_m52            0.0000     8.4101E+02    15.2418   3.2728    93.6399
 81      0.0000     0.0000E+00    0.0000E+00    1.000000E+07  0.00800  1.215E-02    0   0.8827   age070_m52            0.0000     9.3308E+02    16.2670   3.6031    91.9846
 82      0.0000     0.0000E+00    0.0000E+00    1.445000E+07  0.00800  8.739E-03    0   0.8552   age078_m52            0.0000     9.0452E+02    15.5961   3.6624    92.6724
 83      0.0000     0.0000E+00    0.0000E+00    2.512000E+07  0.00800  5.676E-03    0   0.8162   age090_m52            0.0000     8.9709E+02    14.2852   3.3016    96.2061
 84      0.0000     0.0000E+00    0.0000E+00    4.000000E+07  0.00800  3.939E-03    0   0.7841   age104_m52            0.0000     8.3503E+02    12.9853   3.1668    97.9952
 85      0.0000     0.0000E+00    0.0000E+00    5.500000E+07  0.00800  3.155E-03    0   0.7627   age110_m52            0.0000     8.2903E+02    12.2674   3.1610    99.0833
 86      0.0000     0.0000E+00    0.0000E+00    1.015200E+08  0.00800  2.206E-03    0   0.7226   age116_m52            0.0000     8.5216E+02    11.6700   3.0111   101.9746
 87      0.0000     0.0000E+00    0.0000E+00    1.609000E+08  0.00800  1.596E-03    0   0.6963   age120_m52            0.0000     8.7815E+02    11.6432   2.8050   103.4544
 88      0.0000     0.0000E+00    0.0000E+00    2.861200E+08  0.00800  1.002E-03    0   0.6665   age125_m52            0.0000     9.7472E+02    12.2506   2.5337   105.7797
 89      0.0000     0.0000E+00    0.0000E+00    5.088000E+08  0.00800  5.759E-04    0   0.6377   age130_m52            0.0000     9.1678E+02    11.6327   2.1893   109.7033
 90      0.0000     0.0000E+00    0.0000E+00    9.047900E+08  0.00800  2.972E-04    0   0.6086   age135_m52            0.0000     5.0611E+02     8.3926   1.6334   109.2518
 91      0.0000     0.0000E+00    0.0000E+00    1.278050E+09  0.00800  2.242E-04    0   0.5907   age138_m52            0.0000     1.5443E+02     4.7365   0.9843   108.9860
 92      0.0000     0.0000E+00    0.0000E+00    1.434000E+09  0.00800  1.645E-04    0   0.5787   age139_m52            0.0000     1.5396E+02     4.7149   1.1272   108.4597
 93      0.0000     0.0000E+00    0.0000E+00    2.500000E+09  0.00800  7.723E-05    0   0.5519   age150_m52            0.0000     3.9601E+01     2.6485   0.7678   105.2891
 94      3.0494     1.6203E+00    1.7056E+00    4.250000E+09  0.00800  4.151E-05    0   0.5320   age158_m52            0.0000     1.9239E+01     1.9979   0.6870   103.0144
 95     24.7158     1.8111E+01    1.8624E+01    6.250000E+09  0.00800  3.010E-05    0   0.5197   age166_m52            0.0000     1.5181E+01     2.0320   0.4914   101.7722
 96     12.0717     1.0793E+01    1.0974E+01    7.500000E+09  0.00800  2.467E-05    0   0.5139   age171_m52            0.0000     1.9047E+01     2.2443   0.4508   101.3772
 97     13.1562     1.5584E+01    1.5584E+01    1.000000E+10  0.00800  1.862E-05    0   0.5054   age181_m52            0.0000     4.1702E+01     3.1827   0.3240   100.9772
 98      5.4120     8.3300E+00    8.2213E+00    1.300000E+10  0.00800  1.433E-05    0   0.4988   age193_m52            0.0000     7.7372E+01     4.1616   0.2307   101.6266
 99      1.3146     2.3309E+00    2.2765E+00    1.500000E+10  0.00800  1.244E-05    0   0.4936   age201_m52            0.0000     9.4616E+01     4.5174   0.2025   102.1091
100      4.9225     1.0147E+01    9.8139E+00    1.800000E+10  0.00800  1.070E-05    0   0.4888   age213_m52            0.0000     1.0830E+02     4.8081   0.1688   101.9583
101      0.0000     0.0000E+00    0.0000E+00    1.000000E+06  0.02000  1.989E-02    0   1.0000   age020_m62            0.0000     1.9964E+03    25.3994   4.0000    94.1208
102      0.0000     0.0000E+00    0.0000E+00    3.160000E+06  0.02000  3.772E-02    0   0.9858   age045_m62            0.0000     1.6110E+03    23.0625   4.0000    93.6497
103      0.0000     0.0000E+00    0.0000E+00    5.010000E+06  0.02000  3.227E-02    0   0.9342   age055_m62            0.0000     8.5775E+02    15.3024   3.9503    90.4125
104      0.0000     0.0000E+00    0.0000E+00    6.610000E+06  0.02000  2.387E-02    0   0.9090   age061_m62            0.0000     1.0332E+03    17.2704   3.6642    90.7974
105      0.0000     0.0000E+00    0.0000E+00    8.710000E+06  0.02000  1.102E-02    0   0.8861   age067_m62            0.0000     1.9096E+03    23.8408   3.1935    88.5493
106      0.0000     0.0000E+00    0.0000E+00    1.000000E+07  0.02000  1.011E-02    0   0.8751   age070_m62            0.0000     1.4445E+03    20.8958   3.2417    90.3919
107      0.0000     0.0000E+00    0.0000E+00    1.445000E+07  0.02000  7.331E-03    0   0.8472   age078_m62            0.0000     1.1260E+03    18.4987   3.2824    91.2752
108      0.0000     0.0000E+00    0.0000E+00    2.512000E+07  0.02000  4.206E-03    0   0.8099   age090_m62            0.0000     1.1285E+03    18.6280   3.1858    90.9300
109      0.0000     0.0000E+00    0.0000E+00    4.000000E+07  0.02000  3.373E-03    0   0.7799   age104_m62            0.0000     7.9207E+02    13.8375   3.0788    97.2895
110      0.0000     0.0000E+00    0.0000E+00    5.500000E+07  0.02000  2.747E-03    0   0.7595   age110_m62            0.0000     7.9631E+02    12.5583   3.0557    99.5940
111      0.0000     0.0000E+00    0.0000E+00    1.015200E+08  0.02000  1.878E-03    0   0.7221   age116_m62            0.0000     9.4102E+02    12.3077   2.9727   102.8797
112      0.0000     0.0000E+00    0.0000E+00    1.609000E+08  0.02000  1.378E-03    0   0.6978   age120_m62            0.0000     1.0524E+03    12.8062   2.8411   104.8846
113      0.0000     0.0000E+00    0.0000E+00    2.861200E+08  0.02000  8.869E-04    0   0.6700   age125_m62            0.0000     1.2298E+03    13.7176   2.4930   108.6884
114      0.0000     0.0000E+00    0.0000E+00    5.088000E+08  0.02000  4.834E-04    0   0.6430   age130_m62            0.0000     9.7348E+02    11.8609   2.0568   111.1927
115      0.0000     0.0000E+00    0.0000E+00    9.047900E+08  0.02000  2.312E-04    0   0.6152   age135_m62            0.0000     4.3075E+02     7.5582   1.4251   111.3807
116      0.0000     0.0000E+00    0.0000E+00    1.278050E+09  0.02000  1.387E-04    0   0.5927   age138_m62            0.0000     1.6128E+02     4.5621   1.0053   108.1476
117      0.0000     0.0000E+00    0.0000E+00    1.434000E+09  0.02000  1.168E-04    0   0.5865   age139_m62            0.0000     1.2228E+02     4.0039   0.9728   106.7488
118      0.0000     0.0000E+00    0.0000E+00    2.500000E+09  0.02000  5.505E-05    0   0.5610   age150_m62            0.0000     3.4560E+01     2.4987   0.5841   104.3504
119      0.0052     3.7541E-03    4.0164E-03    4.250000E+09  0.02000  3.070E-05    0   0.5407   age158_m62            0.0000     6.8866E+01     3.7510   0.2934   104.3704
120      0.5918     6.2043E-01    6.4781E-01    6.250000E+09  0.02000  2.104E-05    0   0.5277   age166_m62            0.0000     1.1391E+02     4.7998   0.1621   104.8907
121      0.0000     0.0000E+00    0.0000E+00    7.500000E+09  0.02000  1.770E-05    0   0.5223   age171_m62            0.0000     1.4503E+02     5.3793   0.0762   105.2597
122      0.6151     1.0461E+00    1.0600E+00    1.000000E+10  0.02000  1.297E-05    0   0.5121   age181_m62            0.0000     2.2089E+02     6.5634  -0.0793   105.7805
123      0.7918     1.8022E+00    1.7997E+00    1.300000E+10  0.02000  9.691E-06    0   0.5047   age193_m62            0.0000     2.8020E+02     7.3341  -0.1608   106.1809
124      0.0050     1.3261E-02    1.3117E-02    1.500000E+10  0.02000  8.360E-06    0   0.4999   age201_m62            0.0000     3.3685E+02     8.0212  -0.2286   106.4011
125      2.8394     9.0618E+00    8.8683E+00    1.800000E+10  0.02000  6.911E-06    0   0.4946   age213_m62            0.0000     4.1458E+02     8.8939  -0.2985   106.6130
126      0.0000     0.0000E+00    0.0000E+00    1.000000E+06  0.05000  2.651E-02    0   0.9998   age020_m72            0.0000     1.9600E+03    25.0655   4.0000    95.1308
127      0.0000     0.0000E+00    0.0000E+00    3.160000E+06  0.05000  4.817E-02    0   0.9577   age045_m72            0.0000     1.2394E+03    20.0062   4.0000    93.8554
128      0.0000     0.0000E+00    0.0000E+00    5.010000E+06  0.05000  3.101E-02    0   0.9147   age055_m72            0.0000     9.7976E+02    17.0059   3.9224    89.9561
129      0.0000     0.0000E+00    0.0000E+00    6.610000E+06  0.05000  1.472E-02    0   0.8877   age061_m72            0.0000     1.5403E+03    21.3322   3.4103    89.7024
130      0.0000     0.0000E+00    0.0000E+00    8.710000E+06  0.05000  1.050E-02    0   0.8638   age067_m72            0.0000     1.1381E+03    18.5445   3.8374    89.5640
131      0.0000     0.0000E+00    0.0000E+00    1.000000E+07  0.05000  8.954E-03    0   0.8524   age070_m72            0.0000     9.7879E+02    17.6464   4.0000    92.5321
132      0.0000     0.0000E+00    0.0000E+00    1.445000E+07  0.05000  6.392E-03    0   0.8262   age078_m72            0.0000     8.7800E+02    16.4930   4.0000    92.3333
133      0.0000     0.0000E+00    0.0000E+00    2.512000E+07  0.05000  4.207E-03    0   0.7902   age090_m72            0.0000     7.4912E+02    14.0739   3.7501    93.4995
134      0.0000     0.0000E+00    0.0000E+00    4.000000E+07  0.05000  3.198E-03    0   0.7618   age104_m72            0.0000     7.9776E+02    11.8267   3.3134    99.3730
135      0.0000     0.0000E+00    0.0000E+00    5.500000E+07  0.05000  2.593E-03    0   0.7432   age110_m72            0.0000     8.8001E+02    12.1124   3.2358   100.8166
136      0.0000     0.0000E+00    0.0000E+00    1.015200E+08  0.05000  1.716E-03    0   0.7092   age116_m72            0.0000     1.0230E+03    12.7305   3.0605   102.8881
137      0.0000     0.0000E+00    0.0000E+00    1.609000E+08  0.05000  1.218E-03    0   0.6876   age120_m72            0.0000     1.1218E+03    13.1153   2.8183   105.1232
138      0.0000     0.0000E+00    0.0000E+00    2.861200E+08  0.05000  7.047E-04    0   0.6618   age125_m72            0.0000     1.1028E+03    12.6286   2.2875   109.0052
139      0.0000     0.0000E+00    0.0000E+00    5.088000E+08  0.05000  3.590E-04    0   0.6356   age130_m72            0.0000     7.3670E+02     9.7876   1.7082   111.9513
140      0.0000     0.0000E+00    0.0000E+00    9.047900E+08  0.05000  1.484E-04    0   0.6088   age135_m72            0.0000     1.7517E+02     4.9184   0.9290   107.0456
141      0.0000     0.0000E+00    0.0000E+00    1.278050E+09  0.05000  9.435E-05    0   0.5924   age138_m72            0.0000     9.5046E+01     4.0303   0.5117   104.6123
142      0.0000     0.0000E+00    0.0000E+00    1.434000E+09  0.05000  7.827E-05    0   0.5847   age139_m72            0.0000     7.6184E+01     3.6754   0.5157   104.2193
143      0.0000     0.0000E+00    0.0000E+00    2.500000E+09  0.05000  3.759E-05    0   0.5583   age150_m72            0.0000     1.1183E+02     4.8167   0.1770   103.9649
144      1.1276     1.3502E+00    1.4357E+00    4.250000E+09  0.05000  1.842E-05    0   0.5374   age158_m72            0.0000     2.2012E+02     6.2968  -0.1511   103.8878
145      0.7041     1.2867E+00    1.3345E+00    6.250000E+09  0.05000  1.207E-05    0   0.5242   age166_m72            0.0000     3.5891E+02     7.8669  -0.3843   103.5780
146      0.0000     0.0000E+00    0.0000E+00    7.500000E+09  0.05000  9.993E-06    0   0.5183   age171_m72            0.0000     3.8450E+02     8.0685  -0.4281   103.5466
147      0.0000     0.0000E+00    0.0000E+00    1.000000E+10  0.05000  7.291E-06    0   0.5081   age181_m72            0.0000     5.0498E+02     9.2311  -0.5431   103.3425
148      0.0000     0.0000E+00    0.0000E+00    1.300000E+10  0.05000  5.316E-06    0   0.5018   age193_m72            0.0000     7.1073E+02    10.9754  -0.7194   103.1220
149      0.0000     0.0000E+00    0.0000E+00    1.500000E+10  0.05000  4.497E-06    0   0.4972   age201_m72            0.0000     8.2096E+02    11.8632  -0.7869   103.2697
150      0.0000     0.0000E+00    0.0000E+00    1.800000E+10  0.05000  3.739E-06    0   0.4924   age213_m72            0.0000     9.6882E+02    12.9959  -0.8859   103.2901


## Synthesis Results - Average & Chains ##

# j      x_j: min, <> & last-chain-values for 1 ...  7 chains
  1      0.0000      0.0199      0.1487      0.0581      0.0000      0.0000      0.0000      0.0000      0.0000
  2      3.7122      2.7426      2.9476      2.5728      2.8293      2.7836      2.4395      2.7531      2.7207
  3      4.1601      3.9100      4.0406      3.7969      3.8468      4.0751      3.9031      4.1041      3.8706
  4      0.0000      0.0114      0.0169      0.0624      0.0000      0.0000      0.0621      0.0169      0.0000
  5      0.0000      0.0190      0.0000      0.0000      0.1538      0.0356      0.0000      0.0000      0.0000
  6      0.0000      0.0235      0.0000      0.0105      0.0000      0.0000      0.0000      0.0000      0.1092
  7      0.0000      0.0091      0.0000      0.0084      0.0068      0.0000      0.0000      0.0000      0.0000
  8      0.0000      0.0219      0.0546      0.0308      0.0000      0.0195      0.0000      0.0000      0.0000
  9      0.0000      0.0109      0.0000      0.0000      0.0000      0.0018      0.0000      0.0000      0.0000
 10      0.0000      0.0051      0.0392      0.0000      0.0000      0.0000      0.0000      0.0000      0.0000
 11      0.0000      0.0192      0.1327      0.0000      0.0000      0.0000      0.0000      0.0000      0.0000
 12      0.0000      0.0075      0.0000      0.0000      0.0000      0.0000      0.0000      0.0000      0.0000
 13      0.0000      0.0093      0.0000      0.0000      0.0000      0.0000      0.0000      0.0000      0.0000
 14      0.0000      0.0062      0.0000      0.0000      0.0000      0.0794      0.0002      0.0000      0.0000
 15      0.0000      0.0151      0.0000      0.0000      0.0000      0.0000      0.0000      0.0000      0.0000
 16      0.0000      0.0064      0.0073      0.0000      0.0000      0.0000      0.0000      0.0151      0.0310
 17      0.0000      0.0137      0.0000      0.0000      0.0000      0.0000      0.0000      0.0000      0.0000
 18      0.0000      0.0117      0.0369      0.0000      0.0000      0.0000      0.0000      0.0000      0.0000
 19      0.0000      0.0352      0.0000      0.0000      0.0290      0.0000      0.0000      0.0000      0.0000
 20      0.0000      0.0264      0.0736      0.0596      0.0000      0.0756      0.0000      0.1865      0.0000
 21      0.0000      0.0556      0.0000      0.1857      0.0000      0.1963      0.0234      0.2671      0.0385
 22      0.0150      0.1026      0.4434      0.0565      0.0751      0.0000      0.0000      0.2667      0.0389
 23      0.0000      0.0587      0.0000      0.0000      0.1594      0.0000      0.3019      0.1483      0.2974
 24      0.0000      0.0456      0.1301      0.0613      0.0345      0.0000      0.3257      0.0000      0.0000
 25      0.0000      0.1146      0.0203      0.0715      0.0000      0.2356      0.0000      0.0872      0.1834
 26      0.0000      0.0161      0.0000      0.0226      0.0000      0.0000      0.0000      0.0000      0.0000
 27      0.0000      0.0103      0.0000      0.0371      0.0000      0.0000      0.0000      0.0000      0.0000
 28      0.0000      0.0112      0.0000      0.0000      0.0901      0.0000      0.0000      0.0000      0.0000
 29      0.0000      0.0134      0.0000      0.0000      0.0000      0.0000      0.0000      0.0438      0.0000
 30      0.0000      0.0127      0.0000      0.0000      0.0000      0.0000      0.0000      0.0105      0.0000
 31      0.0000      0.0275      0.0000      0.0000      0.0381      0.0235      0.1693      0.0959      0.0000
 32      0.0000      0.0419      0.1294      0.0000      0.0000      0.0606      0.1606      0.0000      0.0000
 33      0.0000      0.0066      0.0000      0.0000      0.0000      0.0000      0.0000      0.0000      0.0000
 34      0.0000      0.0065      0.0000      0.0000      0.0000      0.0000      0.0414      0.0000      0.0000
 35      0.0000      0.0045      0.0250      0.0000      0.0000      0.0000      0.0000      0.0000      0.0000
 36      0.0000      0.0095      0.0000      0.0868      0.0029      0.0000      0.0000      0.0000      0.0000
 37      0.0000      0.0141      0.0000      0.0000      0.0000      0.0000      0.0000      0.0000      0.0000
 38      0.0000      0.0241      0.0000      0.1143      0.0000      0.0000      0.0000      0.0000      0.0000
 39      0.0000      0.0123      0.0000      0.0000      0.0000      0.0000      0.0000      0.0000      0.0581
 40      0.0000      0.0062      0.0599      0.0000      0.0000      0.0000      0.0000      0.0045      0.0000
 41      0.0000      0.0148      0.0000      0.0000      0.0585      0.0000      0.0000      0.0000      0.0814
 42      0.0000      0.0158      0.1176      0.0000      0.0000      0.0000      0.0000      0.0000      0.0000
 43      0.0000      0.0224      0.0000      0.0091      0.1197      0.0000      0.1584      0.0000      0.0000
 44      0.0000      0.0423      0.0000      0.0000      0.0732      0.0000      0.0000      0.0000      0.0000
 45      1.4311      0.8379      0.4925      0.8830      1.0496      1.0601      1.0484      0.7697      0.8802
 46      3.2380      3.2849      3.5432      3.4206      3.5256      3.2684      3.1864      3.5233      3.3206
 47      2.4641      2.4518      2.1786      2.2942      2.4302      2.8639      2.1683      2.4294      2.3221
 48      0.0000      0.1296      0.0000      0.0000      0.0000      0.0555      0.9663      0.0000      0.0000
 49      0.0000      0.0975      0.0000      0.0625      0.0793      0.0291      0.0000      0.0000      0.0000
 50      0.0416      0.1147      0.1998      0.0000      0.1831      0.0000      0.0000      0.0859      0.3713
 51      0.0000      0.0210      0.0000      0.0374      0.0000      0.0000      0.0000      0.0000      0.0701
 52      0.0000      0.0278      0.0000      0.0000      0.0000      0.0758      0.0000      0.0000      0.1221
 53      0.0000      0.0071      0.0000      0.0078      0.0000      0.0000      0.0000      0.0902      0.0102
 54      0.0000      0.0109      0.0000      0.0973      0.0000      0.0000      0.0000      0.0000      0.0000
 55      0.0000      0.0117      0.0000      0.0467      0.0000      0.0000      0.0000      0.0000      0.0000
 56      0.0000      0.0143      0.0117      0.0413      0.0000      0.0000      0.1327      0.0000      0.0044
 57      0.0000      0.0156      0.0080      0.0000      0.0000      0.0000      0.0000      0.0000      0.0000
 58      0.0000      0.0151      0.0209      0.0000      0.0984      0.0000      0.0000      0.0524      0.0000
 59      0.0000      0.0095      0.0000      0.0000      0.0000      0.0000      0.0000      0.0000      0.0000
 60      0.0000      0.0050      0.0000      0.0000      0.0000      0.0000      0.0000      0.0000      0.0000
 61      0.0000      0.0058      0.0000      0.0000      0.0000      0.0000      0.0000      0.0000      0.0000
 62      0.0000      0.0075      0.0000      0.0000      0.0000      0.0000      0.0000      0.0000      0.0000
 63      0.0000      0.0073      0.0000      0.0000      0.0335      0.0000      0.0000      0.0000      0.0000
 64      0.0000      0.0173      0.0000      0.0171      0.0000      0.0000      0.0000      0.0000      0.0000
 65      0.0000      0.0219      0.0000      0.1998      0.0000      0.1019      0.0132      0.0000      0.0000
 66      0.0000      0.0522      0.0000      0.0000      0.2123      0.2090      0.2636      0.0789      0.0000
 67      0.1179      0.0394      0.3593      0.0684      0.0000      0.0000      0.0000      0.0000      0.0000
 68      0.0000      0.0695      0.0000      0.2415      0.1026      0.3115      0.1890      0.1349      0.0000
 69      0.4630      0.2222      0.2976      0.0000      0.3410      0.2821      0.0000      0.0000      0.0753
 70      0.0000      0.3194      0.0372      0.2502      0.5360      0.2031      0.3576      0.7453      0.4026
 71      0.1404      3.1341      2.6210      3.0933      2.8312      1.4540      3.0667      2.0343      3.5160
 72      8.6189     10.0165     10.1183     10.9231      8.0301      8.5706      9.9924      9.8933      9.8987
 73      2.3185      0.6368      1.5091      0.5132      1.5555      1.3318      0.9575      1.1904      0.6015
 74      0.0000      0.6592      0.0000      0.3864      0.9180      1.5771      0.4681      1.1170      0.6262
 75      2.4885      0.4240      0.3842      0.5474      1.3063      0.9653      0.0007      0.9188      0.6826
 76      0.0000      0.0150      0.0000      0.1421      0.0000      0.0000      0.0000      0.0000      0.0000
 77      0.0000      0.0089      0.0796      0.0000      0.0089      0.0225      0.0000      0.0000      0.0000
 78      0.0000      0.0051      0.0000      0.0149      0.0554      0.0335      0.0000      0.0841      0.0000
 79      0.0000      0.0183      0.0000      0.0069      0.0684      0.0000      0.0000      0.0598      0.0000
 80      0.0000      0.0094      0.0000      0.0000      0.0000      0.0000      0.0000      0.0228      0.0000
 81      0.0000      0.0205      0.1319      0.0000      0.0000      0.0100      0.0000      0.0000      0.0000
 82      0.0000      0.0073      0.0000      0.0000      0.0000      0.0000      0.0000      0.0000      0.0000
 83      0.0000      0.0133      0.0000      0.0447      0.0000      0.0000      0.0000      0.0000      0.0000
 84      0.0000      0.0083      0.0000      0.0000      0.0000      0.0000      0.0000      0.0000      0.0121
 85      0.0000      0.0106      0.0000      0.0435      0.0000      0.0809      0.0000      0.0000      0.0000
 86      0.0000      0.0038      0.0000      0.0000      0.0000      0.0000      0.0000      0.0000      0.0000
 87      0.0000      0.0049      0.0000      0.0000      0.0000      0.0000      0.0000      0.0000      0.0000
 88      0.0000      0.0077      0.0000      0.0000      0.0000      0.0000      0.0000      0.0000      0.0420
 89      0.0000      0.0046      0.0000      0.0000      0.0000      0.0000      0.0000      0.0000      0.0000
 90      0.0000      0.0112      0.0594      0.0000      0.0357      0.2606      0.0000      0.0000      0.0000
 91      0.0000      0.0291      0.0000      0.0133      0.0000      0.0000      0.0000      0.0633      0.0000
 92      0.0000      0.0453      0.0090      0.0000      0.0853      0.0000      0.0000      0.0000      0.0000
 93      0.0000      0.1045      0.0942      0.0000      0.0000      0.0000      0.0713      0.0000      0.0628
 94      3.0494      5.1056      5.3339      5.5226      5.3551      3.0461      5.9139      4.4099      5.6922
 95     24.7158     21.1555     21.8684     21.8302     21.0433     23.5063     21.2749     21.3305     21.2477
 96     12.0717      7.5560      7.5662      7.8654      7.2557      7.9974      7.4263      8.3139      7.1610
 97     13.1562     13.7758     14.2964     13.1814     13.9728     14.5803     13.6398     13.8469     13.6487
 98      5.4120      5.2580      5.3633      5.0393      5.2601      5.0142      6.1369      5.2689      5.2873
 99      1.3146      2.5574      2.2209      2.5606      2.9301      2.6433      2.6112      2.3785      2.6473
100      4.9225      5.0786      5.2619      5.5784      5.2789      5.3617      4.8470      4.8348      4.7505
101      0.0000      0.0110      0.0000      0.0373      0.0030      0.0673      0.0000      0.0000      0.0000
102      0.0000      0.0336      0.0000      0.0000      0.0069      0.0000      0.0000      0.0000      0.0000
103      0.0000      0.0273      0.0090      0.0036      0.0000      0.0000      0.0030      0.0199      0.0961
104      0.0000      0.0359      0.0000      0.0000      0.0871      0.1186      0.0000      0.0000      0.0858
105      0.0000      0.0281      0.0000      0.0773      0.0421      0.0000      0.1157      0.0000      0.1423
106      0.0000      0.0152      0.0000      0.0221      0.0000      0.0000      0.0532      0.0000      0.0000
107      0.0000      0.0265      0.0053      0.0000      0.0000      0.0000      0.0078      0.0000      0.0929
108      0.0000      0.0104      0.0000      0.0000      0.0000      0.0000      0.0000      0.0000      0.0000
109      0.0000      0.0057      0.0000      0.0000      0.0000      0.0000      0.0000      0.0349      0.0662
110      0.0000      0.0177      0.0000      0.0000      0.0893      0.0000      0.0000      0.0000      0.0000
111      0.0000      0.0182      0.0000      0.0000      0.0000      0.1179      0.0000      0.1747      0.0000
112      0.0000      0.0121      0.0000      0.0000      0.0000      0.0000      0.0000      0.0000      0.0000
113      0.0000      0.0085      0.0000      0.0000      0.0000      0.0000      0.0000      0.0000      0.0000
114      0.0000      0.0207      0.0000      0.0000      0.0000      0.0000      0.0000      0.0000      0.0000
115      0.0000      0.0143      0.0000      0.0000      0.0324      0.0000      0.0000      0.0000      0.0000
116      0.0000      0.0364      0.0000      0.0000      0.0230      0.0000      0.0000      0.0000      0.0000
117      0.0000      0.0578      0.0000      0.0004      0.0661      0.0000      0.0000      0.1905      0.0000
118      0.0000      0.1411      0.0261      0.0596      0.1171      0.0000      0.0000      0.0391      0.3469
119      0.0052      0.2186      0.2040      0.1331      0.0000      0.0000      0.0000      0.3085      0.0000
120      0.5918      0.1575      0.5077      0.2192      0.0614      0.1230      0.1139      0.0000      0.0774
121      0.0000      0.1564      0.0000      0.1096      0.1660      0.0000      0.0000      0.0697      0.9613
122      0.6151      1.2578      0.3899      1.2913      1.8071      1.0377      1.2216      1.1702      1.3017
123      0.7918      2.1207      2.0557      2.0623      2.2071      2.0904      2.2821      2.1743      1.5338
124      0.0050      0.1624      0.2553      0.0000      0.0000      0.0638      0.0000      0.2658      0.0000
125      2.8394      3.7122      3.7664      3.6718      3.5658      3.6304      3.7466      3.8110      3.7464
126      0.0000      0.0233      0.0000      0.0000      0.0131      0.0000      0.0000      0.0000      0.0000
127      0.0000      0.0111      0.0000      0.0000      0.0000      0.0000      0.0000      0.0041      0.0761
128      0.0000      0.0088      0.0000      0.0000      0.0000      0.0000      0.0000      0.0000      0.0000
129      0.0000      0.0218      0.0000      0.0558      0.0000      0.0000      0.1887      0.0000      0.0000
130      0.0000      0.0094      0.0000      0.0000      0.0000      0.0000      0.0000      0.0000      0.0000
131      0.0000      0.0069      0.0000      0.0000      0.0000      0.0000      0.0000      0.0000      0.0000
132      0.0000      0.0140      0.0000      0.0000      0.0000      0.0000      0.0000      0.0000      0.0000
133      0.0000      0.0115      0.0000      0.0000      0.0000      0.0832      0.0000      0.0000      0.0000
134      0.0000      0.0070      0.0000      0.0000      0.0000      0.0000      0.0000      0.0407      0.0000
135      0.0000      0.0040      0.0000      0.0500      0.0000      0.0000      0.0000      0.0000      0.0000
136      0.0000      0.0045      0.0030      0.0000      0.0000      0.0000      0.0000      0.0000      0.0000
137      0.0000      0.0060      0.0000      0.0106      0.0000      0.0000      0.0000      0.0000      0.0000
138      0.0000      0.0059      0.0000      0.0000      0.0000      0.0372      0.0184      0.0000      0.0000
139      0.0000      0.0106      0.0000      0.0000      0.0000      0.0000      0.0114      0.0000      0.0325
140      0.0000      0.0388      0.0000      0.1968      0.0000      0.0383      0.0000      0.0000      0.0000
141      0.0000      0.0918      0.1042      0.0058      0.0000      0.0218      0.0000      0.0000      0.0000
142      0.0000      0.1435      0.0000      0.0000      0.0000      0.1135      0.0000      0.0122      0.0705
143      0.0000      0.2519      0.0797      0.0732      0.0000      0.0000      0.2119      0.3447      0.5344
144      1.1276      0.2859      0.3836      0.1976      0.2610      0.3092      0.1407      0.0984      0.2905
145      0.7041      0.1215      0.2427      0.1397      0.0491      0.1372      0.0000      0.0001      0.0000
146      0.0000      0.0880      0.0000      0.0771      0.0000      0.0000      0.0238      0.0000      0.3002
147      0.0000      0.0667      0.1636      0.0000      0.0000      0.1718      0.0000      0.1808      0.0000
148      0.0000      0.0106      0.0000      0.0000      0.0000      0.0000      0.0000      0.0000      0.0417
149      0.0000      0.0093      0.0000      0.0000      0.0000      0.0027      0.0000      0.0000      0.0027
150      0.0000      0.0352      0.0000      0.0000      0.0000      0.0000      0.1911      0.0000      0.0000

# j      m_j: min, <> & last-chain-values for 1 ...  7 chains
  1  0.0000E+00  1.0311E-04  7.7488E-04  3.0293E-04  0.0000E+00  0.0000E+00  0.0000E+00  0.0000E+00  0.0000E+00
  2  3.4042E-03  2.4424E-03  2.6337E-03  2.3004E-03  2.4994E-03  2.4551E-03  2.1628E-03  2.4356E-03  2.4396E-03
  3  9.0045E-03  8.2183E-03  8.5213E-03  8.0133E-03  8.0207E-03  8.4833E-03  8.1677E-03  8.5699E-03  8.1917E-03
  4  0.0000E+00  4.5094E-05  6.7161E-05  2.4765E-04  0.0000E+00  0.0000E+00  2.4442E-04  6.6139E-05  0.0000E+00
  5  0.0000E+00  9.4510E-05  0.0000E+00  0.0000E+00  7.5900E-04  1.7531E-04  0.0000E+00  0.0000E+00  0.0000E+00
  6  0.0000E+00  1.3934E-04  0.0000E+00  6.2219E-05  0.0000E+00  0.0000E+00  0.0000E+00  0.0000E+00  6.5091E-04
  7  0.0000E+00  6.8069E-05  0.0000E+00  6.3156E-05  5.0656E-05  0.0000E+00  0.0000E+00  0.0000E+00  0.0000E+00
  8  0.0000E+00  1.8458E-04  4.6294E-04  2.6135E-04  0.0000E+00  1.6338E-04  0.0000E+00  0.0000E+00  0.0000E+00
  9  0.0000E+00  9.9285E-05  0.0000E+00  0.0000E+00  0.0000E+00  1.5923E-05  0.0000E+00  0.0000E+00  0.0000E+00
 10  0.0000E+00  5.3311E-05  4.0940E-04  0.0000E+00  0.0000E+00  0.0000E+00  0.0000E+00  0.0000E+00  0.0000E+00
 11  0.0000E+00  2.3947E-04  1.6565E-03  0.0000E+00  0.0000E+00  0.0000E+00  0.0000E+00  0.0000E+00  0.0000E+00
 12  0.0000E+00  1.6331E-04  0.0000E+00  0.0000E+00  0.0000E+00  0.0000E+00  0.0000E+00  0.0000E+00  0.0000E+00
 13  0.0000E+00  2.3552E-04  0.0000E+00  0.0000E+00  0.0000E+00  0.0000E+00  0.0000E+00  0.0000E+00  0.0000E+00
 14  0.0000E+00  2.2132E-04  0.0000E+00  0.0000E+00  0.0000E+00  2.8218E-03  6.8022E-06  0.0000E+00  0.0000E+00
 15  0.0000E+00  8.1767E-04  0.0000E+00  0.0000E+00  0.0000E+00  0.0000E+00  0.0000E+00  0.0000E+00  0.0000E+00
 16  0.0000E+00  5.0331E-04  5.7462E-04  0.0000E+00  0.0000E+00  0.0000E+00  0.0000E+00  1.1763E-03  2.4522E-03
 17  0.0000E+00  1.1945E-03  0.0000E+00  0.0000E+00  0.0000E+00  0.0000E+00  0.0000E+00  0.0000E+00  0.0000E+00
 18  0.0000E+00  1.6614E-03  5.2507E-03  0.0000E+00  0.0000E+00  0.0000E+00  0.0000E+00  0.0000E+00  0.0000E+00
 19  0.0000E+00  7.5797E-03  0.0000E+00  0.0000E+00  6.1785E-03  0.0000E+00  0.0000E+00  0.0000E+00  0.0000E+00
 20  0.0000E+00  8.1048E-03  2.2728E-02  1.8407E-02  0.0000E+00  2.3029E-02  0.0000E+00  5.6989E-02  0.0000E+00
 21  0.0000E+00  1.9795E-02  0.0000E+00  6.6352E-02  0.0000E+00  6.9176E-02  8.2859E-03  9.4435E-02  1.3778E-02
 22  7.0693E-03  4.7082E-02  2.0426E-01  2.6059E-02  3.4214E-02  0.0000E+00  0.0000E+00  1.2161E-01  1.7972E-02
 23  0.0000E+00  3.4146E-02  0.0000E+00  0.0000E+00  9.1992E-02  0.0000E+00  1.7492E-01  8.5752E-02  1.7428E-01
 24  0.0000E+00  3.0339E-02  8.6901E-02  4.0967E-02  2.2793E-02  0.0000E+00  2.1582E-01  0.0000E+00  0.0000E+00
 25  0.0000E+00  9.1603E-02  1.6310E-02  5.7424E-02  0.0000E+00  1.8656E-01  0.0000E+00  6.9297E-02  1.4767E-01
 26  0.0000E+00  8.0630E-05  0.0000E+00  1.1380E-04  0.0000E+00  0.0000E+00  0.0000E+00  0.0000E+00  0.0000E+00
 27  0.0000E+00  1.0956E-05  0.0000E+00  3.9765E-05  0.0000E+00  0.0000E+00  0.0000E+00  0.0000E+00  0.0000E+00
 28  0.0000E+00  2.3463E-05  0.0000E+00  0.0000E+00  1.8663E-04  0.0000E+00  0.0000E+00  0.0000E+00  0.0000E+00
 29  0.0000E+00  4.3733E-05  0.0000E+00  0.0000E+00  0.0000E+00  0.0000E+00  0.0000E+00  1.4173E-04  0.0000E+00
 30  0.0000E+00  5.1542E-05  0.0000E+00  0.0000E+00  0.0000E+00  0.0000E+00  0.0000E+00  4.2346E-05  0.0000E+00
 31  0.0000E+00  1.2826E-04  0.0000E+00  0.0000E+00  1.7654E-04  1.0862E-04  7.8764E-04  4.4530E-04  0.0000E+00
 32  0.0000E+00  2.1690E-04  6.7170E-04  0.0000E+00  0.0000E+00  3.1044E-04  8.2720E-04  0.0000E+00  0.0000E+00
 33  0.0000E+00  4.8804E-05  0.0000E+00  0.0000E+00  0.0000E+00  0.0000E+00  0.0000E+00  0.0000E+00  0.0000E+00
 34  0.0000E+00  5.7733E-05  0.0000E+00  0.0000E+00  0.0000E+00  0.0000E+00  3.6797E-04  0.0000E+00  0.0000E+00
 35  0.0000E+00  4.8699E-05  2.7021E-04  0.0000E+00  0.0000E+00  0.0000E+00  0.0000E+00  0.0000E+00  0.0000E+00
 36  0.0000E+00  1.3196E-04  0.0000E+00  1.2064E-03  4.0291E-05  0.0000E+00  0.0000E+00  0.0000E+00  0.0000E+00
 37  0.0000E+00  2.4300E-04  0.0000E+00  0.0000E+00  0.0000E+00  0.0000E+00  0.0000E+00  0.0000E+00  0.0000E+00
 38  0.0000E+00  5.7707E-04  0.0000E+00  2.7482E-03  0.0000E+00  0.0000E+00  0.0000E+00  0.0000E+00  0.0000E+00
 39  0.0000E+00  4.3882E-04  0.0000E+00  0.0000E+00  0.0000E+00  0.0000E+00  0.0000E+00  0.0000E+00  2.0918E-03
 40  0.0000E+00  3.9395E-04  3.7885E-03  0.0000E+00  0.0000E+00  0.0000E+00  0.0000E+00  2.7904E-04  0.0000E+00
 41  0.0000E+00  1.2506E-03  0.0000E+00  0.0000E+00  4.9035E-03  0.0000E+00  0.0000E+00  0.0000E+00  6.9247E-03
 42  0.0000E+00  1.4924E-03  1.1123E-02  0.0000E+00  0.0000E+00  0.0000E+00  0.0000E+00  0.0000E+00  0.0000E+00
 43  0.0000E+00  3.4319E-03  0.0000E+00  1.3990E-03  1.8214E-02  0.0000E+00  2.4193E-02  0.0000E+00  0.0000E+00
 44  0.0000E+00  1.0264E-02  0.0000E+00  0.0000E+00  1.7610E-02  0.0000E+00  0.0000E+00  0.0000E+00  0.0000E+00
 45  4.9831E-01  2.8334E-01  1.6709E-01  2.9980E-01  3.5207E-01  3.5501E-01  3.5292E-01  2.5856E-01  2.9967E-01
 46  1.3431E+00  1.3232E+00  1.4320E+00  1.3835E+00  1.4088E+00  1.3039E+00  1.2778E+00  1.4099E+00  1.3468E+00
 47  1.3396E+00  1.2944E+00  1.1540E+00  1.2161E+00  1.2727E+00  1.4974E+00  1.1397E+00  1.2742E+00  1.2344E+00
 48  0.0000E+00  8.1455E-02  0.0000E+00  0.0000E+00  0.0000E+00  3.4579E-02  6.0480E-01  0.0000E+00  0.0000E+00
 49  0.0000E+00  6.8562E-02  0.0000E+00  4.4150E-02  5.5292E-02  2.0257E-02  0.0000E+00  0.0000E+00  0.0000E+00
 50  3.5409E-02  9.4849E-02  1.6582E-01  0.0000E+00  1.5020E-01  0.0000E+00  0.0000E+00  7.0628E-02  3.0925E-01
 51  0.0000E+00  7.9801E-05  0.0000E+00  1.4295E-04  0.0000E+00  0.0000E+00  0.0000E+00  0.0000E+00  2.6841E-04
 52  0.0000E+00  2.8904E-05  0.0000E+00  0.0000E+00  0.0000E+00  7.8152E-05  0.0000E+00  0.0000E+00  1.2794E-04
 53  0.0000E+00  1.1189E-05  0.0000E+00  1.2384E-05  0.0000E+00  0.0000E+00  0.0000E+00  1.4212E-04  1.6265E-05
 54  0.0000E+00  1.6482E-05  0.0000E+00  1.4782E-04  0.0000E+00  0.0000E+00  0.0000E+00  0.0000E+00  0.0000E+00
 55  0.0000E+00  2.6038E-05  0.0000E+00  1.0474E-04  0.0000E+00  0.0000E+00  0.0000E+00  0.0000E+00  0.0000E+00
 56  0.0000E+00  4.2368E-05  3.4566E-05  1.2260E-04  0.0000E+00  0.0000E+00  3.9039E-04  0.0000E+00  1.2978E-05
 57  0.0000E+00  7.3791E-05  3.8014E-05  0.0000E+00  0.0000E+00  0.0000E+00  0.0000E+00  0.0000E+00  0.0000E+00
 58  0.0000E+00  1.0349E-04  1.4303E-04  0.0000E+00  6.6719E-04  0.0000E+00  0.0000E+00  3.5587E-04  0.0000E+00
 59  0.0000E+00  9.0591E-05  0.0000E+00  0.0000E+00  0.0000E+00  0.0000E+00  0.0000E+00  0.0000E+00  0.0000E+00
 60  0.0000E+00  5.2321E-05  0.0000E+00  0.0000E+00  0.0000E+00  0.0000E+00  0.0000E+00  0.0000E+00  0.0000E+00
 61  0.0000E+00  7.7466E-05  0.0000E+00  0.0000E+00  0.0000E+00  0.0000E+00  0.0000E+00  0.0000E+00  0.0000E+00
 62  0.0000E+00  1.2815E-04  0.0000E+00  0.0000E+00  0.0000E+00  0.0000E+00  0.0000E+00  0.0000E+00  0.0000E+00
 63  0.0000E+00  1.8906E-04  0.0000E+00  0.0000E+00  8.6255E-04  0.0000E+00  0.0000E+00  0.0000E+00  0.0000E+00
 64  0.0000E+00  7.4118E-04  0.0000E+00  7.3245E-04  0.0000E+00  0.0000E+00  0.0000E+00  0.0000E+00  0.0000E+00
 65  0.0000E+00  1.5781E-03  0.0000E+00  1.4491E-02  0.0000E+00  7.2918E-03  9.4935E-04  0.0000E+00  0.0000E+00
 66  0.0000E+00  4.8248E-03  0.0000E+00  0.0000E+00  1.9458E-02  1.9124E-02  2.4255E-02  7.2423E-03  0.0000E+00
 67  1.5394E-02  4.9993E-03  4.5726E-02  8.7086E-03  0.0000E+00  0.0000E+00  0.0000E+00  0.0000E+00  0.0000E+00
 68  0.0000E+00  1.6387E-02  0.0000E+00  5.7182E-02  2.3998E-02  7.2753E-02  4.4362E-02  3.1593E-02  0.0000E+00
 69  1.9391E-01  9.0347E-02  1.2143E-01  0.0000E+00  1.3758E-01  1.1361E-01  0.0000E+00  0.0000E+00  3.0824E-02
 70  0.0000E+00  1.8080E-01  2.1143E-02  1.4216E-01  3.0095E-01  1.1385E-01  2.0150E-01  4.1906E-01  2.2945E-01
 71  9.6580E-02  2.0929E+00  1.7562E+00  2.0741E+00  1.8755E+00  9.6161E-01  2.0388E+00  1.3496E+00  2.3641E+00
 72  7.8022E+00  8.8052E+00  8.9246E+00  9.6413E+00  7.0024E+00  7.4619E+00  8.7452E+00  8.6400E+00  8.7616E+00
 73  2.6476E+00  7.0610E-01  1.6791E+00  5.7146E-01  1.7111E+00  1.4626E+00  1.0571E+00  1.3114E+00  6.7156E-01
 74  0.0000E+00  8.1559E-01  0.0000E+00  4.7997E-01  1.1266E+00  1.9325E+00  5.7651E-01  1.3729E+00  7.8004E-01
 75  3.6455E+00  6.0325E-01  5.4837E-01  7.8189E-01  1.8434E+00  1.3601E+00  9.2688E-04  1.2985E+00  9.7783E-01
 76  0.0000E+00  4.9581E-05  0.0000E+00  4.7007E-04  0.0000E+00  0.0000E+00  0.0000E+00  0.0000E+00  0.0000E+00
 77  0.0000E+00  1.1978E-05  1.0721E-04  0.0000E+00  1.1904E-05  2.9951E-05  0.0000E+00  0.0000E+00  0.0000E+00
 78  0.0000E+00  7.6238E-06  0.0000E+00  2.2405E-05  8.2612E-05  4.9799E-05  0.0000E+00  1.2554E-04  0.0000E+00
 79  0.0000E+00  3.3156E-05  0.0000E+00  1.2567E-05  1.2277E-04  0.0000E+00  0.0000E+00  1.0734E-04  0.0000E+00
 80  0.0000E+00  2.1982E-05  0.0000E+00  0.0000E+00  0.0000E+00  0.0000E+00  0.0000E+00  5.2846E-05  0.0000E+00
 81  0.0000E+00  6.3113E-05  4.0742E-04  0.0000E+00  0.0000E+00  3.0434E-05  0.0000E+00  0.0000E+00  0.0000E+00
 82  0.0000E+00  3.0438E-05  0.0000E+00  0.0000E+00  0.0000E+00  0.0000E+00  0.0000E+00  0.0000E+00  0.0000E+00
 83  0.0000E+00  8.1018E-05  0.0000E+00  2.7382E-04  0.0000E+00  0.0000E+00  0.0000E+00  0.0000E+00  0.0000E+00
 84  0.0000E+00  7.0241E-05  0.0000E+00  0.0000E+00  0.0000E+00  0.0000E+00  0.0000E+00  0.0000E+00  1.0277E-04
 85  0.0000E+00  1.0848E-04  0.0000E+00  4.4768E-04  0.0000E+00  8.2112E-04  0.0000E+00  0.0000E+00  0.0000E+00
 86  0.0000E+00  5.2713E-05  0.0000E+00  0.0000E+00  0.0000E+00  0.0000E+00  0.0000E+00  0.0000E+00  0.0000E+00
 87  0.0000E+00  9.1196E-05  0.0000E+00  0.0000E+00  0.0000E+00  0.0000E+00  0.0000E+00  0.0000E+00  0.0000E+00
 88  0.0000E+00  2.1772E-04  0.0000E+00  0.0000E+00  0.0000E+00  0.0000E+00  0.0000E+00  0.0000E+00  1.1926E-03
 89  0.0000E+00  2.1417E-04  0.0000E+00  0.0000E+00  0.0000E+00  0.0000E+00  0.0000E+00  0.0000E+00  0.0000E+00
 90  0.0000E+00  9.7535E-04  5.1703E-03  0.0000E+00  3.0710E-03  2.2397E-02  0.0000E+00  0.0000E+00  0.0000E+00
 91  0.0000E+00  3.2463E-03  0.0000E+00  1.4887E-03  0.0000E+00  0.0000E+00  0.0000E+00  7.0233E-03  0.0000E+00
 92  0.0000E+00  6.7601E-03  1.3491E-03  0.0000E+00  1.2612E-02  0.0000E+00  0.0000E+00  0.0000E+00  0.0000E+00
 93  0.0000E+00  3.1659E-02  2.8628E-02  0.0000E+00  0.0000E+00  0.0000E+00  2.1489E-02  0.0000E+00  1.9141E-02
 94  1.7056E+00  2.7731E+00  2.9069E+00  3.0118E+00  2.8853E+00  1.6386E+00  3.1979E+00  2.3796E+00  3.1130E+00
 95  1.8624E+01  1.5480E+01  1.6055E+01  1.6039E+01  1.5274E+01  1.7035E+01  1.5499E+01  1.5506E+01  1.5655E+01
 96  1.0974E+01  6.6706E+00  6.7020E+00  6.9721E+00  6.3541E+00  6.9925E+00  6.5271E+00  7.2916E+00  6.3654E+00
 97  1.5584E+01  1.5846E+01  1.6501E+01  1.5225E+01  1.5944E+01  1.6611E+01  1.5621E+01  1.5824E+01  1.5809E+01
 98  8.2213E+00  7.7564E+00  7.9384E+00  7.4642E+00  7.6973E+00  7.3258E+00  9.0130E+00  7.7217E+00  7.8534E+00
 99  2.2765E+00  4.3005E+00  3.7471E+00  4.3234E+00  4.8877E+00  4.4022E+00  4.3716E+00  3.9734E+00  4.4823E+00
100  9.8139E+00  9.8323E+00  1.0221E+01  1.0844E+01  1.0138E+01  1.0281E+01  9.3424E+00  9.2991E+00  9.2604E+00
101  0.0000E+00  2.3358E-05  0.0000E+00  7.9883E-05  6.4450E-06  1.4204E-04  0.0000E+00  0.0000E+00  0.0000E+00
102  0.0000E+00  3.7240E-05  0.0000E+00  0.0000E+00  7.5780E-06  0.0000E+00  0.0000E+00  0.0000E+00  0.0000E+00
103  0.0000E+00  3.3537E-05  1.1126E-05  4.4106E-06  0.0000E+00  0.0000E+00  3.6081E-06  2.4306E-05  1.1878E-04
104  0.0000E+00  5.7887E-05  0.0000E+00  0.0000E+00  1.3943E-04  1.8965E-04  0.0000E+00  0.0000E+00  1.3944E-04
105  0.0000E+00  9.5749E-05  0.0000E+00  2.6463E-04  1.4240E-04  0.0000E+00  3.9267E-04  0.0000E+00  4.8816E-04
106  0.0000E+00  5.5929E-05  0.0000E+00  8.1524E-05  0.0000E+00  0.0000E+00  1.9413E-04  0.0000E+00  0.0000E+00
107  0.0000E+00  1.2999E-04  2.6180E-05  0.0000E+00  0.0000E+00  0.0000E+00  3.8030E-05  0.0000E+00  4.5800E-04
108  0.0000E+00  8.5208E-05  0.0000E+00  0.0000E+00  0.0000E+00  0.0000E+00  0.0000E+00  0.0000E+00  0.0000E+00
109  0.0000E+00  5.6158E-05  0.0000E+00  0.0000E+00  0.0000E+00  0.0000E+00  0.0000E+00  3.3968E-04  6.5334E-04
110  0.0000E+00  2.0727E-04  0.0000E+00  0.0000E+00  1.0384E-03  0.0000E+00  0.0000E+00  0.0000E+00  0.0000E+00
111  0.0000E+00  2.9606E-04  0.0000E+00  0.0000E+00  0.0000E+00  1.9033E-03  0.0000E+00  2.8277E-03  0.0000E+00
112  0.0000E+00  2.5968E-04  0.0000E+00  0.0000E+00  0.0000E+00  0.0000E+00  0.0000E+00  0.0000E+00  0.0000E+00
113  0.0000E+00  2.7079E-04  0.0000E+00  0.0000E+00  0.0000E+00  0.0000E+00  0.0000E+00  0.0000E+00  0.0000E+00
114  0.0000E+00  1.1654E-03  0.0000E+00  0.0000E+00  0.0000E+00  0.0000E+00  0.0000E+00  0.0000E+00  0.0000E+00
115  0.0000E+00  1.6142E-03  0.0000E+00  0.0000E+00  3.6214E-03  0.0000E+00  0.0000E+00  0.0000E+00  0.0000E+00
116  0.0000E+00  6.5928E-03  0.0000E+00  0.0000E+00  4.1257E-03  0.0000E+00  0.0000E+00  0.0000E+00  0.0000E+00
117  0.0000E+00  1.2311E-02  0.0000E+00  8.8159E-05  1.3959E-02  0.0000E+00  0.0000E+00  4.0265E-02  0.0000E+00
118  0.0000E+00  6.0925E-02  1.1329E-02  2.5827E-02  5.0178E-02  0.0000E+00  0.0000E+00  1.6783E-02  1.5085E-01
119  4.0164E-03  1.6318E-01  1.5280E-01  9.9775E-02  0.0000E+00  0.0000E+00  0.0000E+00  2.2875E-01  0.0000E+00
120  6.4781E-01  1.6738E-01  5.4148E-01  2.3399E-01  6.4760E-02  1.2953E-01  1.2052E-01  0.0000E+00  8.2793E-02
121  0.0000E+00  1.9565E-01  0.0000E+00  1.3757E-01  2.0591E-01  0.0000E+00  0.0000E+00  8.6621E-02  1.2104E+00
122  1.0600E+00  2.1047E+00  6.5460E-01  2.1695E+00  2.9995E+00  1.7198E+00  2.0350E+00  1.9453E+00  2.1932E+00
123  1.7997E+00  4.6806E+00  4.5524E+00  4.5704E+00  4.8323E+00  4.5694E+00  5.0147E+00  4.7675E+00  3.4087E+00
124  1.3117E-02  4.1158E-01  6.4903E-01  0.0000E+00  0.0000E+00  1.6013E-01  0.0000E+00  6.6924E-01  0.0000E+00
125  8.8683E+00  1.1259E+01  1.1462E+01  1.1182E+01  1.0729E+01  1.0906E+01  1.1313E+01  1.1483E+01  1.1441E+01
126  0.0000E+00  3.7173E-05  0.0000E+00  0.0000E+00  2.0777E-05  0.0000E+00  0.0000E+00  0.0000E+00  0.0000E+00
127  0.0000E+00  9.3618E-06  0.0000E+00  0.0000E+00  0.0000E+00  0.0000E+00  0.0000E+00  3.4377E-06  6.4528E-05
128  0.0000E+00  1.0967E-05  0.0000E+00  0.0000E+00  0.0000E+00  0.0000E+00  0.0000E+00  0.0000E+00  0.0000E+00
129  0.0000E+00  5.5641E-05  0.0000E+00  1.4307E-04  0.0000E+00  0.0000E+00  4.8003E-04  0.0000E+00  0.0000E+00
130  0.0000E+00  3.2922E-05  0.0000E+00  0.0000E+00  0.0000E+00  0.0000E+00  0.0000E+00  0.0000E+00  0.0000E+00
131  0.0000E+00  2.7734E-05  0.0000E+00  0.0000E+00  0.0000E+00  0.0000E+00  0.0000E+00  0.0000E+00  0.0000E+00
132  0.0000E+00  7.6729E-05  0.0000E+00  0.0000E+00  0.0000E+00  0.0000E+00  0.0000E+00  0.0000E+00  0.0000E+00
133  0.0000E+00  9.1770E-05  0.0000E+00  0.0000E+00  0.0000E+00  6.5571E-04  0.0000E+00  0.0000E+00  0.0000E+00
134  0.0000E+00  7.0455E-05  0.0000E+00  0.0000E+00  0.0000E+00  0.0000E+00  0.0000E+00  4.0818E-04  0.0000E+00
135  0.0000E+00  4.8859E-05  0.0000E+00  6.0965E-04  0.0000E+00  0.0000E+00  0.0000E+00  0.0000E+00  0.0000E+00
136  0.0000E+00  7.8997E-05  5.1984E-05  0.0000E+00  0.0000E+00  0.0000E+00  0.0000E+00  0.0000E+00  0.0000E+00
137  0.0000E+00  1.4352E-04  0.0000E+00  2.5443E-04  0.0000E+00  0.0000E+00  0.0000E+00  0.0000E+00  0.0000E+00
138  0.0000E+00  2.3604E-04  0.0000E+00  0.0000E+00  0.0000E+00  1.4668E-03  7.2739E-04  0.0000E+00  0.0000E+00
139  0.0000E+00  7.9231E-04  0.0000E+00  0.0000E+00  0.0000E+00  0.0000E+00  8.4974E-04  0.0000E+00  2.4590E-03
140  0.0000E+00  6.7385E-03  0.0000E+00  3.4361E-02  0.0000E+00  6.6018E-03  0.0000E+00  0.0000E+00  0.0000E+00
141  0.0000E+00  2.4427E-02  2.7829E-02  1.5527E-03  0.0000E+00  5.7345E-03  0.0000E+00  0.0000E+00  0.0000E+00
142  0.0000E+00  4.5422E-02  0.0000E+00  0.0000E+00  0.0000E+00  3.5587E-02  0.0000E+00  3.8240E-03  2.2460E-02
143  0.0000E+00  1.5853E-01  5.0329E-02  4.6252E-02  0.0000E+00  0.0000E+00  1.3282E-01  2.1557E-01  3.3872E-01
144  1.4357E+00  3.5347E-01  4.7590E-01  2.4528E-01  3.2009E-01  3.7868E-01  1.7325E-01  1.2088E-01  3.6161E-01
145  1.3345E+00  2.2362E-01  4.4821E-01  2.5826E-01  8.9710E-02  2.5008E-01  0.0000E+00  1.9852E-04  0.0000E+00
146  0.0000E+00  1.9343E-01  0.0000E+00  1.7009E-01  0.0000E+00  0.0000E+00  5.2187E-02  0.0000E+00  6.6449E-01
147  0.0000E+00  1.9696E-01  4.8478E-01  0.0000E+00  0.0000E+00  5.0239E-01  0.0000E+00  5.3038E-01  0.0000E+00
148  0.0000E+00  4.2528E-02  0.0000E+00  0.0000E+00  0.0000E+00  0.0000E+00  0.0000E+00  0.0000E+00  1.6804E-01
149  0.0000E+00  4.3509E-02  0.0000E+00  0.0000E+00  0.0000E+00  1.2352E-02  0.0000E+00  0.0000E+00  1.2538E-02
150  0.0000E+00  1.9653E-01  0.0000E+00  0.0000E+00  0.0000E+00  0.0000E+00  1.0616E+00  0.0000E+00  0.0000E+00

# AV, chi2 & Mass for <> & i_chain = 1 ...  7 solutions
AV       0.5757      0.5722      0.5754      0.5734      0.5725      0.5724      0.5728      0.5733      0.5720
chi2 2.8027E+00  2.8594E+00  2.8437E+00  2.8529E+00  2.8508E+00  2.8448E+00  2.8485E+00  2.8476E+00  2.8485E+00
Mass 2.4275E-10  2.4879E-10  2.4902E-10  2.4817E-10  2.5090E-10  2.5125E-10  2.5008E-10  2.5079E-10  2.4702E-10
  15.95                                  [v0_min (km/s) before EX0s...]
  59.16                                  [vd_min (km/s) before EX0s...]


## Synthetic spectrum (Best Model) ##l_obs f_obs f_syn wei
 3070    [Nl_obs]
 3359.00    0.00000   0.41462   -2.000
 3360.00    0.00000   0.37291   -2.000
 3361.00    0.00000   0.36152   -2.000
 3362.00    0.29167   0.38469   -1.000
 3363.00    0.28697   0.42828   -1.000
 3364.00    0.28240   0.46751   -1.000
 3365.00    0.35133   0.48355   -1.000
 3366.00    0.24013   0.47324   -1.000
 3367.00    0.29038   0.44776   -1.000
 3368.00    0.19124   0.42144   -1.000
 3369.00    0.22193   0.40272   -1.000
 3370.00    0.33910   0.39017   -1.000
 3371.00    0.20866   0.38227   -1.000
 3372.00    0.14517   0.38341   -1.000
 3373.00    0.20511   0.40007   -1.000
 3374.00    0.34226   0.43209   -1.000
 3375.00    0.35448   0.47153   -1.000
 3376.00    0.34778   0.50208   -1.000
 3377.00    0.36504   0.50764   -1.000
 3378.00    0.28244   0.48677   -1.000
 3379.00    0.27553   0.45577   -1.000
 3380.00    0.27520   0.43415   -1.000
 3381.00    0.31015   0.43262   -1.000
 3382.00    0.28367   0.44826   -1.000
 3383.00    0.29485   0.46803   -1.000
 3384.00    0.33639   0.48369   -1.000
 3385.00    0.28225   0.49617   -1.000
 3386.00    0.26910   0.50287   -1.000
 3387.00    0.34731   0.50283   -1.000
 3388.00    0.38658   0.50153   -1.000
 3389.00    0.34256   0.50213   -1.000
 3390.00    0.35656   0.50089   -1.000
 3391.00    0.35457   0.49102   -1.000
 3392.00    0.36921   0.47219   -1.000
 3393.00    0.31078   0.45807   -1.000
 3394.00    0.30161   0.46194   -1.000
 3395.00    0.35335   0.48350   -1.000
 3396.00    0.34604   0.51205   -1.000
 3397.00    0.40911   0.53865   -1.000
 3398.00    0.44769   0.55897   -1.000
 3399.00    0.46597   0.56821   -1.000
 3400.00    0.39357   0.56527   -1.000
 3401.00    0.43666   0.55374   -1.000
 3402.00    0.46391   0.53589   -1.000
 3403.00    0.40665   0.51784   -1.000
 3404.00    0.37901   0.50526   -1.000
 3405.00    0.32224   0.49738   -1.000
 3406.00    0.34898   0.49040   -1.000
 3407.00    0.37245   0.48344   -1.000
 3408.00    0.41020   0.47980   -1.000
 3409.00    0.39483   0.48309   -1.000
 3410.00    0.39523   0.49197   -1.000
 3411.00    0.45127   0.49615   58.790
 3412.00    0.44212   0.48718   58.451
 3413.00    0.45255   0.46899   56.728
 3414.00    0.42606   0.45430   56.233
 3415.00    0.36259   0.45478   -1.000
 3416.00    0.37196   0.47015   -1.000
 3417.00    0.43002   0.49419   -1.000
 3418.00    0.44963   0.52037   -1.000
 3419.00    0.43457   0.54404   -1.000
 3420.00    0.40028   0.55774   -1.000
 3421.00    0.44105   0.55425   -1.000
 3422.00    0.48013   0.53621   50.106
 3423.00    0.44797   0.51845   -1.000
 3424.00    0.37048   0.51217   -1.000
 3425.00    0.44212   0.51529   -1.000
 3426.00    0.41032   0.52063   -1.000
 3427.00    0.45130   0.52857   -1.000
 3428.00    0.48259   0.54549   -1.000
 3429.00    0.49493   0.56808   -1.000
 3430.00    0.50954   0.57902   -1.000
 3431.00    0.52200   0.56782   -1.000
 3432.00    0.45085   0.54327   -1.000
 3433.00    0.42745   0.52441   -1.000
 3434.00    0.47778   0.52410   -1.000
 3435.00    0.45422   0.53501   -1.000
 3436.00    0.44287   0.53923   -1.000
 3437.00    0.45710   0.52848   -1.000
 3438.00    0.42803   0.50401   -1.000
 3439.00    0.46614   0.46860   53.050
 3440.00    0.44131   0.42951   51.569
 3441.00    0.43193   0.39901   54.631
 3442.00    0.40938   0.38730   58.917
 3443.00    0.42469   0.39420   61.451
 3444.00    0.37596   0.41171   61.712
 3445.00    0.41750   0.43270   61.472
 3446.00    0.52733   0.45671   -1.000
 3447.00    0.47733   0.48412   55.988
 3448.00    0.44697   0.51240   -1.000
 3449.00    0.44259   0.53623   -1.000
 3450.00    0.40435   0.54603   -1.000
 3451.00    0.47610   0.53649   -1.000
 3452.00    0.47585   0.51891   -1.000
 3453.00    0.49109   0.50979   -1.000
 3454.00    0.52729   0.51427   -1.000
 3455.00    0.52540   0.52339  388.437
 3456.00    0.48303   0.52333   -1.000
 3457.00    0.46757   0.50886   -1.000
 3458.00    0.50496   0.48654   -1.000
 3459.00    0.51216   0.46675   -1.000
 3460.00    0.50889   0.45402   -1.000
 3461.00    0.46774   0.45339   53.898
 3462.00    0.45193   0.46980   50.177
 3463.00    0.46718   0.49555   49.923
 3464.00    0.43706   0.51138   -1.000
 3465.00    0.49338   0.51079   -1.000
 3466.00    0.52407   0.50564   -1.000
 3467.00    0.48477   0.50962   -1.000
 3468.00    0.52982   0.52580  388.437
 3469.00    0.58133   0.54519   -1.000
 3470.00    0.55058   0.55470  388.437
 3471.00    0.63281   0.54727   -1.000
 3472.00    0.53481   0.52549   -1.000
 3473.00    0.53046   0.49500   -1.000
 3474.00    0.52241   0.46224   -1.000
 3475.00    0.49824   0.43654   -1.000
 3476.00    0.43072   0.42959  388.437
 3477.00    0.38856   0.44497   -1.000
 3478.00    0.43087   0.47303   51.677
 3479.00    0.42971   0.50053   -1.000
 3480.00    0.45637   0.51886   -1.000
 3481.00    0.50569   0.52405   -1.000
 3482.00    0.46234   0.51701   -1.000
 3483.00    0.43900   0.50515   -1.000
 3484.00    0.45737   0.49990   -1.000
 3485.00    0.51260   0.51044  388.437
 3486.00    0.49388   0.53179   -1.000
 3487.00    0.52619   0.54558   -1.000
 3488.00    0.59207   0.53725   -1.000
 3489.00    0.58671   0.51026   -1.000
 3490.00    0.52814   0.48214   -1.000
 3491.00    0.44572   0.46851   -1.000
 3492.00    0.41020   0.47148   -1.000
 3493.00    0.44718   0.48202   -1.000
 3494.00    0.47154   0.48895   -1.000
 3495.00    0.50342   0.48513   -1.000
 3496.00    0.50270   0.47519   -1.000
 3497.00    0.50833   0.47580   -1.000
 3498.00    0.48394   0.49708   -1.000
 3499.00    0.54263   0.52832   -1.000
 3500.00    0.60629   0.55093   -1.000
 3501.00    0.57817   0.56234   -1.000
 3502.00    0.62325   0.57081   -1.000
 3503.00    0.65069   0.57650   -1.000
 3504.00    0.55145   0.57316   -1.000
 3505.00    0.58981   0.56047   -1.000
 3506.00    0.58152   0.54658   -1.000
 3507.00    0.58447   0.54041   -1.000
 3508.00    0.55737   0.53963   -1.000
 3509.00    0.54155   0.53427  388.437
 3510.00    0.52314   0.52278  388.437
 3511.00    0.48259   0.50960   -1.000
 3512.00    0.54687   0.49569   -1.000
 3513.00    0.59104   0.48107   -1.000
 3514.00    0.52952   0.47476   -1.000
 3515.00    0.53151   0.49014   -1.000
 3516.00    0.50993   0.52636   -1.000
 3517.00    0.52158   0.56350   -1.000
 3518.00    0.56791   0.58062   -1.000
 3519.00    0.60073   0.57059   -1.000
 3520.00    0.62011   0.54369   -1.000
 3521.00    0.55497   0.51426   -1.000
 3522.00    0.54719   0.48956   -1.000
 3523.00    0.45968   0.46691  388.437
 3524.00    0.41906   0.44488   -1.000
 3525.00    0.50890   0.43097   -1.000
 3526.00    0.48359   0.43766   56.013
 3527.00    0.47531   0.46709   51.100
 3528.00    0.50559   0.50797   51.026
 3529.00    0.48645   0.54183   -1.000
 3530.00    0.53365   0.55678   -1.000
 3531.00    0.59233   0.55414   -1.000
 3532.00    0.61544   0.54731   -1.000
 3533.00    0.58799   0.54903   -1.000
 3534.00    0.51275   0.55918   -1.000
 3535.00    0.56053   0.56966   -1.000
 3536.00    0.64124   0.57602   -1.000
 3537.00    0.59084   0.58273   -1.000
 3538.00    0.57007   0.59447   -1.000
 3539.00    0.59104   0.60508   -1.000
 3540.00    0.60942   0.60501  388.437
 3541.00    0.61301   0.59593   -1.000
 3542.00    0.53049   0.58991   -1.000
 3543.00    0.55949   0.59408   -1.000
 3544.00    0.67747   0.60347   -1.000
 3545.00    0.63322   0.60849   -1.000
 3546.00    0.59140   0.60468   -1.000
 3547.00    0.58617   0.59682   -1.000
 3548.00    0.58774   0.59251  388.437
 3549.00    0.56419   0.59403   -1.000
 3550.00    0.57149   0.59623   -1.000
 3551.00    0.58556   0.59183  388.437
 3552.00    0.58990   0.57817   -1.000
 3553.00    0.52303   0.56110   -1.000
 3554.00    0.53366   0.55081   -1.000
 3555.00    0.45728   0.55223   -1.000
 3556.00    0.48877   0.55937   -1.000
 3557.00    0.55607   0.56298  388.437
 3558.00    0.49752   0.56023   -1.000
 3559.00    0.52884   0.55670   -1.000
 3560.00    0.54653   0.56014   -1.000
 3561.00    0.46556   0.57246   -1.000
 3562.00    0.51503   0.58430   -1.000
 3563.00    0.57757   0.57710  388.437
 3564.00    0.56026   0.54157   -1.000
 3565.00    0.53287   0.49461   -1.000
 3566.00    0.48521   0.46479   -1.000
 3567.00    0.45018   0.45916   57.994
 3568.00    0.44034   0.45991   51.778
 3569.00    0.44909   0.45126   51.572
 3570.00    0.46398   0.43949   51.237
 3571.00    0.42616   0.43928   52.687
 3572.00    0.42196   0.45353   53.784
 3573.00    0.47579   0.47189   52.478
 3574.00    0.49817   0.48529   50.223
 3575.00    0.53252   0.49344   -1.000
 3576.00    0.51189   0.49860   -1.000
 3577.00    0.48869   0.49687   -1.000
 3578.00    0.47694   0.48353  388.437
 3579.00    0.47886   0.45712   -1.000
 3580.00    0.47466   0.42532   -1.000
 3581.00    0.43375   0.40090   60.492
 3582.00    0.36848   0.39414   55.155
 3583.00    0.38069   0.40107   58.404
 3584.00    0.38259   0.40337   59.216
 3585.00    0.37025   0.39374   59.476
 3586.00    0.36835   0.38277   60.784
 3587.00    0.35967   0.38374   62.722
 3588.00    0.36675   0.40245   63.795
 3589.00    0.41754   0.43590   61.182
 3590.00    0.47583   0.47569   57.937
 3591.00    0.51009   0.51051   55.095
 3592.00    0.55593   0.52945   50.492
 3593.00    0.55553   0.53471   -1.000
 3594.00    0.53951   0.54050  388.437
 3595.00    0.52796   0.55708   -1.000
 3596.00    0.56379   0.58091   -1.000
 3597.00    0.57235   0.60094   -1.000
 3598.00    0.61679   0.61419  388.437
 3599.00    0.61304   0.62290   -1.000
 3600.00    0.61903   0.62198  379.413
 3601.00    0.60912   0.60350  372.601
 3602.00    0.63329   0.57149   -1.000
 3603.00    0.56825   0.53855   -1.000
 3604.00    0.55060   0.51688   -1.000
 3605.00    0.55045   0.50996   -1.000
 3606.00    0.50913   0.50921  388.437
 3607.00    0.48831   0.50228   -1.000
 3608.00    0.50395   0.48663   -1.000
 3609.00    0.49323   0.47450   -1.000
 3610.00    0.46503   0.47881   -1.000
 3611.00    0.44137   0.49783   -1.000
 3612.00    0.50113   0.51774   -1.000
 3613.00    0.56974   0.53313   -1.000
 3614.00    0.55967   0.54907   -1.000
 3615.00    0.54166   0.56462   -1.000
 3616.00    0.56905   0.56348  388.437
 3617.00    0.55769   0.53308   -1.000
 3618.00    0.51431   0.48798   -1.000
 3619.00    0.50765   0.46267   -1.000
 3620.00    0.49825   0.47523   -1.000
 3621.00    0.49883   0.51494   59.210
 3622.00    0.53594   0.55703   -1.000
 3623.00    0.60051   0.58556   -1.000
 3624.00    0.61496   0.60618   -1.000
 3625.00    0.57500   0.63264   -1.000
 3626.00    0.62653   0.66389   -1.000
 3627.00    0.65661   0.68611   -1.000
 3628.00    0.69665   0.68234   -1.000
 3629.00    0.62122   0.64337   -1.000
 3630.00    0.52219   0.57997   -1.000
 3631.00    0.45945   0.52402   -1.000
 3632.00    0.49828   0.50025  388.437
 3633.00    0.53431   0.50871   -1.000
 3634.00    0.53977   0.53232  388.437
 3635.00    0.50130   0.55483   -1.000
 3636.00    0.50816   0.57179   -1.000
 3637.00    0.55826   0.59066   -1.000
 3638.00    0.58781   0.61609   -1.000
 3639.00    0.59213   0.64151   -1.000
 3640.00    0.60436   0.65549   -1.000
 3641.00    0.65752   0.65051  360.405
 3642.00    0.62194   0.62870  357.839
 3643.00    0.55445   0.60004   -1.000
 3644.00    0.57483   0.57399  376.925
 3645.00    0.60105   0.55390   -1.000
 3646.00    0.56168   0.53786   -1.000
 3647.00    0.53075   0.52539  388.437
 3648.00    0.52968   0.52219  388.437
 3649.00    0.54874   0.53198   -1.000
 3650.00    0.57215   0.55497   -1.000
 3651.00    0.60346   0.58752   -1.000
 3652.00    0.65178   0.62149   -1.000
 3653.00    0.64677   0.64692  388.343
 3654.00    0.65830   0.66164  371.561
 3655.00    0.62723   0.67123   -1.000
 3656.00    0.67146   0.68253   -1.000
 3657.00    0.68836   0.69677   -1.000
 3658.00    0.66109   0.70815   -1.000
 3659.00    0.65671   0.71358   -1.000
 3660.00    0.65649   0.71242   -1.000
 3661.00    0.69273   0.70309   -1.000
 3662.00    0.61016   0.68687   -1.000
 3663.00    0.58876   0.67137   -1.000
 3664.00    0.65266   0.66392   -1.000
 3665.00    0.65118   0.66431   -1.000
 3666.00    0.62986   0.66519   -1.000
 3667.00    0.62839   0.65870   -1.000
 3668.00    0.62615   0.64415   -1.000
 3669.00    0.61130   0.63128   -1.000
 3670.00    0.58688   0.63310   -1.000
 3671.00    0.60181   0.65086   -1.000
 3672.00    0.66045   0.67164   -1.000
 3673.00    0.69838   0.68387   -1.000
 3674.00    0.67893   0.68525  350.439
 3675.00    0.67074   0.67595  348.063
 3676.00    0.65933   0.65600  347.774
 3677.00    0.64289   0.62946   -1.000
 3678.00    0.60483   0.60329  357.158
 3679.00    0.60317   0.58539   -1.000
 3680.00    0.62175   0.58206   -1.000
 3681.00    0.59175   0.59319  388.437
 3682.00    0.60217   0.61078   -1.000
 3683.00    0.64750   0.62330   -1.000
 3684.00    0.62180   0.61995  371.458
 3685.00    0.60784   0.59818   -1.000
 3686.00    0.59216   0.56917   -1.000
 3687.00    0.57319   0.55279   -1.000
 3688.00    0.54910   0.56181   -1.000
 3689.00    0.58403   0.59523   -1.000
 3690.00    0.64869   0.63894   -1.000
 3691.00    0.64012   0.67259   -1.000
 3692.00    0.66313   0.68211   -1.000
 3693.00    0.64608   0.67128   -1.000
 3694.00    0.64370   0.65642   -1.000
 3695.00    0.64855   0.64852  349.863
 3696.00    0.62879   0.65014   -1.000
 3697.00    0.65668   0.66190  355.547
 3698.00    0.63075   0.68399   -1.000
 3699.00    0.65375   0.70851   -1.000
 3700.00    0.68113   0.72295   -1.000
 3701.00    0.71415   0.71611  329.487
 3702.00    0.72577   0.68175   -1.000
 3703.00    0.68175   0.62556   -1.000
 3704.00    0.67393   0.56664   -1.000
 3705.00    0.62223   0.52422   -1.000
 3706.00    0.57244   0.50794   -1.000
 3707.00    0.52676   0.51166   -1.000
 3708.00    0.50306   0.52379   -1.000
 3709.00    0.53494   0.54136  388.437
 3710.00    0.59768   0.56675   -1.000
 3711.00    0.63660   0.59994   -1.000
 3712.00    0.66304   0.63923   -1.000
 3713.00    0.66352   0.67768   -1.000
 3714.00    0.70851   0.70460  350.686
 3715.00    0.73036   0.71182   -1.000
 3716.00    0.73225   0.69877   -1.000
 3717.00    0.71973   0.66666   -1.000
 3718.00    0.65920   0.61355   -1.000
 3719.00    0.52345   0.54271   -1.000
 3720.00    0.44491   0.47501   -1.000
 3721.00    0.45701   0.43955   -1.000
 3722.00    0.50492   0.44975   -1.000
 3723.00    0.50988   0.49652   64.678
 3724.00    0.54454   0.55797  152.800
 3725.00    0.61415   0.60490   -1.000
 3726.00    0.65102   0.61941   -1.000
 3727.00    0.65874   0.61234   -1.000
 3728.00    0.67466   0.60662   -1.000
 3729.00    0.77838   0.60861   -1.000
 3730.00    0.86975   0.60586   -1.000
 3731.00    0.79514   0.58165   -1.000
 3732.00    0.63898   0.53063   -1.000
 3733.00    0.51244   0.46709   -1.000
 3734.00    0.43090   0.41121   -1.000
 3735.00    0.43814   0.38099   -1.000
 3736.00    0.46547   0.38684   -1.000
 3737.00    0.46520   0.42700   56.879
 3738.00    0.48072   0.48928   55.214
 3739.00    0.51453   0.55601   50.564
 3740.00    0.55280   0.60541   -1.000
 3741.00    0.60786   0.62265   -1.000
 3742.00    0.60814   0.60686  375.123
 3743.00    0.59466   0.57117   -1.000
 3744.00    0.57486   0.53206   -1.000
 3745.00    0.52375   0.50084   -1.000
 3746.00    0.52764   0.47618   -1.000
 3747.00    0.51599   0.44930   -1.000
 3748.00    0.47619   0.42034   -1.000
 3749.00    0.43828   0.40576   65.548
 3750.00    0.46294   0.42375   52.438
 3751.00    0.51883   0.47585   53.743
 3752.00    0.60048   0.54372   -1.000
 3753.00    0.64441   0.60948   -1.000
 3754.00    0.67516   0.66056   -1.000
 3755.00    0.69375   0.68148   -1.000
 3756.00    0.69928   0.66171   -1.000
 3757.00    0.66547   0.61033   -1.000
 3758.00    0.54214   0.55606   -1.000
 3759.00    0.50801   0.52969   -1.000
 3760.00    0.55858   0.53589   -1.000
 3761.00    0.61312   0.55574   -1.000
 3762.00    0.60080   0.57065   -1.000
 3763.00    0.58946   0.57692   -1.000
 3764.00    0.57813   0.57956  383.943
 3765.00    0.59366   0.57821   -1.000
 3766.00    0.57481   0.57093  376.108
 3767.00    0.59321   0.56325   -1.000
 3768.00    0.64886   0.56014   -1.000
 3769.00    0.62963   0.56016   -1.000
 3770.00    0.61073   0.56258   -1.000
 3771.00    0.60229   0.57539   -1.000
 3772.00    0.60984   0.60238  388.437
 3773.00    0.66666   0.63242   -1.000
 3774.00    0.71184   0.65255   -1.000
 3775.00    0.71004   0.66164   -1.000
 3776.00    0.67138   0.66690  342.586
 3777.00    0.67858   0.67541  342.073
 3778.00    0.69624   0.68984  341.345
 3779.00    0.70628   0.70839  340.416
 3780.00    0.71526   0.72705   -1.000
 3781.00    0.73568   0.74078  327.002
 3782.00    0.76620   0.74841   -1.000
 3783.00    0.77717   0.74994   -1.000
 3784.00    0.74323   0.73827  312.978
 3785.00    0.70066   0.70681  312.601
 3786.00    0.67411   0.66329   -1.000
 3787.00    0.63170   0.62274   -1.000
 3788.00    0.60534   0.59620   -1.000
 3789.00    0.58281   0.58828  375.796
 3790.00    0.59216   0.59478  385.948
 3791.00    0.63147   0.60398   -1.000
 3792.00    0.64526   0.60350   -1.000
 3793.00    0.58546   0.58808  377.671
 3794.00    0.54425   0.56379   -1.000
 3795.00    0.51569   0.53906   -1.000
 3796.00    0.50775   0.51412  388.437
 3797.00    0.52098   0.48668   -1.000
 3798.00    0.52464   0.46895   -1.000
 3799.00    0.52106   0.48071   -1.000
 3800.00    0.57105   0.52435   -1.000
 3801.00    0.62449   0.58307   -1.000
 3802.00    0.64384   0.63726  388.437
 3803.00    0.65373   0.67377   -1.000
 3804.00    0.68573   0.68840  361.904
 3805.00    0.69335   0.68089   -1.000
 3806.00    0.66682   0.66060  348.232
 3807.00    0.65255   0.64733  351.553
 3808.00    0.66028   0.65435  362.749
 3809.00    0.68068   0.67669  371.847
 3810.00    0.70081   0.69610  366.778
 3811.00    0.69391   0.69510  353.642
 3812.00    0.65218   0.66841   -1.000
 3813.00    0.60044   0.62500   -1.000
 3814.00    0.58544   0.58066  366.223
 3815.00    0.55844   0.55256  388.276
 3816.00    0.57437   0.54908   -1.000
 3817.00    0.56607   0.55959  388.437
 3818.00    0.59088   0.56144   -1.000
 3819.00    0.56930   0.54170   -1.000
 3820.00    0.52752   0.51609   -1.000
 3821.00    0.53637   0.50884   -1.000
 3822.00    0.52998   0.51988   -1.000
 3823.00    0.53833   0.52563   -1.000
 3824.00    0.53280   0.50903   -1.000
 3825.00    0.46735   0.47976   -1.000
 3826.00    0.44316   0.45728   -1.000
 3827.00    0.44748   0.44996   71.678
 3828.00    0.42876   0.45455   52.521
 3829.00    0.42984   0.46294   52.529
 3830.00    0.41836   0.46468   51.784
 3831.00    0.40735   0.45187   50.933
 3832.00    0.45553   0.42658   51.128
 3833.00    0.44039   0.39893   52.961
 3834.00    0.39276   0.38303   56.667
 3835.00    0.40571   0.38335   59.281
 3836.00    0.42972   0.39291   58.969
 3837.00    0.42272   0.40140   56.911
 3838.00    0.41904   0.40476   55.342
 3839.00    0.40879   0.41060   55.805
 3840.00    0.40341   0.43185   57.131
 3841.00    0.45337   0.47342   56.831
 3842.00    0.50646   0.52558   54.206
 3843.00    0.52133   0.57273   -1.000
 3844.00    0.55923   0.60253   -1.000
 3845.00    0.59801   0.61595   -1.000
 3846.00    0.60181   0.62313   -1.000
 3847.00    0.61614   0.62842   -1.000
 3848.00    0.64203   0.62640   -1.000
 3849.00    0.61860   0.61691  388.437
 3850.00    0.56069   0.61024   -1.000
 3851.00    0.56200   0.61519   -1.000
 3852.00    0.60790   0.62782   -1.000
 3853.00    0.63285   0.63468  388.437
 3854.00    0.60697   0.62757   -1.000
 3855.00    0.55200   0.61062   -1.000
 3856.00    0.53442   0.59159   -1.000
 3857.00    0.52949   0.57043   -1.000
 3858.00    0.50241   0.54547   -1.000
 3859.00    0.48476   0.52596   -1.000
 3860.00    0.49221   0.52817   69.594
 3861.00    0.52828   0.55800   51.075
 3862.00    0.56897   0.60168   51.309
 3863.00    0.61471   0.63431  125.036
 3864.00    0.63810   0.64314  388.437
 3865.00    0.61222   0.63720   -1.000
 3866.00    0.58493   0.63018   -1.000
 3867.00    0.58736   0.62646   -1.000
 3868.00    0.59566   0.62156   -1.000
 3869.00    0.57613   0.60893   -1.000
 3870.00    0.54069   0.58603   -1.000
 3871.00    0.50816   0.56050   -1.000
 3872.00    0.49578   0.54580   -1.000
 3873.00    0.50511   0.55485   -1.000
 3874.00    0.53987   0.58625   -1.000
 3875.00    0.58761   0.61700   -1.000
 3876.00    0.61475   0.62124  388.437
 3877.00    0.57361   0.59841   -1.000
 3878.00    0.56413   0.57337   -1.000
 3879.00    0.55887   0.56470  388.437
 3880.00    0.54405   0.56876   -1.000
 3881.00    0.54749   0.57482   -1.000
 3882.00    0.54621   0.57856   -1.000
 3883.00    0.56759   0.58253   -1.000
 3884.00    0.59988   0.58091   -1.000
 3885.00    0.58395   0.56169   -1.000
 3886.00    0.56710   0.52731   -1.000
 3887.00    0.56157   0.49443   -1.000
 3888.00    0.54587   0.47973   -1.000
 3889.00    0.56743   0.49197   -1.000
 3890.00    0.59173   0.53020   -1.000
 3891.00    0.61556   0.58354   -1.000
 3892.00    0.64740   0.62978   -1.000
 3893.00    0.67467   0.65105   -1.000
 3894.00    0.67042   0.65242   -1.000
 3895.00    0.64785   0.65238  334.202
 3896.00    0.67840   0.66104   -1.000
 3897.00    0.70347   0.67233   -1.000
 3898.00    0.69227   0.67722   -1.000
 3899.00    0.71457   0.67654   -1.000
 3900.00    0.71609   0.67798   -1.000
 3901.00    0.68948   0.68323  330.621
 3902.00    0.67806   0.68458  329.048
 3903.00    0.70372   0.67537   -1.000
 3904.00    0.69936   0.65732   -1.000
 3905.00    0.66536   0.64148   -1.000
 3906.00    0.64023   0.64204  347.273
 3907.00    0.65541   0.66497   -1.000
 3908.00    0.71944   0.70117   -1.000
 3909.00    0.71894   0.73370   -1.000
 3910.00    0.71292   0.75432   -1.000
 3911.00    0.76450   0.76646  308.711
 3912.00    0.78140   0.77204  304.495
 3913.00    0.73728   0.76930   -1.000
 3914.00    0.74625   0.75912   -1.000
 3915.00    0.76270   0.74640   -1.000
 3916.00    0.73910   0.73468  306.610
 3917.00    0.70496   0.72214   -1.000
 3918.00    0.67914   0.70379   -1.000
 3919.00    0.67216   0.67743  322.908
 3920.00    0.65994   0.64949   -1.000
 3921.00    0.62614   0.63163  343.512
 3922.00    0.63112   0.63049  359.618
 3923.00    0.64807   0.63934   -1.000
 3924.00    0.65351   0.64291   -1.000
 3925.00    0.64224   0.62993   -1.000
 3926.00    0.59038   0.59651  364.577
 3927.00    0.52247   0.54609   -1.000
 3928.00    0.46558   0.48695   -1.000
 3929.00    0.43088   0.42765  388.437
 3930.00    0.36827   0.37052   81.794
 3931.00    0.30809   0.31540   60.379
 3932.00    0.27388   0.26508   70.695
 3933.00    0.24106   0.22953   83.273
 3934.00    0.20740   0.22175   97.875
 3935.00    0.21656   0.24595   -1.000
 3936.00    0.27049   0.29440  110.446
 3937.00    0.31877   0.35726   -1.000
 3938.00    0.38291   0.42528   -1.000
 3939.00    0.45820   0.48748   68.486
 3940.00    0.53414   0.53632   57.132
 3941.00    0.55735   0.56661  119.294
 3942.00    0.53944   0.57893   -1.000
 3943.00    0.56092   0.58479   -1.000
 3944.00    0.58596   0.59910   -1.000
 3945.00    0.60118   0.62679   -1.000
 3946.00    0.64659   0.65747   -1.000
 3947.00    0.67893   0.67865  374.940
 3948.00    0.69622   0.69140  348.572
 3949.00    0.71492   0.70553  338.840
 3950.00    0.73624   0.72182   -1.000
 3951.00    0.74776   0.73056   -1.000
 3952.00    0.74957   0.73172   -1.000
 3953.00    0.75494   0.73579   -1.000
 3954.00    0.76401   0.74282   -1.000
 3955.00    0.76904   0.74288   -1.000
 3956.00    0.75910   0.73366   -1.000
 3957.00    0.74582   0.72404   -1.000
 3958.00    0.70818   0.72009   -1.000
 3959.00    0.72162   0.70949   -1.000
 3960.00    0.72327   0.67306   -1.000
 3961.00    0.65620   0.61558   -1.000
 3962.00    0.59058   0.55959   -1.000
 3963.00    0.52831   0.51748   -1.000
 3964.00    0.46853   0.48106   -1.000
 3965.00    0.42903   0.43340  388.437
 3966.00    0.38347   0.36832   79.562
 3967.00    0.32311   0.29986   56.655
 3968.00    0.26475   0.25211   68.444
 3969.00    0.24193   0.24113   84.082
 3970.00    0.26524   0.26838   96.976
 3971.00    0.33381   0.32425   96.311
 3972.00    0.42081   0.39335   82.762
 3973.00    0.48507   0.46448   68.034
 3974.00    0.51897   0.53266   56.562
 3975.00    0.57894   0.59391  112.526
 3976.00    0.64245   0.64864  388.437
 3977.00    0.70138   0.69893  378.211
 3978.00    0.74887   0.74572  345.709
 3979.00    0.80634   0.78532   -1.000
 3980.00    0.83106   0.80857   -1.000
 3981.00    0.84378   0.81283   -1.000
 3982.00    0.83101   0.80596   -1.000
 3983.00    0.80059   0.80154  280.805
 3984.00    0.80196   0.80932  284.953
 3985.00    0.82767   0.82587  285.887
 3986.00    0.86248   0.84401   -1.000
 3987.00    0.85539   0.86131  275.617
 3988.00    0.85598   0.87451   -1.000
 3989.00    0.89306   0.88112  265.914
 3990.00    0.90803   0.88561   -1.000
 3991.00    0.91168   0.89440   -1.000
 3992.00    0.92922   0.90731   -1.000
 3993.00    0.98303   0.91651   -1.000
 3994.00    0.98086   0.91310   -1.000
 3995.00    0.92087   0.89565   -1.000
 3996.00    0.89703   0.87419   -1.000
 3997.00    0.89310   0.86415   -1.000
 3998.00    0.89050   0.87401   -1.000
 3999.00    0.91509   0.89948   -1.000
 4000.00    0.94664   0.92823   -1.000
 4001.00    0.96386   0.95029   -1.000
 4002.00    0.97528   0.95836   -1.000
 4003.00    0.99779   0.94475   -1.000
 4004.00    0.93161   0.90825   -1.000
 4005.00    0.86839   0.86768  239.328
 4006.00    0.84999   0.85310  250.985
 4007.00    0.88707   0.87465   -1.000
 4008.00    0.93683   0.91417   -1.000
 4009.00    0.95590   0.94710  259.512
 4010.00    0.96327   0.96510  247.189
 4011.00    0.98803   0.97193   -1.000
 4012.00    1.00191   0.97371   -1.000
 4013.00    0.99400   0.97652   -1.000
 4014.00    0.95276   0.98171   -1.000
 4015.00    0.99789   0.98511  239.327
 4016.00    1.02370   0.98351   -1.000
 4017.00    1.00000   0.98072   -1.000
 4018.00    1.00243   0.98389   -1.000
 4019.00    1.01593   0.99265   -1.000
 4020.00    1.00078   1.00008  238.974
 4021.00    1.00739   1.00048  236.238
 4022.00    1.01993   0.99441   -1.000
 4023.00    0.99362   0.98526  237.355
 4024.00    0.96302   0.97765   -1.000
 4025.00    0.99184   0.98025  241.132
 4026.00    1.03286   0.99857   -1.000
 4027.00    1.06690   1.02265   -1.000
 4028.00    1.09415   1.02914   -1.000
 4029.00    1.05854   1.00193   -1.000
 4030.00    0.98602   0.94991   -1.000
 4031.00    0.92680   0.89878   -1.000
 4032.00    0.88311   0.86855   -1.000
 4033.00    0.89181   0.86563   -1.000
 4034.00    0.92553   0.88820   -1.000
 4035.00    0.94388   0.93082   -1.000
 4036.00    0.97916   0.98337  257.491
 4037.00    1.02000   1.03081  246.414
 4038.00    1.07104   1.05606   -1.000
 4039.00    1.09472   1.05398   -1.000
 4040.00    1.06196   1.03742   -1.000
 4041.00    1.00408   1.02197   -1.000
 4042.00    1.00176   1.00405  228.420
 4043.00    1.02309   0.96321   -1.000
 4044.00    0.98074   0.89513   -1.000
 4045.00    0.91383   0.83428   -1.000
 4046.00    0.84888   0.82476   -1.000
 4047.00    0.84416   0.87291   -1.000
 4048.00    0.92360   0.94426   -1.000
 4049.00    1.00073   1.00244  262.552
 4050.00    1.04664   1.03147   -1.000
 4051.00    1.04985   1.03473   -1.000
 4052.00    1.03961   1.02129   -1.000
 4053.00    1.02376   0.99885   -1.000
 4054.00    0.97463   0.97650  232.168
 4055.00    0.94107   0.95906   -1.000
 4056.00    0.93923   0.94491  243.217
 4057.00    0.96381   0.93602   -1.000
 4058.00    0.98722   0.94176   -1.000
 4059.00    1.00502   0.96408   -1.000
 4060.00    1.02380   0.98543   -1.000
 4061.00    1.00545   0.97837   -1.000
 4062.00    0.96294   0.93468   -1.000
 4063.00    0.92777   0.88357   -1.000
 4064.00    0.89870   0.85966   -1.000
 4065.00    0.89682   0.86795   -1.000
 4066.00    0.92558   0.89385   -1.000
 4067.00    0.93900   0.92449   -1.000
 4068.00    0.97755   0.95215   -1.000
 4069.00    1.04765   0.96539   -1.000
 4070.00    1.04322   0.95278   -1.000
 4071.00    0.99533   0.92528   -1.000
 4072.00    0.96800   0.91288   -1.000
 4073.00    0.98517   0.92536   -1.000
 4074.00    1.01395   0.93905   -1.000
 4075.00    0.99497   0.92553   -1.000
 4076.00    0.93778   0.88639   -1.000
 4077.00    0.88970   0.85341   -1.000
 4078.00    0.88794   0.85506   -1.000
 4079.00    0.92111   0.89608   -1.000
 4080.00    0.97879   0.95430   -1.000
 4081.00    1.02759   0.99688   -1.000
 4082.00    1.05553   1.00555   -1.000
 4083.00    1.01979   0.98755   -1.000
 4084.00    0.95933   0.96736  231.093
 4085.00    0.96296   0.96686  237.393
 4086.00    1.00559   0.99165   -1.000
 4087.00    1.06963   1.02950   -1.000
 4088.00    1.12232   1.06136   -1.000
 4089.00    1.14254   1.07384   -1.000
 4090.00    1.11462   1.06611   -1.000
 4091.00    1.06203   1.04920  217.105
 4092.00    1.04335   1.03508  220.139
 4093.00    1.04498   1.02378   -1.000
 4094.00    1.02638   1.00690   -1.000
 4095.00    1.00403   0.97982   -1.000
 4096.00    0.98755   0.94803   -1.000
 4097.00    0.96696   0.92069   -1.000
 4098.00    0.95404   0.89480   -1.000
 4099.00    0.90976   0.85549   -1.000
 4100.00    0.84919   0.80026   -1.000
 4101.00    0.81114   0.75223   -1.000
 4102.00    0.79590   0.73967   -1.000
 4103.00    0.82011   0.77374   -1.000
 4104.00    0.87583   0.83848   -1.000
 4105.00    0.93322   0.90346   -1.000
 4106.00    0.97819   0.94894   -1.000
 4107.00    1.01140   0.97226   -1.000
 4108.00    0.99994   0.97707   -1.000
 4109.00    0.98619   0.97139   -1.000
 4110.00    0.99680   0.96587   -1.000
 4111.00    0.98603   0.96870   -1.000
 4112.00    0.97689   0.98222  249.811
 4113.00    0.99340   1.00307  249.827
 4114.00    1.01916   1.02496  245.220
 4115.00    1.04563   1.04038  240.339
 4116.00    1.05583   1.04220   -1.000
 4117.00    1.05262   1.02822   -1.000
 4118.00    1.03420   1.00589   -1.000
 4119.00    1.00036   0.98828  236.349
 4120.00    1.00145   0.98423   -1.000
 4121.00    1.00752   0.99014   -1.000
 4122.00    0.98540   0.99774   -1.000
 4123.00    0.98293   1.00581   -1.000
 4124.00    1.01323   1.01540  244.129
 4125.00    1.04309   1.02240   -1.000
 4126.00    1.03459   1.02001   -1.000
 4127.00    0.99487   1.00806   -1.000
 4128.00    0.98510   0.99495  238.209
 4129.00    1.02464   0.98561   -1.000
 4130.00    1.04205   0.97298   -1.000
 4131.00    1.00057   0.95100   -1.000
 4132.00    0.95384   0.92776   -1.000
 4133.00    0.92908   0.92044  255.543
 4134.00    0.93751   0.93903  263.742
 4135.00    0.97832   0.97647  268.106
 4136.00    1.02548   1.01698  263.624
 4137.00    1.05349   1.04932  252.272
 4138.00    1.05492   1.07068   -1.000
 4139.00    1.06804   1.07933  236.096
 4140.00    1.08097   1.06744   -1.000
 4141.00    1.04248   1.02775   -1.000
 4142.00    0.96582   0.96917  232.227
 4143.00    0.89882   0.92188   -1.000
 4144.00    0.88862   0.91434   -1.000
 4145.00    0.94209   0.94651  275.594
 4146.00    1.00228   0.99147   -1.000
 4147.00    1.02723   1.01987  263.030
 4148.00    1.01614   1.02341  250.213
 4149.00    0.99454   1.01387   -1.000
 4150.00    0.98167   1.00563   -1.000
 4151.00    0.98819   1.00231   -1.000
 4152.00    1.00011   0.99832  256.775
 4153.00    0.97257   0.98875   -1.000
 4154.00    0.94338   0.97724   -1.000
 4155.00    0.94873   0.97233   -1.000
 4156.00    0.97039   0.97907  259.436
 4157.00    0.98009   0.99632   -1.000
 4158.00    1.03551   1.01954   -1.000
 4159.00    1.27803   1.04264   -1.000
 4160.00    1.28930   1.06095   -1.000
 4161.00    0.84512   1.07411   -1.000
 4162.00    0.77662   1.08391   -1.000
 4163.00    1.08485   1.08957  241.808
 4164.00    1.09678   1.08717  236.667
 4165.00    1.00569   1.07408   -1.000
 4166.00    0.99293   1.05385   -1.000
 4167.00    0.97293   1.03773   -1.000
 4168.00    0.96645   1.03412   -1.000
 4169.00    0.98272   1.03625   -1.000
 4170.00    0.98136   1.02566   -1.000
 4171.00    0.94331   0.99211   -1.000
 4172.00    0.90802   0.95003   -1.000
 4173.00    0.89518   0.92615   -1.000
 4174.00    0.90366   0.93242   -1.000
 4175.00    0.94030   0.95579   -1.000
 4176.00    0.97858   0.97534  277.041
 4177.00    0.98626   0.98600  266.823
 4178.00    0.97852   0.99573   -1.000
 4179.00    0.96400   1.00787   -1.000
 4180.00    0.96915   1.01598   -1.000
 4181.00    0.96921   1.01495   -1.000
 4182.00    0.94548   1.01213   -1.000
 4183.00    0.95983   1.01953   -1.000
 4184.00    1.01220   1.03361   -1.000
 4185.00    1.04132   1.03827  250.568
 4186.00    1.02012   1.02536  245.768
 4187.00    0.97928   1.00628   -1.000
 4188.00    0.96376   0.99957   -1.000
 4189.00    0.98685   1.00777   -1.000
 4190.00    1.01228   1.02096  258.618
 4191.00    1.02126   1.03513   -1.000
 4192.00    1.04773   1.05066  250.551
 4193.00    1.06684   1.06154  248.231
 4194.00    1.03584   1.05523   -1.000
 4195.00    0.99961   1.02615   -1.000
 4196.00    0.96833   0.98663   -1.000
 4197.00    0.92535   0.95447   -1.000
 4198.00    0.89291   0.93794   -1.000
 4199.00    0.90651   0.93370   -1.000
 4200.00    0.94563   0.93611  271.608
 4201.00    0.94380   0.94217  270.365
 4202.00    0.92617   0.95166   -1.000
 4203.00    0.94117   0.96866   -1.000
 4204.00    0.96535   0.99449   -1.000
 4205.00    0.99119   1.02308   -1.000
 4206.00    1.01351   1.04935   -1.000
 4207.00    1.02965   1.07070   -1.000
 4208.00    1.05471   1.08204   -1.000
 4209.00    1.07387   1.08230  242.318
 4210.00    1.06371   1.07899   -1.000
 4211.00    1.04877   1.08008   -1.000
 4212.00    1.04902   1.08191   -1.000
 4213.00    1.02692   1.06958   -1.000
 4214.00    0.99745   1.03974   -1.000
 4215.00    0.98760   1.01132   -1.000
 4216.00    0.97416   1.00696   -1.000
 4217.00    1.00582   1.03492   -1.000
 4218.00    1.06650   1.07878   -1.000
 4219.00    1.08595   1.11540   -1.000
 4220.00    1.09616   1.13271   -1.000
 4221.00    1.12842   1.12634  226.073
 4222.00    1.10926   1.09237   -1.000
 4223.00    1.04168   1.02947  221.459
 4224.00    0.96780   0.94373   -1.000
 4225.00    0.87575   0.85531   -1.000
 4226.00    0.79997   0.79843  259.617
 4227.00    0.76991   0.80621   -1.000
 4228.00    0.82569   0.88009   -1.000
 4229.00    0.95389   0.98038   -1.000
 4230.00    1.02822   1.05537   -1.000
 4231.00    1.05701   1.08299   -1.000
 4232.00    1.05608   1.07528   -1.000
 4233.00    1.03298   1.05254   -1.000
 4234.00    1.04994   1.02796   -1.000
 4235.00    1.03725   1.00893   -1.000
 4236.00    1.01021   0.99831  241.979
 4237.00    0.99184   0.99810  245.779
 4238.00    0.98227   1.01019   -1.000
 4239.00    0.99449   1.03151   -1.000
 4240.00    1.02100   1.05556   -1.000
 4241.00    1.05524   1.07761   -1.000
 4242.00    1.08035   1.09651   -1.000
 4243.00    1.10078   1.11380   -1.000
 4244.00    1.11920   1.12834  233.649
 4245.00    1.12299   1.12927  231.294
 4246.00    1.11278   1.10543  226.798
 4247.00    1.05993   1.06311  225.242
 4248.00    0.99600   1.02126   -1.000
 4249.00    0.97990   0.99647   -1.000
 4250.00    0.97956   0.99533   -1.000
 4251.00    0.98129   1.01254   -1.000
 4252.00    0.99335   1.03070   -1.000
 4253.00    1.02087   1.03407   -1.000
 4254.00    1.01492   1.02705  243.783
 4255.00    0.99201   1.02950   -1.000
 4256.00    1.02851   1.04932   -1.000
 4257.00    1.07465   1.06472  246.987
 4258.00    1.08560   1.04966   -1.000
 4259.00    1.04710   1.00999   -1.000
 4260.00    0.98533   0.98010  237.387
 4261.00    0.96006   0.99044   -1.000
 4262.00    1.00236   1.03972   -1.000
 4263.00    1.05692   1.10016   -1.000
 4264.00    1.09947   1.14289   -1.000
 4265.00    1.13956   1.15680   -1.000
 4266.00    1.14886   1.14770  223.104
 4267.00    1.10057   1.12283   -1.000
 4268.00    1.06862   1.08365   -1.000
 4269.00    1.04289   1.03126  226.955
 4270.00    0.97635   0.97180  234.358
 4271.00    0.92577   0.92033  242.284
 4272.00    0.89042   0.89350  254.564
 4273.00    0.87477   0.89769   -1.000
 4274.00    0.87998   0.92623   -1.000
 4275.00    0.90932   0.97089   -1.000
 4276.00    0.95793   1.02656   -1.000
 4277.00    1.04881   1.07824   -1.000
 4278.00    1.09022   1.10209   -1.000
 4279.00    1.05424   1.09148   -1.000
 4280.00    1.01515   1.06539   -1.000
 4281.00    1.00473   1.05032   -1.000
 4282.00    0.99638   1.05369   -1.000
 4283.00    1.00501   1.05917   -1.000
 4284.00    1.01808   1.05251   -1.000
 4285.00    0.99700   1.03495   -1.000
 4286.00    0.98945   1.01442   -1.000
 4287.00    0.97474   0.99276   -1.000
 4288.00    0.94572   0.96359   -1.000
 4289.00    0.89567   0.92970   -1.000
 4290.00    0.84047   0.91204   -1.000
 4291.00    0.86141   0.92738   -1.000
 4292.00    0.93018   0.96586   -1.000
 4293.00    0.98653   0.99859   -1.000
 4294.00    1.00576   1.00621  265.400
 4295.00    0.98484   0.99152  253.493
 4296.00    0.93391   0.96220   -1.000
 4297.00    0.89586   0.91808   -1.000
 4298.00    0.85921   0.86196  260.387
 4299.00    0.80014   0.80865   -1.000
 4300.00    0.73561   0.77594   -1.000
 4301.00    0.72788   0.76932   -1.000
 4302.00    0.73988   0.78005   -1.000
 4303.00    0.76741   0.79568   -1.000
 4304.00    0.77166   0.80718   -1.000
 4305.00    0.77887   0.80671   -1.000
 4306.00    0.77883   0.78910   -1.000
 4307.00    0.75339   0.76044  305.243
 4308.00    0.72651   0.73831   -1.000
 4309.00    0.71755   0.74030   -1.000
 4310.00    0.71821   0.77025   -1.000
 4311.00    0.76569   0.81799   -1.000
 4312.00    0.80805   0.87203   -1.000
 4313.00    0.84552   0.93225   -1.000
 4314.00    0.92212   1.00621   -1.000
 4315.00    1.02087   1.09300   -1.000
 4316.00    0.76609   1.17788   -1.000
 4317.00    0.50075   1.23837   -1.000
 4318.00    1.02292   1.26115   -1.000
 4319.00    1.24086   1.25198  211.105
 4320.00    1.18827   1.22380   -1.000
 4321.00    1.17788   1.17976  208.571
 4322.00    1.13121   1.11581  212.558
 4323.00    1.03389   1.03442  218.414
 4324.00    0.95484   0.95625  227.278
 4325.00    0.89330   0.91756   -1.000
 4326.00    0.88713   0.94423   -1.000
 4327.00    0.95477   1.02501   -1.000
 4328.00    1.06012   1.11629   -1.000
 4329.00    1.14490   1.17648   -1.000
 4330.00    1.18592   1.19790   -1.000
 4331.00    1.18604   1.20086   -1.000
 4332.00    1.17032   1.20624   -1.000
 4333.00    1.15938   1.21738   -1.000
 4334.00    1.19293   1.22200   -1.000
 4335.00    1.21772   1.20313  211.632
 4336.00    1.19017   1.14834   -1.000
 4337.00    1.08810   1.05973   -1.000
 4338.00    0.99239   0.95932   -1.000
 4339.00    0.90146   0.88172   -1.000
 4340.00    0.84721   0.85344  259.530
 4341.00    0.88349   0.88176  282.603
 4342.00    0.98103   0.95192   -1.000
 4343.00    1.06868   1.03188   -1.000
 4344.00    1.09465   1.09573  267.940
 4345.00    1.10248   1.13908   -1.000
 4346.00    1.13079   1.17002   -1.000
 4347.00    1.15256   1.19633   -1.000
 4348.00    1.16654   1.21516   -1.000
 4349.00    1.19320   1.20998   -1.000
 4350.00    1.16870   1.16952  215.818
 4351.00    1.10429   1.11043  213.851
 4352.00    1.04986   1.07059   -1.000
 4353.00    1.02560   1.07630   -1.000
 4354.00    1.04489   1.11750   -1.000
 4355.00    1.09675   1.16324   -1.000
 4356.00    1.14690   1.19283   -1.000
 4357.00    1.17878   1.20246   -1.000
 4358.00    1.17305   1.19692   -1.000
 4359.00    1.14276   1.19002   -1.000
 4360.00    1.16438   1.19781   -1.000
 4361.00    1.19690   1.22138   -1.000
 4362.00    1.20279   1.24841   -1.000
 4363.00    1.22163   1.26936   -1.000
 4364.00    1.22508   1.28172   -1.000
 4365.00    1.23917   1.28067   -1.000
 4366.00    1.25387   1.25949  206.881
 4367.00    1.18395   1.22480   -1.000
 4368.00    1.13819   1.19612   -1.000
 4369.00    1.16422   1.18336   -1.000
 4370.00    1.19196   1.17969  220.746
 4371.00    1.17443   1.17263  221.158
 4372.00    1.13769   1.15296   -1.000
 4373.00    1.11469   1.11958  218.242
 4374.00    1.08275   1.08529  219.003
 4375.00    1.05947   1.07376   -1.000
 4376.00    1.07335   1.09757   -1.000
 4377.00    1.12175   1.14285   -1.000
 4378.00    1.17534   1.18003  234.872
 4379.00    1.17187   1.18858   -1.000
 4380.00    1.15007   1.16284   -1.000
 4381.00    1.12757   1.10125   -1.000
 4382.00    1.07117   1.01124   -1.000
 4383.00    0.95943   0.92651   -1.000
 4384.00    0.86343   0.89295   -1.000
 4385.00    0.89677   0.92890   -1.000
 4386.00    1.00080   1.00491  285.968
 4387.00    1.07526   1.06956  276.110
 4388.00    1.11528   1.09745   -1.000
 4389.00    1.11497   1.09986   -1.000
 4390.00    1.10429   1.09995  227.592
 4391.00    1.09568   1.10983   -1.000
 4392.00    1.10168   1.12569   -1.000
 4393.00    1.14768   1.13627  229.538
 4394.00    1.15601   1.13895   -1.000
 4395.00    1.12227   1.14754   -1.000
 4396.00    1.13201   1.17223   -1.000
 4397.00    1.18012   1.19948   -1.000
 4398.00    1.22981   1.20551   -1.000
 4399.00    1.18081   1.18486  213.986
 4400.00    1.12601   1.15839   -1.000
 4401.00    1.10473   1.14446   -1.000
 4402.00    1.14377   1.13490  224.142
 4403.00    1.15438   1.11080   -1.000
 4404.00    1.08042   1.07273  223.677
 4405.00    1.02310   1.04700   -1.000
 4406.00    1.02964   1.05329   -1.000
 4407.00    1.07631   1.08092  243.915
 4408.00    1.09721   1.11381   -1.000
 4409.00    1.12911   1.15370   -1.000
 4410.00    1.17402   1.20419   -1.000
 4411.00    1.22978   1.25037   -1.000
 4412.00    1.24663   1.26645   -1.000
 4413.00    1.25080   1.24209  209.357
 4414.00    1.22387   1.19222   -1.000
 4415.00    1.14609   1.14734  204.608
 4416.00    1.09224   1.13813   -1.000
 4417.00    1.14272   1.17017   -1.000
 4418.00    1.21914   1.22109  228.243
 4419.00    1.24486   1.26258   -1.000
 4420.00    1.23705   1.27654   -1.000
 4421.00    1.23339   1.26222   -1.000
 4422.00    1.21386   1.23753   -1.000
 4423.00    1.21206   1.22313  207.197
 4424.00    1.18852   1.22359   -1.000
 4425.00    1.17574   1.22971   -1.000
 4426.00    1.18369   1.23379   -1.000
 4427.00    1.18552   1.23677   -1.000
 4428.00    1.21032   1.23916   -1.000
 4429.00    1.23589   1.23864  213.587
 4430.00    1.21645   1.23627   -1.000
 4431.00    1.19981   1.23573   -1.000
 4432.00    1.19685   1.23255   -1.000
 4433.00    1.20830   1.21458  213.725
 4434.00    1.16314   1.18393   -1.000
 4435.00    1.11865   1.16529   -1.000
 4436.00    1.12969   1.18373   -1.000
 4437.00    1.18284   1.23648   -1.000
 4438.00    1.24145   1.29174   -1.000
 4439.00    1.25623   1.31686   -1.000
 4440.00    1.27157   1.30037   -1.000
 4441.00    1.25790   1.25708  198.437
 4442.00    1.21533   1.21684  200.541
 4443.00    1.17203   1.20591   -1.000
 4444.00    1.15375   1.23091   -1.000
 4445.00    1.18813   1.27561   -1.000
 4446.00    1.25047   1.31420   -1.000
 4447.00    1.26987   1.33193   -1.000
 4448.00    1.28620   1.33384   -1.000
 4449.00    1.31165   1.33074   -1.000
 4450.00    1.30157   1.32501   -1.000
 4451.00    1.28031   1.31424   -1.000
 4452.00    1.28002   1.29489   -1.000
 4453.00    1.26640   1.26121  207.292
 4454.00    1.21219   1.21526  206.529
 4455.00    1.14523   1.17592   -1.000
 4456.00    1.13406   1.16104   -1.000
 4457.00    1.16276   1.16681  227.268
 4458.00    1.16462   1.17620  228.827
 4459.00    1.15244   1.17815   -1.000
 4460.00    1.14027   1.17528   -1.000
 4461.00    1.14239   1.17780   -1.000
 4462.00    1.17191   1.19436   -1.000
 4463.00    1.22515   1.22488  226.415
 4464.00    1.25507   1.25717  226.262
 4465.00    1.24196   1.27701   -1.000
 4466.00    1.23391   1.28043   -1.000
 4467.00    1.24971   1.27251   -1.000
 4468.00    1.25975   1.26105  209.014
 4469.00    1.22595   1.25507   -1.000
 4470.00    1.22676   1.26436   -1.000
 4471.00    1.26999   1.29269   -1.000
 4472.00    1.31160   1.33120   -1.000
 4473.00    1.34947   1.36580   -1.000
 4474.00    1.32728   1.38847   -1.000
 4475.00    1.33717   1.40163   -1.000
 4476.00    1.36695   1.41250   -1.000
 4477.00    1.38017   1.41814   -1.000
 4478.00    1.37879   1.40380   -1.000
 4479.00    1.31608   1.36237   -1.000
 4480.00    1.24870   1.30853   -1.000
 4481.00    1.20547   1.27140   -1.000
 4482.00    1.21614   1.27218   -1.000
 4483.00    1.26379   1.30997   -1.000
 4484.00    1.32197   1.36402   -1.000
 4485.00    1.37362   1.40745   -1.000
 4486.00    1.37870   1.42205   -1.000
 4487.00    1.37858   1.40436   -1.000
 4488.00    1.33576   1.36656   -1.000
 4489.00    1.29050   1.33186   -1.000
 4490.00    1.24969   1.32087   -1.000
 4491.00    1.27466   1.33474   -1.000
 4492.00    1.30715   1.35242   -1.000
 4493.00    1.33252   1.35038   -1.000
 4494.00    1.32227   1.32805  198.945
 4495.00    1.30351   1.30803  197.755
 4496.00    1.29538   1.31075   -1.000
 4497.00    1.26934   1.33611   -1.000
 4498.00    1.32207   1.36705   -1.000
 4499.00    1.36218   1.38641   -1.000
 4500.00    1.36274   1.39047   -1.000
 4501.00    1.34157   1.39172   -1.000
 4502.00    1.33530   1.40631   -1.000
 4503.00    1.35595   1.43562   -1.000
 4504.00    1.40049   1.46645   -1.000
 4505.00    1.39976   1.48424   -1.000
 4506.00    1.40615   1.48373   -1.000
 4507.00    1.40767   1.47198   -1.000
 4508.00    1.41031   1.46150   -1.000
 4509.00    1.43774   1.45878   -1.000
 4510.00    1.44673   1.46014  188.790
 4511.00    1.43326   1.45637   -1.000
 4512.00    1.41719   1.44119   -1.000
 4513.00    1.39619   1.41906   -1.000
 4514.00    1.36462   1.40027   -1.000
 4515.00    1.36051   1.39018   -1.000
 4516.00    1.33965   1.38699   -1.000
 4517.00    1.32251   1.38529   -1.000
 4518.00    1.31081   1.38503   -1.000
 4519.00    1.30105   1.39257   -1.000
 4520.00    1.34545   1.40672   -1.000
 4521.00    1.38576   1.41565   -1.000
 4522.00    1.36672   1.40978   -1.000
 4523.00    1.34928   1.39036   -1.000
 4524.00    1.31911   1.36492   -1.000
 4525.00    1.27984   1.33643   -1.000
 4526.00    1.25281   1.30241   -1.000
 4527.00    1.21285   1.26407   -1.000
 4528.00    1.18580   1.23198   -1.000
 4529.00    1.18792   1.21988   -1.000
 4530.00    1.20628   1.23064   -1.000
 4531.00    1.22979   1.25309   -1.000
 4532.00    1.25633   1.26941   -1.000
 4533.00    1.25564   1.26740  213.629
 4534.00    1.22139   1.25338   -1.000
 4535.00    1.19458   1.25044   -1.000
 4536.00    1.22042   1.27913   -1.000
 4537.00    1.29493   1.33286   -1.000
 4538.00    1.35868   1.38166   -1.000
 4539.00    1.38449   1.40265   -1.000
 4540.00    1.37842   1.39800   -1.000
 4541.00    1.38791   1.38713  190.469
 4542.00    1.38843   1.38409  193.398
 4543.00    1.36017   1.38609   -1.000
 4544.00    1.34212   1.38326   -1.000
 4545.00    1.31520   1.37309   -1.000
 4546.00    1.33402   1.36142   -1.000
 4547.00    1.24613   1.35079   -1.000
 4548.00    0.52451   1.33763   -1.000
 4549.00   -0.27852   1.32408    0.000
 4550.00   -0.15328   1.31994    0.000
 4551.00    0.36058   1.32848   -1.000
 4552.00    0.63508   1.33851   -1.000
 4553.00    0.42125   1.33755   -1.000
 4554.00    1.29445   1.32931   -1.000
 4555.00    1.30678   1.32931   -1.000
 4556.00    1.33504   1.34945   -1.000
 4557.00    1.38435   1.38670  208.091
 4558.00    1.38970   1.42449   -1.000
 4559.00    1.42415   1.44969   -1.000
 4560.00    1.47876   1.46102  188.931
 4561.00    1.46010   1.46035  186.954
 4562.00    1.43521   1.44682  187.891
 4563.00    1.39676   1.42086   -1.000
 4564.00    1.33062   1.39197   -1.000
 4565.00    1.31008   1.37724   -1.000
 4566.00    1.34601   1.38730   -1.000
 4567.00    1.39876   1.41603   -1.000
 4568.00    1.45282   1.44376  196.768
 4569.00    1.42534   1.45240   -1.000
 4570.00    1.40233   1.43919   -1.000
 4571.00    1.39065   1.41699   -1.000
 4572.00    1.35351   1.40459   -1.000
 4573.00    1.35092   1.41257   -1.000
 4574.00    1.44405   1.43354  197.959
 4575.00    1.45292   1.45066  195.039
 4576.00    1.41962   1.45496   -1.000
 4577.00    1.39073   1.44654   -1.000
 4578.00    1.37313   1.42626   -1.000
 4579.00    1.36695   1.39616   -1.000
 4580.00    1.33782   1.36474   -1.000
 4581.00    1.31925   1.34452   -1.000
 4582.00    1.34659   1.34157  200.411
 4583.00    1.38701   1.34944   -1.000
 4584.00    1.37348   1.35670   -1.000
 4585.00    1.33666   1.35985   -1.000
 4586.00    1.33454   1.36668   -1.000
 4587.00    1.37414   1.38636  199.266
 4588.00    1.37785   1.41557   -1.000
 4589.00    1.40817   1.43867   -1.000
 4590.00    1.43390   1.44323  190.981
 4591.00    1.43463   1.42899  187.884
 4592.00    1.37614   1.40545   -1.000
 4593.00    1.34718   1.38589   -1.000
 4594.00    1.34988   1.37752   -1.000
 4595.00    1.35631   1.37684   -1.000
 4596.00    1.38341   1.37941  197.376
 4597.00    1.38685   1.38529  195.643
 4598.00    1.37553   1.39235   -1.000
 4599.00    1.37355   1.39573   -1.000
 4600.00    1.37761   1.39405   -1.000
 4601.00    1.36202   1.39090   -1.000
 4602.00    1.35622   1.39078   -1.000
 4603.00    1.38268   1.39395  196.855
 4604.00    1.39221   1.39755  196.729
 4605.00    1.39610   1.40279  194.491
 4606.00    1.38707   1.41565   -1.000
 4607.00    1.37973   1.43946   -1.000
 4608.00    1.42902   1.46923   -1.000
 4609.00    1.48817   1.49397  189.824
 4610.00    1.51533   1.50343  185.918
 4611.00    1.48580   1.49559  182.332
 4612.00    1.44004   1.47914   -1.000
 4613.00    1.43969   1.46606   -1.000
 4614.00    1.43396   1.46361   -1.000
 4615.00    1.45133   1.47072   -1.000
 4616.00    1.47311   1.47893  187.274
 4617.00    1.44322   1.48147   -1.000
 4618.00    1.42747   1.47875   -1.000
 4619.00    1.43573   1.47597   -1.000
 4620.00    1.44647   1.47872   -1.000
 4621.00    1.47469   1.48763  186.737
 4622.00    1.48630   1.49678  186.125
 4623.00    1.46350   1.49921   -1.000
 4624.00    1.48934   1.49473  181.652
 4625.00    1.48819   1.48858  181.850
 4626.00    1.45598   1.48416   -1.000
 4627.00    1.45988   1.48239   -1.000
 4628.00    1.45961   1.48303   -1.000
 4629.00    1.44712   1.48475   -1.000
 4630.00    1.45940   1.48723   -1.000
 4631.00    1.48514   1.48982  185.949
 4632.00    1.45439   1.48896   -1.000
 4633.00    1.43987   1.48130   -1.000
 4634.00    1.43577   1.46904   -1.000
 4635.00    1.43255   1.45702   -1.000
 4636.00    1.43331   1.44563  187.208
 4637.00    1.41392   1.43292   -1.000
 4638.00    1.40645   1.42109  188.839
 4639.00    1.42159   1.41545  190.667
 4640.00    1.40262   1.42090   -1.000
 4641.00    1.41905   1.43740   -1.000
 4642.00    1.44161   1.45611  192.400
 4643.00    1.46845   1.46377  188.675
 4644.00    1.47234   1.45236   -1.000
 4645.00    1.44481   1.42382   -1.000
 4646.00    1.40128   1.38829  184.105
 4647.00    1.36706   1.36243  188.034
 4648.00    1.33586   1.36045   -1.000
 4649.00    1.36386   1.38244   -1.000
 4650.00    1.43262   1.41650   -1.000
 4651.00    1.45444   1.44635  193.618
 4652.00    1.45135   1.45967  189.419
 4653.00    1.44552   1.45440  187.375
 4654.00    1.43819   1.43720  187.146
 4655.00    1.41601   1.42041  187.270
 4656.00    1.38306   1.41871   -1.000
 4657.00    1.37523   1.44024   -1.000
 4658.00    1.40716   1.47972   -1.000
 4659.00    1.48555   1.51963   -1.000
 4660.00    1.55203   1.54076  186.077
 4661.00    1.52799   1.53542  179.468
 4662.00    1.46084   1.51140   -1.000
 4663.00    1.44270   1.48175   -1.000
 4664.00    1.47382   1.45211   -1.000
 4665.00    1.43247   1.41770  183.914
 4666.00    1.34275   1.37476   -1.000
 4667.00    1.29576   1.33412   -1.000
 4668.00    1.26923   1.31636   -1.000
 4669.00    1.30736   1.33358   -1.000
 4670.00    1.39800   1.37495   -1.000
 4671.00    1.45247   1.41602   -1.000
 4672.00    1.45575   1.44124  198.505
 4673.00    1.43946   1.45153  190.646
 4674.00    1.45245   1.45759  186.400
 4675.00    1.47464   1.46800  185.728
 4676.00    1.46331   1.47968   -1.000
 4677.00    1.49032   1.48075  185.230
 4678.00    1.52325   1.46470   -1.000
 4679.00    1.46926   1.43772   -1.000
 4680.00    1.40727   1.41212  182.193
 4681.00    1.39765   1.39894  186.257
 4682.00    1.38973   1.40273  189.808
 4683.00    1.41161   1.41943  192.676
 4684.00    1.45627   1.43884   -1.000
 4685.00    1.48166   1.45137   -1.000
 4686.00    1.48766   1.45445   -1.000
 4687.00    1.47163   1.45128   -1.000
 4688.00    1.44726   1.44632  184.996
 4689.00    1.44445   1.44214  185.208
 4690.00    1.45690   1.43912   -1.000
 4691.00    1.44989   1.43744  186.090
 4692.00    1.46602   1.43998   -1.000
 4693.00    1.47970   1.45045   -1.000
 4694.00    1.50300   1.46716   -1.000
 4695.00    1.51387   1.48223   -1.000
 4696.00    1.51064   1.48647   -1.000
 4697.00    1.50648   1.47399   -1.000
 4698.00    1.42687   1.44744   -1.000
 4699.00    1.40486   1.41890  178.265
 4700.00    1.39910   1.39862  183.701
 4701.00    1.40231   1.38535   -1.000
 4702.00    1.38582   1.37508  190.053
 4703.00    1.39014   1.37182   -1.000
 4704.00    1.40043   1.38029   -1.000
 4705.00    1.43705   1.39517   -1.000
 4706.00    1.42087   1.40379   -1.000
 4707.00    1.42918   1.39937   -1.000
 4708.00    1.38794   1.38888  188.259
 4709.00    1.37062   1.38601  191.376
 4710.00    1.39654   1.39824  194.956
 4711.00    1.43902   1.42045   -1.000
 4712.00    1.49421   1.43896   -1.000
 4713.00    1.52092   1.44273   -1.000
 4714.00    1.48585   1.43577   -1.000
 4715.00    1.44273   1.43497  182.688
 4716.00    1.45315   1.45060  184.908
 4717.00    1.49073   1.47810  187.945
 4718.00    1.50790   1.50640  187.144
 4719.00    1.50311   1.52677   -1.000
 4720.00    1.53107   1.53601  180.120
 4721.00    1.53768   1.53493  179.211
 4722.00    1.48859   1.52836   -1.000
 4723.00    1.47868   1.52457   -1.000
 4724.00    1.52565   1.52682  179.927
 4725.00    1.54768   1.52538   -1.000
 4726.00    1.50797   1.50676  179.492
 4727.00    1.46159   1.46888  177.841
 4728.00    1.43722   1.42598  178.852
 4729.00    1.42259   1.39872   -1.000
 4730.00    1.39201   1.39596  190.526
 4731.00    1.39029   1.41084   -1.000
 4732.00    1.43682   1.43245  192.687
 4733.00    1.42946   1.45330   -1.000
 4734.00    1.45173   1.46792   -1.000
 4735.00    1.47687   1.47265  186.899
 4736.00    1.47798   1.47002  185.400
 4737.00    1.50131   1.46805   -1.000
 4738.00    1.49826   1.47326   -1.000
 4739.00    1.48567   1.48384  185.688
 4740.00    1.48075   1.49145  185.429
 4741.00    1.48903   1.49279  183.243
 4742.00    1.50029   1.49375  183.610
 4743.00    1.49896   1.49805  184.613
 4744.00    1.50671   1.50351  184.558
 4745.00    1.50114   1.51019  182.904
 4746.00    1.50143   1.51963   -1.000
 4747.00    1.52795   1.53062  181.685
 4748.00    1.53213   1.54070  181.613
 4749.00    1.55359   1.54779  180.102
 4750.00    1.54113   1.55085  178.454
 4751.00    1.54255   1.54869  178.251
 4752.00    1.51588   1.53942   -1.000
 4753.00    1.49863   1.52382   -1.000
 4754.00    1.47155   1.50684   -1.000
 4755.00    1.49424   1.49487  182.296
 4756.00    1.45932   1.49209   -1.000
 4757.00    1.47267   1.49831   -1.000
 4758.00    1.46913   1.50982   -1.000
 4759.00    1.47406   1.52138   -1.000
 4760.00    1.47263   1.52585   -1.000
 4761.00    1.44883   1.51606   -1.000
 4762.00    1.46773   1.49189   -1.000
 4763.00    1.42001   1.46242   -1.000
 4764.00    1.39578   1.43857   -1.000
 4765.00    1.38693   1.42499   -1.000
 4766.00    1.39260   1.42196   -1.000
 4767.00    1.41606   1.43266   -1.000
 4768.00    1.43815   1.45908   -1.000
 4769.00    1.48482   1.49318  193.040
 4770.00    1.50231   1.51933   -1.000
 4771.00    1.49588   1.52817   -1.000
 4772.00    1.48289   1.52663   -1.000
 4773.00    1.46667   1.53011   -1.000
 4774.00    1.50440   1.54523   -1.000
 4775.00    1.52613   1.56469   -1.000
 4776.00    1.52301   1.57784   -1.000
 4777.00    1.54534   1.58201   -1.000
 4778.00    1.54158   1.58022   -1.000
 4779.00    1.51990   1.57377   -1.000
 4780.00    1.51725   1.56322   -1.000
 4781.00    1.51227   1.55069   -1.000
 4782.00    1.48112   1.53767   -1.000
 4783.00    1.47284   1.52508   -1.000
 4784.00    1.47579   1.51485   -1.000
 4785.00    1.45619   1.50728   -1.000
 4786.00    1.47147   1.49963   -1.000
 4787.00    1.46621   1.49136   -1.000
 4788.00    1.44219   1.48690   -1.000
 4789.00    1.45579   1.48895   -1.000
 4790.00    1.48606   1.49659  191.436
 4791.00    1.46893   1.51072   -1.000
 4792.00    1.47888   1.53311   -1.000
 4793.00    1.49803   1.56290   -1.000
 4794.00    1.56373   1.59442   -1.000
 4795.00    1.56421   1.61744   -1.000
 4796.00    1.57365   1.62272   -1.000
 4797.00    1.54418   1.60771   -1.000
 4798.00    1.51082   1.57830   -1.000
 4799.00    1.50663   1.54881   -1.000
 4800.00    1.47995   1.53578   -1.000
 4801.00    1.49938   1.54577   -1.000
 4802.00    1.53629   1.57019   -1.000
 4803.00    1.56418   1.59126   -1.000
 4804.00    1.55658   1.59448   -1.000
 4805.00    1.52731   1.58005   -1.000
 4806.00    1.51290   1.55986   -1.000
 4807.00    1.54086   1.54499  182.208
 4808.00    1.51487   1.53968   -1.000
 4809.00    1.50531   1.54368   -1.000
 4810.00    1.52459   1.55434   -1.000
 4811.00    1.54492   1.56610   -1.000
 4812.00    1.56746   1.57428  184.283
 4813.00    1.53228   1.57830   -1.000
 4814.00    1.53120   1.58173   -1.000
 4815.00    1.54518   1.58903   -1.000
 4816.00    1.55032   1.60159   -1.000
 4817.00    1.56646   1.61653   -1.000
 4818.00    1.59037   1.62922   -1.000
 4819.00    1.59201   1.63641   -1.000
 4820.00    1.57805   1.63660   -1.000
 4821.00    1.53715   1.62653   -1.000
 4822.00    1.51907   1.60226   -1.000
 4823.00    1.51399   1.56943   -1.000
 4824.00    1.46923   1.54457   -1.000
 4825.00    1.47885   1.54110   -1.000
 4826.00    1.52141   1.55603   -1.000
 4827.00    1.52246   1.57204   -1.000
 4828.00    1.53533   1.57555   -1.000
 4829.00    1.51588   1.56777   -1.000
 4830.00    1.49558   1.55602   -1.000
 4831.00    1.50212   1.54413   -1.000
 4832.00    1.49200   1.53490   -1.000
 4833.00    1.50309   1.53404   -1.000
 4834.00    1.51688   1.54457   -1.000
 4835.00    1.56859   1.56098  185.358
 4836.00    1.58792   1.57308  182.258
 4837.00    1.52368   1.57463   -1.000
 4838.00    1.49295   1.56580   -1.000
 4839.00    1.49967   1.54979   -1.000
 4840.00    1.47527   1.53291   -1.000
 4841.00    1.47147   1.52232   -1.000
 4842.00    1.50634   1.51965  186.639
 4843.00    1.55765   1.52270   -1.000
 4844.00    1.51659   1.53241   -1.000
 4845.00    1.52634   1.54946   -1.000
 4846.00    1.54382   1.56568   -1.000
 4847.00    1.55851   1.56863  181.694
 4848.00    1.53159   1.55676   -1.000
 4849.00    1.52279   1.54379   -1.000
 4850.00    1.52838   1.54250  182.250
 4851.00    1.51872   1.54972   -1.000
 4852.00    1.52031   1.55312   -1.000
 4853.00    1.53629   1.54264  181.799
 4854.00    1.51409   1.51475  181.593
 4855.00    1.46367   1.47707  182.741
 4856.00    1.41003   1.44602   -1.000
 4857.00    1.39467   1.42870   -1.000
 4858.00    1.42042   1.40844  195.293
 4859.00    1.38475   1.35671   -1.000
 4860.00    1.24906   1.26741   -1.000
 4861.00    1.17238   1.17804  199.272
 4862.00    1.22807   1.14107   -1.000
 4863.00    1.37698   1.17714   -1.000
 4864.00    1.46356   1.26039   -1.000
 4865.00    1.39855   1.34582   -1.000
 4866.00    1.36764   1.40952   -1.000
 4867.00    1.41700   1.45052   -1.000
 4868.00    1.46412   1.47218  195.184
 4869.00    1.47267   1.47340  191.326
 4870.00    1.45374   1.45210  189.743
 4871.00    1.39138   1.41622   -1.000
 4872.00    1.36765   1.38894   -1.000
 4873.00    1.38854   1.39274  196.650
 4874.00    1.40958   1.42538   -1.000
 4875.00    1.44808   1.46278   -1.000
 4876.00    1.48194   1.48848  193.059
 4877.00    1.49141   1.50603   -1.000
 4878.00    1.49182   1.52557   -1.000
 4879.00    1.49595   1.54790   -1.000
 4880.00    1.49737   1.56267   -1.000
 4881.00    1.50065   1.56170   -1.000
 4882.00    1.47333   1.54850   -1.000
 4883.00    1.46909   1.53316   -1.000
 4884.00    1.52113   1.51890  187.199
 4885.00    1.49829   1.50090  188.134
 4886.00    1.47434   1.48087  187.501
 4887.00    1.46323   1.46835  188.685
 4888.00    1.44502   1.46398   -1.000
 4889.00    1.43780   1.45598   -1.000
 4890.00    1.40532   1.43753   -1.000
 4891.00    1.34587   1.42177   -1.000
 4892.00    1.41609   1.43432   -1.000
 4893.00    1.46561   1.48605   -1.000
 4894.00    1.54922   1.55926  196.576
 4895.00    1.59458   1.62469   -1.000
 4896.00    1.62706   1.66392   -1.000
 4897.00    1.61126   1.67527   -1.000
 4898.00    1.62350   1.66587   -1.000
 4899.00    1.62030   1.64474   -1.000
 4900.00    1.56518   1.62179   -1.000
 4901.00    1.55424   1.60456   -1.000
 4902.00    1.52536   1.59271   -1.000
 4903.00    1.52434   1.58320   -1.000
 4904.00    1.50906   1.58062   -1.000
 4905.00    1.53574   1.59266   -1.000
 4906.00    1.55113   1.61407   -1.000
 4907.00    1.59985   1.62478   -1.000
 4908.00    1.56358   1.61008   -1.000
 4909.00    1.51301   1.57486   -1.000
 4910.00    1.50194   1.53755   -1.000
 4911.00    1.47327   1.51772   -1.000
 4912.00    1.48017   1.52357   -1.000
 4913.00    1.50228   1.54822   -1.000
 4914.00    1.54716   1.57804   -1.000
 4915.00    1.56729   1.60110   -1.000
 4916.00    1.58140   1.60592   -1.000
 4917.00    1.56680   1.57951  178.111
 4918.00    1.49539   1.51841   -1.000
 4919.00    1.42928   1.44024  177.727
 4920.00    1.37435   1.37842  184.281
 4921.00    1.36865   1.36093  194.543
 4922.00    1.39938   1.38789  203.590
 4923.00    1.46387   1.43245   -1.000
 4924.00    1.48899   1.46946   -1.000
 4925.00    1.46530   1.49641   -1.000
 4926.00    1.46942   1.52565   -1.000
 4927.00    1.52043   1.56188   -1.000
 4928.00    1.57022   1.59745   -1.000
 4929.00    1.58336   1.62565   -1.000
 4930.00    1.62572   1.64300   -1.000
 4931.00    1.62639   1.64329   -1.000
 4932.00    1.56774   1.62193   -1.000
 4933.00    1.51967   1.58499   -1.000
 4934.00    1.49478   1.55107   -1.000
 4935.00    1.49168   1.53554   -1.000
 4936.00    1.51482   1.53137   -1.000
 4937.00    1.53103   1.51759  187.653
 4938.00    1.44866   1.48950   -1.000
 4939.00    1.42158   1.46913   -1.000
 4940.00    1.46593   1.48169  189.941
 4941.00    1.53835   1.52755  195.069
 4942.00    1.56987   1.58283  193.050
 4943.00    1.57760   1.62244   -1.000
 4944.00    1.59682   1.63741   -1.000
 4945.00    1.62800   1.63466  177.135
 4946.00    1.60174   1.62744   -1.000
 4947.00    1.59919   1.62779   -1.000
 4948.00    1.61209   1.63926   -1.000
 4949.00    1.65552   1.65567  177.416
 4950.00    1.67263   1.66761  175.738
 4951.00    1.63272   1.67032   -1.000
 4952.00    1.62160   1.66494   -1.000
 4953.00    1.62409   1.65425   -1.000
 4954.00    1.60412   1.63697   -1.000
 4955.00    1.58742   1.60376   -1.000
 4956.00    1.52806   1.54626   -1.000
 4957.00    1.44678   1.47831   -1.000
 4958.00    1.41476   1.43955   -1.000
 4959.00    1.46301   1.45923  193.511
 4960.00    1.56646   1.52253   -1.000
 4961.00    1.62548   1.58783   -1.000
 4962.00    1.61858   1.62507  185.202
 4963.00    1.59129   1.63059   -1.000
 4964.00    1.57123   1.61495   -1.000
 4965.00    1.57645   1.58794  178.663
 4966.00    1.54515   1.56005   -1.000
 4967.00    1.51907   1.54216   -1.000
 4968.00    1.49982   1.53716   -1.000
 4969.00    1.50637   1.54086   -1.000
 4970.00    1.54102   1.55127  188.555
 4971.00    1.56558   1.56864  187.985
 4972.00    1.58614   1.59140  186.567
 4973.00    1.58639   1.61448   -1.000
 4974.00    1.60320   1.63066   -1.000
 4975.00    1.59897   1.63520   -1.000
 4976.00    1.59185   1.62743   -1.000
 4977.00    1.60498   1.60889  177.988
 4978.00    1.56300   1.58403   -1.000
 4979.00    1.52662   1.55863   -1.000
 4980.00    1.49492   1.53276   -1.000
 4981.00    1.49505   1.49971  186.691
 4982.00    1.43120   1.45622   -1.000
 4983.00    1.36623   1.41446   -1.000
 4984.00    1.39527   1.39694  198.083
 4985.00    1.42505   1.41503  204.528
 4986.00    1.47099   1.45939  204.392
 4987.00    1.50403   1.51040  200.463
 4988.00    1.54707   1.54892  194.789
 4989.00    1.54644   1.56363   -1.000
 4990.00    1.52774   1.55789   -1.000
 4991.00    1.53659   1.54740  184.176
 4992.00    1.53025   1.54477  186.951
 4993.00    1.56255   1.55055  188.864
 4994.00    1.52726   1.55887   -1.000
 4995.00    1.54085   1.56688   -1.000
 4996.00    1.58353   1.57467  186.420
 4997.00    1.56294   1.57766   -1.000
 4998.00    1.54990   1.56766   -1.000
 4999.00    1.53763   1.54214  184.446
 5000.00    1.50016   1.50948  185.594
 5001.00    1.45632   1.48398   -1.000
 5002.00    1.49237   1.47336   -1.000
 5003.00    1.51628   1.47163   -1.000
 5004.00    1.52299   1.46553   -1.000
 5005.00    1.47670   1.44804   -1.000
 5006.00    1.43570   1.42848  191.304
 5007.00    1.44858   1.42694   -1.000
 5008.00    1.46068   1.45324  199.084
 5009.00    1.53130   1.49201   -1.000
 5010.00    1.50569   1.51498  195.232
 5011.00    1.48072   1.50576   -1.000
 5012.00    1.45833   1.46982  187.251
 5013.00    1.41644   1.42768  189.727
 5014.00    1.42547   1.40049   -1.000
 5015.00    1.42359   1.39757   -1.000
 5016.00    1.43001   1.41171   -1.000
 5017.00    1.46833   1.42781   -1.000
 5018.00    1.46579   1.43867   -1.000
 5019.00    1.45595   1.44837  197.721
 5020.00    1.48679   1.46075   -1.000
 5021.00    1.51184   1.47136   -1.000
 5022.00    1.49663   1.47689   -1.000
 5023.00    1.48761   1.48356  193.097
 5024.00    1.50974   1.49773  193.952
 5025.00    1.49457   1.51436   -1.000
 5026.00    1.50629   1.52177   -1.000
 5027.00    1.51264   1.51785  191.226
 5028.00    1.50704   1.51436  189.939
 5029.00    1.51304   1.52317  190.839
 5030.00    1.55379   1.54491  191.759
 5031.00    1.60728   1.57306   -1.000
 5032.00    1.61022   1.59978  186.437
 5033.00    1.62107   1.61578  183.774
 5034.00    1.62884   1.61057  180.787
 5035.00    1.57137   1.58097  178.696
 5036.00    1.47765   1.54072   -1.000
 5037.00    1.47909   1.50893   -1.000
 5038.00    1.46411   1.48614   -1.000
 5039.00    1.45010   1.45523  195.275
 5040.00    1.37967   1.40977   -1.000
 5041.00    1.32654   1.37139   -1.000
 5042.00    1.38034   1.37317  206.157
 5043.00    1.44932   1.42492   -1.000
 5044.00    1.51541   1.50356  214.795
 5045.00    1.54394   1.57555   -1.000
 5046.00    1.59203   1.61812   -1.000
 5047.00    1.62478   1.62340  183.988
 5048.00    1.59218   1.59612  180.073
 5049.00    1.58766   1.55263   -1.000
 5050.00    0.43669   1.51447   -1.000
 5051.00   -0.12447   1.49673    0.000
 5052.00   -0.08032   1.50290    0.000
 5053.00    1.00683   1.52890   -1.000
 5054.00    1.68281   1.56568   -1.000
 5055.00    1.62871   1.60004   -1.000
 5056.00    1.62781   1.62241  183.891
 5057.00    1.63827   1.63327  180.519
 5058.00    1.64646   1.63884  178.772
 5059.00    1.63084   1.64508  178.177
 5060.00    1.62180   1.65466   -1.000
 5061.00    1.64483   1.66412   -1.000
 5062.00    1.63620   1.66309   -1.000
 5063.00    1.59684   1.64065   -1.000
 5064.00    1.53978   1.59788   -1.000
 5065.00    1.49125   1.55311   -1.000
 5066.00    1.49260   1.52748   -1.000
 5067.00    1.49447   1.52475   -1.000
 5068.00    1.51597   1.53361   -1.000
 5069.00    1.56620   1.54510   -1.000
 5070.00    1.58278   1.55558   -1.000
 5071.00    1.59773   1.56057   -1.000
 5072.00    1.56884   1.55713  187.404
 5073.00    1.54008   1.55067  186.173
 5074.00    1.55130   1.54987  187.613
 5075.00    1.56540   1.55600  189.107
 5076.00    1.56967   1.56181  186.874
 5077.00    1.58073   1.55696   -1.000
 5078.00    1.55947   1.53249   -1.000
 5079.00    1.52481   1.48924   -1.000
 5080.00    1.46569   1.44659   -1.000
 5081.00    1.45154   1.42986   -1.000
 5082.00    1.45795   1.44332   -1.000
 5083.00    1.50661   1.47085   -1.000
 5084.00    1.51607   1.50024   -1.000
 5085.00    1.57016   1.52905   -1.000
 5086.00    1.57601   1.55482   -1.000
 5087.00    1.58795   1.57320  190.093
 5088.00    1.59637   1.58365  186.824
 5089.00    1.57090   1.59077   -1.000
 5090.00    1.61226   1.59916  185.144
 5091.00    1.61128   1.61055  184.235
 5092.00    1.61468   1.62477  182.912
 5093.00    1.62037   1.63861   -1.000
 5094.00    1.63556   1.64432  180.949
 5095.00    1.62505   1.63265  178.897
 5096.00    1.59018   1.60037  177.270
 5097.00    1.54261   1.55505  178.775
 5098.00    1.50731   1.51181  182.448
 5099.00    1.49073   1.48753  186.392
 5100.00    1.51201   1.49360   -1.000
 5101.00    1.53740   1.52556  194.928
 5102.00    1.55585   1.56206  195.686
 5103.00    1.57086   1.58214  191.077
 5104.00    1.55924   1.58117   -1.000
 5105.00    1.55063   1.56753   -1.000
 5106.00    1.53682   1.54854  184.749
 5107.00    1.52687   1.52780  187.142
 5108.00    1.53242   1.50962   -1.000
 5109.00    1.51705   1.49952   -1.000
 5110.00    1.51899   1.50252   -1.000
 5111.00    1.52233   1.52045  194.073
 5112.00    1.52804   1.54844   -1.000
 5113.00    1.57657   1.57655  191.480
 5114.00    1.58582   1.59789  188.783
 5115.00    1.60233   1.61376  186.450
 5116.00    1.63110   1.62827  184.177
 5117.00    1.65019   1.64191  182.491
 5118.00    1.61785   1.65047   -1.000
 5119.00    1.59938   1.64794   -1.000
 5120.00    1.63413   1.63126  178.087
 5121.00    1.59817   1.60252  178.518
 5122.00    1.54365   1.56638   -1.000
 5123.00    1.48703   1.52860   -1.000
 5124.00    1.46349   1.49761   -1.000
 5125.00    1.47304   1.48152  191.232
 5126.00    1.49439   1.48062  196.979
 5127.00    1.48209   1.48684  198.590
 5128.00    1.48693   1.49255  196.969
 5129.00    1.45416   1.49732   -1.000
 5130.00    1.48841   1.50547   -1.000
 5131.00    1.54270   1.51999   -1.000
 5132.00    1.54947   1.53920  194.857
 5133.00    1.56454   1.55862  192.438
 5134.00    1.57927   1.57466  189.181
 5135.00    1.58134   1.58425  187.551
 5136.00    1.58656   1.58196  185.784
 5137.00    1.55253   1.56306  184.138
 5138.00    1.51280   1.53309   -1.000
 5139.00    1.50586   1.50787  186.698
 5140.00    1.50864   1.49774  191.200
 5141.00    1.51406   1.49768   -1.000
 5142.00    1.50085   1.49774  194.780
 5143.00    1.48578   1.49745  193.134
 5144.00    1.48051   1.50289   -1.000
 5145.00    1.53471   1.51104   -1.000
 5146.00    1.54737   1.51140   -1.000
 5147.00    1.50734   1.50412  193.374
 5148.00    1.50178   1.50095  192.538
 5149.00    1.54412   1.50669   -1.000
 5150.00    1.54607   1.51233   -1.000
 5151.00    1.49706   1.50830  192.553
 5152.00    1.49988   1.49738  191.376
 5153.00    1.49531   1.49014  193.534
 5154.00    1.49430   1.49444  197.020
 5155.00    1.52728   1.51322  198.477
 5156.00    1.56045   1.54433   -1.000
 5157.00    1.59819   1.57920   -1.000
 5158.00    1.62583   1.60719   -1.000
 5159.00    1.62678   1.62255  184.319
 5160.00    1.63544   1.62508  180.785
 5161.00    1.64750   1.61628   -1.000
 5162.00    1.62954   1.59781   -1.000
 5163.00    1.61725   1.56947   -1.000
 5164.00    1.58050   1.52545   -1.000
 5165.00    1.48672   1.45555   -1.000
 5166.00    1.37212   1.35832  185.543
 5167.00    1.22198   1.25918   -1.000
 5168.00    1.16934   1.20251   -1.000
 5169.00    1.24399   1.20838   -1.000
 5170.00    1.31750   1.24271   -1.000
 5171.00    1.28745   1.24867   -1.000
 5172.00    1.20430   1.21436  228.357
 5173.00    1.15671   1.19056   -1.000
 5174.00    1.22979   1.22969  237.663
 5175.00    1.35795   1.32763   -1.000
 5176.00    1.47927   1.43453   -1.000
 5177.00    1.52174   1.50806   -1.000
 5178.00    1.54793   1.54203  201.264
 5179.00    1.56653   1.54691   -1.000
 5180.00    1.55043   1.52310   -1.000
 5181.00    1.48378   1.45962   -1.000
 5182.00    1.36348   1.35688  191.715
 5183.00    1.21985   1.24781   -1.000
 5184.00    1.13282   1.18992   -1.000
 5185.00    1.19757   1.22246   -1.000
 5186.00    1.38326   1.32554   -1.000
 5187.00    1.52294   1.43658   -1.000
 5188.00    1.57059   1.51008   -1.000
 5189.00    1.58073   1.54135   -1.000
 5190.00    1.58438   1.54129   -1.000
 5191.00    1.54994   1.51642   -1.000
 5192.00    1.50842   1.47850   -1.000
 5193.00    1.49118   1.45135   -1.000
 5194.00    1.48831   1.45028   -1.000
 5195.00    1.52023   1.46786   -1.000
 5196.00    1.55099   1.49111   -1.000
 5197.00    1.59557   1.51763   -1.000
 5198.00    1.63043   1.54813   -1.000
 5199.00    1.63714   1.57756   -1.000
 5200.00    1.66281   1.59785   -1.000
 5201.00    1.63770   1.60309   -1.000
 5202.00    1.61857   1.59026   -1.000
 5203.00    1.60755   1.55884   -1.000
 5204.00    1.54232   1.51247   -1.000
 5205.00    1.46999   1.46114  188.333
 5206.00    1.43377   1.41852  192.578
 5207.00    1.42763   1.39345   -1.000
 5208.00    1.44555   1.38592   -1.000
 5209.00    1.43353   1.39514   -1.000
 5210.00    1.46194   1.42580   -1.000
 5211.00    1.54179   1.47856   -1.000
 5212.00    1.62496   1.53991   -1.000
 5213.00    1.67259   1.58751   -1.000
 5214.00    1.64788   1.60454   -1.000
 5215.00    1.64594   1.59142   -1.000
 5216.00    1.58742   1.56728   -1.000
 5217.00    1.57132   1.55669  181.051
 5218.00    1.61281   1.57115   -1.000
 5219.00    1.65307   1.60288   -1.000
 5220.00    1.66962   1.63527   -1.000
 5221.00    1.68970   1.65471   -1.000
 5222.00    1.69667   1.65351   -1.000
 5223.00    1.67137   1.62833   -1.000
 5224.00    1.60187   1.57882   -1.000
 5225.00    1.52471   1.51164  179.449
 5226.00    1.46667   1.44726   -1.000
 5227.00    1.46678   1.41526   -1.000
 5228.00    1.49217   1.43378   -1.000
 5229.00    1.57557   1.49321   -1.000
 5230.00    1.66485   1.55938   -1.000
 5231.00    1.67564   1.59721   -1.000
 5232.00    1.63793   1.59496   -1.000
 5233.00    1.59849   1.56931   -1.000
 5234.00    1.58233   1.55044   -1.000
 5235.00    1.60799   1.55925   -1.000
 5236.00    1.64414   1.59369   -1.000
 5237.00    1.66795   1.63557   -1.000
 5238.00    1.68791   1.66677   -1.000
 5239.00    1.71764   1.68083   -1.000
 5240.00    1.73290   1.68279   -1.000
 5241.00    1.69874   1.67978   -1.000
 5242.00    1.71501   1.67676   -1.000
 5243.00    1.73615   1.67722   -1.000
 5244.00    1.70497   1.68021   -1.000
 5245.00    1.70899   1.67636   -1.000
 5246.00    1.67776   1.65544   -1.000
 5247.00    1.61603   1.62112  174.946
 5248.00    1.59635   1.58956  178.040
 5249.00    1.61621   1.57069   -1.000
 5250.00    1.63836   1.56259   -1.000
 5251.00    1.61350   1.56318   -1.000
 5252.00    1.60481   1.57225   -1.000
 5253.00    1.65003   1.58397   -1.000
 5254.00    1.65383   1.59125   -1.000
 5255.00    1.63842   1.59793   -1.000
 5256.00    1.65575   1.61715   -1.000
 5257.00    1.72457   1.65301   -1.000
 5258.00    1.75682   1.69021   -1.000
 5259.00    1.73982   1.70661   -1.000
 5260.00    1.72573   1.69027   -1.000
 5261.00    1.69113   1.64252   -1.000
 5262.00    1.61241   1.57404   -1.000
 5263.00    1.53041   1.49978   -1.000
 5264.00    1.45502   1.43549   -1.000
 5265.00    1.41626   1.39502   -1.000
 5266.00    1.45559   1.38443   -1.000
 5267.00    1.49187   1.39229   -1.000
 5268.00    1.49556   1.39276   -1.000
 5269.00    1.44714   1.37325   -1.000
 5270.00    1.40268   1.35584   -1.000
 5271.00    1.45288   1.37492   -1.000
 5272.00    1.56481   1.43423   -1.000
 5273.00    1.61613   1.49953   -1.000
 5274.00    1.61284   1.53842   -1.000
 5275.00    1.62188   1.55463   -1.000
 5276.00    1.64258   1.57470   -1.000
 5277.00    1.67542   1.61337   -1.000
 5278.00    1.73025   1.65856   -1.000
 5279.00    1.77967   1.68469   -1.000
 5280.00    1.74196   1.67773   -1.000
 5281.00    1.65864   1.64547  173.361
 5282.00    1.62707   1.60694   -1.000
 5283.00    1.60711   1.58100   -1.000
 5284.00    1.62325   1.58242   -1.000
 5285.00    1.67617   1.61611   -1.000
 5286.00    1.73109   1.66862   -1.000
 5287.00    1.77028   1.71518   -1.000
 5288.00    1.78136   1.74140   -1.000
 5289.00    1.75510   1.75220  172.836
 5290.00    1.76681   1.75753  170.980
 5291.00    1.79776   1.75943   -1.000
 5292.00    1.77914   1.75504   -1.000
 5293.00    1.75734   1.74417  170.873
 5294.00    1.74602   1.72722  170.413
 5295.00    1.72700   1.69873   -1.000
 5296.00    1.70202   1.65320   -1.000
 5297.00    1.61185   1.59963  175.003
 5298.00    1.56008   1.56209  179.423
 5299.00    1.61311   1.55898   -1.000
 5300.00    1.62144   1.58343   -1.000
 5301.00    1.65563   1.61397   -1.000
 5302.00    1.67781   1.64106   -1.000
 5303.00    1.71362   1.67115   -1.000
 5304.00    1.75822   1.70756   -1.000
 5305.00    1.78906   1.73925   -1.000
 5306.00    1.79045   1.75283   -1.000
 5307.00    1.79126   1.74970   -1.000
 5308.00    1.75119   1.74480  170.673
 5309.00    1.77738   1.74974   -1.000
 5310.00    1.81483   1.76204   -1.000
 5311.00    1.80007   1.77061   -1.000
 5312.00    1.76511   1.76885  171.109
 5313.00    1.75880   1.75866  169.908
 5314.00    1.75342   1.74410  169.900
 5315.00    1.74573   1.72708  170.758
 5316.00    1.74940   1.70987   -1.000
 5317.00    1.72895   1.69838   -1.000
 5318.00    1.74019   1.69789   -1.000
 5319.00    1.75642   1.70534   -1.000
 5320.00    1.77112   1.71121   -1.000
 5321.00    1.78273   1.70788   -1.000
 5322.00    1.73333   1.69249   -1.000
 5323.00    1.71074   1.66704   -1.000
 5324.00    1.67720   1.63880   -1.000
 5325.00    1.63540   1.61192   -1.000
 5326.00    1.63661   1.57725   -1.000
 5327.00    1.58456   1.52452   -1.000
 5328.00    1.52247   1.46804   -1.000
 5329.00    1.50766   1.44656   -1.000
 5330.00    1.57423   1.48401   -1.000
 5331.00    1.64683   1.55809   -1.000
 5332.00    1.71830   1.62493   -1.000
 5333.00    1.75797   1.66521   -1.000
 5334.00    1.74611   1.68899   -1.000
 5335.00    1.75594   1.70790   -1.000
 5336.00    1.77063   1.72042   -1.000
 5337.00    1.75731   1.71949   -1.000
 5338.00    1.74850   1.70160   -1.000
 5339.00    1.71414   1.66876   -1.000
 5340.00    1.68473   1.63156   -1.000
 5341.00    1.63065   1.61015   -1.000
 5342.00    1.62322   1.61881  182.129
 5343.00    1.69666   1.64832   -1.000
 5344.00    1.75031   1.67457   -1.000
 5345.00    1.71660   1.68311   -1.000
 5346.00    1.71643   1.67668   -1.000
 5347.00    1.71802   1.66409   -1.000
 5348.00    1.70363   1.65135   -1.000
 5349.00    1.68983   1.64453   -1.000
 5350.00    1.69715   1.65200   -1.000
 5351.00    1.72898   1.67562   -1.000
 5352.00    1.75016   1.70619   -1.000
 5353.00    1.76616   1.73318   -1.000
 5354.00    1.78860   1.75470   -1.000
 5355.00    1.79228   1.77449  172.696
 5356.00    1.80748   1.79265  171.902
 5357.00    1.83027   1.80442   -1.000
 5358.00    1.84215   1.80697   -1.000
 5359.00    1.84843   1.80124   -1.000
 5360.00    1.84252   1.78794   -1.000
 5361.00    1.80575   1.76785   -1.000
 5362.00    1.78395   1.74433   -1.000
 5363.00    1.78014   1.72166   -1.000
 5364.00    1.74304   1.70246   -1.000
 5365.00    1.73704   1.68796   -1.000
 5366.00    1.74048   1.67913   -1.000
 5367.00    1.70897   1.67399   -1.000
 5368.00    1.70912   1.66337   -1.000
 5369.00    1.70935   1.63632   -1.000
 5370.00    1.66491   1.59524   -1.000
 5371.00    1.60747   1.56235   -1.000
 5372.00    1.63798   1.56469   -1.000
 5373.00    1.70195   1.60874   -1.000
 5374.00    1.73756   1.67319   -1.000
 5375.00    1.77490   1.72768   -1.000
 5376.00    1.81753   1.75600   -1.000
 5377.00    1.80886   1.76199   -1.000
 5378.00    1.81068   1.75831   -1.000
 5379.00    1.80230   1.75275   -1.000
 5380.00    1.77542   1.74494   -1.000
 5381.00    1.77594   1.73256   -1.000
 5382.00    1.77438   1.71799   -1.000
 5383.00    1.78217   1.70831   -1.000
 5384.00    1.73579   1.70943   -1.000
 5385.00    1.75799   1.72034   -1.000
 5386.00    1.78851   1.73284   -1.000
 5387.00    1.80364   1.73749   -1.000
 5388.00    1.78015   1.72965   -1.000
 5389.00    1.74010   1.71079   -1.000
 5390.00    1.70391   1.68721  173.316
 5391.00    1.69420   1.66646   -1.000
 5392.00    1.69937   1.65274   -1.000
 5393.00    1.71918   1.64546   -1.000
 5394.00    1.70580   1.63993   -1.000
 5395.00    1.67665   1.62859   -1.000
 5396.00    1.63538   1.60806   -1.000
 5397.00    1.62828   1.58823   -1.000
 5398.00    1.67552   1.58659   -1.000
 5399.00    1.69600   1.60924   -1.000
 5400.00    1.71122   1.64368   -1.000
 5401.00    1.74466   1.67122   -1.000
 5402.00    1.75014   1.67839   -1.000
 5403.00    1.71962   1.65826   -1.000
 5404.00    1.65977   1.61385   -1.000
 5405.00    1.60494   1.56431   -1.000
 5406.00    1.59517   1.53740   -1.000
 5407.00    1.61413   1.54455   -1.000
 5408.00    1.65174   1.56969   -1.000
 5409.00    1.66871   1.58934   -1.000
 5410.00    1.64723   1.59983   -1.000
 5411.00    1.66126   1.61689   -1.000
 5412.00    1.70458   1.64889   -1.000
 5413.00    1.76828   1.68354   -1.000
 5414.00    1.79426   1.70578   -1.000
 5415.00    1.75523   1.71710   -1.000
 5416.00    1.76061   1.72878   -1.000
 5417.00    1.79755   1.74333   -1.000
 5418.00    1.79334   1.75158   -1.000
 5419.00    1.79054   1.74716   -1.000
 5420.00    1.77365   1.73520   -1.000
 5421.00    1.77895   1.72474   -1.000
 5422.00    1.74989   1.71748   -1.000
 5423.00    1.74045   1.70841   -1.000
 5424.00    1.75738   1.69931   -1.000
 5425.00    1.71931   1.70218   -1.000
 5426.00    1.77037   1.72090   -1.000
 5427.00    1.78702   1.73702   -1.000
 5428.00    1.79486   1.72596   -1.000
 5429.00    1.94031   1.68780   -1.000
 5430.00    1.79973   1.65037   -1.000
 5431.00    1.68148   1.63709   -1.000
 5432.00    1.70090   1.64187   -1.000
 5433.00    1.71721   1.64231   -1.000
 5434.00    1.65948   1.63008   -1.000
 5435.00    1.65764   1.61935   -1.000
 5436.00    1.68940   1.62929   -1.000
 5437.00    1.70690   1.66523   -1.000
 5438.00    1.77086   1.71528   -1.000
 5439.00    1.82395   1.76143   -1.000
 5440.00    1.84872   1.79226   -1.000
 5441.00    1.84277   1.80729   -1.000
 5442.00    1.82536   1.81041  171.736
 5443.00    1.81589   1.80079  170.128
 5444.00    1.78747   1.77180  169.618
 5445.00    1.75107   1.72149   -1.000
 5446.00    1.69702   1.66448   -1.000
 5447.00    1.65684   1.62824   -1.000
 5448.00    1.68068   1.63202   -1.000
 5449.00    1.73999   1.66999   -1.000
 5450.00    1.78419   1.71596   -1.000
 5451.00    1.80567   1.74481   -1.000
 5452.00    1.81639   1.74690   -1.000
 5453.00    1.78839   1.72426   -1.000
 5454.00    1.73070   1.68398   -1.000
 5455.00    1.67277   1.64245   -1.000
 5456.00    1.66120   1.62473   -1.000
 5457.00    1.70652   1.64620   -1.000
 5458.00    1.78229   1.69402   -1.000
 5459.00    1.80777   1.73588   -1.000
 5460.00    1.79666   1.74821   -1.000
 5461.00    1.77097   1.73072   -1.000
 5462.00    1.73775   1.69980   -1.000
 5463.00    1.73783   1.67592   -1.000
 5464.00    1.74647   1.67251   -1.000
 5465.00    1.75012   1.68789   -1.000
 5466.00    1.76496   1.70928   -1.000
 5467.00    1.75929   1.72612   -1.000
 5468.00    1.75512   1.73544   -1.000
 5469.00    1.76828   1.73703   -1.000
 5470.00    1.76445   1.73115   -1.000
 5471.00    1.73613   1.72047  175.818
 5472.00    1.75310   1.70816   -1.000
 5473.00    1.73170   1.69427   -1.000
 5474.00    1.73608   1.67533   -1.000
 5475.00    1.71102   1.64828   -1.000
 5476.00    1.67855   1.61759   -1.000
 5477.00    1.66387   1.59990   -1.000
 5478.00    1.68331   1.61058   -1.000
 5479.00    1.73364   1.64139   -1.000
 5480.00    1.76604   1.66540   -1.000
 5481.00    1.74439   1.66790   -1.000
 5482.00    1.68646   1.66197   -1.000
 5483.00    1.69306   1.67001   -1.000
 5484.00    1.74975   1.69684   -1.000
 5485.00    1.80131   1.72546   -1.000
 5486.00    1.80839   1.73613   -1.000
 5487.00    1.78244   1.72577   -1.000
 5488.00    1.75533   1.70845   -1.000
 5489.00    1.75059   1.70035   -1.000
 5490.00    1.75721   1.70604   -1.000
 5491.00    1.75069   1.71824   -1.000
 5492.00    1.75118   1.72739   -1.000
 5493.00    1.75531   1.72978   -1.000
 5494.00    1.74773   1.72840   -1.000
 5495.00    1.76101   1.72653   -1.000
 5496.00    1.78647   1.72310   -1.000
 5497.00    1.79296   1.71814   -1.000
 5498.00    1.79196   1.71753   -1.000
 5499.00    1.78119   1.72329   -1.000
 5500.00    1.79319   1.72581   -1.000
 5501.00    1.77767   1.71572   -1.000
 5502.00    1.75699   1.69800   -1.000
 5503.00    1.74569   1.68580   -1.000
 5504.00    1.77711   1.68255   -1.000
 5505.00    1.77549   1.67954   -1.000
 5506.00    1.71968   1.67174   -1.000
 5507.00    1.72901   1.66675   -1.000
 5508.00    1.77053   1.67380   -1.000
 5509.00    1.79626   1.68901   -1.000
 5510.00    1.78202   1.69718   -1.000
 5511.00    1.74899   1.68746   -1.000
 5512.00    1.71115   1.66386   -1.000
 5513.00    1.68276   1.64168   -1.000
 5514.00    1.68692   1.63502   -1.000
 5515.00    1.72451   1.64694   -1.000
 5516.00    1.73125   1.67096   -1.000
 5517.00    1.74745   1.69948   -1.000
 5518.00    1.79561   1.72776   -1.000
 5519.00    1.83462   1.75141   -1.000
 5520.00    1.85316   1.76550   -1.000
 5521.00    1.85018   1.76880   -1.000
 5522.00    1.82879   1.76599   -1.000
 5523.00    1.81594   1.76220   -1.000
 5524.00    1.80045   1.75652   -1.000
 5525.00    1.79134   1.74258   -1.000
 5526.00    1.77195   1.71579   -1.000
 5527.00    1.73413   1.68078   -1.000
 5528.00    1.71555   1.65305   -1.000
 5529.00    1.71492   1.64940   -1.000
 5530.00    1.72047   1.67238   -1.000
 5531.00    1.75102   1.70567   -1.000
 5532.00    1.79613   1.72844   -1.000
 5533.00    1.82723   1.73245   -1.000
 5534.00    1.80162   1.72418   -1.000
 5535.00    1.77740   1.71473   -1.000
 5536.00    1.79764   1.71139   -1.000
 5537.00    1.78914   1.71558   -1.000
 5538.00    1.78600   1.72516   -1.000
 5539.00    1.80672   1.73854   -1.000
 5540.00    1.83627   1.75394   -1.000
 5541.00    1.86819   1.76537   -1.000
 5542.00    1.85505   1.76580   -1.000
 5543.00    1.83855   1.75558   -1.000
 5544.00    1.80527   1.74324   -1.000
 5545.00    1.77922   1.73705   -1.000
 5546.00    1.80022   1.73918   -1.000
 5547.00    1.81797   1.74872   -1.000
 5548.00    1.82870   1.76461   -1.000
 5549.00    1.85007   1.78280   -1.000
 5550.00    1.83837   1.79627   -1.000
 5551.00    1.84745   1.79997   -1.000
 5552.00    1.85335   1.79319   -1.000
 5553.00    1.83345   1.77900   -1.000
 5554.00    1.81861   1.76425   -1.000
 5555.00    1.80782   1.75615   -1.000
 5556.00    1.82566   1.75617   -1.000
 5557.00    1.82463   1.75975   -1.000
 5558.00    1.82169   1.76248   -1.000
 5559.00    1.83073   1.76379   -1.000
 5560.00    1.81858   1.76376   -1.000
 5561.00    1.82184   1.75981   -1.000
 5562.00    1.81147   1.75013   -1.000
 5563.00    1.75850   1.73752   -1.000
 5564.00    1.74916   1.72686   -1.000
 5565.00    1.75846   1.72025   -1.000
 5566.00    1.76705   1.71634   -1.000
 5567.00    1.77050   1.71355   -1.000
 5568.00    1.76294   1.71218   -1.000
 5569.00    1.74940   1.71310   -1.000
 5570.00    1.75981   1.71545   -1.000
 5571.00    1.79608   1.71664   -1.000
 5572.00    1.79594   1.71536   -1.000
 5573.00    1.77793   1.71456   -1.000
 5574.00    1.78233   1.71941   -1.000
 5575.00    1.82349   1.73078   -1.000
 5576.00    1.92561   1.74333   -1.000
 5577.00    2.19788   1.75251   -1.000
 5578.00    3.63912   1.75931   -1.000
 5579.00    7.12076   1.76556   -1.000
 5580.00    8.88904   1.76993   -1.000
 5581.00    4.88348   1.77013   -1.000
 5582.00   -1.15731   1.76582    0.000
 5583.00   -3.27419   1.75835    0.000
 5584.00   -1.65607   1.74673    0.000
 5585.00    0.23794   1.72491   -1.000
 5586.00    1.26606   1.68872   -1.000
 5587.00    1.59194   1.64533   -1.000
 5588.00    1.61961   1.61176  182.594
 5589.00    1.65638   1.60206   -1.000
 5590.00    1.69238   1.61696   -1.000
 5591.00    1.70945   1.64416   -1.000
 5592.00    1.74276   1.66806   -1.000
 5593.00    1.75357   1.68159   -1.000
 5594.00    1.74579   1.69059   -1.000
 5595.00    1.75161   1.70493   -1.000
 5596.00    1.77780   1.72366   -1.000
 5597.00    1.79880   1.73335   -1.000
 5598.00    1.76807   1.72444   -1.000
 5599.00    1.73856   1.70242   -1.000
 5600.00    1.72901   1.67883   -1.000
 5601.00    1.71325   1.66021   -1.000
 5602.00    1.69349   1.65119   -1.000
 5603.00    1.71161   1.66000   -1.000
 5604.00    1.77456   1.69207   -1.000
 5605.00    1.81751   1.73928   -1.000
 5606.00    1.84060   1.78328   -1.000
 5607.00    1.86555   1.81069   -1.000
 5608.00    1.89249   1.82114   -1.000
 5609.00    1.87422   1.82236   -1.000
 5610.00    1.84168   1.82253   -1.000
 5611.00    1.83702   1.82422  174.687
 5612.00    1.85584   1.82066   -1.000
 5613.00    1.87491   1.79930   -1.000
 5614.00    1.82403   1.75450   -1.000
 5615.00    1.73915   1.70068   -1.000
 5616.00    1.70389   1.66644   -1.000
 5617.00    1.73612   1.66853   -1.000
 5618.00    1.79881   1.69598   -1.000
 5619.00    1.81833   1.72547   -1.000
 5620.00    1.80770   1.74548   -1.000
 5621.00    1.81495   1.75763   -1.000
 5622.00    1.81886   1.76090   -1.000
 5623.00    1.80565   1.74915   -1.000
 5624.00    1.77335   1.72455   -1.000
 5625.00    1.74056   1.70305   -1.000
 5626.00    1.75099   1.70147   -1.000
 5627.00    1.79173   1.72125   -1.000
 5628.00    1.81188   1.74985   -1.000
 5629.00    1.80815   1.77583   -1.000
 5630.00    1.83161   1.79508   -1.000
 5631.00    1.85551   1.80594   -1.000
 5632.00    1.83538   1.80710   -1.000
 5633.00    1.83387   1.79944   -1.000
 5634.00    1.82920   1.78573   -1.000
 5635.00    1.80674   1.76880   -1.000
 5636.00    1.80791   1.75139   -1.000
 5637.00    1.79983   1.73739   -1.000
 5638.00    1.77964   1.73077   -1.000
 5639.00    1.80607   1.73095   -1.000
 5640.00    1.82757   1.73211   -1.000
 5641.00    1.81662   1.73016   -1.000
 5642.00    1.79790   1.72790   -1.000
 5643.00    1.79737   1.73068   -1.000
 5644.00    1.82568   1.73894   -1.000
 5645.00    1.83308   1.74875   -1.000
 5646.00    1.83846   1.75690   -1.000
 5647.00    1.82816   1.76166   -1.000
 5648.00    1.83793   1.76149   -1.000
 5649.00    1.85699   1.75751   -1.000
 5650.00    1.84382   1.75499   -1.000
 5651.00    1.84637   1.75850   -1.000
 5652.00    1.85183   1.76567   -1.000
 5653.00    1.87020   1.76865   -1.000
 5654.00    1.85557   1.76257   -1.000
 5655.00    1.80527   1.74873   -1.000
 5656.00    1.79304   1.72834   -1.000
 5657.00    1.75980   1.70050   -1.000
 5658.00    1.69897   1.67048   -1.000
 5659.00    1.68079   1.65265   -1.000
 5660.00    1.72191   1.65702   -1.000
 5661.00    1.76205   1.67557   -1.000
 5662.00    1.76145   1.69260   -1.000
 5663.00    1.75823   1.70563   -1.000
 5664.00    1.78900   1.72191   -1.000
 5665.00    1.81036   1.73997   -1.000
 5666.00    1.80331   1.74961   -1.000
 5667.00    1.79454   1.74656   -1.000
 5668.00    1.79461   1.73797   -1.000
 5669.00    1.79824   1.73411   -1.000
 5670.00    1.80021   1.73947   -1.000
 5671.00    1.80618   1.75279   -1.000
 5672.00    1.82354   1.77084   -1.000
 5673.00    1.85664   1.78872   -1.000
 5674.00    1.88125   1.80091   -1.000
 5675.00    1.88492   1.80567   -1.000
 5676.00    1.88126   1.80599   -1.000
 5677.00    1.87776   1.80483   -1.000
 5678.00    1.86571   1.80154   -1.000
 5679.00    1.83696   1.79390   -1.000
 5680.00    1.83776   1.78146   -1.000
 5681.00    1.84316   1.76518   -1.000
 5682.00    1.82227   1.74648   -1.000
 5683.00    1.80307   1.73035   -1.000
 5684.00    1.79512   1.72359   -1.000
 5685.00    1.79844   1.72581   -1.000
 5686.00    1.80225   1.72850   -1.000
 5687.00    1.78748   1.72622   -1.000
 5688.00    1.76941   1.72336   -1.000
 5689.00    1.78580   1.72832   -1.000
 5690.00    1.82293   1.74375   -1.000
 5691.00    1.84405   1.76423   -1.000
 5692.00    1.84503   1.78205   -1.000
 5693.00    1.85799   1.79263   -1.000
 5694.00    1.87801   1.79575   -1.000
 5695.00    1.87459   1.79393   -1.000
 5696.00    1.86409   1.78918   -1.000
 5697.00    1.85576   1.78102   -1.000
 5698.00    1.83586   1.76860   -1.000
 5699.00    1.79744   1.75353   -1.000
 5700.00    1.78879   1.73868   -1.000
 5701.00    1.78150   1.72645   -1.000
 5702.00    1.75391   1.72062   -1.000
 5703.00    1.76766   1.72397   -1.000
 5704.00    1.80983   1.73170   -1.000
 5705.00    1.80870   1.73326   -1.000
 5706.00    1.76868   1.72181   -1.000
 5707.00    1.75692   1.69969   -1.000
 5708.00    1.72498   1.67501   -1.000
 5709.00    1.67615   1.65545   -1.000
 5710.00    1.66881   1.64602   -1.000
 5711.00    1.69358   1.64983   -1.000
 5712.00    1.74076   1.66824   -1.000
 5713.00    1.78987   1.69968   -1.000
 5714.00    1.83450   1.73608   -1.000
 5715.00    1.85777   1.76581   -1.000
 5716.00    1.87408   1.78400   -1.000
 5717.00    1.86534   1.79442   -1.000
 5718.00    1.84287   1.80226   -1.000
 5719.00    1.86828   1.81052   -1.000
 5720.00    1.88562   1.82026   -1.000
 5721.00    1.87788   1.83079   -1.000
 5722.00    1.87532   1.84041   -1.000
 5723.00    1.88145   1.84720   -1.000
 5724.00    1.89798   1.84856   -1.000
 5725.00    1.88629   1.84168   -1.000
 5726.00    1.85295   1.82718   -1.000
 5727.00    1.83734   1.81209   -1.000
 5728.00    1.86129   1.80516   -1.000
 5729.00    1.88100   1.80724   -1.000
 5730.00    1.85635   1.81030   -1.000
 5731.00    1.84441   1.80894   -1.000
 5732.00    1.84193   1.80780   -1.000
 5733.00    1.84355   1.81427   -1.000
 5734.00    1.87820   1.82756   -1.000
 5735.00    1.89223   1.83865   -1.000
 5736.00    1.88525   1.84070   -1.000
 5737.00    1.89281   1.83556   -1.000
 5738.00    1.88857   1.82948   -1.000
 5739.00    1.87259   1.82631   -1.000
 5740.00    1.86527   1.82520   -1.000
 5741.00    1.85443   1.82364   -1.000
 5742.00    1.85784   1.82169   -1.000
 5743.00    1.87309   1.82258   -1.000
 5744.00    1.87765   1.82865   -1.000
 5745.00    1.88521   1.83639   -1.000
 5746.00    1.87072   1.83800   -1.000
 5747.00    1.86683   1.83035   -1.000
 5748.00    1.87395   1.82076   -1.000
 5749.00    1.86340   1.81911   -1.000
 5750.00    1.84478   1.82395   -1.000
 5751.00    1.85451   1.82224   -1.000
 5752.00    1.85856   1.80451   -1.000
 5753.00    1.83387   1.77782   -1.000
 5754.00    1.81997   1.76144   -1.000
 5755.00    1.82777   1.76907   -1.000
 5756.00    1.84961   1.79672   -1.000
 5757.00    1.86986   1.82717   -1.000
 5758.00    1.88650   1.84393   -1.000
 5759.00    1.89445   1.84082   -1.000
 5760.00    1.88727   1.82183   -1.000
 5761.00    1.85835   1.79676   -1.000
 5762.00    1.83898   1.77747   -1.000
 5763.00    1.84412   1.77466   -1.000
 5764.00    1.85283   1.79240   -1.000
 5765.00    1.86560   1.82251   -1.000
 5766.00    1.89763   1.84942   -1.000
 5767.00    1.91801   1.86378   -1.000
 5768.00    1.89838   1.86704   -1.000
 5769.00    1.89142   1.86408   -1.000
 5770.00    1.90765   1.85794   -1.000
 5771.00    1.89316   1.85001   -1.000
 5772.00    1.87271   1.84104   -1.000
 5773.00    1.87321   1.83225   -1.000
 5774.00    1.86141   1.82590   -1.000
 5775.00    1.86883   1.82415   -1.000
 5776.00    1.89433   1.82702   -1.000
 5777.00    1.89530   1.83020   -1.000
 5778.00    1.88566   1.82569   -1.000
 5779.00    1.85622   1.80704   -1.000
 5780.00    1.80107   1.77565   -1.000
 5781.00    1.75219   1.74192  175.203
 5782.00    1.70997   1.71817  176.957
 5783.00    1.69945   1.70924  180.490
 5784.00    1.71862   1.71039  183.652
 5785.00    1.75586   1.71673   -1.000
 5786.00    1.81058   1.73105   -1.000
 5787.00    1.84007   1.75539   -1.000
 5788.00    1.86720   1.78155   -1.000
 5789.00    1.87133   1.79817   -1.000
 5790.00    1.85701   1.80219   -1.000
 5791.00    1.85511   1.80046   -1.000
 5792.00    1.84697   1.80340   -1.000
 5793.00    1.84700   1.81593   -1.000
 5794.00    1.85387   1.83353   -1.000
 5795.00    1.86459   1.84657   -1.000
 5796.00    1.87220   1.84806   -1.000
 5797.00    1.86306   1.83991   -1.000
 5798.00    1.85085   1.83308   -1.000
 5799.00    1.84740   1.83824  173.733
 5800.00    1.87249   1.85508   -1.000
 5801.00    1.91283   1.87285   -1.000
 5802.00    1.91018   1.87992   -1.000
 5803.00    1.90534   1.87210   -1.000
 5804.00    1.91780   1.85468   -1.000
 5805.00    1.88337   1.83836   -1.000
 5806.00    1.86001   1.83133   -1.000
 5807.00    1.86836   1.83417   -1.000
 5808.00    1.87833   1.84229   -1.000
 5809.00    1.89554   1.85132   -1.000
 5810.00    1.91217   1.85931   -1.000
 5811.00    1.92407   1.86513   -1.000
 5812.00    1.90660   1.86677   -1.000
 5813.00    1.89614   1.86216   -1.000
 5814.00    1.90816   1.85099   -1.000
 5815.00    1.88902   1.83666   -1.000
 5816.00    1.87330   1.82693   -1.000
 5817.00    1.89351   1.82989   -1.000
 5818.00    1.91457   1.84584   -1.000
 5819.00    1.93942   1.86572   -1.000
 5820.00    1.94630   1.87956   -1.000
 5821.00    1.94751   1.88389   -1.000
 5822.00    1.95772   1.88127   -1.000
 5823.00    1.94890   1.87653   -1.000
 5824.00    1.92428   1.87342   -1.000
 5825.00    1.91296   1.87313   -1.000
 5826.00    1.91710   1.87489   -1.000
 5827.00    1.92170   1.87769   -1.000
 5828.00    1.92614   1.88109   -1.000
 5829.00    1.91541   1.88451   -1.000
 5830.00    1.89615   1.88660  169.504
 5831.00    1.90051   1.88611  169.725
 5832.00    1.91665   1.88290   -1.000
 5833.00    1.93004   1.87737   -1.000
 5834.00    1.93785   1.87061   -1.000
 5835.00    1.92628   1.86546   -1.000
 5836.00    1.92836   1.86439   -1.000
 5837.00    1.93363   1.86607   -1.000
 5838.00    1.91880   1.86811   -1.000
 5839.00    1.91143   1.87166   -1.000
 5840.00    1.91454   1.87879   -1.000
 5841.00    1.92064   1.88763   -1.000
 5842.00    1.93233   1.89361   -1.000
 5843.00    1.94807   1.89362   -1.000
 5844.00    1.93770   1.88727   -1.000
 5845.00    1.92142   1.87579   -1.000
 5846.00    1.90311   1.86161   -1.000
 5847.00    1.87766   1.84884   -1.000
 5848.00    1.86937   1.84170   -1.000
 5849.00    1.89388   1.84066   -1.000
 5850.00    1.90955   1.84032   -1.000
 5851.00    1.89465   1.83351   -1.000
 5852.00    1.87998   1.81886   -1.000
 5853.00    1.85901   1.80282   -1.000
 5854.00    1.85155   1.79205   -1.000
 5855.00    1.85288   1.78505   -1.000
 5856.00    1.83612   1.77400   -1.000
 5857.00    1.80573   1.75696   -1.000
 5858.00    1.80186   1.74449   -1.000
 5859.00    1.82884   1.74843   -1.000
 5860.00    1.85272   1.76773   -1.000
 5861.00    1.86686   1.79018   -1.000
 5862.00    1.86712   1.80603   -1.000
 5863.00    1.88815   1.81456   -1.000
 5864.00    1.89647   1.81871   -1.000
 5865.00    1.88296   1.81871   -1.000
 5866.00    1.89413   1.81435   -1.000
 5867.00    1.90149   1.81059   -1.000
 5868.00    1.91280   1.81490   -1.000
 5869.00    1.94249   1.82804   -1.000
 5870.00    1.93972   1.84240   -1.000
 5871.00    1.91357   1.85045   -1.000
 5872.00    1.89557   1.85099   -1.000
 5873.00    1.88362   1.84797   -1.000
 5874.00    1.89932   1.84548   -1.000
 5875.00    1.90599   1.84420   -1.000
 5876.00    1.89534   1.84168   -1.000
 5877.00    1.90317   1.83499   -1.000
 5878.00    1.90870   1.82353   -1.000
 5879.00    1.88758   1.80966   -1.000
 5880.00    1.86992   1.79750   -1.000
 5881.00    1.86619   1.79042   -1.000
 5882.00    1.84968   1.78803   -1.000
 5883.00    1.83262   1.78647   -1.000
 5884.00    1.83933   1.78332   -1.000
 5885.00    1.86423   1.77815   -1.000
 5886.00    1.87880   1.76304   -1.000
 5887.00    1.85424   1.71951   -1.000
 5888.00    1.76356   1.63579   -1.000
 5889.00    1.64208   1.52991   -1.000
 5890.00    1.60608   1.44907   -1.000
 5891.00    1.74871   1.43286   -1.000
 5892.00    2.09059   1.47446   -1.000
 5893.00    2.20454   1.52629   -1.000
 5894.00    1.62183   1.54418   -1.000
 5895.00    0.79484   1.52402   -1.000
 5896.00    0.54625   1.50057   -1.000
 5897.00    0.98836   1.51331   -1.000
 5898.00    1.57642   1.56786  202.661
 5899.00    1.86230   1.63624   -1.000
 5900.00    1.67523   1.69314   -1.000
 5901.00    1.36441   1.73337   -1.000
 5902.00    1.29737   1.76016   -1.000
 5903.00    1.48507   1.77587   -1.000
 5904.00    1.70430   1.78318   -1.000
 5905.00    1.80680   1.78597   -1.000
 5906.00    1.84628   1.78852   -1.000
 5907.00    1.88020   1.79378   -1.000
 5908.00    1.90452   1.80137   -1.000
 5909.00    1.89796   1.80844   -1.000
 5910.00    1.88079   1.81294   -1.000
 5911.00    1.85713   1.81332   -1.000
 5912.00    1.83682   1.80661   -1.000
 5913.00    1.83789   1.79125   -1.000
 5914.00    1.83242   1.77174   -1.000
 5915.00    1.82836   1.75743   -1.000
 5916.00    1.82141   1.75531   -1.000
 5917.00    1.84303   1.76507   -1.000
 5918.00    1.86868   1.78101   -1.000
 5919.00    1.88665   1.79620   -1.000
 5920.00    1.86161   1.80566   -1.000
 5921.00    1.82510   1.80851  180.203
 5922.00    1.82987   1.80780   -1.000
 5923.00    1.85224   1.80816   -1.000
 5924.00    1.86388   1.81191   -1.000
 5925.00    1.87288   1.81775   -1.000
 5926.00    1.86791   1.82226   -1.000
 5927.00    1.87699   1.82156   -1.000
 5928.00    1.89171   1.81356   -1.000
 5929.00    1.88029   1.80131   -1.000
 5930.00    1.85337   1.79301   -1.000
 5931.00    1.84292   1.79484   -1.000
 5932.00    1.85196   1.80300   -1.000
 5933.00    1.87196   1.80718   -1.000
 5934.00    1.89049   1.80365   -1.000
 5935.00    1.89068   1.79955   -1.000
 5936.00    1.88803   1.80324   -1.000
 5937.00    1.88378   1.81435   -1.000
 5938.00    1.87137   1.82481   -1.000
 5939.00    1.84959   1.82708   -1.000
 5940.00    1.84175   1.81949   -1.000
 5941.00    1.86411   1.80676   -1.000
 5942.00    1.87418   1.79733   -1.000
 5943.00    1.86117   1.79753   -1.000
 5944.00    1.85775   1.80639   -1.000
 5945.00    1.86157   1.81687   -1.000
 5946.00    1.86944   1.82125   -1.000
 5947.00    1.87385   1.81573   -1.000
 5948.00    1.84987   1.80382   -1.000
 5949.00    1.84012   1.79446   -1.000
 5950.00    1.85757   1.79317   -1.000
 5951.00    1.87473   1.79589   -1.000
 5952.00    1.85867   1.79596   -1.000
 5953.00    1.83940   1.79404   -1.000
 5954.00    1.85578   1.79459   -1.000
 5955.00    1.87069   1.79666   -1.000
 5956.00    1.87394   1.79590   -1.000
 5957.00    1.86532   1.79325   -1.000
 5958.00    1.84671   1.79528   -1.000
 5959.00    1.82993   1.80578   -1.000
 5960.00    1.83553   1.82128  181.346
 5961.00    1.86639   1.83525   -1.000
 5962.00    1.88527   1.84338   -1.000
 5963.00    1.90025   1.84466   -1.000
 5964.00    1.89367   1.84032   -1.000
 5965.00    1.87303   1.83327   -1.000
 5966.00    1.86597   1.82805   -1.000
 5967.00    1.85583   1.82852   -1.000
 5968.00    1.86854   1.83436   -1.000
 5969.00    1.89797   1.84199   -1.000
 5970.00    1.89168   1.84884   -1.000
 5971.00    1.91544   1.85396   -1.000
 5972.00    1.93662   1.85581   -1.000
 5973.00    1.92273   1.85228   -1.000
 5974.00    1.90099   1.84182   -1.000
 5975.00    1.87656   1.82502   -1.000
 5976.00    1.85112   1.80663   -1.000
 5977.00    1.83755   1.79431   -1.000
 5978.00    1.85336   1.79353   -1.000
 5979.00    1.87206   1.80346   -1.000
 5980.00    1.88317   1.81700   -1.000
 5981.00    1.89526   1.82427   -1.000
 5982.00    1.86127   1.81834   -1.000
 5983.00    1.82953   1.80098   -1.000
 5984.00    1.82558   1.78285   -1.000
 5985.00    1.82037   1.77583   -1.000
 5986.00    1.83743   1.78337   -1.000
 5987.00    1.84468   1.79880   -1.000
 5988.00    1.87144   1.81344   -1.000
 5989.00    1.90013   1.82298   -1.000
 5990.00    1.88667   1.82690   -1.000
 5991.00    1.87608   1.82768   -1.000
 5992.00    1.88435   1.83077   -1.000
 5993.00    1.90519   1.83926   -1.000
 5994.00    1.91341   1.84825   -1.000
 5995.00    1.90902   1.84945   -1.000
 5996.00    1.88998   1.84048   -1.000
 5997.00    1.87441   1.82717   -1.000
 5998.00    1.86715   1.81817   -1.000
 5999.00    1.87766   1.81760   -1.000
 6000.00    1.88924   1.82207   -1.000
 6001.00    1.89035   1.82462   -1.000
 6002.00    1.89066   1.82179   -1.000
 6003.00    1.86387   1.81656   -1.000
 6004.00    1.84065   1.81357   -1.000
 6005.00    1.84088   1.81149   -1.000
 6006.00    1.83822   1.80386   -1.000
 6007.00    1.85122   1.78991   -1.000
 6008.00    1.84980   1.77947   -1.000
 6009.00    1.82526   1.78323   -1.000
 6010.00    1.83881   1.79928   -1.000
 6011.00    1.85085   1.81337   -1.000
 6012.00    1.84940   1.81510   -1.000
 6013.00    1.84127   1.80797   -1.000
 6014.00    1.82824   1.80138   -1.000
 6015.00    1.84100   1.79931   -1.000
 6016.00    1.83926   1.79930   -1.000
 6017.00    1.84341   1.79858   -1.000
 6018.00    1.86341   1.79648   -1.000
 6019.00    1.83575   1.79192   -1.000
 6020.00    1.82541   1.78524   -1.000
 6021.00    1.82110   1.78096   -1.000
 6022.00    1.82492   1.78327   -1.000
 6023.00    1.84159   1.79139   -1.000
 6024.00    1.84625   1.80236   -1.000
 6025.00    1.83541   1.81457   -1.000
 6026.00    1.84420   1.82660   -1.000
 6027.00    1.85873   1.83692   -1.000
 6028.00    1.86579   1.84595   -1.000
 6029.00    1.87129   1.85446   -1.000
 6030.00    1.87974   1.86131   -1.000
 6031.00    1.89695   1.86609   -1.000
 6032.00    1.90545   1.87050   -1.000
 6033.00    1.90206   1.87544   -1.000
 6034.00    1.88961   1.87995  177.285
 6035.00    1.88736   1.88299  177.426
 6036.00    1.90478   1.88396   -1.000
 6037.00    1.90481   1.88224   -1.000
 6038.00    1.88803   1.87762  175.894
 6039.00    1.87335   1.87102  175.741
 6040.00    1.85719   1.86463  175.597
 6041.00    1.85479   1.86081  176.185
 6042.00    1.86761   1.86077  176.999
 6043.00    1.86910   1.86505  177.362
 6044.00    1.88004   1.87322  177.573
 6045.00    1.90039   1.88249   -1.000
 6046.00    1.91678   1.88962   -1.000
 6047.00    1.90849   1.89393  175.474
 6048.00    1.89199   1.89656  174.649
 6049.00    1.88964   1.89807  174.885
 6050.00    1.92003   1.89809   -1.000
 6051.00    1.93438   1.89558   -1.000
 6052.00    1.91200   1.88945   -1.000
 6053.00    1.88332   1.87985  175.596
 6054.00    1.86684   1.86856  175.864
 6055.00    1.86397   1.85792  176.076
 6056.00    1.87030   1.85077   -1.000
 6057.00    1.85816   1.85001  177.276
 6058.00    1.84101   1.85601  177.970
 6059.00    1.86341   1.86517  178.833
 6060.00    1.89203   1.87212   -1.000
 6061.00    1.88413   1.87225  178.343
 6062.00    1.86597   1.86299  177.355
 6063.00    1.85969   1.84531  176.900
 6064.00    1.84976   1.82542   -1.000
 6065.00    1.86997   1.81396   -1.000
 6066.00    2.00656   1.81966   -1.000
 6067.00    2.21653   1.84142   -1.000
 6068.00    1.95630   1.86835   -1.000
 6069.00    0.71076   1.88933   -1.000
 6070.00    0.19440   1.90098   -1.000
 6071.00    1.20453   1.90545   -1.000
 6072.00    2.00663   1.90478   -1.000
 6073.00    2.13832   1.90122   -1.000
 6074.00    1.75431   1.89858   -1.000
 6075.00    0.77890   1.89631   -1.000
 6076.00    1.05880   1.88903   -1.000
 6077.00    1.97484   1.87503   -1.000
 6078.00    1.85386   1.85915  175.795
 6079.00    1.84787   1.84733  176.561
 6080.00    1.85584   1.84054   -1.000
 6081.00    1.85648   1.83555   -1.000
 6082.00    1.83961   1.83114  180.016
 6083.00    1.80872   1.82916   -1.000
 6084.00    1.81688   1.83021  180.730
 6085.00    1.84145   1.83312  181.051
 6086.00    1.84669   1.83746  181.404
 6087.00    1.85457   1.84239  181.287
 6088.00    1.87504   1.84469   -1.000
 6089.00    1.87953   1.84122   -1.000
 6090.00    1.86893   1.83335   -1.000
 6091.00    1.85538   1.82686   -1.000
 6092.00    1.83787   1.82668  180.570
 6093.00    1.82790   1.83352  181.602
 6094.00    1.83877   1.84454  182.010
 6095.00    1.86972   1.85530  181.439
 6096.00    1.89620   1.86251   -1.000
 6097.00    1.89530   1.86662   -1.000
 6098.00    1.88404   1.86956  178.425
 6099.00    1.87471   1.86858  177.986
 6100.00    1.87590   1.85542   -1.000
 6101.00    1.84040   1.82564  178.620
 6102.00    1.79522   1.78945  178.660
 6103.00    1.78453   1.76854   -1.000
 6104.00    1.80304   1.77572   -1.000
 6105.00    1.80549   1.80220  186.748
 6106.00    1.82511   1.82912  187.986
 6107.00    1.83316   1.84606  185.423
 6108.00    1.86233   1.85493  181.994
 6109.00    1.88139   1.86080   -1.000
 6110.00    1.86379   1.86464  180.138
 6111.00    1.85531   1.86607  180.840
 6112.00    1.85160   1.86760  181.060
 6113.00    1.84757   1.87168   -1.000
 6114.00    1.86240   1.87630  180.266
 6115.00    1.84892   1.87739   -1.000
 6116.00    1.85865   1.87441  179.421
 6117.00    1.85837   1.86971  178.547
 6118.00    1.83626   1.86193   -1.000
 6119.00    1.80100   1.84593   -1.000
 6120.00    1.78774   1.82035   -1.000
 6121.00    1.78010   1.79257  180.811
 6122.00    1.77109   1.77562  182.372
 6123.00    1.76488   1.77863  185.093
 6124.00    1.78274   1.79739  187.221
 6125.00    1.81430   1.81752  188.384
 6126.00    1.81782   1.82831  187.261
 6127.00    1.83555   1.83027  184.156
 6128.00    1.83982   1.83092  182.684
 6129.00    1.82593   1.83721  183.223
 6130.00    1.83163   1.85043   -1.000
 6131.00    1.82999   1.86551   -1.000
 6132.00    1.83670   1.87431   -1.000
 6133.00    1.85016   1.86867   -1.000
 6134.00    1.82402   1.84213   -1.000
 6135.00    1.78829   1.79542  179.777
 6136.00    1.74609   1.74406  180.635
 6137.00    1.71667   1.71414  183.275
 6138.00    1.72214   1.72123  188.090
 6139.00    1.78007   1.75450   -1.000
 6140.00    1.81892   1.78769   -1.000
 6141.00    1.81552   1.80568  195.102
 6142.00    1.80095   1.81522  189.530
 6143.00    1.79533   1.82874   -1.000
 6144.00    1.82193   1.84669   -1.000
 6145.00    1.83052   1.86031   -1.000
 6146.00    1.84824   1.86363  184.371
 6147.00    1.85136   1.85758  182.180
 6148.00    1.82330   1.84667   -1.000
 6149.00    1.81302   1.83586   -1.000
 6150.00    1.80217   1.82936   -1.000
 6151.00    1.79266   1.82931   -1.000
 6152.00    1.81238   1.83353   -1.000
 6153.00    1.81943   1.83603  185.117
 6154.00    1.83728   1.83242  184.799
 6155.00    1.84720   1.82460   -1.000
 6156.00    1.81244   1.81775  182.867
 6157.00    1.79978   1.81301  183.338
 6158.00    1.80483   1.80449  184.867
 6159.00    1.78740   1.78234  185.461
 6160.00    1.75470   1.74128  185.729
 6161.00    1.69652   1.68990  186.966
 6162.00    1.63841   1.64979  189.579
 6163.00    1.61969   1.63995   -1.000
 6164.00    1.63703   1.66125   -1.000
 6165.00    1.68528   1.69733  204.576
 6166.00    1.72720   1.72791  204.535
 6167.00    1.74209   1.74013  200.201
 6168.00    1.71854   1.73286  195.252
 6169.00    1.69624   1.71750   -1.000
 6170.00    1.70205   1.71201  193.003
 6171.00    1.72359   1.72581  194.257
 6172.00    1.74858   1.75151  196.821
 6173.00    1.76673   1.77474  197.628
 6174.00    1.76267   1.78849   -1.000
 6175.00    1.75754   1.79464   -1.000
 6176.00    1.74428   1.79766   -1.000
 6177.00    1.74193   1.80134   -1.000
 6178.00    1.76990   1.80730   -1.000
 6179.00    1.77755   1.81440   -1.000
 6180.00    1.77149   1.82134   -1.000
 6181.00    1.77096   1.82865   -1.000
 6182.00    1.79353   1.83595   -1.000
 6183.00    1.81079   1.83996   -1.000
 6184.00    1.79163   1.83736   -1.000
 6185.00    1.78484   1.82751   -1.000
 6186.00    1.78263   1.81259   -1.000
 6187.00    1.75585   1.79624   -1.000
 6188.00    1.73874   1.78028   -1.000
 6189.00    1.72329   1.76271   -1.000
 6190.00    1.72131   1.74279   -1.000
 6191.00    1.70388   1.72810   -1.000
 6192.00    1.68217   1.73032   -1.000
 6193.00    1.71385   1.75196   -1.000
 6194.00    1.74569   1.78244   -1.000
 6195.00    1.76687   1.80831   -1.000
 6196.00    1.77589   1.82239   -1.000
 6197.00    1.78033   1.82331   -1.000
 6198.00    1.75998   1.81296   -1.000
 6199.00    1.72638   1.79823   -1.000
 6200.00    1.74093   1.79014   -1.000
 6201.00    1.75389   1.79560   -1.000
 6202.00    1.76285   1.81115   -1.000
 6203.00    1.76379   1.82765   -1.000
 6204.00    1.76818   1.83880   -1.000
 6205.00    1.78198   1.84441   -1.000
 6206.00    1.79890   1.84749   -1.000
 6207.00    1.79544   1.84978   -1.000
 6208.00    1.76831   1.85008   -1.000
 6209.00    1.76680   1.84587   -1.000
 6210.00    1.76864   1.83518   -1.000
 6211.00    1.76335   1.81685   -1.000
 6212.00    1.75658   1.79117   -1.000
 6213.00    1.72068   1.76248   -1.000
 6214.00    1.70376   1.73954   -1.000
 6215.00    1.67341   1.72963   -1.000
 6216.00    1.75269   1.73247   -1.000
 6217.00    1.98410   1.74021   -1.000
 6218.00    2.04614   1.74407   -1.000
 6219.00    2.03153   1.74197   -1.000
 6220.00    2.04441   1.73987   -1.000
 6221.00    2.04983   1.74426   -1.000
 6222.00    2.07057   1.75466   -1.000
 6223.00    2.09683   1.76558   -1.000
 6224.00    2.09314   1.77330   -1.000
 6225.00    2.00147   1.77770   -1.000
 6226.00    1.54539   1.77852   -1.000
 6227.00    0.87231   1.77245   -1.000
 6228.00    1.49265   1.75520   -1.000
 6229.00    1.74732   1.72755   -1.000
 6230.00    1.64909   1.69962   -1.000
 6231.00    1.63865   1.68622   -1.000
 6232.00    1.64959   1.69533   -1.000
 6233.00    1.68126   1.72251   -1.000
 6234.00    1.72602   1.75515   -1.000
 6235.00    1.75641   1.78002   -1.000
 6236.00    1.77968   1.78898  198.365
 6237.00    1.82417   1.78200   -1.000
 6238.00    1.82785   1.76562   -1.000
 6239.00    1.77532   1.74794   -1.000
 6240.00    1.71724   1.73419   -1.000
 6241.00    1.65347   1.72472   -1.000
 6242.00    1.59879   1.71619   -1.000
 6243.00    1.61591   1.70655   -1.000
 6244.00    1.64505   1.69864   -1.000
 6245.00    1.65674   1.69768   -1.000
 6246.00    1.66662   1.70734   -1.000
 6247.00    1.68068   1.72702   -1.000
 6248.00    1.72200   1.75007   -1.000
 6249.00    1.71736   1.76576   -1.000
 6250.00    1.68165   1.76560   -1.000
 6251.00    1.68149   1.74879   -1.000
 6252.00    1.68031   1.72349   -1.000
 6253.00    1.64988   1.70148   -1.000
 6254.00    1.62349   1.68901   -1.000
 6255.00    1.63968   1.68319   -1.000
 6256.00    1.66310   1.67796  203.045
 6257.00    1.62180   1.67248   -1.000
 6258.00    1.60136   1.67249   -1.000
 6259.00    1.66643   1.68397   -1.000
 6260.00    1.71982   1.70685  206.884
 6261.00    1.73696   1.73508  207.993
 6262.00    1.75244   1.76048  206.227
 6263.00    1.71256   1.77633   -1.000
 6264.00    1.65663   1.78086   -1.000
 6265.00    1.67937   1.77925   -1.000
 6266.00    1.72036   1.77903   -1.000
 6267.00    1.71819   1.78229   -1.000
 6268.00    1.71596   1.78497   -1.000
 6269.00    1.71970   1.78425   -1.000
 6270.00    1.71588   1.78297   -1.000
 6271.00    1.72218   1.78513   -1.000
 6272.00    1.70385   1.79020   -1.000
 6273.00    1.69017   1.79331   -1.000
 6274.00    1.70590   1.79000   -1.000
 6275.00    1.72214   1.77950   -1.000
 6276.00    1.73233   1.76383   -1.000
 6277.00    1.73414   1.74516  195.924
 6278.00    1.71505   1.72562  197.476
 6279.00    1.67581   1.70876   -1.000
 6280.00    1.63498   1.70014   -1.000
 6281.00    1.58786   1.70439   -1.000
 6282.00    1.58874   1.72107   -1.000
 6283.00    1.59498   1.74461   -1.000
 6284.00    1.59379   1.76815   -1.000
 6285.00    1.61569   1.78776   -1.000
 6286.00    1.63487   1.80299   -1.000
 6287.00    1.65906   1.81402   -1.000
 6288.00    1.70283   1.81930   -1.000
 6289.00    1.73783   1.81672   -1.000
 6290.00    1.74813   1.80706   -1.000
 6291.00    1.71535   1.79496   -1.000
 6292.00    1.66321   1.78563   -1.000
 6293.00    1.62205   1.78075   -1.000
 6294.00    1.62408   1.77717   -1.000
 6295.00    1.65614   1.77002   -1.000
 6296.00    1.67982   1.75838   -1.000
 6297.00    1.68098   1.74709   -1.000
 6298.00    1.67946   1.74104   -1.000
 6299.00    1.72002   1.73890   -1.000
 6300.00    1.79272   1.73570   -1.000
 6301.00    1.86957   1.73092   -1.000
 6302.00    1.94821   1.73058   -1.000
 6303.00    2.05249   1.74004   -1.000
 6304.00    1.97144   1.75779   -1.000
 6305.00    1.60957   1.77819   -1.000
 6306.00    1.21867   1.79711   -1.000
 6307.00    1.19803   1.81213   -1.000
 6308.00    1.46041   1.82047   -1.000
 6309.00    1.62606   1.82037   -1.000
 6310.00    1.69831   1.81371   -1.000
 6311.00    1.69406   1.80469   -1.000
 6312.00    1.66794   1.79581   -1.000
 6313.00    1.62054   1.78618   -1.000
 6314.00    1.59773   1.77429   -1.000
 6315.00    1.63382   1.76151   -1.000
 6316.00    1.66791   1.75113   -1.000
 6317.00    1.64887   1.74512   -1.000
 6318.00    1.65197   1.74512   -1.000
 6319.00    1.65517   1.75338   -1.000
 6320.00    1.65350   1.76895   -1.000
 6321.00    1.65686   1.78639   -1.000
 6322.00    1.66524   1.80164   -1.000
 6323.00    1.70343   1.81496   -1.000
 6324.00    1.72851   1.82685   -1.000
 6325.00    1.73571   1.83558   -1.000
 6326.00    1.73765   1.83968   -1.000
 6327.00    1.70374   1.84028   -1.000
 6328.00    1.70868   1.83977   -1.000
 6329.00    1.75601   1.83958   -1.000
 6330.00    1.77095   1.84053   -1.000
 6331.00    1.76491   1.84323   -1.000
 6332.00    1.78295   1.84510   -1.000
 6333.00    1.77235   1.83953   -1.000
 6334.00    1.72073   1.82262   -1.000
 6335.00    1.68358   1.79984   -1.000
 6336.00    1.64893   1.78324   -1.000
 6337.00    1.63058   1.78137   -1.000
 6338.00    1.65860   1.79315   -1.000
 6339.00    1.69607   1.81128   -1.000
 6340.00    1.76149   1.82780   -1.000
 6341.00    1.72948   1.83645   -1.000
 6342.00    1.73988   1.83472   -1.000
 6343.00    1.74407   1.82656   -1.000
 6344.00    1.72312   1.82049   -1.000
 6345.00    1.70261   1.82297   -1.000
 6346.00    1.73548   1.83383   -1.000
 6347.00    1.74757   1.84836   -1.000
 6348.00    1.76939   1.86201   -1.000
 6349.00    1.74857   1.87223   -1.000
 6350.00    1.75934   1.87769   -1.000
 6351.00    1.78115   1.87755   -1.000
 6352.00    1.75464   1.87106   -1.000
 6353.00    1.74632   1.85857   -1.000
 6354.00    1.70876   1.84323   -1.000
 6355.00    1.70605   1.82973   -1.000
 6356.00    1.68870   1.81952   -1.000
 6357.00    1.71026   1.80931   -1.000
 6358.00    1.70669   1.79670   -1.000
 6359.00    1.71025   1.78384   -1.000
 6360.00    1.71757   1.77384   -1.000
 6361.00    1.68321   1.76755   -1.000
 6362.00    1.66746   1.76552   -1.000
 6363.00    1.70704   1.76940   -1.000
 6364.00    1.75893   1.78001   -1.000
 6365.00    1.78267   1.79583  193.590
 6366.00    1.82726   1.81386   -1.000
 6367.00    1.88044   1.83073   -1.000
 6368.00    1.79687   1.84347   -1.000
 6369.00    1.68302   1.85108   -1.000
 6370.00    1.58525   1.85586   -1.000
 6371.00    1.61895   1.86147   -1.000
 6372.00    1.66788   1.86909   -1.000
 6373.00    1.73306   1.87652   -1.000
 6374.00    1.75927   1.88074   -1.000
 6375.00    1.75417   1.88047   -1.000
 6376.00    1.73942   1.87620   -1.000
 6377.00    1.75852   1.86891   -1.000
 6378.00    1.74048   1.86011   -1.000
 6379.00    1.74043   1.85217   -1.000
 6380.00    1.72009   1.84732   -1.000
 6381.00    1.70003   1.84636   -1.000
 6382.00    1.72458   1.84835   -1.000
 6383.00    1.75565   1.85131   -1.000
 6384.00    1.71896   1.85424   -1.000
 6385.00    1.68674   1.85783   -1.000
 6386.00    1.71691   1.86250   -1.000
 6387.00    1.70349   1.86691   -1.000
 6388.00    1.69549   1.86908   -1.000
 6389.00    1.71407   1.86731   -1.000
 6390.00    1.72109   1.85930   -1.000
 6391.00    1.67365   1.84331   -1.000
 6392.00    1.65150   1.82253   -1.000
 6393.00    1.62668   1.80707   -1.000
 6394.00    1.64957   1.80743   -1.000
 6395.00    1.62766   1.82379   -1.000
 6396.00    1.62993   1.84345   -1.000
 6397.00    1.65490   1.85077   -1.000
 6398.00    1.64349   1.83948   -1.000
 6399.00    1.61150   1.81815   -1.000
 6400.00    1.57525   1.80477   -1.000
 6401.00    1.57922   1.81229   -1.000
 6402.00    1.58981   1.83745   -1.000
 6403.00    1.62106   1.86495   -1.000
 6404.00    1.61920   1.88097   -1.000
 6405.00    1.62122   1.88100   -1.000
 6406.00    1.60689   1.86902   -1.000
 6407.00    1.59684   1.85386   -1.000
 6408.00    1.56970   1.84387   -1.000
 6409.00    1.53925   1.84093   -1.000
 6410.00    1.55058   1.84052   -1.000
 6411.00    1.54018   1.83945   -1.000
 6412.00    1.52976   1.83965   -1.000
 6413.00    1.50920   1.84346   -1.000
 6414.00    1.50550   1.84984   -1.000
 6415.00    1.51178   1.85607   -1.000
 6416.00    1.51562   1.85943   -1.000
 6417.00    1.50715   1.85704   -1.000
 6418.00    1.50116   1.84684   -1.000
 6419.00    1.46500   1.83083   -1.000
 6420.00    1.44279   1.81704   -1.000
 6421.00    1.40003   1.81543   -1.000
 6422.00    1.40563   1.82963   -1.000
 6423.00    1.42863   1.85297   -1.000
 6424.00    1.41854   1.87481   -1.000
 6425.00    1.41255   1.88967   -1.000
 6426.00    1.42765   1.89738   -1.000
 6427.00    1.39817   1.89702   -1.000
 6428.00    1.39246   1.88557   -1.000
