###################################################################
## OUTPUT of StarlightChains_v04.for    [Cid@UFSC - 01/Apr/2007] ##
###################################################################

## Some input info
NGC6342_a_1.cxt                          [arq_obs]
Base.BC03.S                              [arq_base]
NGC6342_a_1.msk                          [arq_masks]
StCv04.C11.config                        [arq_config]
  150                                    [N_base]
    0                                    [N_YAV_components = # of components with extra extinction!]
    0                                    [i_FitPowerLaw (1/0 = Yes/No)]
-9.99                                    [alpha_PowerLaw]
CCM                                      [red_law_option]
 1.458241                                [q_norm = A(l_norm)/A(V)]

## (Re)Sampling Parameters
 3359.00                                 [l_ini (A)]
 6428.00                                 [l_fin (A)]
    1.00                                 [dl    (A)]     (OBS: dl_cushion =    50.00 A)

## Normalization info
 4020.00                                 [l_norm (A) - for base]
 4010.00                                 [llow_norm (A) - window for f_obs]
 4060.00                                 [lupp_norm (A) - window for f_obs]
2.158412E-15                             [fobs_norm (in input units)]

## S/N
 4730.00                                 [llow_SN (A) - window for S/N]
 4780.00                                 [lupp_SN (A) - window for S/N]
  41.172                                 [S/N in S/N window]
  28.335                                 [S/N in norm. window]
 118.442                                 [S/N_err in S/N window]
  81.514                                 [S/N_err in norm. window]
  1.0000                                 [fscale_chi2]

## etc...
  2147483615                             [idum_orig]
  3068                                   [NOl_eff]
  1134                                   [Nl_eff]
  1934    NSIGMA                         [Ntot_cliped & clip_method]
  1964340                                [Nglobal_steps]
   7                                     [N_chains]
  33                                     [NEX0s_base = N_base in EX0s-fits]
 0   0   1      115   2.0   8.706E+02    [Clip-Bug, RC-Crash & Burn-In warning-flags, n_censored_weights, wei_nsig_threshold & wei_limit]
    64     63.475     63.475      0.000  [idt_all, wdt_TotTime, wdt_UsrTime & wdt_SysTime (sec)]

## Synthesis Results - Best model ##

 2.71450E+00                             [chi2/Nl_eff]
     1.38559                             [adev (%)]

    96.94177                             [sum-of-x (%)]
 8.45701E-15                             [Flux_tot (units of input spectrum!)]
 2.94802E-10                             [Mini_tot (???)]
 1.48162E-10                             [Mcor_tot (???)]

  -2.02                                  [v0_min  (km/s)]
  64.97                                  [vd_min  (km/s)]
 1.0399                                  [AV_min  (mag)]
 0.0000                                  [YAV_min (mag)]

# j     x_j(%)      Mini_j(%)     Mcor_j(%)     age_j(yr)     Z_j      (L/M)_j    YAV?  Mstars   component_j        a/Fe...       SSP_chi2r SSP_adev(%)   SSP_AV   SSP_x(%)
  1      0.0000     0.0000E+00    0.0000E+00    1.000000E+06  0.00010  8.160E-03    0   1.0000   age020_m22            0.0000     1.9923E+03    27.9025   4.0000    80.7173
  2      0.0000     0.0000E+00    0.0000E+00    3.160000E+06  0.00010  4.759E-02    0   1.0000   age045_m22            0.0000     7.4715E+01     6.7774   2.9526    92.8465
  3      0.0000     0.0000E+00    0.0000E+00    5.010000E+06  0.00010  1.932E-02    0   0.9582   age055_m22            0.0000     3.5162E+02    13.5185   3.3865    73.8761
  4      0.0000     0.0000E+00    0.0000E+00    6.610000E+06  0.00010  9.973E-03    0   0.9297   age061_m22            0.0000     1.8722E+03    26.8260   4.0000    83.4581
  5      0.0000     0.0000E+00    0.0000E+00    8.710000E+06  0.00010  7.690E-03    0   0.9030   age067_m22            0.0000     1.8108E+03    26.3669   4.0000    84.1878
  6      0.0000     0.0000E+00    0.0000E+00    1.000000E+07  0.00010  6.375E-03    0   0.8902   age070_m22            0.0000     1.8083E+03    26.2942   4.0000    84.7337
  7      0.0000     0.0000E+00    0.0000E+00    1.445000E+07  0.00010  4.874E-03    0   0.8589   age078_m22            0.0000     1.2044E+03    21.6342   4.0000    87.9973
  8      0.0000     0.0000E+00    0.0000E+00    2.512000E+07  0.00010  4.103E-03    0   0.8174   age090_m22            0.0000     3.0506E+02    12.1336   4.0000    92.1199
  9      0.0000     0.0000E+00    0.0000E+00    4.000000E+07  0.00010  3.654E-03    0   0.7830   age104_m22            0.0000     9.1904E+01     8.2361   3.9845    93.0630
 10      0.0000     0.0000E+00    0.0000E+00    5.500000E+07  0.00010  3.093E-03    0   0.7597   age110_m22            0.0000     9.0690E+01     7.9078   3.8588    95.8928
 11      0.0000     0.0000E+00    0.0000E+00    1.015200E+08  0.00010  2.431E-03    0   0.7138   age116_m22            0.0000     1.1165E+02     8.1439   3.4656   100.9856
 12      0.0000     0.0000E+00    0.0000E+00    1.609000E+08  0.00010  1.319E-03    0   0.6775   age120_m22            0.0000     1.0214E+02     7.6450   3.0031   102.6837
 13      0.0000     0.0000E+00    0.0000E+00    2.861200E+08  0.00010  1.075E-03    0   0.6412   age125_m22            0.0000     2.7665E+02    10.8442   2.9645   111.8504
 14      0.0000     0.0000E+00    0.0000E+00    5.088000E+08  0.00010  7.183E-04    0   0.6083   age130_m22            0.0000     3.5652E+02    12.0170   2.7096   115.0609
 15      0.0000     0.0000E+00    0.0000E+00    9.047900E+08  0.00010  4.524E-04    0   0.5785   age135_m22            0.0000     3.7086E+02    12.0890   2.5026   116.6723
 16      0.0000     0.0000E+00    0.0000E+00    1.278050E+09  0.00010  3.018E-04    0   0.5588   age138_m22            0.0000     1.7422E+02     8.4428   2.0377   111.2768
 17      0.0000     0.0000E+00    0.0000E+00    1.434000E+09  0.00010  2.691E-04    0   0.5532   age139_m22            0.0000     1.4467E+02     7.7345   1.8951   109.9938
 18      0.0000     0.0000E+00    0.0000E+00    2.500000E+09  0.00010  1.582E-04    0   0.5296   age150_m22            0.0000     1.2663E+02     7.3323   1.7841   110.3489
 19      0.0000     0.0000E+00    0.0000E+00    4.250000E+09  0.00010  1.007E-04    0   0.5110   age158_m22            0.0000     7.4141E+01     5.9541   1.6726   106.5135
 20      0.3004     1.2939E-01    1.2834E-01    6.250000E+09  0.00010  6.869E-05    0   0.4985   age166_m22            0.0000     4.2687E+01     4.9823   1.6585   101.4907
 21      1.4488     7.3002E-01    7.1625E-01    7.500000E+09  0.00010  5.873E-05    0   0.4931   age171_m22            0.0000     4.1607E+01     5.0412   1.6517   100.5963
 22      0.8758     5.7837E-01    5.5860E-01    1.000000E+10  0.00010  4.481E-05    0   0.4854   age181_m22            0.0000     4.0382E+01     4.9667   1.6142   100.2224
 23      0.3313     2.8101E-01    2.6789E-01    1.300000E+10  0.00010  3.489E-05    0   0.4791   age193_m22            0.0000     3.7421E+01     4.7744   1.5617    99.5246
 24      0.6547     6.3830E-01    6.0531E-01    1.500000E+10  0.00010  3.035E-05    0   0.4766   age201_m22            0.0000     3.5710E+01     4.6813   1.5256    99.2098
 25      0.7238     8.5330E-01    8.0393E-01    1.800000E+10  0.00010  2.510E-05    0   0.4735   age213_m22            0.0000     3.2377E+01     4.4950   1.4648    98.2513
 26      0.0000     0.0000E+00    0.0000E+00    1.000000E+06  0.00040  8.458E-03    0   1.0000   age020_m32            0.0000     2.0180E+03    27.9720   4.0000    81.5139
 27      0.0000     0.0000E+00    0.0000E+00    3.160000E+06  0.00040  3.973E-02    0   1.0000   age045_m32            0.0000     2.4946E+02    10.9673   4.0000    89.7261
 28      0.0000     0.0000E+00    0.0000E+00    5.010000E+06  0.00040  1.935E-02    0   0.9532   age055_m32            0.0000     7.4104E+02    17.4590   4.0000    84.8978
 29      0.0000     0.0000E+00    0.0000E+00    6.610000E+06  0.00040  1.204E-02    0   0.9243   age061_m32            0.0000     1.4083E+03    23.3818   4.0000    85.6221
 30      0.0000     0.0000E+00    0.0000E+00    8.710000E+06  0.00040  9.433E-03    0   0.9001   age067_m32            0.0000     1.2812E+03    22.3456   4.0000    86.8795
 31      0.0000     0.0000E+00    0.0000E+00    1.000000E+07  0.00040  8.053E-03    0   0.8877   age070_m32            0.0000     1.1806E+03    21.5016   4.0000    87.2502
 32      0.0000     0.0000E+00    0.0000E+00    1.445000E+07  0.00040  7.027E-03    0   0.8578   age078_m32            0.0000     2.6625E+02    11.4724   4.0000    86.9824
 33      0.0000     0.0000E+00    0.0000E+00    2.512000E+07  0.00040  4.707E-03    0   0.8166   age090_m32            0.0000     1.2676E+02     9.4370   3.9009    87.8280
 34      0.0000     0.0000E+00    0.0000E+00    4.000000E+07  0.00040  3.714E-03    0   0.7827   age104_m32            0.0000     9.1804E+01     8.2322   3.6393    94.0046
 35      0.0000     0.0000E+00    0.0000E+00    5.500000E+07  0.00040  2.982E-03    0   0.7593   age110_m32            0.0000     8.9625E+01     7.9928   3.5551    96.3375
 36      0.0000     0.0000E+00    0.0000E+00    1.015200E+08  0.00040  2.188E-03    0   0.7143   age116_m32            0.0000     1.4736E+02     8.6704   3.2107   104.9632
 37      0.0000     0.0000E+00    0.0000E+00    1.609000E+08  0.00040  1.690E-03    0   0.6856   age120_m32            0.0000     2.2700E+02     9.8878   2.9512   110.3757
 38      0.0000     0.0000E+00    0.0000E+00    2.861200E+08  0.00040  1.152E-03    0   0.6509   age125_m32            0.0000     3.0022E+02    11.1161   2.7096   113.5196
 39      0.0000     0.0000E+00    0.0000E+00    5.088000E+08  0.00040  7.331E-04    0   0.6182   age130_m32            0.0000     3.3637E+02    11.6348   2.5365   114.9119
 40      0.0000     0.0000E+00    0.0000E+00    9.047900E+08  0.00040  3.960E-04    0   0.5890   age135_m32            0.0000     1.8366E+02     8.7868   2.1345   110.5438
 41      0.0000     0.0000E+00    0.0000E+00    1.278050E+09  0.00040  2.854E-04    0   0.5687   age138_m32            0.0000     1.5024E+02     7.7771   1.8412   111.9896
 42      0.0000     0.0000E+00    0.0000E+00    1.434000E+09  0.00040  2.531E-04    0   0.5632   age139_m32            0.0000     1.4600E+02     7.6639   1.7791   111.9563
 43      1.3073     2.5998E-01    2.7861E-01    2.500000E+09  0.00040  1.488E-04    0   0.5386   age150_m32            0.0000     1.0543E+02     6.6050   1.5448   109.0224
 44     14.5704     4.7475E+00    4.9111E+00    4.250000E+09  0.00040  9.082E-05    0   0.5199   age158_m32            0.0000     3.9866E+01     4.5578   1.5128   102.2740
 45     11.0869     5.1569E+00    5.2085E+00    6.250000E+09  0.00040  6.362E-05    0   0.5076   age166_m32            0.0000     2.8211E+01     4.0954   1.5233    96.2322
 46     10.8841     6.0897E+00    6.0911E+00    7.500000E+09  0.00040  5.289E-05    0   0.5027   age171_m32            0.0000     2.7559E+01     4.0055   1.4982    94.5424
 47      8.3939     6.2536E+00    6.1568E+00    1.000000E+10  0.00040  3.972E-05    0   0.4948   age181_m32            0.0000     2.5932E+01     3.8441   1.4448    92.9442
 48      0.0002     1.9720E-04    1.9109E-04    1.300000E+10  0.00040  3.283E-05    0   0.4870   age193_m32            0.0000     2.2254E+01     3.6800   1.3725    97.0017
 49      0.0004     3.7238E-04    3.5965E-04    1.500000E+10  0.00040  2.925E-05    0   0.4854   age201_m32            0.0000     2.5228E+01     3.8101   1.3364    99.4493
 50      0.0002     2.1618E-04    2.0728E-04    1.800000E+10  0.00040  2.469E-05    0   0.4819   age213_m32            0.0000     2.6948E+01     3.8497   1.2890   100.3515
 51      0.0000     0.0000E+00    0.0000E+00    1.000000E+06  0.00400  1.114E-02    0   1.0000   age020_m42            0.0000     1.8048E+03    26.4312   4.0000    81.8836
 52      0.0000     0.0000E+00    0.0000E+00    3.160000E+06  0.00400  4.073E-02    0   0.9999   age045_m42            0.0000     1.0129E+02     8.0991   3.9616    87.5896
 53      0.0000     0.0000E+00    0.0000E+00    5.010000E+06  0.00400  2.534E-02    0   0.9488   age055_m42            0.0000     4.3673E+02    13.7808   4.0000    86.8226
 54      0.0000     0.0000E+00    0.0000E+00    6.610000E+06  0.00400  2.583E-02    0   0.9220   age061_m42            0.0000     8.7425E+01     7.9620   3.7369    90.1383
 55      0.0000     0.0000E+00    0.0000E+00    8.710000E+06  0.00400  1.706E-02    0   0.8983   age067_m42            0.0000     1.3781E+02     9.7910   3.5957    86.2735
 56      0.0000     0.0000E+00    0.0000E+00    1.000000E+07  0.00400  1.271E-02    0   0.8862   age070_m42            0.0000     1.9526E+02    11.4424   3.6031    83.5808
 57      0.0000     0.0000E+00    0.0000E+00    1.445000E+07  0.00400  7.666E-03    0   0.8571   age078_m42            0.0000     2.4178E+02    12.0922   4.0000    79.9577
 58      0.0000     0.0000E+00    0.0000E+00    2.512000E+07  0.00400  5.070E-03    0   0.8174   age090_m42            0.0000     1.7610E+02    10.8651   3.4715    85.2676
 59      0.0000     0.0000E+00    0.0000E+00    4.000000E+07  0.00400  3.505E-03    0   0.7851   age104_m42            0.0000     1.2175E+02     9.0318   3.1456    88.9538
 60      0.0000     0.0000E+00    0.0000E+00    5.500000E+07  0.00400  3.059E-03    0   0.7629   age110_m42            0.0000     6.8030E+01     6.7546   3.1102    98.2173
 61      0.0000     0.0000E+00    0.0000E+00    1.015200E+08  0.00400  2.268E-03    0   0.7207   age116_m42            0.0000     1.8750E+02     9.0260   2.8905   110.1941
 62      0.0000     0.0000E+00    0.0000E+00    1.609000E+08  0.00400  1.720E-03    0   0.6930   age120_m42            0.0000     2.1821E+02     9.5993   2.7406   112.4950
 63      0.0000     0.0000E+00    0.0000E+00    2.861200E+08  0.00400  1.079E-03    0   0.6613   age125_m42            0.0000     2.0260E+02     9.2844   2.3948   112.5303
 64      0.0000     0.0000E+00    0.0000E+00    5.088000E+08  0.00400  6.261E-04    0   0.6313   age130_m42            0.0000     2.5174E+02     9.9484   2.1692   117.0669
 65      0.0000     0.0000E+00    0.0000E+00    9.047900E+08  0.00400  3.535E-04    0   0.6024   age135_m42            0.0000     1.4283E+02     7.5278   1.8183   114.8093
 66      0.0000     0.0000E+00    0.0000E+00    1.278050E+09  0.00400  2.677E-04    0   0.5837   age138_m42            0.0000     4.3667E+01     4.6668   1.2232   108.3771
 67      0.0000     0.0000E+00    0.0000E+00    1.434000E+09  0.00400  1.910E-04    0   0.5716   age139_m42            0.0000     6.3554E+01     5.2982   1.3711   110.1958
 68      0.0000     0.0000E+00    0.0000E+00    2.500000E+09  0.00400  9.818E-05    0   0.5463   age150_m42            0.0000     1.0575E+01     2.3628   1.1871   101.4775
 69      0.0072     3.8595E-03    4.0463E-03    4.250000E+09  0.00400  5.491E-05    0   0.5269   age158_m42            0.0000     4.6760E+00     1.7245   1.0953    97.2118
 70      0.0000     0.0000E+00    0.0000E+00    6.250000E+09  0.00400  3.857E-05    0   0.5151   age166_m42            0.0000     7.5095E+00     2.1532   0.9847    95.4495
 71      0.0025     2.2812E-03    2.3194E-03    7.500000E+09  0.00400  3.243E-05    0   0.5110   age171_m42            0.0000     1.0572E+01     2.4983   0.9126    94.7911
 72     15.8255     1.9320E+01    1.9328E+01    1.000000E+10  0.00400  2.424E-05    0   0.5028   age181_m42            0.0000     1.6287E+01     3.0303   0.8427    93.9452
 73      6.6743     1.0489E+01    1.0283E+01    1.300000E+10  0.00400  1.883E-05    0   0.4927   age193_m42            0.0000     2.2758E+01     3.5088   0.8113    93.3505
 74      0.0827     1.4529E-01    1.4220E-01    1.500000E+10  0.00400  1.685E-05    0   0.4919   age201_m42            0.0000     2.1544E+01     3.4217   0.8153    93.3661
 75      0.0000     0.0000E+00    0.0000E+00    1.800000E+10  0.00400  1.452E-05    0   0.4874   age213_m42            0.0000     1.9606E+01     3.2725   0.8280    93.6572
 76      0.0000     0.0000E+00    0.0000E+00    1.000000E+06  0.00800  1.286E-02    0   1.0000   age020_m52            0.0000     1.6882E+03    25.2677   4.0000    83.9619
 77      0.0000     0.0000E+00    0.0000E+00    3.160000E+06  0.00800  3.147E-02    0   0.9966   age045_m52            0.0000     1.4423E+03    23.5163   4.0000    85.2902
 78      0.0000     0.0000E+00    0.0000E+00    5.010000E+06  0.00800  2.664E-02    0   0.9443   age055_m52            0.0000     6.6519E+02    16.4626   4.0000    86.7857
 79      0.0000     0.0000E+00    0.0000E+00    6.610000E+06  0.00800  2.151E-02    0   0.9177   age061_m52            0.0000     1.7196E+02     9.9819   3.2372    83.9688
 80      0.0000     0.0000E+00    0.0000E+00    8.710000E+06  0.00800  1.628E-02    0   0.8948   age067_m52            0.0000     1.6772E+02    10.4100   3.5839    85.2549
 81      0.0000     0.0000E+00    0.0000E+00    1.000000E+07  0.00800  1.215E-02    0   0.8827   age070_m52            0.0000     1.9774E+02    11.1848   3.9379    82.8132
 82      0.0000     0.0000E+00    0.0000E+00    1.445000E+07  0.00800  8.739E-03    0   0.8552   age078_m52            0.0000     1.6272E+02    10.3832   3.9569    85.1106
 83      0.0000     0.0000E+00    0.0000E+00    2.512000E+07  0.00800  5.676E-03    0   0.8162   age090_m52            0.0000     1.1133E+02     9.0075   3.4907    92.7631
 84      0.0000     0.0000E+00    0.0000E+00    4.000000E+07  0.00800  3.939E-03    0   0.7841   age104_m52            0.0000     8.8000E+01     7.7989   3.2979    97.0161
 85      0.0000     0.0000E+00    0.0000E+00    5.500000E+07  0.00800  3.155E-03    0   0.7627   age110_m52            0.0000     8.8657E+01     7.4057   3.2335   100.5745
 86      0.0000     0.0000E+00    0.0000E+00    1.015200E+08  0.00800  2.206E-03    0   0.7226   age116_m52            0.0000     1.3601E+02     7.9403   2.9845   108.0780
 87      0.0000     0.0000E+00    0.0000E+00    1.609000E+08  0.00800  1.596E-03    0   0.6963   age120_m52            0.0000     1.6396E+02     8.4777   2.7502   110.9264
 88      0.0000     0.0000E+00    0.0000E+00    2.861200E+08  0.00800  1.002E-03    0   0.6665   age125_m52            0.0000     2.6606E+02    10.5970   2.4177   116.3330
 89      0.0000     0.0000E+00    0.0000E+00    5.088000E+08  0.00800  5.759E-04    0   0.6377   age130_m52            0.0000     3.0313E+02    10.9913   2.0687   121.0630
 90      0.0000     0.0000E+00    0.0000E+00    9.047900E+08  0.00800  2.972E-04    0   0.6086   age135_m52            0.0000     1.5699E+02     8.1581   1.6210   115.6342
 91      0.0000     0.0000E+00    0.0000E+00    1.278050E+09  0.00800  2.242E-04    0   0.5907   age138_m52            0.0000     4.9656E+01     4.7397   1.0789   110.5824
 92      0.0000     0.0000E+00    0.0000E+00    1.434000E+09  0.00800  1.645E-04    0   0.5787   age139_m52            0.0000     3.9054E+01     4.3050   1.2342   109.5004
 93      0.0000     0.0000E+00    0.0000E+00    2.500000E+09  0.00800  7.723E-05    0   0.5519   age150_m52            0.0000     1.7945E+01     3.0135   0.9477   103.4277
 94      0.0003     2.0208E-04    2.1391E-04    4.250000E+09  0.00800  4.151E-05    0   0.5320   age158_m52            0.0000     1.4237E+01     2.8894   0.8974   100.0035
 95      0.0000     0.0000E+00    0.0000E+00    6.250000E+09  0.00800  3.010E-05    0   0.5197   age166_m52            0.0000     2.3041E+01     3.6324   0.7198    98.2411
 96      0.0000     0.0000E+00    0.0000E+00    7.500000E+09  0.00800  2.467E-05    0   0.5139   age171_m52            0.0000     2.6322E+01     3.8695   0.6800    97.8649
 97     12.2140     1.9411E+01    1.9520E+01    1.000000E+10  0.00800  1.862E-05    0   0.5054   age181_m52            0.0000     3.9129E+01     4.6792   0.5546    97.5874
 98      2.9493     6.0904E+00    6.0446E+00    1.300000E+10  0.00800  1.433E-05    0   0.4988   age193_m52            0.0000     5.5122E+01     5.4962   0.4652    98.1680
 99      2.7617     6.5695E+00    6.4521E+00    1.500000E+10  0.00800  1.244E-05    0   0.4936   age201_m52            0.0000     6.1899E+01     5.7774   0.4381    98.6077
100      1.6496     4.5621E+00    4.4370E+00    1.800000E+10  0.00800  1.070E-05    0   0.4888   age213_m52            0.0000     6.6993E+01     6.0009   0.4044    98.4965
101      0.0000     0.0000E+00    0.0000E+00    1.000000E+06  0.02000  1.989E-02    0   1.0000   age020_m62            0.0000     1.6949E+03    25.4883   4.0000    82.5447
102      0.0000     0.0000E+00    0.0000E+00    3.160000E+06  0.02000  3.772E-02    0   0.9858   age045_m62            0.0000     1.3079E+03    22.6710   4.0000    84.3630
103      0.0000     0.0000E+00    0.0000E+00    5.010000E+06  0.02000  3.227E-02    0   0.9342   age055_m62            0.0000     2.1757E+02    10.7099   4.0000    88.4567
104      0.0000     0.0000E+00    0.0000E+00    6.610000E+06  0.02000  2.387E-02    0   0.9090   age061_m62            0.0000     2.2850E+02    12.0507   4.0000    81.4464
105      0.0000     0.0000E+00    0.0000E+00    8.710000E+06  0.02000  1.102E-02    0   0.8861   age067_m62            0.0000     5.7660E+02    18.0552   3.7036    73.0126
106      0.0000     0.0000E+00    0.0000E+00    1.000000E+07  0.02000  1.011E-02    0   0.8751   age070_m62            0.0000     4.1498E+02    15.4727   3.7014    76.6385
107      0.0000     0.0000E+00    0.0000E+00    1.445000E+07  0.02000  7.331E-03    0   0.8472   age078_m62            0.0000     3.0144E+02    13.3403   3.7036    79.0757
108      0.0000     0.0000E+00    0.0000E+00    2.512000E+07  0.02000  4.206E-03    0   0.8099   age090_m62            0.0000     3.2052E+02    13.5675   3.6328    77.9368
109      0.0000     0.0000E+00    0.0000E+00    4.000000E+07  0.02000  3.373E-03    0   0.7799   age104_m62            0.0000     1.0991E+02     8.7434   3.3267    91.6874
110      0.0000     0.0000E+00    0.0000E+00    5.500000E+07  0.02000  2.747E-03    0   0.7595   age110_m62            0.0000     8.1420E+01     7.5021   3.1964    98.4042
111      0.0000     0.0000E+00    0.0000E+00    1.015200E+08  0.02000  1.878E-03    0   0.7221   age116_m62            0.0000     1.4074E+02     8.1659   2.9549   108.7153
112      0.0000     0.0000E+00    0.0000E+00    1.609000E+08  0.02000  1.378E-03    0   0.6978   age120_m62            0.0000     2.2024E+02     9.6283   2.7539   114.0349
113      0.0000     0.0000E+00    0.0000E+00    2.861200E+08  0.02000  8.869E-04    0   0.6700   age125_m62            0.0000     3.7879E+02    12.0240   2.3268   121.9924
114      0.0000     0.0000E+00    0.0000E+00    5.088000E+08  0.02000  4.834E-04    0   0.6430   age130_m62            0.0000     3.4095E+02    11.3714   1.9253   123.3119
115      0.0000     0.0000E+00    0.0000E+00    9.047900E+08  0.02000  2.312E-04    0   0.6152   age135_m62            0.0000     1.4736E+02     7.5100   1.4155   117.8973
116      0.0000     0.0000E+00    0.0000E+00    1.278050E+09  0.02000  1.387E-04    0   0.5927   age138_m62            0.0000     4.5289E+01     4.3884   1.1218   109.1201
117      0.0000     0.0000E+00    0.0000E+00    1.434000E+09  0.02000  1.168E-04    0   0.5865   age139_m62            0.0000     3.3322E+01     3.8276   1.1162   106.5624
118      0.0000     0.0000E+00    0.0000E+00    2.500000E+09  0.02000  5.505E-05    0   0.5610   age150_m62            0.0000     2.7754E+01     3.8223   0.7884   101.9904
119      0.0000     0.0000E+00    0.0000E+00    4.250000E+09  0.02000  3.070E-05    0   0.5407   age158_m62            0.0000     5.7143E+01     5.5109   0.5033   102.0869
120      0.0000     0.0000E+00    0.0000E+00    6.250000E+09  0.02000  2.104E-05    0   0.5277   age166_m62            0.0000     7.7427E+01     6.4013   0.3754   102.5661
121      0.0000     0.0000E+00    0.0000E+00    7.500000E+09  0.02000  1.770E-05    0   0.5223   age171_m62            0.0000     9.1015E+01     6.8883   0.2862   103.1351
122      0.1340     3.0575E-01    3.1154E-01    1.000000E+10  0.02000  1.297E-05    0   0.5121   age181_m62            0.0000     1.2136E+02     7.8458   0.1264   103.9655
123      0.3759     1.1478E+00    1.1526E+00    1.300000E+10  0.02000  9.691E-06    0   0.5047   age193_m62            0.0000     1.4298E+02     8.4125   0.0422   104.5322
124      0.1813     6.4168E-01    6.3826E-01    1.500000E+10  0.02000  8.360E-06    0   0.4999   age201_m62            0.0000     1.6386E+02     8.9435  -0.0312   105.0571
125      0.0190     8.1269E-02    7.9979E-02    1.800000E+10  0.02000  6.911E-06    0   0.4946   age213_m62            0.0000     1.9236E+02     9.6202  -0.1104   105.7681
126      0.0000     0.0000E+00    0.0000E+00    1.000000E+06  0.05000  2.651E-02    0   0.9998   age020_m72            0.0000     1.6694E+03    25.1290   4.0000    83.6686
127      0.0000     0.0000E+00    0.0000E+00    3.160000E+06  0.05000  4.817E-02    0   0.9577   age045_m72            0.0000     8.4628E+02    18.5392   4.0000    87.8662
128      0.0000     0.0000E+00    0.0000E+00    5.010000E+06  0.05000  3.101E-02    0   0.9147   age055_m72            0.0000     3.5817E+02    12.6823   4.0000    85.4542
129      0.0000     0.0000E+00    0.0000E+00    6.610000E+06  0.05000  1.472E-02    0   0.8877   age061_m72            0.0000     4.5526E+02    15.5067   3.9164    74.7524
130      0.0000     0.0000E+00    0.0000E+00    8.710000E+06  0.05000  1.050E-02    0   0.8638   age067_m72            0.0000     4.3256E+02    13.7673   4.0000    82.1512
131      0.0000     0.0000E+00    0.0000E+00    1.000000E+07  0.05000  8.954E-03    0   0.8524   age070_m72            0.0000     6.4428E+02    16.0903   4.0000    87.5828
132      0.0000     0.0000E+00    0.0000E+00    1.445000E+07  0.05000  6.392E-03    0   0.8262   age078_m72            0.0000     5.2142E+02    14.5459   4.0000    88.3791
133      0.0000     0.0000E+00    0.0000E+00    2.512000E+07  0.05000  4.207E-03    0   0.7902   age090_m72            0.0000     1.3720E+02     8.8610   4.0000    87.0390
134      0.0000     0.0000E+00    0.0000E+00    4.000000E+07  0.05000  3.198E-03    0   0.7618   age104_m72            0.0000     8.3733E+01     7.0721   3.4139   100.4215
135      0.0000     0.0000E+00    0.0000E+00    5.500000E+07  0.05000  2.593E-03    0   0.7432   age110_m72            0.0000     1.0939E+02     7.6100   3.2764   104.4281
136      0.0000     0.0000E+00    0.0000E+00    1.015200E+08  0.05000  1.716E-03    0   0.7092   age116_m72            0.0000     1.7591E+02     8.8199   3.0221   110.0555
137      0.0000     0.0000E+00    0.0000E+00    1.609000E+08  0.05000  1.218E-03    0   0.6876   age120_m72            0.0000     2.7048E+02    10.5406   2.7059   115.6903
138      0.0000     0.0000E+00    0.0000E+00    2.861200E+08  0.05000  7.047E-04    0   0.6618   age125_m72            0.0000     3.8974E+02    12.0626   2.1322   122.2963
139      0.0000     0.0000E+00    0.0000E+00    5.088000E+08  0.05000  3.590E-04    0   0.6356   age130_m72            0.0000     3.1409E+02    10.4980   1.6001   123.4046
140      0.0000     0.0000E+00    0.0000E+00    9.047900E+08  0.05000  1.484E-04    0   0.6088   age135_m72            0.0000     7.9893E+01     5.5896   1.0117   109.6368
141      0.0000     0.0000E+00    0.0000E+00    1.278050E+09  0.05000  9.435E-05    0   0.5924   age138_m72            0.0000     6.9192E+01     5.5796   0.6612   104.7507
142      0.0000     0.0000E+00    0.0000E+00    1.434000E+09  0.05000  7.827E-05    0   0.5847   age139_m72            0.0000     5.9693E+01     5.3172   0.6849   103.5512
143      0.7135     5.6171E-01    6.2399E-01    2.500000E+09  0.05000  3.759E-05    0   0.5583   age150_m72            0.0000     7.9269E+01     6.4342   0.3864   101.9008
144      2.2968     3.6898E+00    3.9455E+00    4.250000E+09  0.05000  1.842E-05    0   0.5374   age158_m72            0.0000     1.2276E+02     7.7288   0.0710   101.7199
145      0.2952     7.2380E-01    7.5493E-01    6.250000E+09  0.05000  1.207E-05    0   0.5242   age166_m72            0.0000     1.7398E+02     9.0068  -0.1773   102.2785
146      0.1809     5.3580E-01    5.5256E-01    7.500000E+09  0.05000  9.993E-06    0   0.5183   age171_m72            0.0000     1.8308E+02     9.1910  -0.2233   102.3874
147      0.0000     1.3983E-05    1.4137E-05    1.000000E+10  0.05000  7.291E-06    0   0.5081   age181_m72            0.0000     2.2632E+02    10.0982  -0.3569   103.0868
148      0.0000     0.0000E+00    0.0000E+00    1.300000E+10  0.05000  5.316E-06    0   0.5018   age193_m72            0.0000     3.0512E+02    11.5283  -0.5607   104.2309
149      0.0000     0.0000E+00    0.0000E+00    1.500000E+10  0.05000  4.497E-06    0   0.4972   age201_m72            0.0000     3.4956E+02    12.2512  -0.6443   105.1379
150      0.0000     0.0000E+00    0.0000E+00    1.800000E+10  0.05000  3.739E-06    0   0.4924   age213_m72            0.0000     4.1133E+02    13.2055  -0.7627   106.0776


## Synthesis Results - Average & Chains ##

# j      x_j: min, <> & last-chain-values for 1 ...  7 chains
  1      0.0000      0.0082      0.0026      0.0000      0.0000      0.0000      0.0000      0.1064      0.0000
  2      0.0000      0.0251      0.0581      0.0454      0.0000      0.0000      0.0000      0.0000      0.0635
  3      0.0000      0.1084      0.0000      0.1458      0.0485      0.2015      0.1910      0.0722      0.0975
  4      0.0000      0.0244      0.0000      0.0000      0.0201      0.0000      0.0000      0.0000      0.0479
  5      0.0000      0.0094      0.0000      0.0000      0.0000      0.0000      0.0000      0.0000      0.1010
  6      0.0000      0.0144      0.0000      0.0000      0.0000      0.0118      0.0000      0.0000      0.0000
  7      0.0000      0.0341      0.0000      0.0000      0.0239      0.0000      0.0338      0.0514      0.0000
  8      0.0000      0.0193      0.0000      0.0000      0.0000      0.0000      0.0000      0.0000      0.0194
  9      0.0000      0.0183      0.0124      0.0000      0.0000      0.0000      0.0000      0.0155      0.0000
 10      0.0000      0.0217      0.0000      0.0537      0.0000      0.0000      0.0000      0.0000      0.0009
 11      0.0000      0.0168      0.0603      0.0000      0.0000      0.0000      0.0000      0.0000      0.0000
 12      0.0000      0.0132      0.0000      0.0000      0.0000      0.0000      0.0600      0.0000      0.0000
 13      0.0000      0.0050      0.0000      0.0000      0.0000      0.0000      0.0612      0.0000      0.0000
 14      0.0000      0.0033      0.0000      0.0000      0.0000      0.0000      0.0000      0.0000      0.0000
 15      0.0000      0.0051      0.0000      0.0000      0.0000      0.0000      0.0000      0.0000      0.0000
 16      0.0000      0.0068      0.0000      0.0000      0.0066      0.0324      0.0000      0.0519      0.0000
 17      0.0000      0.0123      0.0000      0.0219      0.0000      0.0000      0.0000      0.0000      0.0040
 18      0.0000      0.0309      0.0000      0.0000      0.0000      0.0000      0.0147      0.0000      0.0000
 19      0.0000      0.0756      0.0000      0.0000      0.0000      0.0000      0.3889      0.1274      0.5105
 20      0.3004      0.1641      0.0000      0.2242      0.4799      0.2623      0.0000      0.1016      0.0227
 21      1.4488      0.4490      0.4447      0.0000      0.5295      0.6061      0.6626      0.4919      0.6972
 22      0.8758      0.4030      0.3909      0.5540      0.1977      0.5225      0.2794      0.3078      0.4055
 23      0.3313      0.5754      0.5387      0.6793      0.1710      0.8165      0.5932      0.7923      0.2985
 24      0.6547      0.7168      0.7930      0.7955      0.7497      1.3254      0.7421      0.1034      0.6646
 25      0.7238      0.9991      1.0657      1.0617      1.1837      0.8889      1.1558      0.4733      1.4513
 26      0.0000      0.0129      0.0000      0.0000      0.0447      0.0000      0.0000      0.0000      0.0000
 27      0.0000      0.0445      0.0000      0.1005      0.2192      0.0000      0.0000      0.0680      0.0256
 28      0.0000      0.0111      0.0000      0.0000      0.0000      0.0000      0.0000      0.0000      0.0000
 29      0.0000      0.0177      0.0006      0.0151      0.0000      0.0000      0.0000      0.0408      0.0000
 30      0.0000      0.0365      0.1442      0.0000      0.0000      0.0568      0.0747      0.0000      0.0000
 31      0.0000      0.0141      0.0000      0.0000      0.0000      0.0000      0.0000      0.0000      0.0000
 32      0.0000      0.0217      0.0000      0.0000      0.0000      0.1972      0.2309      0.0000      0.0000
 33      0.0000      0.0203      0.0137      0.0000      0.0000      0.0000      0.0000      0.0000      0.0000
 34      0.0000      0.0182      0.0000      0.1466      0.0000      0.1292      0.0000      0.0000      0.0000
 35      0.0000      0.0118      0.0933      0.0000      0.0492      0.0000      0.0061      0.0000      0.0000
 36      0.0000      0.0129      0.0000      0.0196      0.0000      0.0000      0.0000      0.0000      0.0000
 37      0.0000      0.0045      0.0404      0.0000      0.0000      0.0000      0.0000      0.0000      0.0041
 38      0.0000      0.0089      0.0000      0.0000      0.0000      0.0000      0.0000      0.0000      0.1184
 39      0.0000      0.0071      0.0000      0.0000      0.0000      0.0000      0.0000      0.0000      0.0000
 40      0.0000      0.0080      0.0738      0.0000      0.0000      0.0000      0.0000      0.0000      0.0000
 41      0.0000      0.0170      0.0000      0.0000      0.0000      0.0000      0.0000      0.0236      0.0000
 42      0.0000      0.0211      0.0000      0.0000      0.0000      0.0000      0.0000      0.0297      0.0000
 43      1.3073      4.5811      4.3015      4.5605      4.0779      4.2097      3.5736      4.8286      4.0548
 44     14.5704     14.6216     14.6063     14.6305     15.0553     14.2426     13.7313     14.9469     13.7560
 45     11.0869      5.6336      6.3773      5.7018      5.6692      6.3011      6.6541      6.7019      5.7708
 46     10.8841      5.6875      5.7123      6.0150      5.7140      5.9018      6.3881      5.8315      6.6614
 47      8.3939      9.5157      9.6901     10.2999     10.0724      9.3981      9.3756      9.4995     10.0507
 48      0.0002      1.6311      1.6586      2.3299      1.7468      1.6944      1.7481      1.5884      1.8740
 49      0.0004      0.6985      1.1373      0.6236      0.4346      0.4644      0.4068      0.7109      0.8644
 50      0.0002      0.4573      0.2885      0.0753      1.0120      0.6551      1.1562      0.2637      0.5854
 51      0.0000      0.0084      0.0000      0.0000      0.0000      0.0528      0.0000      0.0000      0.0000
 52      0.0000      0.0229      0.0000      0.0868      0.0000      0.0021      0.0000      0.0000      0.0714
 53      0.0000      0.0167      0.0685      0.0000      0.0968      0.1367      0.0150      0.0000      0.0000
 54      0.0000      0.0531      0.3051      0.0000      0.0000      0.1230      0.0380      0.0000      0.0000
 55      0.0000      0.0244      0.0000      0.0108      0.0826      0.0000      0.0000      0.0000      0.0000
 56      0.0000      0.0273      0.1813      0.0000      0.0902      0.0906      0.0000      0.0000      0.0000
 57      0.0000      0.0293      0.0000      0.0000      0.0000      0.0000      0.0000      0.0000      0.0582
 58      0.0000      0.0154      0.1165      0.1815      0.0000      0.0000      0.0403      0.0000      0.0000
 59      0.0000      0.0115      0.0000      0.0000      0.0000      0.0000      0.0892      0.0048      0.0000
 60      0.0000      0.0071      0.0000      0.0202      0.0000      0.0801      0.0140      0.0000      0.0000
 61      0.0000      0.0075      0.0000      0.0446      0.0000      0.0000      0.0000      0.0000      0.0000
 62      0.0000      0.0061      0.0000      0.0000      0.0000      0.0000      0.0000      0.0000      0.0000
 63      0.0000      0.0075      0.0639      0.0000      0.0000      0.0058      0.0000      0.0000      0.0000
 64      0.0000      0.0070      0.1329      0.0000      0.0000      0.0000      0.0000      0.0000      0.0004
 65      0.0000      0.0188      0.0000      0.0000      0.0000      0.0000      0.0000      0.0000      0.0000
 66      0.0000      0.0246      0.0358      0.0000      0.0000      0.0459      0.1326      0.0000      0.0000
 67      0.0000      0.0380      0.0000      0.0956      0.0000      0.0000      0.0228      0.0961      0.0000
 68      0.0000      0.0662      0.0000      0.0000      0.0000      0.0000      0.0000      0.0220      0.0000
 69      0.0072      0.1534      0.0525      0.0215      0.3306      0.2927      0.7456      0.0000      0.0000
 70      0.0000      0.1381      0.0111      0.3622      0.0000      0.0000      0.5542      0.0000      0.2273
 71      0.0025      0.1711      0.1007      0.0000      0.0751      0.3827      0.0000      0.7841      0.0000
 72     15.8255     18.5791     17.7434     17.9475     18.5510     18.5125     17.1025     18.5939     18.5480
 73      6.6743      6.3517      6.4108      6.4776      6.4979      5.8241      6.5200      6.6364      6.2344
 74      0.0827      0.2851      0.3065      0.1142      0.0229      0.2648      0.0451      0.3380      0.0000
 75      0.0000      0.1273      0.0000      0.0000      0.0000      0.0000      0.3326      0.0000      0.0254
 76      0.0000      0.0124      0.0694      0.0000      0.0000      0.0000      0.0000      0.0000      0.0000
 77      0.0000      0.0128      0.0000      0.0000      0.0000      0.0000      0.0000      0.0444      0.0000
 78      0.0000      0.0115      0.0000      0.0000      0.0000      0.0000      0.0000      0.0000      0.0000
 79      0.0000      0.0123      0.0000      0.0000      0.0000      0.0000      0.0000      0.0000      0.0000
 80      0.0000      0.0335      0.1929      0.0000      0.0000      0.0000      0.0025      0.0000      0.0000
 81      0.0000      0.0284      0.0000      0.0607      0.0000      0.0000      0.0000      0.0000      0.0000
 82      0.0000      0.0174      0.0000      0.0426      0.0000      0.0000      0.0000      0.0000      0.0320
 83      0.0000      0.0173      0.0435      0.0000      0.0742      0.0000      0.0947      0.0000      0.0000
 84      0.0000      0.0074      0.0000      0.0000      0.0000      0.0000      0.0000      0.0000      0.0000
 85      0.0000      0.0094      0.0000      0.0000      0.0000      0.0000      0.0000      0.0000      0.0562
 86      0.0000      0.0069      0.0000      0.0000      0.0000      0.0000      0.0000      0.0000      0.0000
 87      0.0000      0.0096      0.0000      0.0000      0.0000      0.0182      0.0000      0.0000      0.0000
 88      0.0000      0.0092      0.0000      0.0000      0.0316      0.0000      0.0000      0.0000      0.0000
 89      0.0000      0.0063      0.0000      0.0000      0.0000      0.0110      0.0000      0.0000      0.0000
 90      0.0000      0.0077      0.0000      0.0000      0.0000      0.0000      0.0000      0.0000      0.0000
 91      0.0000      0.0142      0.0000      0.0000      0.0646      0.0000      0.0000      0.0000      0.0000
 92      0.0000      0.0202      0.0000      0.0000      0.0000      0.0000      0.0000      0.0000      0.0000
 93      0.0000      0.0844      0.0169      0.0000      0.0000      0.0000      0.1723      0.1074      0.0000
 94      0.0003      0.1884      0.2528      0.0212      0.1213      0.2680      0.0000      0.3026      0.3767
 95      0.0000      0.2326      0.2709      0.2323      0.4428      0.0000      0.0000      0.2119      0.1098
 96      0.0000      0.2217      0.0000      0.0000      0.0572      0.0970      0.6859      0.0000      0.0000
 97     12.2140     14.1338     13.9909     13.7786     14.4032     14.0919     13.3362     14.0666     14.1995
 98      2.9493      2.7739      2.6540      2.9458      2.3405      2.7635      2.9584      3.0928      2.5615
 99      2.7617      1.3846      1.9362      1.5917      1.6471      1.4506      1.6134      1.1762      1.5090
100      1.6496      0.4013      0.3594      0.4650      0.4380      0.2645      1.2482      0.2506      0.7187
101      0.0000      0.0235      0.0000      0.0000      0.0898      0.0134      0.0000      0.0000      0.0000
102      0.0000      0.0078      0.0000      0.0000      0.0000      0.0000      0.0508      0.0000      0.0000
103      0.0000      0.0254      0.0000      0.0000      0.0000      0.0000      0.0000      0.1627      0.0367
104      0.0000      0.0339      0.0573      0.0000      0.0000      0.0000      0.0000      0.0000      0.0000
105      0.0000      0.0128      0.0000      0.0000      0.0606      0.0000      0.0000      0.0000      0.0563
106      0.0000      0.0363      0.0000      0.0000      0.0077      0.0000      0.0000      0.2433      0.0992
107      0.0000      0.0072      0.0000      0.0000      0.0000      0.0000      0.0000      0.0000      0.0662
108      0.0000      0.0154      0.0000      0.0000      0.0000      0.0000      0.0000      0.0000      0.0000
109      0.0000      0.0069      0.0000      0.0000      0.0000      0.0000      0.0000      0.0000      0.0000
110      0.0000      0.0042      0.0000      0.0000      0.0000      0.0000      0.0000      0.0000      0.0000
111      0.0000      0.0061      0.0000      0.0000      0.0000      0.0000      0.0000      0.0000      0.0077
112      0.0000      0.0035      0.0000      0.0000      0.0000      0.0000      0.0000      0.0000      0.0000
113      0.0000      0.0042      0.0000      0.0000      0.0000      0.0000      0.0000      0.0000      0.0000
114      0.0000      0.0043      0.0000      0.0000      0.0000      0.0000      0.0000      0.0000      0.0000
115      0.0000      0.0074      0.0000      0.0000      0.0400      0.0000      0.0000      0.0000      0.0000
116      0.0000      0.0175      0.1342      0.0000      0.0000      0.0041      0.0000      0.0000      0.0000
117      0.0000      0.0267      0.0000      0.0000      0.0076      0.0111      0.0000      0.0000      0.0000
118      0.0000      0.0671      0.0079      0.0000      0.0000      0.0000      0.0245      0.0000      0.0000
119      0.0000      0.0859      0.0740      0.0000      0.0000      0.0123      0.0000      0.1833      0.0629
120      0.0000      0.1482      0.0000      0.3144      0.0000      0.1962      0.0000      0.2949      0.3134
121      0.0000      0.3012      0.0000      0.0000      0.7759      0.0000      0.3761      0.2867      0.1022
122      0.1340      0.4630      0.5277      0.5790      0.3635      0.4555      0.4137      0.4413      0.4020
123      0.3759      0.1792      0.1670      0.1944      0.1205      0.3405      0.1781      0.0433      0.6619
124      0.1813      0.2178      0.2938      0.2677      0.4792      0.4607      0.3888      0.4030      0.1471
125      0.0190      0.3483      0.2865      0.4925      0.3154      0.6127      0.3926      0.3543      0.2404
126      0.0000      0.0115      0.0050      0.0000      0.0000      0.0000      0.0000      0.0000      0.0000
127      0.0000      0.0112      0.0000      0.1304      0.0000      0.0000      0.0000      0.0000      0.0000
128      0.0000      0.0137      0.0000      0.1415      0.0000      0.0000      0.0942      0.0000      0.0000
129      0.0000      0.0186      0.0000      0.0000      0.0318      0.0000      0.0000      0.0000      0.0690
130      0.0000      0.0279      0.0000      0.0000      0.0000      0.0287      0.0179      0.0728      0.0000
131      0.0000      0.0104      0.0211      0.0000      0.0000      0.0000      0.0000      0.0000      0.0000
132      0.0000      0.0218      0.0028      0.0000      0.0000      0.0000      0.0000      0.0000      0.0000
133      0.0000      0.0081      0.0000      0.0666      0.0673      0.0000      0.0000      0.0000      0.0000
134      0.0000      0.0038      0.0000      0.0000      0.0000      0.0000      0.0000      0.0000      0.0000
135      0.0000      0.0036      0.0000      0.0000      0.0000      0.0000      0.0000      0.0000      0.0000
136      0.0000      0.0062      0.0000      0.0162      0.0000      0.0000      0.0000      0.0000      0.0222
137      0.0000      0.0054      0.0000      0.0000      0.0000      0.0000      0.0000      0.0000      0.0000
138      0.0000      0.0045      0.0000      0.0000      0.0000      0.0078      0.0000      0.0000      0.0000
139      0.0000      0.0048      0.0000      0.0000      0.0000      0.0000      0.0000      0.0000      0.0000
140      0.0000      0.0130      0.0000      0.0000      0.0000      0.0000      0.1457      0.0000      0.0000
141      0.0000      0.0368      0.0164      0.0000      0.0000      0.0000      0.0389      0.0000      0.0000
142      0.0000      0.0415      0.0000      0.0155      0.0305      0.0000      0.0000      0.0000      0.0082
143      0.7135      0.2985      0.4816      0.1679      0.2935      0.3828      0.0800      0.2337      0.3115
144      2.2968      0.4757      0.8809      0.6673      0.5461      0.8421      0.5104      0.5591      0.5926
145      0.2952      0.3443      0.1528      0.4682      0.2996      0.2612      0.3966      0.2409      0.1207
146      0.1809      0.3595      0.4189      0.3518      0.3864      0.3285      0.2803      0.2598      0.3748
147      0.0000      0.2958      0.3701      0.3703      0.2989      0.2908      0.2324      0.3619      0.2439
148      0.0000      0.1734      0.1681      0.1694      0.0150      0.1472      0.0000      0.0000      0.1712
149      0.0000      0.0375      0.0045      0.0000      0.0000      0.0000      0.0000      0.0132      0.0271
150      0.0000      0.1058      0.2440      0.0842      0.0000      0.0000      0.0996      0.0000      0.0434

# j      m_j: min, <> & last-chain-values for 1 ...  7 chains
  1  0.0000E+00  5.8000E-05  1.8405E-05  0.0000E+00  0.0000E+00  0.0000E+00  0.0000E+00  7.6790E-04  0.0000E+00
  2  0.0000E+00  3.0344E-05  6.9886E-05  5.4604E-05  0.0000E+00  0.0000E+00  0.0000E+00  0.0000E+00  7.6773E-05
  3  0.0000E+00  3.0983E-04  0.0000E+00  4.1366E-04  1.3957E-04  5.7445E-04  5.4132E-04  2.1084E-04  2.7810E-04
  4  0.0000E+00  1.3129E-04  0.0000E+00  0.0000E+00  1.0882E-04  0.0000E+00  0.0000E+00  0.0000E+00  2.5659E-04
  5  0.0000E+00  6.3346E-05  0.0000E+00  0.0000E+00  0.0000E+00  0.0000E+00  0.0000E+00  0.0000E+00  6.8185E-04
  6  0.0000E+00  1.1629E-04  0.0000E+00  0.0000E+00  0.0000E+00  9.4863E-05  0.0000E+00  0.0000E+00  0.0000E+00
  7  0.0000E+00  3.4643E-04  0.0000E+00  0.0000E+00  2.4378E-04  0.0000E+00  3.4028E-04  5.3384E-04  0.0000E+00
  8  0.0000E+00  2.2159E-04  0.0000E+00  0.0000E+00  0.0000E+00  0.0000E+00  0.0000E+00  0.0000E+00  2.2186E-04
  9  0.0000E+00  2.2575E-04  1.5196E-04  0.0000E+00  0.0000E+00  0.0000E+00  0.0000E+00  1.9583E-04  0.0000E+00
 10  0.0000E+00  3.0677E-04  0.0000E+00  7.5498E-04  0.0000E+00  0.0000E+00  0.0000E+00  0.0000E+00  1.3161E-05
 11  0.0000E+00  2.8401E-04  1.0136E-03  0.0000E+00  0.0000E+00  0.0000E+00  0.0000E+00  0.0000E+00  0.0000E+00
 12  0.0000E+00  3.9190E-04  0.0000E+00  0.0000E+00  0.0000E+00  0.0000E+00  1.7603E-03  0.0000E+00  0.0000E+00
 13  0.0000E+00  1.7073E-04  0.0000E+00  0.0000E+00  0.0000E+00  0.0000E+00  2.0858E-03  0.0000E+00  0.0000E+00
 14  0.0000E+00  1.6000E-04  0.0000E+00  0.0000E+00  0.0000E+00  0.0000E+00  0.0000E+00  0.0000E+00  0.0000E+00
 15  0.0000E+00  3.7814E-04  0.0000E+00  0.0000E+00  0.0000E+00  0.0000E+00  0.0000E+00  0.0000E+00  0.0000E+00
 16  0.0000E+00  7.2594E-04  0.0000E+00  0.0000E+00  7.1339E-04  3.4473E-03  0.0000E+00  5.6602E-03  0.0000E+00
 17  0.0000E+00  1.4525E-03  0.0000E+00  2.5804E-03  0.0000E+00  0.0000E+00  0.0000E+00  0.0000E+00  4.7342E-04
 18  0.0000E+00  5.9707E-03  0.0000E+00  0.0000E+00  0.0000E+00  0.0000E+00  2.8104E-03  0.0000E+00  0.0000E+00
 19  0.0000E+00  2.2112E-02  0.0000E+00  0.0000E+00  0.0000E+00  0.0000E+00  1.1274E-01  3.8082E-02  1.4896E-01
 20  1.2834E-01  6.8648E-02  0.0000E+00  9.3066E-02  2.0198E-01  1.0945E-01  0.0000E+00  4.3449E-02  9.4697E-03
 21  7.1625E-01  2.1731E-01  2.1359E-01  0.0000E+00  2.5780E-01  2.9256E-01  3.1784E-01  2.4324E-01  3.3658E-01
 22  5.5860E-01  2.5166E-01  2.4222E-01  3.4320E-01  1.2422E-01  3.2537E-01  1.7291E-01  1.9638E-01  2.5254E-01
 23  2.6789E-01  4.5546E-01  4.2313E-01  5.3347E-01  1.3616E-01  6.4457E-01  4.6536E-01  6.4076E-01  2.3565E-01
 24  6.0531E-01  6.4885E-01  7.1231E-01  7.1437E-01  6.8272E-01  1.1965E+00  6.6582E-01  9.5681E-02  6.0003E-01
 25  8.0393E-01  1.0864E+00  1.1500E+00  1.1454E+00  1.2950E+00  9.6402E-01  1.2457E+00  5.2587E-01  1.5742E+00
 26  0.0000E+00  8.7734E-05  0.0000E+00  0.0000E+00  3.0624E-04  0.0000E+00  0.0000E+00  0.0000E+00  0.0000E+00
 27  0.0000E+00  6.4578E-05  0.0000E+00  1.4472E-04  3.1993E-04  0.0000E+00  0.0000E+00  1.0086E-04  3.7082E-05
 28  0.0000E+00  3.1503E-05  0.0000E+00  0.0000E+00  0.0000E+00  0.0000E+00  0.0000E+00  0.0000E+00  0.0000E+00
 29  0.0000E+00  7.8195E-05  2.8336E-06  6.6421E-05  0.0000E+00  0.0000E+00  0.0000E+00  1.8428E-04  0.0000E+00
 30  0.0000E+00  2.0098E-04  7.8735E-04  0.0000E+00  0.0000E+00  3.1140E-04  4.0706E-04  0.0000E+00  0.0000E+00
 31  0.0000E+00  8.9673E-05  0.0000E+00  0.0000E+00  0.0000E+00  0.0000E+00  0.0000E+00  0.0000E+00  0.0000E+00
 32  0.0000E+00  1.5235E-04  0.0000E+00  0.0000E+00  0.0000E+00  1.3840E-03  1.6104E-03  0.0000E+00  0.0000E+00
 33  0.0000E+00  2.0273E-04  1.3625E-04  0.0000E+00  0.0000E+00  0.0000E+00  0.0000E+00  0.0000E+00  0.0000E+00
 34  0.0000E+00  2.2118E-04  0.0000E+00  1.7672E-03  0.0000E+00  1.5652E-03  0.0000E+00  0.0000E+00  0.0000E+00
 35  0.0000E+00  1.7349E-04  1.3584E-03  0.0000E+00  7.2615E-04  0.0000E+00  8.8552E-05  0.0000E+00  0.0000E+00
 36  0.0000E+00  2.4275E-04  0.0000E+00  3.6637E-04  0.0000E+00  0.0000E+00  0.0000E+00  0.0000E+00  0.0000E+00
 37  0.0000E+00  1.0546E-04  9.3784E-04  0.0000E+00  0.0000E+00  0.0000E+00  0.0000E+00  0.0000E+00  9.6636E-05
 38  0.0000E+00  2.8922E-04  0.0000E+00  0.0000E+00  0.0000E+00  0.0000E+00  0.0000E+00  0.0000E+00  3.8468E-03
 39  0.0000E+00  3.4581E-04  0.0000E+00  0.0000E+00  0.0000E+00  0.0000E+00  0.0000E+00  0.0000E+00  0.0000E+00
 40  0.0000E+00  6.8785E-04  6.2800E-03  0.0000E+00  0.0000E+00  0.0000E+00  0.0000E+00  0.0000E+00  0.0000E+00
 41  0.0000E+00  1.9560E-03  0.0000E+00  0.0000E+00  0.0000E+00  0.0000E+00  0.0000E+00  2.7679E-03  0.0000E+00
 42  0.0000E+00  2.7067E-03  0.0000E+00  0.0000E+00  0.0000E+00  0.0000E+00  0.0000E+00  3.8958E-03  0.0000E+00
 43  2.7861E-01  9.5580E-01  8.9064E-01  9.4403E-01  8.5599E-01  8.7600E-01  7.3900E-01  1.0294E+00  8.4387E-01
 44  4.9111E+00  4.8247E+00  4.7829E+00  4.7897E+00  4.9980E+00  4.6872E+00  4.4908E+00  5.0397E+00  4.5276E+00
 45  5.2085E+00  2.5909E+00  2.9106E+00  2.6017E+00  2.6231E+00  2.8902E+00  3.0332E+00  3.1494E+00  2.6473E+00
 46  6.0911E+00  3.1159E+00  3.1057E+00  3.2695E+00  3.1496E+00  3.2248E+00  3.4688E+00  3.2646E+00  3.6403E+00
 47  6.1568E+00  6.8328E+00  6.9051E+00  7.3378E+00  7.2766E+00  6.7305E+00  6.6727E+00  6.9700E+00  7.1987E+00
 48  1.9109E-04  1.3947E+00  1.4074E+00  1.9765E+00  1.5027E+00  1.4449E+00  1.4815E+00  1.3878E+00  1.5983E+00
 49  3.5965E-04  6.6814E-01  1.0796E+00  5.9179E-01  4.1827E-01  4.4301E-01  3.8566E-01  6.9490E-01  8.2478E-01
 50  2.0728E-04  5.1450E-01  3.2214E-01  8.3998E-02  1.1455E+00  7.3510E-01  1.2893E+00  3.0317E-01  6.5693E-01
 51  0.0000E+00  4.3367E-05  0.0000E+00  0.0000E+00  0.0000E+00  2.7267E-04  0.0000E+00  0.0000E+00  0.0000E+00
 52  0.0000E+00  3.2356E-05  0.0000E+00  1.2189E-04  0.0000E+00  2.9844E-06  0.0000E+00  0.0000E+00  1.0078E-04
 53  0.0000E+00  3.6106E-05  1.4680E-04  0.0000E+00  2.1013E-04  2.9428E-04  3.2028E-05  0.0000E+00  0.0000E+00
 54  0.0000E+00  1.0932E-04  6.2289E-04  0.0000E+00  0.0000E+00  2.5242E-04  7.7440E-05  0.0000E+00  0.0000E+00
 55  0.0000E+00  7.3931E-05  0.0000E+00  3.2478E-05  2.5210E-04  0.0000E+00  0.0000E+00  0.0000E+00  0.0000E+00
 56  0.0000E+00  1.0976E-04  7.2307E-04  0.0000E+00  3.6481E-04  3.6317E-04  0.0000E+00  0.0000E+00  0.0000E+00
 57  0.0000E+00  1.8876E-04  0.0000E+00  0.0000E+00  0.0000E+00  0.0000E+00  0.0000E+00  0.0000E+00  3.7406E-04
 58  0.0000E+00  1.4354E-04  1.0745E-03  1.6737E-03  0.0000E+00  0.0000E+00  3.7106E-04  0.0000E+00  0.0000E+00
 59  0.0000E+00  1.4850E-04  0.0000E+00  0.0000E+00  0.0000E+00  0.0000E+00  1.1416E-03  6.3013E-05  0.0000E+00
 60  0.0000E+00  1.0246E-04  0.0000E+00  2.8758E-04  0.0000E+00  1.1488E-03  1.9902E-04  0.0000E+00  0.0000E+00
 61  0.0000E+00  1.3646E-04  0.0000E+00  8.1056E-04  0.0000E+00  0.0000E+00  0.0000E+00  0.0000E+00  0.0000E+00
 62  0.0000E+00  1.4262E-04  0.0000E+00  0.0000E+00  0.0000E+00  0.0000E+00  0.0000E+00  0.0000E+00  0.0000E+00
 63  0.0000E+00  2.6591E-04  2.2398E-03  0.0000E+00  0.0000E+00  2.0305E-04  0.0000E+00  0.0000E+00  0.0000E+00
 64  0.0000E+00  4.0545E-04  7.6656E-03  0.0000E+00  0.0000E+00  0.0000E+00  0.0000E+00  0.0000E+00  2.3153E-05
 65  0.0000E+00  1.8495E-03  0.0000E+00  0.0000E+00  0.0000E+00  0.0000E+00  0.0000E+00  0.0000E+00  0.0000E+00
 66  0.0000E+00  3.0913E-03  4.4650E-03  0.0000E+00  0.0000E+00  5.7481E-03  1.6515E-02  0.0000E+00  0.0000E+00
 67  0.0000E+00  6.5606E-03  0.0000E+00  1.6362E-02  0.0000E+00  0.0000E+00  3.8953E-03  1.6936E-02  0.0000E+00
 68  0.0000E+00  2.1225E-02  0.0000E+00  0.0000E+00  0.0000E+00  0.0000E+00  0.0000E+00  7.2003E-03  0.0000E+00
 69  4.0463E-03  8.4868E-02  2.8842E-02  1.1825E-02  1.8395E-01  1.6144E-01  4.0876E-01  0.0000E+00  0.0000E+00
 70  0.0000E+00  1.0630E-01  8.4842E-03  2.7665E-01  0.0000E+00  0.0000E+00  4.2284E-01  0.0000E+00  1.7457E-01
 71  2.3194E-03  1.5540E-01  9.0757E-02  0.0000E+00  6.8643E-02  3.4670E-01  0.0000E+00  7.2772E-01  0.0000E+00
 72  1.9328E+01  2.2214E+01  2.1053E+01  2.1290E+01  2.2315E+01  2.2076E+01  2.0268E+01  2.2717E+01  2.2121E+01
 73  1.0283E+01  9.5798E+00  9.5953E+00  9.6930E+00  9.8600E+00  8.7609E+00  9.7468E+00  1.0228E+01  9.3791E+00
 74  1.4220E-01  4.7972E-01  5.1190E-01  1.9061E-01  3.8695E-02  4.4436E-01  7.5143E-02  5.8119E-01  0.0000E+00
 75  0.0000E+00  2.4624E-01  0.0000E+00  0.0000E+00  0.0000E+00  0.0000E+00  6.3776E-01  0.0000E+00  4.9081E-02
 76  0.0000E+00  5.5362E-05  3.0874E-04  0.0000E+00  0.0000E+00  0.0000E+00  0.0000E+00  0.0000E+00  0.0000E+00
 77  0.0000E+00  2.3349E-05  0.0000E+00  0.0000E+00  0.0000E+00  0.0000E+00  0.0000E+00  8.2791E-05  0.0000E+00
 78  0.0000E+00  2.3502E-05  0.0000E+00  0.0000E+00  0.0000E+00  0.0000E+00  0.0000E+00  0.0000E+00  0.0000E+00
 79  0.0000E+00  3.0315E-05  0.0000E+00  0.0000E+00  0.0000E+00  0.0000E+00  0.0000E+00  0.0000E+00  0.0000E+00
 80  0.0000E+00  1.0621E-04  6.0662E-04  0.0000E+00  0.0000E+00  0.0000E+00  7.6954E-06  0.0000E+00  0.0000E+00
 81  0.0000E+00  1.1886E-04  0.0000E+00  2.5212E-04  0.0000E+00  0.0000E+00  0.0000E+00  0.0000E+00  0.0000E+00
 82  0.0000E+00  9.8346E-05  0.0000E+00  2.3838E-04  0.0000E+00  0.0000E+00  0.0000E+00  0.0000E+00  1.7989E-04
 83  0.0000E+00  1.4346E-04  3.5800E-04  0.0000E+00  6.1866E-04  0.0000E+00  7.7816E-04  0.0000E+00  0.0000E+00
 84  0.0000E+00  8.4877E-05  0.0000E+00  0.0000E+00  0.0000E+00  0.0000E+00  0.0000E+00  0.0000E+00  0.0000E+00
 85  0.0000E+00  1.3109E-04  0.0000E+00  0.0000E+00  0.0000E+00  0.0000E+00  0.0000E+00  0.0000E+00  7.8123E-04
 86  0.0000E+00  1.3062E-04  0.0000E+00  0.0000E+00  0.0000E+00  0.0000E+00  0.0000E+00  0.0000E+00  0.0000E+00
 87  0.0000E+00  2.4244E-04  0.0000E+00  0.0000E+00  0.0000E+00  4.5568E-04  0.0000E+00  0.0000E+00  0.0000E+00
 88  0.0000E+00  3.5135E-04  0.0000E+00  0.0000E+00  1.2195E-03  0.0000E+00  0.0000E+00  0.0000E+00  0.0000E+00
 89  0.0000E+00  4.0471E-04  0.0000E+00  0.0000E+00  0.0000E+00  7.0129E-04  0.0000E+00  0.0000E+00  0.0000E+00
 90  0.0000E+00  9.0376E-04  0.0000E+00  0.0000E+00  0.0000E+00  0.0000E+00  0.0000E+00  0.0000E+00  0.0000E+00
 91  0.0000E+00  2.1518E-03  0.0000E+00  0.0000E+00  9.8766E-03  0.0000E+00  0.0000E+00  0.0000E+00  0.0000E+00
 92  0.0000E+00  4.0893E-03  0.0000E+00  0.0000E+00  0.0000E+00  0.0000E+00  0.0000E+00  0.0000E+00  0.0000E+00
 93  0.0000E+00  3.4775E-02  6.9288E-03  0.0000E+00  0.0000E+00  0.0000E+00  7.0338E-02  4.5219E-02  0.0000E+00
 94  2.1391E-04  1.3915E-01  1.8536E-01  1.5540E-02  9.0156E-02  1.9747E-01  0.0000E+00  2.2840E-01  2.7762E-01
 95  0.0000E+00  2.3146E-01  2.6758E-01  2.2933E-01  4.4336E-01  0.0000E+00  0.0000E+00  2.1553E-01  1.0903E-01
 96  0.0000E+00  2.6624E-01  0.0000E+00  0.0000E+00  6.9123E-02  1.1614E-01  8.1626E-01  0.0000E+00  0.0000E+00
 97  1.9520E+01  2.2113E+01  2.1723E+01  2.1388E+01  2.2672E+01  2.1989E+01  2.0681E+01  2.2488E+01  2.2160E+01
 98  6.0446E+00  5.5656E+00  5.2845E+00  5.8641E+00  4.7245E+00  5.5299E+00  5.8833E+00  6.3408E+00  5.1264E+00
 99  6.4521E+00  3.1667E+00  4.3945E+00  3.6118E+00  3.7900E+00  3.3089E+00  3.6575E+00  2.7488E+00  3.4425E+00
100  4.4370E+00  1.0568E+00  9.3923E-01  1.2149E+00  1.1605E+00  6.9461E-01  3.2577E+00  6.7434E-01  1.8878E+00
101  0.0000E+00  6.7959E-05  0.0000E+00  0.0000E+00  2.6187E-04  3.8685E-05  0.0000E+00  0.0000E+00  0.0000E+00
102  0.0000E+00  1.1718E-05  0.0000E+00  0.0000E+00  0.0000E+00  0.0000E+00  7.5779E-05  0.0000E+00  0.0000E+00
103  0.0000E+00  4.2436E-05  0.0000E+00  0.0000E+00  0.0000E+00  0.0000E+00  0.0000E+00  2.7736E-04  6.1122E-05
104  0.0000E+00  7.4436E-05  1.2480E-04  0.0000E+00  0.0000E+00  0.0000E+00  0.0000E+00  0.0000E+00  0.0000E+00
105  0.0000E+00  5.9434E-05  0.0000E+00  0.0000E+00  2.8272E-04  0.0000E+00  0.0000E+00  0.0000E+00  2.6034E-04
106  0.0000E+00  1.8092E-04  0.0000E+00  0.0000E+00  3.8685E-05  0.0000E+00  0.0000E+00  1.2403E-03  4.9383E-04
107  0.0000E+00  4.7853E-05  0.0000E+00  0.0000E+00  0.0000E+00  0.0000E+00  0.0000E+00  0.0000E+00  4.4016E-04
108  0.0000E+00  1.7091E-04  0.0000E+00  0.0000E+00  0.0000E+00  0.0000E+00  0.0000E+00  0.0000E+00  0.0000E+00
109  0.0000E+00  9.1844E-05  0.0000E+00  0.0000E+00  0.0000E+00  0.0000E+00  0.0000E+00  0.0000E+00  0.0000E+00
110  0.0000E+00  6.7075E-05  0.0000E+00  0.0000E+00  0.0000E+00  0.0000E+00  0.0000E+00  0.0000E+00  0.0000E+00
111  0.0000E+00  1.3436E-04  0.0000E+00  0.0000E+00  0.0000E+00  0.0000E+00  0.0000E+00  0.0000E+00  1.6976E-04
112  0.0000E+00  1.0139E-04  0.0000E+00  0.0000E+00  0.0000E+00  0.0000E+00  0.0000E+00  0.0000E+00  0.0000E+00
113  0.0000E+00  1.8074E-04  0.0000E+00  0.0000E+00  0.0000E+00  0.0000E+00  0.0000E+00  0.0000E+00  0.0000E+00
114  0.0000E+00  3.2643E-04  0.0000E+00  0.0000E+00  0.0000E+00  0.0000E+00  0.0000E+00  0.0000E+00  0.0000E+00
115  0.0000E+00  1.1380E-03  0.0000E+00  0.0000E+00  6.1798E-03  0.0000E+00  0.0000E+00  0.0000E+00  0.0000E+00
116  0.0000E+00  4.3049E-03  3.2799E-02  0.0000E+00  0.0000E+00  1.0031E-03  0.0000E+00  0.0000E+00  0.0000E+00
117  0.0000E+00  7.7342E-03  0.0000E+00  0.0000E+00  2.2266E-03  3.2015E-03  0.0000E+00  0.0000E+00  0.0000E+00
118  0.0000E+00  3.9386E-02  4.6222E-03  0.0000E+00  0.0000E+00  0.0000E+00  1.4255E-02  0.0000E+00  0.0000E+00
119  0.0000E+00  8.7204E-02  7.4536E-02  0.0000E+00  0.0000E+00  1.2448E-02  0.0000E+00  1.9016E-01  6.3744E-02
120  0.0000E+00  2.1429E-01  0.0000E+00  4.5092E-01  0.0000E+00  2.8293E-01  0.0000E+00  4.3560E-01  4.5187E-01
121  0.0000E+00  5.1224E-01  0.0000E+00  0.0000E+00  1.3278E+00  0.0000E+00  6.3400E-01  4.9828E-01  1.7337E-01
122  3.1154E-01  1.0537E+00  1.1918E+00  1.3073E+00  8.3240E-01  1.0340E+00  9.3323E-01  1.0264E+00  9.1259E-01
123  1.1526E+00  5.3789E-01  4.9752E-01  5.7901E-01  3.6405E-01  1.0194E+00  5.2984E-01  1.3292E-01  1.9820E+00
124  6.3826E-01  7.5069E-01  1.0048E+00  9.1557E-01  1.6616E+00  1.5838E+00  1.3283E+00  1.4195E+00  5.0567E-01
125  7.9979E-02  1.4369E+00  1.1730E+00  2.0158E+00  1.3091E+00  2.5209E+00  1.6053E+00  1.4936E+00  9.8933E-01
126  0.0000E+00  2.4940E-05  1.0729E-05  0.0000E+00  0.0000E+00  0.0000E+00  0.0000E+00  0.0000E+00  0.0000E+00
127  0.0000E+00  1.2881E-05  0.0000E+00  1.4827E-04  0.0000E+00  0.0000E+00  0.0000E+00  0.0000E+00  0.0000E+00
128  0.0000E+00  2.3288E-05  0.0000E+00  2.3876E-04  0.0000E+00  0.0000E+00  1.5868E-04  0.0000E+00  0.0000E+00
129  0.0000E+00  6.4729E-05  0.0000E+00  0.0000E+00  1.1109E-04  0.0000E+00  0.0000E+00  0.0000E+00  2.3932E-04
130  0.0000E+00  1.3245E-04  0.0000E+00  0.0000E+00  0.0000E+00  1.3571E-04  8.3971E-05  3.5286E-04  0.0000E+00
131  0.0000E+00  5.7340E-05  1.1480E-04  0.0000E+00  0.0000E+00  0.0000E+00  0.0000E+00  0.0000E+00  0.0000E+00
132  0.0000E+00  1.6278E-04  2.0970E-05  0.0000E+00  0.0000E+00  0.0000E+00  0.0000E+00  0.0000E+00  0.0000E+00
133  0.0000E+00  8.7195E-05  0.0000E+00  7.1510E-04  7.3308E-04  0.0000E+00  0.0000E+00  0.0000E+00  0.0000E+00
134  0.0000E+00  5.2393E-05  0.0000E+00  0.0000E+00  0.0000E+00  0.0000E+00  0.0000E+00  0.0000E+00  0.0000E+00
135  0.0000E+00  6.0137E-05  0.0000E+00  0.0000E+00  0.0000E+00  0.0000E+00  0.0000E+00  0.0000E+00  0.0000E+00
136  0.0000E+00  1.4798E-04  0.0000E+00  3.8342E-04  0.0000E+00  0.0000E+00  0.0000E+00  0.0000E+00  5.2820E-04
137  0.0000E+00  1.7578E-04  0.0000E+00  0.0000E+00  0.0000E+00  0.0000E+00  0.0000E+00  0.0000E+00  0.0000E+00
138  0.0000E+00  2.4206E-04  0.0000E+00  0.0000E+00  0.0000E+00  4.1947E-04  0.0000E+00  0.0000E+00  0.0000E+00
139  0.0000E+00  4.9314E-04  0.0000E+00  0.0000E+00  0.0000E+00  0.0000E+00  0.0000E+00  0.0000E+00  0.0000E+00
140  0.0000E+00  3.0849E-03  0.0000E+00  0.0000E+00  0.0000E+00  0.0000E+00  3.4144E-02  0.0000E+00  0.0000E+00
141  0.0000E+00  1.3309E-02  5.9048E-03  0.0000E+00  0.0000E+00  0.0000E+00  1.3954E-02  0.0000E+00  0.0000E+00
142  0.0000E+00  1.7871E-02  0.0000E+00  6.6347E-03  1.3227E-02  0.0000E+00  0.0000E+00  0.0000E+00  3.5162E-03
143  6.2399E-01  2.5559E-01  4.0919E-01  1.4261E-01  2.5279E-01  3.2682E-01  6.7866E-02  2.0445E-01  2.6598E-01
144  3.9455E+00  8.0000E-01  1.4701E+00  1.1133E+00  9.2388E-01  1.4124E+00  8.5076E-01  9.6066E-01  9.9405E-01
145  7.5493E-01  8.6198E-01  3.7952E-01  1.1628E+00  7.5459E-01  6.5221E-01  9.8403E-01  6.1617E-01  3.0130E-01
146  5.5256E-01  1.0748E+00  1.2429E+00  1.0435E+00  1.1623E+00  9.7963E-01  8.3060E-01  7.9378E-01  1.1178E+00
147  1.4137E-05  1.1881E+00  1.4755E+00  1.4758E+00  1.2080E+00  1.1652E+00  9.2521E-01  1.4856E+00  9.7725E-01
148  0.0000E+00  9.4351E-01  9.0743E-01  9.1473E-01  8.1945E-02  7.9894E-01  0.0000E+00  0.0000E+00  9.2937E-01
149  0.0000E+00  2.3918E-01  2.8241E-02  0.0000E+00  0.0000E+00  0.0000E+00  0.0000E+00  8.5801E-02  1.7207E-01
150  0.0000E+00  8.0297E-01  1.8380E+00  6.3427E-01  0.0000E+00  0.0000E+00  7.4952E-01  0.0000E+00  3.2881E-01

# AV, chi2 & Mass for <> & i_chain = 1 ...  7 solutions
AV       1.0399      1.0394      1.0417      1.0401      1.0396      1.0404      1.0421      1.0420      1.0411
chi2 2.7145E+00  2.8051E+00  2.7937E+00  2.7838E+00  2.7869E+00  2.7799E+00  2.7805E+00  2.7895E+00  2.7810E+00
Mass 1.4816E-10  1.5124E-10  1.5288E-10  1.5258E-10  1.5037E-10  1.5185E-10  1.5316E-10  1.4854E-10  1.5197E-10
  -2.02                                  [v0_min (km/s) before EX0s...]
  64.97                                  [vd_min (km/s) before EX0s...]


## Synthetic spectrum (Best Model) ##l_obs f_obs f_syn wei
 3070    [Nl_obs]
 3359.00    0.17202   0.34460   -1.000
 3360.00    0.19475   0.31934   -1.000
 3361.00    0.20915   0.32147   -1.000
 3362.00    0.17931   0.34715   -1.000
 3363.00    0.19022   0.38251   -1.000
 3364.00    0.16368   0.40868   -1.000
 3365.00    0.20155   0.41492   -1.000
 3366.00    0.25227   0.40579   -1.000
 3367.00    0.23252   0.38990   -1.000
 3368.00    0.20804   0.37371   -1.000
 3369.00    0.21429   0.35900   -1.000
 3370.00    0.20145   0.34315   -1.000
 3371.00    0.18906   0.33256   -1.000
 3372.00    0.20634   0.33575   -1.000
 3373.00    0.22727   0.35475   -1.000
 3374.00    0.23553   0.38399   -1.000
 3375.00    0.25722   0.41403   -1.000
 3376.00    0.28201   0.43191   -1.000
 3377.00    0.29999   0.43025   -1.000
 3378.00    0.30344   0.41350   -1.000
 3379.00    0.29107   0.39508   -1.000
 3380.00    0.30034   0.38635   -1.000
 3381.00    0.31077   0.38953   -1.000
 3382.00    0.28340   0.40037   -1.000
 3383.00    0.26834   0.41199   -1.000
 3384.00    0.26314   0.42182   -1.000
 3385.00    0.27277   0.42917   -1.000
 3386.00    0.29822   0.42889   -1.000
 3387.00    0.31689   0.42212   -1.000
 3388.00    0.28701   0.41788   -1.000
 3389.00    0.25544   0.42132   -1.000
 3390.00    0.27849   0.42673   -1.000
 3391.00    0.31796   0.42543   -1.000
 3392.00    0.29031   0.41450   -1.000
 3393.00    0.26731   0.40562   -1.000
 3394.00    0.30226   0.41036   -1.000
 3395.00    0.36702   0.42739   -1.000
 3396.00    0.39477   0.44901   -1.000
 3397.00    0.39068   0.46834   -1.000
 3398.00    0.34415   0.48231   -1.000
 3399.00    0.36860   0.48804   -1.000
 3400.00    0.42750   0.48442   -1.000
 3401.00    0.41195   0.47254   -1.000
 3402.00    0.39877   0.45545   -1.000
 3403.00    0.38023   0.44138   -1.000
 3404.00    0.34395   0.43389   -1.000
 3405.00    0.33269   0.43202   -1.000
 3406.00    0.34161   0.42963   -1.000
 3407.00    0.34933   0.42410   -1.000
 3408.00    0.30788   0.41954   -1.000
 3409.00    0.33977   0.42240   -1.000
 3410.00    0.38618   0.43022   -1.000
 3411.00    0.38344   0.43110   -1.000
 3412.00    0.37309   0.42144   -1.000
 3413.00    0.38577   0.40771   -1.000
 3414.00    0.35450   0.40218   -1.000
 3415.00    0.34616   0.41066   -1.000
 3416.00    0.37343   0.42697   -1.000
 3417.00    0.41549   0.44407   -1.000
 3418.00    0.41445   0.45950   -1.000
 3419.00    0.45669   0.47250   -1.000
 3420.00    0.44280   0.47996   -1.000
 3421.00    0.42695   0.47663   -1.000
 3422.00    0.44678   0.46239   -1.000
 3423.00    0.45211   0.44714  230.985
 3424.00    0.44303   0.44126  224.334
 3425.00    0.44682   0.44465  219.637
 3426.00    0.45512   0.45193  282.779
 3427.00    0.41247   0.46345   -1.000
 3428.00    0.43235   0.48124   -1.000
 3429.00    0.45142   0.49873   -1.000
 3430.00    0.46914   0.50353   -1.000
 3431.00    0.46568   0.48984   -1.000
 3432.00    0.43273   0.46908   -1.000
 3433.00    0.42068   0.45757   -1.000
 3434.00    0.44765   0.46272   -1.000
 3435.00    0.46093   0.47466   -1.000
 3436.00    0.42434   0.47725   -1.000
 3437.00    0.41284   0.46616   -1.000
 3438.00    0.42016   0.44562   -1.000
 3439.00    0.41158   0.41994  264.325
 3440.00    0.37102   0.39343   -1.000
 3441.00    0.33087   0.37319   -1.000
 3442.00    0.32034   0.36578   -1.000
 3443.00    0.33953   0.37087   -1.000
 3444.00    0.38881   0.38365  242.398
 3445.00    0.41445   0.40105   -1.000
 3446.00    0.41551   0.42413  292.127
 3447.00    0.42736   0.45079   -1.000
 3448.00    0.43960   0.47418   -1.000
 3449.00    0.45158   0.48731   -1.000
 3450.00    0.45627   0.48461   -1.000
 3451.00    0.44181   0.46899   -1.000
 3452.00    0.43139   0.45281   -1.000
 3453.00    0.44854   0.44763  870.568
 3454.00    0.47012   0.45395   -1.000
 3455.00    0.45498   0.46314   -1.000
 3456.00    0.45539   0.46516   -1.000
 3457.00    0.48493   0.45714   -1.000
 3458.00    0.46564   0.44398   -1.000
 3459.00    0.45895   0.43046   -1.000
 3460.00    0.42504   0.41936  288.594
 3461.00    0.41493   0.41783  870.568
 3462.00    0.41391   0.42974   -1.000
 3463.00    0.44031   0.44551   -1.000
 3464.00    0.45979   0.45365   -1.000
 3465.00    0.43858   0.45209   -1.000
 3466.00    0.48296   0.45151   -1.000
 3467.00    0.51752   0.46086   -1.000
 3468.00    0.51908   0.47757   -1.000
 3469.00    0.50839   0.49270   -1.000
 3470.00    0.48437   0.49780   -1.000
 3471.00    0.48859   0.49027  870.568
 3472.00    0.46594   0.47222   -1.000
 3473.00    0.44647   0.44697  637.558
 3474.00    0.42302   0.42230  222.820
 3475.00    0.38094   0.40751   -1.000
 3476.00    0.40435   0.40956  294.845
 3477.00    0.42103   0.42791   -1.000
 3478.00    0.42056   0.45172   -1.000
 3479.00    0.45905   0.47137   -1.000
 3480.00    0.47033   0.48291   -1.000
 3481.00    0.49402   0.48460   -1.000
 3482.00    0.50316   0.47879   -1.000
 3483.00    0.48473   0.47138   -1.000
 3484.00    0.49635   0.46936   -1.000
 3485.00    0.47801   0.47777  870.568
 3486.00    0.51228   0.49116   -1.000
 3487.00    0.55040   0.49566   -1.000
 3488.00    0.50779   0.48443   -1.000
 3489.00    0.47347   0.46298   -1.000
 3490.00    0.46590   0.44521   -1.000
 3491.00    0.47513   0.44145   -1.000
 3492.00    0.51046   0.44838   -1.000
 3493.00    0.52483   0.45564   -1.000
 3494.00    0.49060   0.45656   -1.000
 3495.00    0.44092   0.45039   -1.000
 3496.00    0.46297   0.44377   -1.000
 3497.00    0.46025   0.44629   -1.000
 3498.00    0.44330   0.45885   -1.000
 3499.00    0.48385   0.47426   -1.000
 3500.00    0.53842   0.48474   -1.000
 3501.00    0.50681   0.49140   -1.000
 3502.00    0.50828   0.49841   -1.000
 3503.00    0.51041   0.50340   -1.000
 3504.00    0.52791   0.50155   -1.000
 3505.00    0.54126   0.49271   -1.000
 3506.00    0.50585   0.48309   -1.000
 3507.00    0.51096   0.47787   -1.000
 3508.00    0.50436   0.47585   -1.000
 3509.00    0.48277   0.47335   -1.000
 3510.00    0.49969   0.46824   -1.000
 3511.00    0.49893   0.46112   -1.000
 3512.00    0.51230   0.45177   -1.000
 3513.00    0.48366   0.44230   -1.000
 3514.00    0.44302   0.44182  870.568
 3515.00    0.45798   0.45776  870.568
 3516.00    0.48671   0.48645  870.568
 3517.00    0.51043   0.51178  870.568
 3518.00    0.52305   0.51836   -1.000
 3519.00    0.57795   0.50453   -1.000
 3520.00    0.55155   0.48176   -1.000
 3521.00    0.49053   0.46123   -1.000
 3522.00    0.44761   0.44504  606.104
 3523.00    0.46345   0.42924   -1.000
 3524.00    0.46085   0.41401   -1.000
 3525.00    0.42816   0.40728   -1.000
 3526.00    0.44195   0.41677   -1.000
 3527.00    0.45663   0.44023   -1.000
 3528.00    0.45790   0.46841   -1.000
 3529.00    0.46270   0.49077   -1.000
 3530.00    0.48228   0.50218   -1.000
 3531.00    0.50853   0.50339   -1.000
 3532.00    0.50353   0.49806   -1.000
 3533.00    0.50169   0.49221   -1.000
 3534.00    0.52384   0.49142   -1.000
 3535.00    0.56135   0.49679   -1.000
 3536.00    0.53659   0.50821   -1.000
 3537.00    0.52297   0.52293  870.568
 3538.00    0.53899   0.53620  870.568
 3539.00    0.54459   0.54313  870.568
 3540.00    0.53847   0.54068   -1.000
 3541.00    0.53013   0.53431   -1.000
 3542.00    0.53474   0.53314  870.568
 3543.00    0.52433   0.53910   -1.000
 3544.00    0.53667   0.54594   -1.000
 3545.00    0.53857   0.54685   -1.000
 3546.00    0.52668   0.54158   -1.000
 3547.00    0.54517   0.53471   -1.000
 3548.00    0.55721   0.53151   -1.000
 3549.00    0.56807   0.53381   -1.000
 3550.00    0.56597   0.53840   -1.000
 3551.00    0.54757   0.53878   -1.000
 3552.00    0.53225   0.52999  870.568
 3553.00    0.53172   0.51625   -1.000
 3554.00    0.52793   0.50751   -1.000
 3555.00    0.53925   0.50896   -1.000
 3556.00    0.50580   0.51646   -1.000
 3557.00    0.49300   0.52277   -1.000
 3558.00    0.49191   0.52449   -1.000
 3559.00    0.50373   0.52428   -1.000
 3560.00    0.49252   0.52720   -1.000
 3561.00    0.46839   0.53355   -1.000
 3562.00    0.49399   0.53539   -1.000
 3563.00    0.52107   0.52204  584.771
 3564.00    0.51630   0.49213   -1.000
 3565.00    0.49928   0.46103   -1.000
 3566.00    0.44213   0.44501  226.869
 3567.00    0.43668   0.44320  228.329
 3568.00    0.40064   0.44247   -1.000
 3569.00    0.42069   0.43432  235.753
 3570.00    0.42833   0.42471  227.253
 3571.00    0.44757   0.42425   -1.000
 3572.00    0.45118   0.43344   -1.000
 3573.00    0.45419   0.44531   -1.000
 3574.00    0.46625   0.45508   -1.000
 3575.00    0.46478   0.46278   -1.000
 3576.00    0.46663   0.46872  870.568
 3577.00    0.46422   0.46995  600.044
 3578.00    0.46389   0.46256  233.688
 3579.00    0.44540   0.44496  250.667
 3580.00    0.41023   0.42297  260.610
 3581.00    0.39342   0.40610  262.006
 3582.00    0.39136   0.40111  264.791
 3583.00    0.41501   0.40409   -1.000
 3584.00    0.45894   0.40204   -1.000
 3585.00    0.41577   0.39106   -1.000
 3586.00    0.37200   0.37991  263.179
 3587.00    0.39167   0.38041   -1.000
 3588.00    0.42305   0.39824   -1.000
 3589.00    0.45200   0.42843   -1.000
 3590.00    0.45358   0.45987   -1.000
 3591.00    0.46721   0.48194   -1.000
 3592.00    0.48961   0.49071  193.812
 3593.00    0.50093   0.49285  189.598
 3594.00    0.50134   0.49947  182.460
 3595.00    0.53311   0.51476   -1.000
 3596.00    0.57700   0.53217   -1.000
 3597.00    0.59065   0.54473   -1.000
 3598.00    0.60762   0.55219   -1.000
 3599.00    0.59910   0.55541   -1.000
 3600.00    0.59320   0.55056   -1.000
 3601.00    0.60000   0.53403   -1.000
 3602.00    0.57686   0.51174   -1.000
 3603.00    0.54931   0.49382   -1.000
 3604.00    0.50169   0.48634   -1.000
 3605.00    0.48159   0.48587  195.461
 3606.00    0.49837   0.48376   -1.000
 3607.00    0.52285   0.47538   -1.000
 3608.00    0.48172   0.46380   -1.000
 3609.00    0.45607   0.45790  204.236
 3610.00    0.47761   0.46324   -1.000
 3611.00    0.49283   0.47623   -1.000
 3612.00    0.50071   0.49004  187.269
 3613.00    0.50275   0.50293  182.731
 3614.00    0.51521   0.51720  178.314
 3615.00    0.51367   0.52884  183.442
 3616.00    0.51694   0.52404  200.199
 3617.00    0.50384   0.49870   55.669
 3618.00    0.47966   0.46882   30.552
 3619.00    0.44971   0.45654  198.219
 3620.00    0.44699   0.46990   -1.000
 3621.00    0.46800   0.49715   -1.000
 3622.00    0.52021   0.52218  170.926
 3623.00    0.55691   0.53938   -1.000
 3624.00    0.56147   0.55510  160.862
 3625.00    0.60653   0.57677   -1.000
 3626.00    0.65453   0.60122   -1.000
 3627.00    0.65483   0.61650   -1.000
 3628.00    0.62949   0.60818   -1.000
 3629.00    0.57599   0.57254  191.787
 3630.00    0.51539   0.52463  203.238
 3631.00    0.50706   0.49035   -1.000
 3632.00    0.49588   0.48381   -1.000
 3633.00    0.48723   0.49731  189.717
 3634.00    0.47806   0.51371   -1.000
 3635.00    0.48349   0.52452   -1.000
 3636.00    0.52274   0.53430  168.608
 3637.00    0.55218   0.55011  161.674
 3638.00    0.57959   0.56999  158.023
 3639.00    0.59584   0.58637  159.274
 3640.00    0.57087   0.59215   -1.000
 3641.00    0.59124   0.58456  170.472
 3642.00    0.60698   0.56728   -1.000
 3643.00    0.56666   0.54777   -1.000
 3644.00    0.52004   0.53160  185.835
 3645.00    0.49100   0.51943   -1.000
 3646.00    0.49721   0.50929  191.234
 3647.00    0.50113   0.50239  189.499
 3648.00    0.49239   0.50168  183.397
 3649.00    0.50110   0.50817  175.421
 3650.00    0.53732   0.52211  167.285
 3651.00    0.59792   0.54234   -1.000
 3652.00    0.63139   0.56462   -1.000
 3653.00    0.59713   0.58344  156.324
 3654.00    0.60310   0.59736  155.375
 3655.00    0.64395   0.60863   -1.000
 3656.00    0.64910   0.61943   -1.000
 3657.00    0.63708   0.62836  150.006
 3658.00    0.65087   0.63318   -1.000
 3659.00    0.65418   0.63458   -1.000
 3660.00    0.65689   0.63197   -1.000
 3661.00    0.63886   0.62345  154.358
 3662.00    0.60335   0.61119  156.524
 3663.00    0.56936   0.60114   -1.000
 3664.00    0.59967   0.59831  155.359
 3665.00    0.64377   0.60108   -1.000
 3666.00    0.65785   0.60287   -1.000
 3667.00    0.63340   0.59838   -1.000
 3668.00    0.59261   0.58775  164.180
 3669.00    0.57085   0.57906  161.221
 3670.00    0.59388   0.58087  156.073
 3671.00    0.61741   0.59287   -1.000
 3672.00    0.63836   0.60667   -1.000
 3673.00    0.65818   0.61445   -1.000
 3674.00    0.65838   0.61357   -1.000
 3675.00    0.66040   0.60381   -1.000
 3676.00    0.64718   0.58646   -1.000
 3677.00    0.60412   0.56602   -1.000
 3678.00    0.56338   0.54898  172.777
 3679.00    0.56170   0.54094   -1.000
 3680.00    0.56673   0.54245   -1.000
 3681.00    0.57818   0.55063   -1.000
 3682.00    0.57350   0.56092  162.858
 3683.00    0.57495   0.56702  167.863
 3684.00    0.59139   0.56316   -1.000
 3685.00    0.58384   0.54872   -1.000
 3686.00    0.54223   0.53312  180.795
 3687.00    0.51293   0.52905  173.034
 3688.00    0.53258   0.54239  161.463
 3689.00    0.58551   0.56833   -1.000
 3690.00    0.60882   0.59479  150.350
 3691.00    0.62433   0.61063  152.646
 3692.00    0.62994   0.61207   -1.000
 3693.00    0.62246   0.60521  157.280
 3694.00    0.60656   0.59906  156.292
 3695.00    0.62394   0.59732   -1.000
 3696.00    0.63889   0.59918   -1.000
 3697.00    0.64019   0.60647   -1.000
 3698.00    0.67274   0.62168   -1.000
 3699.00    0.70444   0.63982   -1.000
 3700.00    0.72173   0.65012   -1.000
 3701.00    0.72847   0.64055   -1.000
 3702.00    0.66158   0.60767   -1.000
 3703.00    0.59094   0.56227   -1.000
 3704.00    0.54229   0.52157   -1.000
 3705.00    0.55637   0.49848   -1.000
 3706.00    0.54405   0.49475   -1.000
 3707.00    0.53393   0.50257   -1.000
 3708.00    0.54855   0.51389   -1.000
 3709.00    0.54630   0.52487   -1.000
 3710.00    0.57584   0.53624   -1.000
 3711.00    0.61695   0.55237   -1.000
 3712.00    0.63082   0.57670   -1.000
 3713.00    0.69086   0.60578   -1.000
 3714.00    0.71768   0.63059   -1.000
 3715.00    0.70064   0.64284   -1.000
 3716.00    0.70809   0.63867   -1.000
 3717.00    0.69796   0.61648   -1.000
 3718.00    0.62088   0.57486   -1.000
 3719.00    0.52582   0.51795   52.228
 3720.00    0.48919   0.46411   32.691
 3721.00    0.46008   0.43800   -1.000
 3722.00    0.46309   0.45056  175.971
 3723.00    0.52844   0.49315   -1.000
 3724.00    0.61427   0.54422   -1.000
 3725.00    0.63548   0.57946   -1.000
 3726.00    0.61760   0.59106   -1.000
 3727.00    0.61043   0.59085   -1.000
 3728.00    0.61813   0.59157   -1.000
 3729.00    0.65957   0.59360   -1.000
 3730.00    0.66883   0.58672   -1.000
 3731.00    0.62478   0.55837   -1.000
 3732.00    0.56822   0.50761   22.692
 3733.00    0.49507   0.45039   24.768
 3734.00    0.42772   0.40606   24.861
 3735.00    0.41757   0.38997   23.172
 3736.00    0.45195   0.40773   32.210
 3737.00    0.48292   0.45212   -1.000
 3738.00    0.50422   0.50896  169.305
 3739.00    0.57218   0.56292  162.854
 3740.00    0.64198   0.59837   -1.000
 3741.00    0.65286   0.60690   -1.000
 3742.00    0.61184   0.59121   -1.000
 3743.00    0.60641   0.56255   -1.000
 3744.00    0.59001   0.53275   -1.000
 3745.00    0.52002   0.50819   50.881
 3746.00    0.49646   0.48634   22.617
 3747.00    0.46281   0.46093   23.638
 3748.00    0.42016   0.43450   35.439
 3749.00    0.42752   0.42074  203.942
 3750.00    0.45704   0.43350   -1.000
 3751.00    0.51128   0.47432   -1.000
 3752.00    0.58186   0.53069   -1.000
 3753.00    0.63364   0.58710   -1.000
 3754.00    0.68422   0.62862   -1.000
 3755.00    0.69792   0.64353   -1.000
 3756.00    0.66481   0.62843   -1.000
 3757.00    0.60523   0.59387  193.565
 3758.00    0.57386   0.56138  187.942
 3759.00    0.58639   0.54865   -1.000
 3760.00    0.58565   0.55612   -1.000
 3761.00    0.59147   0.57134   -1.000
 3762.00    0.60793   0.58232   -1.000
 3763.00    0.61678   0.58632   -1.000
 3764.00    0.63895   0.58510   -1.000
 3765.00    0.64197   0.57902   -1.000
 3766.00    0.61185   0.56856   -1.000
 3767.00    0.58806   0.55516   -1.000
 3768.00    0.59539   0.53977   -1.000
 3769.00    0.59111   0.52532   -1.000
 3770.00    0.57500   0.51938   -1.000
 3771.00    0.58136   0.53162   -1.000
 3772.00    0.63115   0.56118   -1.000
 3773.00    0.67102   0.59486   -1.000
 3774.00    0.69736   0.61936   -1.000
 3775.00    0.69158   0.63235   -1.000
 3776.00    0.68741   0.64064   -1.000
 3777.00    0.69085   0.65222   -1.000
 3778.00    0.70155   0.66972   -1.000
 3779.00    0.72451   0.68991   -1.000
 3780.00    0.72273   0.70741  138.453
 3781.00    0.74019   0.71771  137.971
 3782.00    0.76448   0.72076   -1.000
 3783.00    0.75802   0.71742   -1.000
 3784.00    0.74567   0.70478   -1.000
 3785.00    0.71966   0.68123   -1.000
 3786.00    0.66355   0.65257  169.399
 3787.00    0.63629   0.62680  171.188
 3788.00    0.63072   0.61080   -1.000
 3789.00    0.61394   0.60698  167.281
 3790.00    0.60347   0.61060  167.262
 3791.00    0.61423   0.61276  171.367
 3792.00    0.62449   0.60544   -1.000
 3793.00    0.60378   0.58646   -1.000
 3794.00    0.57402   0.56000  190.663
 3795.00    0.56431   0.53072   -1.000
 3796.00    0.56204   0.50002   -1.000
 3797.00    0.54482   0.47178   -1.000
 3798.00    0.52788   0.46095   -1.000
 3799.00    0.54790   0.48183   -1.000
 3800.00    0.57187   0.53033   -1.000
 3801.00    0.61125   0.58704   -1.000
 3802.00    0.65533   0.63364   -1.000
 3803.00    0.66930   0.66112  154.437
 3804.00    0.67768   0.67024  158.252
 3805.00    0.67311   0.66530  163.201
 3806.00    0.62268   0.65599   -1.000
 3807.00    0.60521   0.65541   -1.000
 3808.00    0.64303   0.66859   -1.000
 3809.00    0.68669   0.68826  153.860
 3810.00    0.69445   0.70070  159.040
 3811.00    0.69210   0.69501  168.275
 3812.00    0.67126   0.67068  178.640
 3813.00    0.62326   0.63732   -1.000
 3814.00    0.57241   0.60822   -1.000
 3815.00    0.55768   0.59545   -1.000
 3816.00    0.58444   0.60078  183.811
 3817.00    0.59924   0.61146  190.942
 3818.00    0.60896   0.61032  203.238
 3819.00    0.60145   0.59276  207.480
 3820.00    0.55136   0.57401   -1.000
 3821.00    0.51765   0.56983   -1.000
 3822.00    0.56339   0.57639  203.866
 3823.00    0.58357   0.57569   49.566
 3824.00    0.53957   0.55864   23.045
 3825.00    0.48593   0.53501   23.253
 3826.00    0.47568   0.51720   22.970
 3827.00    0.47329   0.50848   22.593
 3828.00    0.48918   0.50612   22.486
 3829.00    0.50593   0.50465   23.076
 3830.00    0.50792   0.49754   24.461
 3831.00    0.45743   0.47985   25.956
 3832.00    0.41973   0.45198   26.190
 3833.00    0.42615   0.42075   25.424
 3834.00    0.42500   0.39886   24.581
 3835.00    0.43647   0.39380   24.483
 3836.00    0.44860   0.40219   25.052
 3837.00    0.43864   0.41601   25.223
 3838.00    0.42385   0.43123   24.332
 3839.00    0.42310   0.45065   36.603
 3840.00    0.44451   0.48009   -1.000
 3841.00    0.48123   0.52086   -1.000
 3842.00    0.55446   0.56652  179.010
 3843.00    0.61893   0.60695  177.167
 3844.00    0.62206   0.63376  177.166
 3845.00    0.61504   0.64849   -1.000
 3846.00    0.63234   0.65883   -1.000
 3847.00    0.63981   0.66632   -1.000
 3848.00    0.61649   0.66655   -1.000
 3849.00    0.59993   0.66074   -1.000
 3850.00    0.61220   0.65784   -1.000
 3851.00    0.62248   0.66490   -1.000
 3852.00    0.64591   0.67816   -1.000
 3853.00    0.66121   0.68596   -1.000
 3854.00    0.62736   0.68078   -1.000
 3855.00    0.59720   0.66611   -1.000
 3856.00    0.56595   0.64812   -1.000
 3857.00    0.54158   0.62842   22.188
 3858.00    0.53820   0.60910   22.795
 3859.00    0.51982   0.59886   35.349
 3860.00    0.50698   0.60700   -1.000
 3861.00    0.53420   0.63326   -1.000
 3862.00    0.60352   0.66554   -1.000
 3863.00    0.65627   0.68671   -1.000
 3864.00    0.67393   0.69093   -1.000
 3865.00    0.66894   0.68699   -1.000
 3866.00    0.64635   0.68391   -1.000
 3867.00    0.64008   0.68342   -1.000
 3868.00    0.61239   0.68135   -1.000
 3869.00    0.57257   0.67173   -1.000
 3870.00    0.53446   0.65321   -1.000
 3871.00    0.54194   0.63205   -1.000
 3872.00    0.56281   0.61838   -1.000
 3873.00    0.57518   0.62104   -1.000
 3874.00    0.62370   0.63809  170.786
 3875.00    0.65522   0.65318  180.054
 3876.00    0.64535   0.65017  194.195
 3877.00    0.59756   0.63115   -1.000
 3878.00    0.56591   0.61273   -1.000
 3879.00    0.57301   0.60645   -1.000
 3880.00    0.56644   0.61012   -1.000
 3881.00    0.54825   0.61421   -1.000
 3882.00    0.56107   0.61342   -1.000
 3883.00    0.59167   0.60821  174.915
 3884.00    0.60562   0.59463  180.986
 3885.00    0.59684   0.56672   -1.000
 3886.00    0.55761   0.52796   -1.000
 3887.00    0.54624   0.49196   -1.000
 3888.00    0.56242   0.47437   -1.000
 3889.00    0.55606   0.48463   -1.000
 3890.00    0.58188   0.52072   -1.000
 3891.00    0.63742   0.56886   -1.000
 3892.00    0.67569   0.60837   -1.000
 3893.00    0.69779   0.62769   -1.000
 3894.00    0.69524   0.63398   -1.000
 3895.00    0.70085   0.64116   -1.000
 3896.00    0.73984   0.65413   -1.000
 3897.00    0.75722   0.66747   -1.000
 3898.00    0.76506   0.67528   -1.000
 3899.00    0.73764   0.67862   -1.000
 3900.00    0.72917   0.68286   -1.000
 3901.00    0.74915   0.68795   -1.000
 3902.00    0.73984   0.68839   -1.000
 3903.00    0.69872   0.68128  156.599
 3904.00    0.66367   0.67007  158.714
 3905.00    0.66785   0.66428  153.664
 3906.00    0.69442   0.67243   -1.000
 3907.00    0.72974   0.69566   -1.000
 3908.00    0.75659   0.72591   -1.000
 3909.00    0.77007   0.75137  133.453
 3910.00    0.79205   0.76705   -1.000
 3911.00    0.81726   0.77551   -1.000
 3912.00    0.81309   0.77844   -1.000
 3913.00    0.79637   0.77474  137.772
 3914.00    0.78036   0.76542  140.371
 3915.00    0.76385   0.75536  142.170
 3916.00    0.77040   0.74720   -1.000
 3917.00    0.78735   0.73771   -1.000
 3918.00    0.77388   0.72316   -1.000
 3919.00    0.74982   0.70458   -1.000
 3920.00    0.72788   0.68737   -1.000
 3921.00    0.68653   0.67808  161.807
 3922.00    0.68257   0.67936  160.678
 3923.00    0.70335   0.68553  164.968
 3924.00    0.68061   0.68593  176.636
 3925.00    0.64791   0.67274   -1.000
 3926.00    0.62228   0.64290   48.400
 3927.00    0.57418   0.59883   25.852
 3928.00    0.51919   0.54577   30.288
 3929.00    0.44241   0.48748   35.602
 3930.00    0.36016   0.42298   41.949
 3931.00    0.30406   0.35270   47.698
 3932.00    0.26251   0.28795   49.168
 3933.00    0.23730   0.24753   44.929
 3934.00    0.23729   0.24705   38.051
 3935.00    0.27446   0.28845   31.341
 3936.00    0.33386   0.35754   26.028
 3937.00    0.40091   0.43560   38.782
 3938.00    0.47613   0.50936   -1.000
 3939.00    0.53446   0.56903   -1.000
 3940.00    0.56496   0.61110   -1.000
 3941.00    0.59450   0.63578   -1.000
 3942.00    0.62106   0.64644   -1.000
 3943.00    0.61389   0.65196   -1.000
 3944.00    0.60980   0.66275   -1.000
 3945.00    0.65850   0.68216   -1.000
 3946.00    0.71452   0.70323  148.549
 3947.00    0.73939   0.71735   -1.000
 3948.00    0.75517   0.72482   -1.000
 3949.00    0.75445   0.73135   -1.000
 3950.00    0.76226   0.73746   -1.000
 3951.00    0.80046   0.73998   -1.000
 3952.00    0.80992   0.74146   -1.000
 3953.00    0.79302   0.74647   -1.000
 3954.00    0.78026   0.75105   -1.000
 3955.00    0.78773   0.74807   -1.000
 3956.00    0.79341   0.73854   -1.000
 3957.00    0.77656   0.73016   -1.000
 3958.00    0.76017   0.72497   -1.000
 3959.00    0.74815   0.71181   -1.000
 3960.00    0.72109   0.67996   -1.000
 3961.00    0.66162   0.63549   -1.000
 3962.00    0.61513   0.59201   44.837
 3963.00    0.57143   0.55452   24.388
 3964.00    0.49288   0.51387   29.236
 3965.00    0.41690   0.45625   35.978
 3966.00    0.34725   0.38149   42.172
 3967.00    0.29118   0.30726   43.019
 3968.00    0.27682   0.25899   37.626
 3969.00    0.28504   0.25354   30.932
 3970.00    0.30615   0.29148   25.641
 3971.00    0.35410   0.35845   38.817
 3972.00    0.45313   0.43506   -1.000
 3973.00    0.55307   0.50747   -1.000
 3974.00    0.60666   0.57107   -1.000
 3975.00    0.67938   0.62501   -1.000
 3976.00    0.74472   0.67126   -1.000
 3977.00    0.77014   0.71199   -1.000
 3978.00    0.80306   0.74791   -1.000
 3979.00    0.83505   0.77556   -1.000
 3980.00    0.85932   0.78993   -1.000
 3981.00    0.87146   0.79265   -1.000
 3982.00    0.86168   0.79165   -1.000
 3983.00    0.85901   0.79518   -1.000
 3984.00    0.86218   0.80638   -1.000
 3985.00    0.88711   0.82154   -1.000
 3986.00    0.91507   0.83699   -1.000
 3987.00    0.91695   0.85125   -1.000
 3988.00    0.91145   0.86161   -1.000
 3989.00    0.92382   0.86708   -1.000
 3990.00    0.94308   0.87156   -1.000
 3991.00    0.93475   0.87941   -1.000
 3992.00    0.93805   0.88973   -1.000
 3993.00    0.95126   0.89630   -1.000
 3994.00    0.92818   0.89281   -1.000
 3995.00    0.89321   0.87891  119.068
 3996.00    0.87187   0.86240  118.280
 3997.00    0.88952   0.85479   -1.000
 3998.00    0.91038   0.86199   -1.000
 3999.00    0.93411   0.88041   -1.000
 4000.00    0.95990   0.90132   -1.000
 4001.00    0.96917   0.91682   -1.000
 4002.00    0.99352   0.92066   -1.000
 4003.00    0.98689   0.90858   -1.000
 4004.00    0.94001   0.88306   -1.000
 4005.00    0.90783   0.85929   -1.000
 4006.00    0.89653   0.85599   -1.000
 4007.00    0.90238   0.87550  106.713
 4008.00    0.93807   0.90371   -1.000
 4009.00    0.97620   0.92578   -1.000
 4010.00    0.98312   0.93752   -1.000
 4011.00    0.99199   0.94206   -1.000
 4012.00    0.99695   0.94350   -1.000
 4013.00    0.97870   0.94509   -1.000
 4014.00    0.98903   0.94792   -1.000
 4015.00    1.01833   0.95051   -1.000
 4016.00    1.01502   0.95119   -1.000
 4017.00    0.99947   0.95180   -1.000
 4018.00    0.97331   0.95575  103.726
 4019.00    0.99378   0.96184  104.624
 4020.00    1.02547   0.96595   -1.000
 4021.00    1.03024   0.96538   -1.000
 4022.00    1.02124   0.96144   -1.000
 4023.00    1.00557   0.95651   -1.000
 4024.00    1.00000   0.95368   -1.000
 4025.00    0.99999   0.95826   -1.000
 4026.00    1.01245   0.97206   -1.000
 4027.00    1.02935   0.98649   -1.000
 4028.00    1.04685   0.98565   -1.000
 4029.00    1.01785   0.96243   -1.000
 4030.00    0.96969   0.92587   -1.000
 4031.00    0.93692   0.89299   -1.000
 4032.00    0.90994   0.87611   -1.000
 4033.00    0.90758   0.87815  109.282
 4034.00    0.95144   0.89708   -1.000
 4035.00    1.01250   0.92900   -1.000
 4036.00    1.05581   0.96699   -1.000
 4037.00    1.07752   0.99955   -1.000
 4038.00    1.07203   1.01461   -1.000
 4039.00    1.06900   1.01093   -1.000
 4040.00    1.06310   0.99899   -1.000
 4041.00    1.04702   0.98739   -1.000
 4042.00    1.04546   0.97149   -1.000
 4043.00    1.01851   0.93895   -1.000
 4044.00    0.91350   0.89189  125.931
 4045.00    0.82885   0.85620   -1.000
 4046.00    0.86313   0.85652  107.527
 4047.00    0.96660   0.89239   -1.000
 4048.00    1.00863   0.94132   -1.000
 4049.00    1.00215   0.97971  100.542
 4050.00    1.04538   0.99787   -1.000
 4051.00    1.06858   0.99913   -1.000
 4052.00    1.01701   0.98928  107.260
 4053.00    0.98346   0.97439  108.507
 4054.00    0.97143   0.96093  109.293
 4055.00    0.96504   0.95082  110.235
 4056.00    0.97746   0.94313   -1.000
 4057.00    0.97838   0.94029   -1.000
 4058.00    0.96716   0.94748  104.382
 4059.00    0.97577   0.96330  104.252
 4060.00    1.00515   0.97344  108.964
 4061.00    1.01171   0.96080   -1.000
 4062.00    0.96906   0.92589   -1.000
 4063.00    0.91029   0.89094  115.904
 4064.00    0.89279   0.87662  111.572
 4065.00    0.91765   0.88413   -1.000
 4066.00    0.94815   0.90273   -1.000
 4067.00    0.96590   0.92298   -1.000
 4068.00    1.00788   0.93865   -1.000
 4069.00    1.05716   0.94219   -1.000
 4070.00    1.03619   0.92944   -1.000
 4071.00    0.97413   0.91052   -1.000
 4072.00    0.95501   0.90362   -1.000
 4073.00    0.95951   0.91198   -1.000
 4074.00    0.97633   0.91877   -1.000
 4075.00    0.98600   0.90797   -1.000
 4076.00    0.95514   0.88302   -1.000
 4077.00    0.90841   0.86333   -1.000
 4078.00    0.88979   0.86629  107.861
 4079.00    0.93267   0.89450   -1.000
 4080.00    1.00014   0.93274   -1.000
 4081.00    1.06659   0.95896   -1.000
 4082.00    1.07681   0.96230   -1.000
 4083.00    1.02292   0.94951   -1.000
 4084.00    0.98489   0.93750   -1.000
 4085.00    0.97834   0.93966   -1.000
 4086.00    1.01459   0.95752   -1.000
 4087.00    1.06896   0.98174   -1.000
 4088.00    1.07362   0.99981   -1.000
 4089.00    1.05216   1.00430   -1.000
 4090.00    1.04886   0.99689   -1.000
 4091.00    1.05583   0.98542   -1.000
 4092.00    1.04854   0.97492   -1.000
 4093.00    1.03063   0.96314   -1.000
 4094.00    1.01475   0.94597   -1.000
 4095.00    0.99318   0.92200   -1.000
 4096.00    0.97170   0.89517   -1.000
 4097.00    0.95672   0.86847   -1.000
 4098.00    0.94831   0.83660   -1.000
 4099.00    0.90792   0.79136   -1.000
 4100.00    0.81713   0.73675   -1.000
 4101.00    0.76272   0.69613   -1.000
 4102.00    0.78519   0.69329   -1.000
 4103.00    0.82763   0.73284   -1.000
 4104.00    0.88035   0.79487   -1.000
 4105.00    0.94323   0.85255   -1.000
 4106.00    0.99843   0.89161   -1.000
 4107.00    1.02695   0.91281   -1.000
 4108.00    1.01873   0.92132   -1.000
 4109.00    1.00568   0.92378   -1.000
 4110.00    0.99513   0.92729   -1.000
 4111.00    0.98381   0.93560   -1.000
 4112.00    0.99970   0.94904   -1.000
 4113.00    1.02200   0.96576   -1.000
 4114.00    1.03526   0.98248   -1.000
 4115.00    1.05346   0.99389   -1.000
 4116.00    1.05076   0.99492   -1.000
 4117.00    1.04426   0.98563   -1.000
 4118.00    1.03037   0.97215   -1.000
 4119.00    0.99682   0.96267  108.247
 4120.00    0.99175   0.96235  107.776
 4121.00    1.00354   0.96873  107.239
 4122.00    0.99689   0.97656  105.660
 4123.00    1.00141   0.98419  104.564
 4124.00    1.02051   0.99164  105.162
 4125.00    1.02197   0.99667  107.067
 4126.00    1.00848   0.99570  108.657
 4127.00    1.00210   0.98971  109.345
 4128.00    0.98369   0.98362  110.326
 4129.00    0.98047   0.97817  112.833
 4130.00    0.98715   0.96744  116.452
 4131.00    0.97133   0.94963  118.363
 4132.00    0.95546   0.93353  116.353
 4133.00    0.93931   0.93165  111.325
 4134.00    0.95418   0.94833  106.722
 4135.00    1.00429   0.97637  104.214
 4136.00    1.03116   1.00535  102.588
 4137.00    1.04601   1.02871  101.619
 4138.00    1.06311   1.04450  102.550
 4139.00    1.06066   1.04962  106.434
 4140.00    1.05477   1.03747  113.892
 4141.00    1.03115   1.00647  121.763
 4142.00    0.97510   0.96755  122.241
 4143.00    0.91814   0.94045   -1.000
 4144.00    0.91599   0.94060   -1.000
 4145.00    0.98891   0.96437  107.896
 4146.00    1.03812   0.99259   -1.000
 4147.00    1.03421   1.00842  111.167
 4148.00    1.04075   1.01053  113.389
 4149.00    1.02866   1.00801  113.567
 4150.00    1.00985   1.00711  112.791
 4151.00    1.01106   1.00627  113.057
 4152.00    1.00742   1.00117  114.585
 4153.00    0.98979   0.99147  113.902
 4154.00    0.95914   0.98274   -1.000
 4155.00    0.95530   0.98148   -1.000
 4156.00    0.97830   0.98961  110.369
 4157.00    1.05590   1.00410   -1.000
 4158.00    1.25488   1.02082   -1.000
 4159.00    1.24410   1.03602   -1.000
 4160.00    0.91422   1.04774   -1.000
 4161.00    0.84928   1.05639   -1.000
 4162.00    1.04088   1.06330   -1.000
 4163.00    1.08708   1.06811  107.217
 4164.00    1.05990   1.06761  109.259
 4165.00    1.04188   1.05892  111.323
 4166.00    1.01124   1.04486   -1.000
 4167.00    0.99835   1.03396   -1.000
 4168.00    0.99969   1.03036   -1.000
 4169.00    1.01151   1.02796  113.940
 4170.00    1.02520   1.01556  120.969
 4171.00    1.00952   0.98959  124.549
 4172.00    0.95570   0.96221  122.091
 4173.00    0.90895   0.95065   -1.000
 4174.00    0.92022   0.95956   -1.000
 4175.00    0.95291   0.97818   -1.000
 4176.00    0.96410   0.99301   -1.000
 4177.00    0.96116   1.00272   -1.000
 4178.00    0.95313   1.01226   -1.000
 4179.00    0.95329   1.02173   -1.000
 4180.00    0.97758   1.02578   -1.000
 4181.00    1.00430   1.02218  110.493
 4182.00    0.99729   1.01907   -1.000
 4183.00    0.99709   1.02431   -1.000
 4184.00    1.01280   1.03201  109.720
 4185.00    1.01105   1.03090   -1.000
 4186.00    1.00017   1.01889  114.102
 4187.00    0.98637   1.00614  112.122
 4188.00    0.96932   1.00345   -1.000
 4189.00    0.98272   1.01060   -1.000
 4190.00    1.01311   1.02087  107.497
 4191.00    1.02016   1.03130  105.647
 4192.00    1.02858   1.04157  106.724
 4193.00    1.03245   1.04821  111.327
 4194.00    1.02002   1.04388   -1.000
 4195.00    0.99917   1.02505   -1.000
 4196.00    0.97856   0.99869   -1.000
 4197.00    0.97265   0.97566  119.261
 4198.00    0.96876   0.96148  117.574
 4199.00    0.96480   0.95584  116.548
 4200.00    0.96034   0.95709  116.021
 4201.00    0.95685   0.96240  114.648
 4202.00    0.96625   0.97073  113.370
 4203.00    0.97507   0.98494  111.787
 4204.00    0.98678   1.00476  109.220
 4205.00    1.02719   1.02520  106.815
 4206.00    1.06986   1.04278  105.618
 4207.00    1.07290   1.05590  105.668
 4208.00    1.06971   1.06245  105.755
 4209.00    1.05928   1.06309  105.219
 4210.00    1.02843   1.06288   -1.000
 4211.00    1.02022   1.06595   -1.000
 4212.00    1.03753   1.06787   -1.000
 4213.00    1.02567   1.05821   -1.000
 4214.00    0.98716   1.03693   -1.000
 4215.00    0.97140   1.01755   -1.000
 4216.00    0.99155   1.01363  103.121
 4217.00    1.00957   1.02951   99.559
 4218.00    1.04452   1.05552   97.783
 4219.00    1.07049   1.07789   97.857
 4220.00    1.09220   1.08836  100.550
 4221.00    1.10973   1.08268  106.401
 4222.00    1.09494   1.05699   -1.000
 4223.00    1.05762   1.00939   -1.000
 4224.00    0.97078   0.94562   -1.000
 4225.00    0.87274   0.88437  142.752
 4226.00    0.80440   0.85200   -1.000
 4227.00    0.82377   0.86836   -1.000
 4228.00    0.92218   0.92750  104.178
 4229.00    1.00387   0.99693  101.480
 4230.00    1.04223   1.04349  102.527
 4231.00    1.07089   1.05790  105.135
 4232.00    1.05740   1.05110  106.927
 4233.00    1.03007   1.03575  108.781
 4234.00    1.02650   1.02020  111.049
 4235.00    1.01015   1.00989  111.415
 4236.00    0.99058   1.00598  109.484
 4237.00    0.98495   1.00923  107.465
 4238.00    0.98179   1.02042   -1.000
 4239.00    1.00223   1.03669   -1.000
 4240.00    1.04416   1.05444  103.105
 4241.00    1.05735   1.07073  101.901
 4242.00    1.05767   1.08361   99.880
 4243.00    1.08082   1.09282   99.576
 4244.00    1.09994   1.09715  102.733
 4245.00    1.09327   1.09119  107.110
 4246.00    1.07818   1.07022  110.402
 4247.00    1.03868   1.04034  112.144
 4248.00    0.99495   1.01442  112.460
 4249.00    0.97885   1.00207  110.468
 4250.00    0.97073   1.00587   -1.000
 4251.00    1.00526   1.01992  106.335
 4252.00    1.04096   1.03164  108.365
 4253.00    1.02930   1.03256  108.833
 4254.00    1.02473   1.02846  105.620
 4255.00    1.01334   1.03279  103.330
 4256.00    1.04091   1.04715  105.337
 4257.00    1.08752   1.05511   -1.000
 4258.00    1.05502   1.04214  114.880
 4259.00    0.99267   1.01620  113.472
 4260.00    0.94573   1.00156   -1.000
 4261.00    0.95717   1.01449   -1.000
 4262.00    1.02849   1.04919   98.199
 4263.00    1.08402   1.08611   97.160
 4264.00    1.10085   1.10929   98.036
 4265.00    1.08772   1.11467   -1.000
 4266.00    1.09180   1.10728  103.884
 4267.00    1.07924   1.09053  107.530
 4268.00    1.06002   1.06365  113.418
 4269.00    1.02425   1.02703  120.735
 4270.00    0.97203   0.98653  124.562
 4271.00    0.91658   0.95364   -1.000
 4272.00    0.90351   0.93866   -1.000
 4273.00    0.93237   0.94423  115.771
 4274.00    0.93546   0.96581   -1.000
 4275.00    0.95771   0.99857   -1.000
 4276.00    1.03330   1.03808  101.200
 4277.00    1.10221   1.07204  103.930
 4278.00    1.10334   1.08533  108.111
 4279.00    1.04200   1.07606   -1.000
 4280.00    1.00810   1.05788   -1.000
 4281.00    1.02034   1.04728   -1.000
 4282.00    1.03538   1.04775  108.078
 4283.00    1.03616   1.04942  110.600
 4284.00    1.00921   1.04440   -1.000
 4285.00    0.98578   1.03269   -1.000
 4286.00    0.98735   1.01672   -1.000
 4287.00    0.97312   0.99647  124.519
 4288.00    0.94181   0.97086   -1.000
 4289.00    0.90143   0.94642   -1.000
 4290.00    0.88870   0.93851   -1.000
 4291.00    0.90622   0.95381   -1.000
 4292.00    0.96737   0.98092  111.481
 4293.00    1.02114   1.00088  113.070
 4294.00    1.01502   1.00366  115.389
 4295.00    0.98586   0.99262  119.949
 4296.00    0.95094   0.97102  128.672
 4297.00    0.90867   0.93769   -1.000
 4298.00    0.86471   0.89622   -1.000
 4299.00    0.80369   0.85782   -1.000
 4300.00    0.78187   0.83421   -1.000
 4301.00    0.80132   0.82894   -1.000
 4302.00    0.81149   0.83674  135.168
 4303.00    0.81263   0.84937   -1.000
 4304.00    0.82581   0.85909   -1.000
 4305.00    0.83038   0.85807   -1.000
 4306.00    0.80943   0.84353   -1.000
 4307.00    0.78588   0.82288   -1.000
 4308.00    0.76132   0.80969   -1.000
 4309.00    0.76380   0.81498   -1.000
 4310.00    0.80406   0.83853   -1.000
 4311.00    0.83344   0.87242   -1.000
 4312.00    0.85592   0.91085   -1.000
 4313.00    0.91204   0.95564   -1.000
 4314.00    0.97503   1.01041   -1.000
 4315.00    1.06124   1.07274   92.620
 4316.00    1.13892   1.13173   91.419
 4317.00    1.15974   1.17186   92.361
 4318.00    1.18290   1.18578   94.242
 4319.00    1.18619   1.17893   97.045
 4320.00    1.16932   1.15877  101.275
 4321.00    1.14196   1.12552  107.825
 4322.00    1.08809   1.07734  116.938
 4323.00    1.00467   1.02014  124.036
 4324.00    0.91506   0.97160   -1.000
 4325.00    0.87418   0.95450   -1.000
 4326.00    0.91584   0.97989   -1.000
 4327.00    1.01924   1.03497   96.243
 4328.00    1.10628   1.09065   95.904
 4329.00    1.13414   1.12465   95.782
 4330.00    1.14369   1.13611   94.505
 4331.00    1.15223   1.13854   93.247
 4332.00    1.14369   1.14189   92.777
 4333.00    1.14975   1.14398   93.702
 4334.00    1.15117   1.13577   98.056
 4335.00    1.12803   1.10776  106.471
 4336.00    1.09646   1.05404   -1.000
 4337.00    1.02695   0.97752   -1.000
 4338.00    0.93842   0.89481   -1.000
 4339.00    0.86321   0.83254   -1.000
 4340.00    0.82364   0.81291  115.701
 4341.00    0.87047   0.84359  106.946
 4342.00    0.94957   0.91055   -1.000
 4343.00    1.00179   0.98387   99.588
 4344.00    1.05042   1.04134   97.528
 4345.00    1.08518   1.08090   96.292
 4346.00    1.11913   1.10949   94.929
 4347.00    1.15737   1.13217   94.492
 4348.00    1.16647   1.14540   97.880
 4349.00    1.13434   1.13888  104.666
 4350.00    1.08266   1.10961   -1.000
 4351.00    1.04158   1.07338   -1.000
 4352.00    1.01517   1.05489   -1.000
 4353.00    1.02921   1.06694   -1.000
 4354.00    1.07219   1.09973   95.345
 4355.00    1.10391   1.13232   -1.000
 4356.00    1.12540   1.15217   96.027
 4357.00    1.12128   1.15872   -1.000
 4358.00    1.11815   1.15714   -1.000
 4359.00    1.12620   1.15626   -1.000
 4360.00    1.13810   1.16420   92.431
 4361.00    1.16960   1.18040   91.866
 4362.00    1.18936   1.19766   91.082
 4363.00    1.18859   1.21066   90.637
 4364.00    1.19434   1.21724   92.405
 4365.00    1.19667   1.21387   95.689
 4366.00    1.17614   1.19864   97.665
 4367.00    1.14783   1.17811   -1.000
 4368.00    1.12423   1.16213   -1.000
 4369.00    1.13642   1.15341   96.336
 4370.00    1.14565   1.14784   96.931
 4371.00    1.14178   1.13924   99.824
 4372.00    1.12798   1.12297  103.941
 4373.00    1.10941   1.09994  105.477
 4374.00    1.06114   1.07934  102.566
 4375.00    1.02346   1.07605   -1.000
 4376.00    1.05304   1.09640   -1.000
 4377.00    1.10917   1.12922   94.567
 4378.00    1.14601   1.15449   95.908
 4379.00    1.16150   1.15853   99.442
 4380.00    1.15216   1.13676  108.177
 4381.00    1.11729   1.08937  120.599
 4382.00    1.02630   1.02645  126.365
 4383.00    0.94023   0.97424   -1.000
 4384.00    0.91691   0.96104   -1.000
 4385.00    0.96239   0.99188   -1.000
 4386.00    1.01561   1.04268   -1.000
 4387.00    1.07249   1.08245  101.354
 4388.00    1.11130   1.09997  101.982
 4389.00    1.10875   1.10407  100.786
 4390.00    1.11923   1.10745   98.563
 4391.00    1.12291   1.11573   98.198
 4392.00    1.13287   1.12560   99.926
 4393.00    1.11986   1.13012  100.510
 4394.00    1.09790   1.12975   -1.000
 4395.00    1.09320   1.13506   -1.000
 4396.00    1.12636   1.15109   93.701
 4397.00    1.17215   1.16692   96.519
 4398.00    1.16572   1.16881   99.709
 4399.00    1.14141   1.15649   99.953
 4400.00    1.12492   1.14195   98.257
 4401.00    1.11675   1.13309   99.840
 4402.00    1.11439   1.12466  105.025
 4403.00    1.09238   1.10803  107.813
 4404.00    1.03797   1.08647   -1.000
 4405.00    1.03261   1.07530   -1.000
 4406.00    1.05503   1.08284   -1.000
 4407.00    1.07411   1.10225   -1.000
 4408.00    1.09660   1.12586   -1.000
 4409.00    1.14416   1.15585   91.564
 4410.00    1.17575   1.19137   89.809
 4411.00    1.18503   1.21877   -1.000
 4412.00    1.20870   1.22290   95.455
 4413.00    1.18515   1.20163   99.720
 4414.00    1.13526   1.16665   -1.000
 4415.00    1.10428   1.13819   -1.000
 4416.00    1.07934   1.13536   -1.000
 4417.00    1.10854   1.15990   -1.000
 4418.00    1.17942   1.19655   90.361
 4419.00    1.20970   1.22630   92.196
 4420.00    1.20170   1.23698   -1.000
 4421.00    1.20424   1.22939   -1.000
 4422.00    1.16455   1.21573   -1.000
 4423.00    1.14622   1.20717   -1.000
 4424.00    1.15706   1.20473   -1.000
 4425.00    1.15063   1.20352   -1.000
 4426.00    1.14323   1.20225   -1.000
 4427.00    1.15124   1.20444   -1.000
 4428.00    1.17949   1.21002   -1.000
 4429.00    1.19187   1.21562   93.993
 4430.00    1.18730   1.21935   -1.000
 4431.00    1.18512   1.22041   -1.000
 4432.00    1.18362   1.21461   -1.000
 4433.00    1.15870   1.19706   -1.000
 4434.00    1.11548   1.17388   -1.000
 4435.00    1.09990   1.16349   -1.000
 4436.00    1.13679   1.18070   -1.000
 4437.00    1.18065   1.21967   -1.000
 4438.00    1.23210   1.25689   89.445
 4439.00    1.25353   1.27103   93.347
 4440.00    1.21981   1.25593   -1.000
 4441.00    1.17733   1.22388   -1.000
 4442.00    1.15358   1.19662   -1.000
 4443.00    1.15617   1.19214   -1.000
 4444.00    1.16742   1.21227   -1.000
 4445.00    1.18573   1.24324   -1.000
 4446.00    1.21216   1.26790   -1.000
 4447.00    1.24386   1.27902   -1.000
 4448.00    1.25835   1.28135   91.433
 4449.00    1.25584   1.28066   -1.000
 4450.00    1.25133   1.27732   -1.000
 4451.00    1.23322   1.26927   -1.000
 4452.00    1.21283   1.25320   -1.000
 4453.00    1.19075   1.22594   -1.000
 4454.00    1.15561   1.19293   -1.000
 4455.00    1.12207   1.16922   -1.000
 4456.00    1.12991   1.16463   -1.000
 4457.00    1.15719   1.17378   98.415
 4458.00    1.15275   1.18371   -1.000
 4459.00    1.15480   1.18790   -1.000
 4460.00    1.14571   1.18939   -1.000
 4461.00    1.14079   1.19452   -1.000
 4462.00    1.16033   1.20781   -1.000
 4463.00    1.18238   1.22783   -1.000
 4464.00    1.19035   1.24638   -1.000
 4465.00    1.20602   1.25545   -1.000
 4466.00    1.22082   1.25333   -1.000
 4467.00    1.19758   1.24442   -1.000
 4468.00    1.19321   1.23591   -1.000
 4469.00    1.18974   1.23534   -1.000
 4470.00    1.20007   1.24814   -1.000
 4471.00    1.23654   1.27348   -1.000
 4472.00    1.28366   1.30235   85.328
 4473.00    1.29838   1.32470   -1.000
 4474.00    1.31555   1.33613   84.801
 4475.00    1.31762   1.34061   84.203
 4476.00    1.31461   1.34354   -1.000
 4477.00    1.32614   1.34334   86.971
 4478.00    1.30968   1.33204   90.763
 4479.00    1.28342   1.30562   -1.000
 4480.00    1.24485   1.27310   -1.000
 4481.00    1.19190   1.25225   -1.000
 4482.00    1.20593   1.25536   -1.000
 4483.00    1.26315   1.28164   84.854
 4484.00    1.31101   1.31775   84.396
 4485.00    1.33177   1.34598   85.793
 4486.00    1.34338   1.35469   88.715
 4487.00    1.30975   1.34326   -1.000
 4488.00    1.26451   1.32119   -1.000
 4489.00    1.25000   1.30301   -1.000
 4490.00    1.24341   1.30010   -1.000
 4491.00    1.27782   1.31078   -1.000
 4492.00    1.31031   1.32050   90.169
 4493.00    1.29185   1.31666   -1.000
 4494.00    1.26692   1.30257   -1.000
 4495.00    1.24476   1.29261   -1.000
 4496.00    1.26852   1.29606   -1.000
 4497.00    1.29481   1.31027   85.616
 4498.00    1.30166   1.32552   86.077
 4499.00    1.30491   1.33378   -1.000
 4500.00    1.29619   1.33487   -1.000
 4501.00    1.27653   1.33804   -1.000
 4502.00    1.28530   1.35176   -1.000
 4503.00    1.33116   1.37395   -1.000
 4504.00    1.37108   1.39457   81.971
 4505.00    1.39013   1.40446   83.076
 4506.00    1.36119   1.40252   -1.000
 4507.00    1.33742   1.39516   -1.000
 4508.00    1.34870   1.39023   -1.000
 4509.00    1.35147   1.39003   -1.000
 4510.00    1.36563   1.39079   83.990
 4511.00    1.36655   1.38687   85.567
 4512.00    1.31533   1.37678   -1.000
 4513.00    1.30783   1.36495   -1.000
 4514.00    1.33083   1.35600   86.050
 4515.00    1.32636   1.35126   86.771
 4516.00    1.31216   1.34873   -1.000
 4517.00    1.28915   1.34570   -1.000
 4518.00    1.29442   1.34333   -1.000
 4519.00    1.32689   1.34597   84.554
 4520.00    1.34823   1.35283   86.071
 4521.00    1.35283   1.35650   87.952
 4522.00    1.32848   1.35100   89.012
 4523.00    1.28614   1.33735   -1.000
 4524.00    1.29394   1.32088   -1.000
 4525.00    1.30892   1.30301   95.392
 4526.00    1.26965   1.28133   97.003
 4527.00    1.21617   1.25707   -1.000
 4528.00    1.18464   1.23796   -1.000
 4529.00    1.18148   1.23259   -1.000
 4530.00    1.19061   1.24026   -1.000
 4531.00    1.22330   1.25183   -1.000
 4532.00    1.23197   1.25544   -1.000
 4533.00    1.22584   1.24689   97.720
 4534.00    1.24296   1.23596   93.282
 4535.00    1.23949   1.23931   87.741
 4536.00    1.25946   1.26608   84.548
 4537.00    1.31006   1.30781   84.492
 4538.00    1.33381   1.34523   86.236
 4539.00    1.34290   1.36400   86.821
 4540.00    1.33805   1.36548   -1.000
 4541.00    1.33731   1.36103   85.876
 4542.00    1.33365   1.35876   -1.000
 4543.00    1.32007   1.35770   50.623
 4544.00    1.31001   1.35280   -1.000
 4545.00    1.34498   1.34355   51.216
 4546.00    1.13129   1.33338   -1.000
 4547.00    0.35015   1.32225   -1.000
 4548.00   -0.02660   1.30852    0.000
 4549.00    0.15986   1.29708   -1.000
 4550.00    0.63661   1.29624   -1.000
 4551.00    0.44920   1.30603   -1.000
 4552.00    0.90936   1.31478   -1.000
 4553.00    1.27755   1.31375   -1.000
 4554.00    1.27276   1.30808   -1.000
 4555.00    1.26435   1.30977   -1.000
 4556.00    1.29893   1.32671   -1.000
 4557.00    1.33604   1.35502   82.777
 4558.00    1.37908   1.38248   82.912
 4559.00    1.40004   1.40054   82.909
 4560.00    1.40670   1.40828   84.283
 4561.00    1.40388   1.40648   86.390
 4562.00    1.37828   1.39547   88.073
 4563.00    1.34428   1.37801   -1.000
 4564.00    1.31463   1.36215   -1.000
 4565.00    1.30074   1.35781   -1.000
 4566.00    1.32041   1.36862   -1.000
 4567.00    1.37293   1.38772   82.805
 4568.00    1.40255   1.40179   84.597
 4569.00    1.37894   1.40140   86.830
 4570.00    1.34792   1.38763   -1.000
 4571.00    1.33099   1.37105   -1.000
 4572.00    1.33038   1.36480   -1.000
 4573.00    1.33829   1.37443   -1.000
 4574.00    1.35682   1.39168   -1.000
 4575.00    1.37516   1.40383   -1.000
 4576.00    1.37134   1.40570   -1.000
 4577.00    1.35049   1.39835   -1.000
 4578.00    1.32496   1.38299   -1.000
 4579.00    1.31783   1.36170   -1.000
 4580.00    1.30718   1.34095   -1.000
 4581.00    1.29650   1.32860   -1.000
 4582.00    1.31032   1.32755   87.736
 4583.00    1.31496   1.33298   88.225
 4584.00    1.29262   1.33821   -1.000
 4585.00    1.28722   1.34196   -1.000
 4586.00    1.30986   1.34899   -1.000
 4587.00    1.34610   1.36314   82.935
 4588.00    1.39509   1.38099   83.800
 4589.00    1.39597   1.39373   85.297
 4590.00    1.36996   1.39539   -1.000
 4591.00    1.35773   1.38650   -1.000
 4592.00    1.33299   1.37326   -1.000
 4593.00    1.30373   1.36437   -1.000
 4594.00    1.31436   1.36355   -1.000
 4595.00    1.35186   1.36776   85.524
 4596.00    1.35506   1.37373   85.336
 4597.00    1.35650   1.37940   85.824
 4598.00    1.36435   1.38215   86.610
 4599.00    1.33225   1.38012   -1.000
 4600.00    1.31038   1.37439   -1.000
 4601.00    1.31770   1.36888   -1.000
 4602.00    1.32314   1.36750   -1.000
 4603.00    1.32329   1.37068   -1.000
 4604.00    1.31558   1.37636   -1.000
 4605.00    1.35038   1.38330   -1.000
 4606.00    1.39042   1.39260   81.247
 4607.00    1.39420   1.40622   80.071
 4608.00    1.41748   1.42279   80.084
 4609.00    1.44124   1.43701   81.007
 4610.00    1.44080   1.44197   81.983
 4611.00    1.42252   1.43626   82.614
 4612.00    1.40317   1.42676   82.456
 4613.00    1.37197   1.42031   -1.000
 4614.00    1.36006   1.41982   -1.000
 4615.00    1.37495   1.42335   -1.000
 4616.00    1.38850   1.42641   -1.000
 4617.00    1.39439   1.42658   -1.000
 4618.00    1.37026   1.42507   -1.000
 4619.00    1.36456   1.42544   -1.000
 4620.00    1.37516   1.43066   -1.000
 4621.00    1.40668   1.43935   -1.000
 4622.00    1.42088   1.44582   80.558
 4623.00    1.43726   1.44604   81.144
 4624.00    1.42201   1.44149   81.501
 4625.00    1.40847   1.43648   81.512
 4626.00    1.41866   1.43332   81.884
 4627.00    1.43008   1.43303   82.165
 4628.00    1.40092   1.43465   -1.000
 4629.00    1.37894   1.43669   -1.000
 4630.00    1.38239   1.43909   -1.000
 4631.00    1.41295   1.44182   -1.000
 4632.00    1.42231   1.44224   83.085
 4633.00    1.39757   1.43808   -1.000
 4634.00    1.38363   1.43117   -1.000
 4635.00    1.39859   1.42445   84.740
 4636.00    1.39694   1.41782   85.301
 4637.00    1.38982   1.41046   85.290
 4638.00    1.36260   1.40451   -1.000
 4639.00    1.35422   1.40381   -1.000
 4640.00    1.39320   1.41113   80.878
 4641.00    1.43269   1.42443   80.846
 4642.00    1.43870   1.43650   82.073
 4643.00    1.44291   1.43955   84.207
 4644.00    1.42592   1.43017   86.570
 4645.00    1.39216   1.41127   87.468
 4646.00    1.35815   1.38943   -1.000
 4647.00    1.35603   1.37527   84.440
 4648.00    1.37472   1.37717   83.065
 4649.00    1.37460   1.39329   82.678
 4650.00    1.38373   1.41361   -1.000
 4651.00    1.40228   1.42775   83.215
 4652.00    1.40851   1.43120   84.930
 4653.00    1.38608   1.42535   -1.000
 4654.00    1.35889   1.41450   -1.000
 4655.00    1.35299   1.40631   -1.000
 4656.00    1.36588   1.40876   -1.000
 4657.00    1.39994   1.42543   78.348
 4658.00    1.43410   1.45262   77.862
 4659.00    1.46334   1.47937   78.593
 4660.00    1.46478   1.49336   -1.000
 4661.00    1.45374   1.49016   -1.000
 4662.00    1.44890   1.47506   82.551
 4663.00    1.41975   1.45573   -1.000
 4664.00    1.40837   1.43518   -1.000
 4665.00    1.38010   1.41104   -1.000
 4666.00    1.32663   1.38244   -1.000
 4667.00    1.30351   1.35660   -1.000
 4668.00    1.28770   1.34681   -1.000
 4669.00    1.28971   1.35979   -1.000
 4670.00    1.34574   1.38710   -1.000
 4671.00    1.40694   1.41368   82.044
 4672.00    1.43932   1.43006   82.004
 4673.00    1.41461   1.43725   81.172
 4674.00    1.40736   1.44261   -1.000
 4675.00    1.44384   1.45052   79.972
 4676.00    1.45015   1.45734   81.410
 4677.00    1.44493   1.45498   83.088
 4678.00    1.39875   1.44130   -1.000
 4679.00    1.37222   1.42236   -1.000
 4680.00    1.36513   1.40618   -1.000
 4681.00    1.38044   1.39865   82.947
 4682.00    1.39946   1.40190   81.596
 4683.00    1.43771   1.41360   81.563
 4684.00    1.44392   1.42715   81.677
 4685.00    1.45349   1.43623   82.035
 4686.00    1.43078   1.43918   82.160
 4687.00    1.41158   1.43818   82.159
 4688.00    1.43679   1.43595   82.612
 4689.00    1.42406   1.43401   82.896
 4690.00    1.41212   1.43250   82.179
 4691.00    1.39827   1.43184   -1.000
 4692.00    1.41087   1.43453   79.322
 4693.00    1.42512   1.44188   78.118
 4694.00    1.42930   1.45115   78.186
 4695.00    1.45553   1.45799   80.017
 4696.00    1.47542   1.45841   82.449
 4697.00    1.42671   1.44924   83.780
 4698.00    1.40254   1.43224   -1.000
 4699.00    1.38719   1.41427   -1.000
 4700.00    1.36568   1.40010   -1.000
 4701.00    1.37001   1.38909   85.778
 4702.00    1.35775   1.38057   84.612
 4703.00    1.34381   1.37832   -1.000
 4704.00    1.36764   1.38522   83.848
 4705.00    1.38771   1.39604   85.456
 4706.00    1.39363   1.40091   86.502
 4707.00    1.37663   1.39651   86.333
 4708.00    1.36550   1.38977   84.243
 4709.00    1.37070   1.39062   81.857
 4710.00    1.38877   1.40214   80.718
 4711.00    1.41682   1.41861   81.147
 4712.00    1.43488   1.43090   82.538
 4713.00    1.43530   1.43310   82.915
 4714.00    1.41001   1.42954   81.615
 4715.00    1.38961   1.43084   -1.000
 4716.00    1.41293   1.44223   -1.000
 4717.00    1.44459   1.46029   78.962
 4718.00    1.46205   1.47732   78.692
 4719.00    1.47933   1.48853   79.148
 4720.00    1.47049   1.49285   79.753
 4721.00    1.43578   1.49180   -1.000
 4722.00    1.42633   1.48893   -1.000
 4723.00    1.45209   1.48860   -1.000
 4724.00    1.46326   1.49066   80.136
 4725.00    1.45129   1.48863   -1.000
 4726.00    1.43738   1.47622   -1.000
 4727.00    1.42257   1.45367   -1.000
 4728.00    1.40066   1.43001   -1.000
 4729.00    1.37186   1.41641   -1.000
 4730.00    1.38224   1.41565   -1.000
 4731.00    1.39934   1.42347   82.100
 4732.00    1.44482   1.43529   81.583
 4733.00    1.45832   1.44701   81.130
 4734.00    1.45287   1.45457   81.707
 4735.00    1.43060   1.45627   82.007
 4736.00    1.44863   1.45438   81.186
 4737.00    1.44614   1.45353   80.962
 4738.00    1.45533   1.45708   81.356
 4739.00    1.47081   1.46357   81.551
 4740.00    1.45263   1.46827   81.057
 4741.00    1.45455   1.47030   80.209
 4742.00    1.48738   1.47332   80.139
 4743.00    1.49824   1.47856   80.247
 4744.00    1.49438   1.48414   79.790
 4745.00    1.49041   1.48939   79.016
 4746.00    1.47225   1.49537   78.708
 4747.00    1.48275   1.50325   78.776
 4748.00    1.52200   1.51172   78.847
 4749.00    1.51069   1.51791   79.307
 4750.00    1.49490   1.52103   80.148
 4751.00    1.48371   1.52025   -1.000
 4752.00    1.46405   1.51418   -1.000
 4753.00    1.43054   1.50365   -1.000
 4754.00    1.41809   1.49312   -1.000
 4755.00    1.42068   1.48736   -1.000
 4756.00    1.42693   1.48779   -1.000
 4757.00    1.43068   1.49282   -1.000
 4758.00    1.44177   1.49965   -1.000
 4759.00    1.44626   1.50502   -1.000
 4760.00    1.44868   1.50460   -1.000
 4761.00    1.44128   1.49492   -1.000
 4762.00    1.42370   1.47722   -1.000
 4763.00    1.39388   1.45807   -1.000
 4764.00    1.38859   1.44464   -1.000
 4765.00    1.39274   1.43919   -1.000
 4766.00    1.37503   1.44189   -1.000
 4767.00    1.38844   1.45351   -1.000
 4768.00    1.43212   1.47312   -1.000
 4769.00    1.45539   1.49434   -1.000
 4770.00    1.45993   1.50823   -1.000
 4771.00    1.47853   1.51133   -1.000
 4772.00    1.47885   1.50972   80.354
 4773.00    1.46023   1.51239   -1.000
 4774.00    1.47126   1.52220   -1.000
 4775.00    1.48505   1.53338   -1.000
 4776.00    1.48382   1.53985   -1.000
 4777.00    1.46983   1.54093   -1.000
 4778.00    1.48499   1.53824   -1.000
 4779.00    1.49439   1.53277   -1.000
 4780.00    1.48541   1.52573   -1.000
 4781.00    1.48483   1.51874   82.803
 4782.00    1.48320   1.51193   82.918
 4783.00    1.48909   1.50517   83.123
 4784.00    1.47863   1.49933   83.845
 4785.00    1.45527   1.49434   -1.000
 4786.00    1.41665   1.48927   -1.000
 4787.00    1.41562   1.48502   -1.000
 4788.00    1.42717   1.48424   -1.000
 4789.00    1.44013   1.48798   -1.000
 4790.00    1.45227   1.49645   -1.000
 4791.00    1.45585   1.51010   -1.000
 4792.00    1.48544   1.52816   -1.000
 4793.00    1.49853   1.54824   -1.000
 4794.00    1.51542   1.56677   -1.000
 4795.00    1.53658   1.57844   -1.000
 4796.00    1.55330   1.57890   81.378
 4797.00    1.51392   1.56813   -1.000
 4798.00    1.48404   1.55102   -1.000
 4799.00    1.46808   1.53649   -1.000
 4800.00    1.47573   1.53305   -1.000
 4801.00    1.50350   1.54233   -1.000
 4802.00    1.49083   1.55716   -1.000
 4803.00    1.48689   1.56620   -1.000
 4804.00    1.48748   1.56308   -1.000
 4805.00    1.50422   1.55190   -1.000
 4806.00    1.50174   1.54086   -1.000
 4807.00    1.48928   1.53487   -1.000
 4808.00    1.48478   1.53498   -1.000
 4809.00    1.48447   1.54024   -1.000
 4810.00    1.49160   1.54781   -1.000
 4811.00    1.51783   1.55473   -1.000
 4812.00    1.51013   1.55978   -1.000
 4813.00    1.50820   1.56374   -1.000
 4814.00    1.53211   1.56846   -1.000
 4815.00    1.53153   1.57536   -1.000
 4816.00    1.53402   1.58420   -1.000
 4817.00    1.54421   1.59258   -1.000
 4818.00    1.53106   1.59778   -1.000
 4819.00    1.52799   1.59898   -1.000
 4820.00    1.53851   1.59627   -1.000
 4821.00    1.52160   1.58724   -1.000
 4822.00    1.50352   1.56985   -1.000
 4823.00    1.49540   1.54874   -1.000
 4824.00    1.49160   1.53448   -1.000
 4825.00    1.50953   1.53455   79.540
 4826.00    1.51546   1.54493   80.386
 4827.00    1.51104   1.55432   -1.000
 4828.00    1.50901   1.55594   -1.000
 4829.00    1.49892   1.55134   -1.000
 4830.00    1.49593   1.54481   -1.000
 4831.00    1.49166   1.53797   -1.000
 4832.00    1.48273   1.53288   -1.000
 4833.00    1.50168   1.53350   79.300
 4834.00    1.51866   1.54060   79.359
 4835.00    1.51655   1.55016   79.697
 4836.00    1.52968   1.55611   80.657
 4837.00    1.54700   1.55558   82.051
 4838.00    1.50082   1.54921   -1.000
 4839.00    1.46268   1.53895   -1.000
 4840.00    1.46206   1.52894   -1.000
 4841.00    1.48228   1.52311   -1.000
 4842.00    1.49001   1.52188   80.497
 4843.00    1.46884   1.52400   -1.000
 4844.00    1.49193   1.53001   -1.000
 4845.00    1.53037   1.53982   79.975
 4846.00    1.53840   1.54834   81.277
 4847.00    1.51951   1.54845   81.493
 4848.00    1.50380   1.54073   -1.000
 4849.00    1.47245   1.53372   -1.000
 4850.00    1.47249   1.53250   -1.000
 4851.00    1.47500   1.53359   -1.000
 4852.00    1.48963   1.53030   -1.000
 4853.00    1.47078   1.51754   -1.000
 4854.00    1.44295   1.49371   -1.000
 4855.00    1.41464   1.46457   -1.000
 4856.00    1.40754   1.43975   -1.000
 4857.00    1.38898   1.41862   -1.000
 4858.00    1.34418   1.38393   -1.000
 4859.00    1.27384   1.31571   -1.000
 4860.00    1.14985   1.22113   -1.000
 4861.00    1.06594   1.14390   -1.000
 4862.00    1.08762   1.12871   -1.000
 4863.00    1.18663   1.18394   86.944
 4864.00    1.28761   1.27369   84.896
 4865.00    1.34817   1.35625   83.946
 4866.00    1.38115   1.41393   -1.000
 4867.00    1.41976   1.44979   84.051
 4868.00    1.45198   1.46918   86.137
 4869.00    1.43280   1.47167   -1.000
 4870.00    1.39100   1.45618   -1.000
 4871.00    1.35503   1.43172   -1.000
 4872.00    1.35018   1.41750   -1.000
 4873.00    1.37154   1.42784   -1.000
 4874.00    1.38621   1.45642   -1.000
 4875.00    1.42025   1.48497   -1.000
 4876.00    1.45991   1.50295   -1.000
 4877.00    1.46692   1.51377   -1.000
 4878.00    1.45513   1.52589   -1.000
 4879.00    1.47474   1.54118   -1.000
 4880.00    1.48947   1.55350   -1.000
 4881.00    1.48331   1.55586   -1.000
 4882.00    1.47502   1.54885   -1.000
 4883.00    1.46966   1.53966   -1.000
 4884.00    1.44002   1.53066   -1.000
 4885.00    1.42202   1.52026   -1.000
 4886.00    1.41860   1.51020   -1.000
 4887.00    1.45193   1.50370   -1.000
 4888.00    1.46582   1.49850   -1.000
 4889.00    1.41897   1.48824   -1.000
 4890.00    1.40388   1.47277   -1.000
 4891.00    1.39249   1.46457   -1.000
 4892.00    1.42695   1.48018   -1.000
 4893.00    1.50584   1.52199   76.014
 4894.00    1.56234   1.57392   75.466
 4895.00    1.58845   1.61627   75.544
 4896.00    1.58205   1.63985   -1.000
 4897.00    1.58077   1.64586   -1.000
 4898.00    1.55536   1.63936   -1.000
 4899.00    1.53064   1.62569   -1.000
 4900.00    1.51196   1.61098   -1.000
 4901.00    1.51879   1.59947   -1.000
 4902.00    1.53102   1.59059   -1.000
 4903.00    1.52527   1.58344   -1.000
 4904.00    1.52836   1.58290   -1.000
 4905.00    1.55479   1.59384   -1.000
 4906.00    1.59392   1.60952   79.724
 4907.00    1.57577   1.61531   -1.000
 4908.00    1.51234   1.60465   -1.000
 4909.00    1.50080   1.58286   -1.000
 4910.00    1.48837   1.56170   -1.000
 4911.00    1.48950   1.55204   -1.000
 4912.00    1.49439   1.55778   -1.000
 4913.00    1.49842   1.57403   -1.000
 4914.00    1.54424   1.59227   -1.000
 4915.00    1.57019   1.60466   80.632
 4916.00    1.55031   1.60240   -1.000
 4917.00    1.52247   1.57715   -1.000
 4918.00    1.47948   1.52942   -1.000
 4919.00    1.40383   1.47427   -1.000
 4920.00    1.35933   1.43524   -1.000
 4921.00    1.39057   1.42906   -1.000
 4922.00    1.43741   1.45174   83.250
 4923.00    1.47562   1.48346   82.362
 4924.00    1.49218   1.50904   80.378
 4925.00    1.48831   1.52982   -1.000
 4926.00    1.52446   1.55391   77.969
 4927.00    1.57043   1.58200   77.405
 4928.00    1.58648   1.60810   76.927
 4929.00    1.58721   1.62738   -1.000
 4930.00    1.55743   1.63656   -1.000
 4931.00    1.55242   1.63184   -1.000
 4932.00    1.52615   1.61151   -1.000
 4933.00    1.49409   1.58215   -1.000
 4934.00    1.48181   1.55843   -1.000
 4935.00    1.50305   1.54957   -1.000
 4936.00    1.50131   1.54787   -1.000
 4937.00    1.47523   1.53858   -1.000
 4938.00    1.47079   1.52076   -1.000
 4939.00    1.46133   1.51116   -1.000
 4940.00    1.47337   1.52477   -1.000
 4941.00    1.54352   1.55934   77.653
 4942.00    1.57700   1.59804   77.586
 4943.00    1.62036   1.62443   78.065
 4944.00    1.59593   1.63401   -1.000
 4945.00    1.57144   1.63215   -1.000
 4946.00    1.56699   1.62858   -1.000
 4947.00    1.57592   1.63112   -1.000
 4948.00    1.59524   1.64110   -1.000
 4949.00    1.59236   1.65298   -1.000
 4950.00    1.58719   1.65994   -1.000
 4951.00    1.59795   1.65987   -1.000
 4952.00    1.57984   1.65452   -1.000
 4953.00    1.56247   1.64538   -1.000
 4954.00    1.56393   1.62962   -1.000
 4955.00    1.55277   1.59942   -1.000
 4956.00    1.51063   1.55167   -1.000
 4957.00    1.44470   1.50250   -1.000
 4958.00    1.46074   1.48222   79.519
 4959.00    1.51776   1.50552   78.575
 4960.00    1.56706   1.55546   78.798
 4961.00    1.57563   1.60154   79.393
 4962.00    1.60366   1.62597   80.287
 4963.00    1.62483   1.62935   81.880
 4964.00    1.59670   1.61864   83.060
 4965.00    1.57763   1.60057   83.245
 4966.00    1.56319   1.58281   83.036
 4967.00    1.54732   1.57193   82.479
 4968.00    1.53447   1.56919   -1.000
 4969.00    1.52899   1.57312   -1.000
 4970.00    1.53243   1.58289   -1.000
 4971.00    1.56741   1.59708   79.019
 4972.00    1.61923   1.61296   78.632
 4973.00    1.63328   1.62698   79.047
 4974.00    1.59707   1.63542   -1.000
 4975.00    1.60214   1.63618   80.893
 4976.00    1.59562   1.62960   82.184
 4977.00    1.57110   1.61709   -1.000
 4978.00    1.55309   1.60139   -1.000
 4979.00    1.53601   1.58435   -1.000
 4980.00    1.51212   1.56308   -1.000
 4981.00    1.46648   1.53328   -1.000
 4982.00    1.43268   1.49765   -1.000
 4983.00    1.41456   1.46963   -1.000
 4984.00    1.42413   1.46426   -1.000
 4985.00    1.46241   1.48434   81.532
 4986.00    1.52049   1.51969   81.286
 4987.00    1.57677   1.55605   82.328
 4988.00    1.58785   1.58093   83.240
 4989.00    1.55048   1.58740   -1.000
 4990.00    1.51139   1.58011   -1.000
 4991.00    1.52263   1.57133   -1.000
 4992.00    1.52969   1.56997   -1.000
 4993.00    1.52015   1.57576   -1.000
 4994.00    1.56005   1.58402   81.492
 4995.00    1.59987   1.59230   81.852
 4996.00    1.58714   1.59880   82.866
 4997.00    1.54206   1.59876   -1.000
 4998.00    1.54071   1.58711   -1.000
 4999.00    1.49757   1.56469   -1.000
 5000.00    1.49620   1.54036   -1.000
 5001.00    1.49388   1.52524   84.538
 5002.00    1.49180   1.52254   85.492
 5003.00    1.48392   1.52513   -1.000
 5004.00    1.48797   1.52171   -1.000
 5005.00    1.48605   1.50753   86.511
 5006.00    1.46058   1.49177   83.925
 5007.00    1.46727   1.49105   82.786
 5008.00    1.52077   1.51077   83.593
 5009.00    1.56614   1.53698   85.915
 5010.00    1.55136   1.55011   89.064
 5011.00    1.51824   1.54043   91.337
 5012.00    1.48184   1.51359   91.257
 5013.00    1.44138   1.48492   -1.000
 5014.00    1.46532   1.46864   87.541
 5015.00    1.50869   1.46925   -1.000
 5016.00    1.50128   1.47993   86.938
 5017.00    1.48635   1.49089   86.088
 5018.00    1.48282   1.49909   85.339
 5019.00    1.49503   1.50860   85.569
 5020.00    1.53187   1.52045   85.791
 5021.00    1.53873   1.52977   85.393
 5022.00    1.53464   1.53492   84.539
 5023.00    1.53432   1.54098   83.924
 5024.00    1.52652   1.55250   84.195
 5025.00    1.54043   1.56495   84.605
 5026.00    1.53814   1.56994   83.990
 5027.00    1.51088   1.56749   -1.000
 5028.00    1.51095   1.56639   -1.000
 5029.00    1.54851   1.57355   79.973
 5030.00    1.58609   1.58874   78.999
 5031.00    1.61324   1.60745   78.990
 5032.00    1.62668   1.62380   81.208
 5033.00    1.60313   1.63061   84.377
 5034.00    1.60292   1.62127   86.047
 5035.00    1.55386   1.59713   -1.000
 5036.00    1.54158   1.57010   87.454
 5037.00    1.56075   1.55061   90.590
 5038.00    1.55713   1.53440   94.291
 5039.00    1.50024   1.50919   94.835
 5040.00    1.42394   1.47526   -1.000
 5041.00    1.39197   1.45254   -1.000
 5042.00    1.44406   1.46229   81.589
 5043.00    1.52893   1.50520   79.675
 5044.00    1.60146   1.56196   76.790
 5045.00    1.62572   1.61048   78.468
 5046.00    1.61668   1.63775   25.120
 5047.00    1.67108   1.63949   80.714
 5048.00    0.76383   1.61897   -1.000
 5049.00    0.02272   1.58751   -1.000
 5050.00   -0.02504   1.56059    0.000
 5051.00    0.24505   1.54974   -1.000
 5052.00    1.04100   1.55830   -1.000
 5053.00    1.57532   1.58180   78.996
 5054.00    1.61503   1.61040   78.684
 5055.00    1.63686   1.63370   78.782
 5056.00    1.63674   1.64786   78.931
 5057.00    1.63516   1.65522   78.921
 5058.00    1.64994   1.65972   78.441
 5059.00    1.64204   1.66420   78.413
 5060.00    1.64211   1.66915   79.354
 5061.00    1.66455   1.67203   81.528
 5062.00    1.67850   1.66669   84.391
 5063.00    1.62387   1.64719   85.612
 5064.00    1.56468   1.61677   -1.000
 5065.00    1.56930   1.58920   83.526
 5066.00    1.57490   1.57632   83.143
 5067.00    1.56769   1.57744   82.768
 5068.00    1.57788   1.58424   82.237
 5069.00    1.59905   1.59161   82.765
 5070.00    1.60639   1.59786   83.431
 5071.00    1.60125   1.60007   82.589
 5072.00    1.60210   1.59682   81.892
 5073.00    1.61396   1.59261   81.725
 5074.00    1.61200   1.59293   81.658
 5075.00    1.61716   1.59707   82.359
 5076.00    1.61435   1.59891   85.010
 5077.00    1.59675   1.59108   88.967
 5078.00    1.55615   1.56940   90.365
 5079.00    1.51646   1.53872   88.757
 5080.00    1.48649   1.51458   86.846
 5081.00    1.50686   1.50956   85.605
 5082.00    1.53309   1.52105   84.038
 5083.00    1.54359   1.53960   82.577
 5084.00    1.57563   1.56086   81.900
 5085.00    1.62802   1.58389   -1.000
 5086.00    1.63475   1.60468   81.363
 5087.00    1.63614   1.61858   80.790
 5088.00    1.61983   1.62593   80.329
 5089.00    1.64670   1.63102   79.911
 5090.00    1.62317   1.63714   79.038
 5091.00    1.64638   1.64528   78.303
 5092.00    1.68233   1.65529   78.875
 5093.00    1.69581   1.66448   80.440
 5094.00    1.65231   1.66660   82.181
 5095.00    1.68765   1.65543   84.155
 5096.00    1.70389   1.63049   -1.000
 5097.00    1.59151   1.59909   86.378
 5098.00    1.52455   1.57222   -1.000
 5099.00    1.53418   1.56042   82.047
 5100.00    1.55531   1.56912   81.164
 5101.00    1.60178   1.59207   81.533
 5102.00    1.64119   1.61433   82.560
 5103.00    1.62472   1.62442   83.613
 5104.00    1.62587   1.62162   84.641
 5105.00    1.61059   1.61034   85.703
 5106.00    1.58182   1.59390   85.687
 5107.00    1.56775   1.57607   85.169
 5108.00    1.56231   1.56295   84.562
 5109.00    1.57735   1.55933   83.399
 5110.00    1.60162   1.56694   82.357
 5111.00    1.61956   1.58448   81.353
 5112.00    1.66559   1.60709   -1.000
 5113.00    1.65092   1.62805   80.138
 5114.00    1.64060   1.64419   79.328
 5115.00    1.63754   1.65662   78.646
 5116.00    1.65468   1.66718   78.800
 5117.00    1.68728   1.67550   79.767
 5118.00    1.71530   1.67896   -1.000
 5119.00    1.69237   1.67454   82.290
 5120.00    1.67650   1.66110   84.347
 5121.00    1.63972   1.64019   86.871
 5122.00    1.59606   1.61475   87.655
 5123.00    1.57999   1.58886   86.983
 5124.00    1.58777   1.56853   86.521
 5125.00    1.56842   1.55883   86.014
 5126.00    1.59654   1.55876   -1.000
 5127.00    1.59814   1.56237   -1.000
 5128.00    1.57964   1.56549   84.987
 5129.00    1.57890   1.56907   83.556
 5130.00    1.58278   1.57629   82.815
 5131.00    1.60038   1.58851   82.037
 5132.00    1.62058   1.60345   81.308
 5133.00    1.66378   1.61727   -1.000
 5134.00    1.64238   1.62730   82.388
 5135.00    1.65267   1.63125   84.367
 5136.00    1.64348   1.62586   85.775
 5137.00    1.59346   1.60972   85.989
 5138.00    1.55753   1.58828   85.278
 5139.00    1.54058   1.57171   85.799
 5140.00    1.53937   1.56570   87.151
 5141.00    1.55205   1.56684   86.795
 5142.00    1.55746   1.56922   85.390
 5143.00    1.56803   1.57273   85.003
 5144.00    1.60082   1.57959   85.725
 5145.00    1.59425   1.58630   85.987
 5146.00    1.57796   1.58701   85.018
 5147.00    1.58981   1.58346   84.491
 5148.00    1.57767   1.58266   85.431
 5149.00    1.57222   1.58534   86.968
 5150.00    1.59275   1.58460   87.619
 5151.00    1.58866   1.57710   87.242
 5152.00    1.58235   1.56800   85.652
 5153.00    1.59965   1.56477   -1.000
 5154.00    1.60335   1.57140   81.376
 5155.00    1.63622   1.58883   -1.000
 5156.00    1.66695   1.61443   -1.000
 5157.00    1.68828   1.64103   -1.000
 5158.00    1.66993   1.66116   79.366
 5159.00    1.68321   1.67159   79.811
 5160.00    1.69665   1.67269   80.685
 5161.00    1.69998   1.66551   81.919
 5162.00    1.68313   1.65074   84.927
 5163.00    1.63673   1.62725   91.712
 5164.00    1.61902   1.58884   -1.000
 5165.00    1.50788   1.52677  108.315
 5166.00    1.38089   1.44373   -1.000
 5167.00    1.30561   1.36571   -1.000
 5168.00    1.30356   1.32714   99.099
 5169.00    1.37562   1.33548   -1.000
 5170.00    1.41030   1.35728   -1.000
 5171.00    1.36017   1.35372  108.337
 5172.00    1.26428   1.32878   -1.000
 5173.00    1.28742   1.32466   88.735
 5174.00    1.42707   1.37217   -1.000
 5175.00    1.55245   1.45678   -1.000
 5176.00    1.59485   1.53788   -1.000
 5177.00    1.62942   1.58966   -1.000
 5178.00    1.66916   1.61137   -1.000
 5179.00    1.65423   1.60939   -1.000
 5180.00    1.61145   1.58176   -1.000
 5181.00    1.52664   1.52187  112.832
 5182.00    1.37759   1.43656   -1.000
 5183.00    1.26269   1.35797   -1.000
 5184.00    1.27354   1.32981   -1.000
 5185.00    1.39539   1.37124   84.968
 5186.00    1.53392   1.45552   -1.000
 5187.00    1.61834   1.53542   -1.000
 5188.00    1.65373   1.58380   -1.000
 5189.00    1.65161   1.60196   -1.000
 5190.00    1.62813   1.59861   89.671
 5191.00    1.59138   1.57936   89.145
 5192.00    1.55463   1.55484   87.636
 5193.00    1.55286   1.54087   86.325
 5194.00    1.58345   1.54450   -1.000
 5195.00    1.61679   1.56010   -1.000
 5196.00    1.63244   1.58041   -1.000
 5197.00    1.65585   1.60312   -1.000
 5198.00    1.67740   1.62677   -1.000
 5199.00    1.69984   1.64707   -1.000
 5200.00    1.69136   1.65878   83.209
 5201.00    1.69756   1.65789   -1.000
 5202.00    1.67930   1.64200   -1.000
 5203.00    1.65327   1.61156   -1.000
 5204.00    1.60224   1.57148   90.906
 5205.00    1.55740   1.53172   91.376
 5206.00    1.57545   1.50265   -1.000
 5207.00    1.56443   1.48814   -1.000
 5208.00    1.55877   1.48622   -1.000
 5209.00    1.56145   1.49758   -1.000
 5210.00    1.60097   1.52690   -1.000
 5211.00    1.64146   1.57265   -1.000
 5212.00    1.70978   1.62164   -1.000
 5213.00    1.75054   1.65613   -1.000
 5214.00    1.72572   1.66536   -1.000
 5215.00    1.67430   1.65351   82.266
 5216.00    1.62763   1.63757   80.516
 5217.00    1.62643   1.63505   79.272
 5218.00    1.68067   1.65137   78.644
 5219.00    1.72964   1.67825   -1.000
 5220.00    1.72620   1.70306   79.292
 5221.00    1.74233   1.71685   81.677
 5222.00    1.76523   1.71469   -1.000
 5223.00    1.71168   1.69365   89.019
 5224.00    1.64652   1.65306   91.548
 5225.00    1.57700   1.59887   89.736
 5226.00    1.53549   1.54937   84.800
 5227.00    1.52420   1.52873   81.284
 5228.00    1.57913   1.54849   79.785
 5229.00    1.66524   1.59563   -1.000
 5230.00    1.70844   1.64093   -1.000
 5231.00    1.71462   1.66155   -1.000
 5232.00    1.68121   1.65561   82.526
 5233.00    1.66101   1.63908   80.668
 5234.00    1.63332   1.63303   78.736
 5235.00    1.66520   1.64808   77.825
 5236.00    1.69574   1.67840   77.737
 5237.00    1.73927   1.70961   77.980
 5238.00    1.74935   1.73025   77.851
 5239.00    1.76202   1.73828   77.395
 5240.00    1.75418   1.73842   77.501
 5241.00    1.75213   1.73565   77.349
 5242.00    1.72577   1.73343   77.224
 5243.00    1.74836   1.73400   78.743
 5244.00    1.77878   1.73552   -1.000
 5245.00    1.78026   1.73065   -1.000
 5246.00    1.73281   1.71366   83.361
 5247.00    1.69078   1.68921   83.512
 5248.00    1.67331   1.66834   84.044
 5249.00    1.69500   1.65662   -1.000
 5250.00    1.70220   1.65240   -1.000
 5251.00    1.69590   1.65411   -1.000
 5252.00    1.67946   1.66087   81.685
 5253.00    1.69662   1.66884   81.108
 5254.00    1.70101   1.67514   79.225
 5255.00    1.71717   1.68363   77.082
 5256.00    1.74470   1.70085   -1.000
 5257.00    1.76129   1.72568   77.081
 5258.00    1.82021   1.74679   -1.000
 5259.00    1.79677   1.75121   -1.000
 5260.00    1.75363   1.73252   86.478
 5261.00    1.69888   1.69249   89.491
 5262.00    1.61633   1.63962   91.352
 5263.00    1.55652   1.58569   91.619
 5264.00    1.53943   1.54215   90.036
 5265.00    1.55973   1.51755   -1.000
 5266.00    1.58549   1.51259   -1.000
 5267.00    1.58574   1.51547   -1.000
 5268.00    1.55982   1.50867   -1.000
 5269.00    1.52302   1.48958   86.935
 5270.00    1.52034   1.47975   -1.000
 5271.00    1.56481   1.50237   -1.000
 5272.00    1.64345   1.55251   -1.000
 5273.00    1.69726   1.60220   -1.000
 5274.00    1.68195   1.63285   -1.000
 5275.00    1.66352   1.65034   77.837
 5276.00    1.69846   1.67063   76.379
 5277.00    1.77379   1.70037   -1.000
 5278.00    1.79567   1.73022   -1.000
 5279.00    1.77409   1.74409   80.747
 5280.00    1.76129   1.73446   82.227
 5281.00    1.72506   1.70844   82.636
 5282.00    1.71018   1.68063   80.964
 5283.00    1.68885   1.66507   78.479
 5284.00    1.68659   1.67165   76.003
 5285.00    1.75448   1.70077   -1.000
 5286.00    1.78443   1.74023   -1.000
 5287.00    1.68454   1.77324   -1.000
 5288.00    1.80732   1.79192   75.375
 5289.00    1.84600   1.79982   -1.000
 5290.00    1.83773   1.80238   75.660
 5291.00    1.82914   1.80135   76.379
 5292.00    1.79561   1.79719   77.397
 5293.00    1.82024   1.79012   79.507
 5294.00    1.82288   1.77751   -1.000
 5295.00    1.77187   1.75401   84.795
 5296.00    1.73465   1.71838   84.252
 5297.00    1.66682   1.68063   82.096
 5298.00    1.65936   1.65807   80.571
 5299.00    1.67858   1.65988   80.063
 5300.00    1.72915   1.67863   -1.000
 5301.00    1.74729   1.70081   -1.000
 5302.00    1.76258   1.72175   -1.000
 5303.00    1.78713   1.74488   -1.000
 5304.00    1.80717   1.76977   -1.000
 5305.00    1.81268   1.78833   76.741
 5306.00    1.84024   1.79445   -1.000
 5307.00    1.83461   1.79198   -1.000
 5308.00    1.81747   1.79085   74.943
 5309.00    1.83496   1.79687   -1.000
 5310.00    1.85093   1.80668   -1.000
 5311.00    1.87280   1.81289   -1.000
 5312.00    1.89237   1.81171   -1.000
 5313.00    1.84547   1.80404   -1.000
 5314.00    1.81564   1.79202   77.776
 5315.00    1.81290   1.77765   -1.000
 5316.00    1.77789   1.76458   77.203
 5317.00    1.77691   1.75846   76.879
 5318.00    1.78072   1.76191   77.171
 5319.00    1.81987   1.77016   -1.000
 5320.00    1.84665   1.77469   -1.000
 5321.00    1.82148   1.76965   -1.000
 5322.00    1.80956   1.75402   -1.000
 5323.00    1.77211   1.73137   -1.000
 5324.00    1.74532   1.70818   -1.000
 5325.00    1.71052   1.68563   88.424
 5326.00    1.69372   1.65523   -1.000
 5327.00    1.64477   1.61217   -1.000
 5328.00    1.57037   1.57307   82.262
 5329.00    1.59537   1.56732   79.661
 5330.00    1.72035   1.60494   -1.000
 5331.00    1.75969   1.66289   -1.000
 5332.00    1.76361   1.71089   -1.000
 5333.00    1.78537   1.73975   -1.000
 5334.00    1.80113   1.75722   -1.000
 5335.00    1.80258   1.76926   77.886
 5336.00    1.80540   1.77448   78.750
 5337.00    1.78905   1.76965   80.780
 5338.00    1.79251   1.75366   -1.000
 5339.00    1.76728   1.72877   -1.000
 5340.00    1.71929   1.70407   79.199
 5341.00    1.69402   1.69393   77.801
 5342.00    1.74235   1.70534   -1.000
 5343.00    1.81093   1.72851   -1.000
 5344.00    1.81215   1.74627   -1.000
 5345.00    1.78101   1.75019   79.245
 5346.00    1.76616   1.74337   79.973
 5347.00    1.79425   1.73293   -1.000
 5348.00    1.80499   1.72451   -1.000
 5349.00    1.77214   1.72301   -1.000
 5350.00    1.78695   1.73275   -1.000
 5351.00    1.81904   1.75260   -1.000
 5352.00    1.82911   1.77516   -1.000
 5353.00    1.81179   1.79380   74.265
 5354.00    1.83130   1.80839   73.722
 5355.00    1.87275   1.82220   -1.000
 5356.00    1.87708   1.83500   -1.000
 5357.00    1.87204   1.84344   74.201
 5358.00    1.86859   1.84549   75.096
 5359.00    1.88999   1.84140   -1.000
 5360.00    1.87937   1.83166   -1.000
 5361.00    1.83597   1.81707   78.010
 5362.00    1.83259   1.79976   -1.000
 5363.00    1.82269   1.78227   -1.000
 5364.00    1.78883   1.76677   78.661
 5365.00    1.77598   1.75565   78.669
 5366.00    1.77784   1.75004   79.506
 5367.00    1.76948   1.74631   81.544
 5368.00    1.77748   1.73574   -1.000
 5369.00    1.73140   1.71174   84.207
 5370.00    1.71583   1.67957   -1.000
 5371.00    1.68970   1.65741   77.212
 5372.00    1.73067   1.66377   -1.000
 5373.00    1.78415   1.70049   -1.000
 5374.00    1.85387   1.74992   -1.000
 5375.00    1.90550   1.79020   -1.000
 5376.00    1.87261   1.81152   -1.000
 5377.00    1.85267   1.81795   75.774
 5378.00    1.84791   1.81758   76.542
 5379.00    1.82296   1.81411   77.295
 5380.00    1.83164   1.80703   77.654
 5381.00    1.82161   1.79622   77.582
 5382.00    1.81401   1.78481   77.198
 5383.00    1.83280   1.77825   -1.000
 5384.00    1.81370   1.78064   76.231
 5385.00    1.83319   1.79109   -1.000
 5386.00    1.85358   1.80313   -1.000
 5387.00    1.85849   1.80888   -1.000
 5388.00    1.81926   1.80429   79.439
 5389.00    1.82218   1.79072   79.764
 5390.00    1.80174   1.77335   79.787
 5391.00    1.78316   1.75765   80.045
 5392.00    1.76106   1.74610   80.661
 5393.00    1.79487   1.73812   -1.000
 5394.00    1.80048   1.73047   -1.000
 5395.00    1.76607   1.71811   -1.000
 5396.00    1.76931   1.70034   -1.000
 5397.00    1.76177   1.68661   -1.000
 5398.00    1.76619   1.68969   -1.000
 5399.00    1.77620   1.71133   -1.000
 5400.00    1.78176   1.73923   -1.000
 5401.00    1.80222   1.75815   -1.000
 5402.00    1.79808   1.75839   -1.000
 5403.00    1.77707   1.73682   -1.000
 5404.00    1.73094   1.69984   84.243
 5405.00    1.67416   1.66527   82.404
 5406.00    1.68116   1.65189   81.767
 5407.00    1.73663   1.66264   -1.000
 5408.00    1.77551   1.68238   -1.000
 5409.00    1.76396   1.69587   -1.000
 5410.00    1.73834   1.70449   77.972
 5411.00    1.77267   1.71997   -1.000
 5412.00    1.82166   1.74490   -1.000
 5413.00    1.84683   1.76890   -1.000
 5414.00    1.81850   1.78332   -1.000
 5415.00    1.78528   1.79115   76.255
 5416.00    1.79059   1.79988   76.627
 5417.00    1.83199   1.81010   77.422
 5418.00    1.82996   1.81628   77.859
 5419.00    1.83323   1.81558   77.487
 5420.00    1.84683   1.81056   -1.000
 5421.00    1.84516   1.80446   -1.000
 5422.00    1.81738   1.79717   79.054
 5423.00    1.80249   1.78802   78.094
 5424.00    1.77627   1.78163   76.738
 5425.00    1.78991   1.78553   77.109
 5426.00    1.82139   1.79811   79.392
 5427.00    1.84715   1.80407   -1.000
 5428.00    1.81524   1.78956   81.912
 5429.00    1.76638   1.76034   80.324
 5430.00    1.75841   1.73709   80.412
 5431.00    1.78875   1.73179   -1.000
 5432.00    1.78512   1.73569   -1.000
 5433.00    1.78025   1.73365   -1.000
 5434.00    1.78478   1.72433   -1.000
 5435.00    1.76078   1.72099   -1.000
 5436.00    1.78217   1.73579   -1.000
 5437.00    1.82656   1.76791   -1.000
 5438.00    1.85988   1.80543   -1.000
 5439.00    1.89275   1.83605   -1.000
 5440.00    1.90203   1.85518   -1.000
 5441.00    1.88540   1.86467   75.727
 5442.00    1.86745   1.86583   77.859
 5443.00    1.83597   1.85523   81.183
 5444.00    1.82970   1.82780   83.801
 5445.00    1.80790   1.78548   82.898
 5446.00    1.72763   1.74286   80.060
 5447.00    1.72152   1.72055   77.865
 5448.00    1.77709   1.72940   -1.000
 5449.00    1.86272   1.76098   -1.000
 5450.00    1.87545   1.79489   -1.000
 5451.00    1.90128   1.81448   -1.000
 5452.00    1.91534   1.81376   -1.000
 5453.00    1.86341   1.79396   -1.000
 5454.00    1.81415   1.76174   -1.000
 5455.00    1.76783   1.73230   -1.000
 5456.00    1.78630   1.72494   -1.000
 5457.00    1.83342   1.74697   -1.000
 5458.00    1.88612   1.78428   -1.000
 5459.00    1.90581   1.81334   -1.000
 5460.00    1.89566   1.82054   -1.000
 5461.00    1.86913   1.80813   -1.000
 5462.00    1.81816   1.78802   79.975
 5463.00    1.80253   1.77381   79.060
 5464.00    1.80453   1.77353   78.741
 5465.00    1.83697   1.78530   -1.000
 5466.00    1.89200   1.80093   -1.000
 5467.00    1.86893   1.81377   -1.000
 5468.00    1.85111   1.82157   79.196
 5469.00    1.86656   1.82381   -1.000
 5470.00    1.86873   1.82052   -1.000
 5471.00    1.87053   1.81312   -1.000
 5472.00    1.88714   1.80338   -1.000
 5473.00    1.85815   1.79102   -1.000
 5474.00    1.84209   1.77358   -1.000
 5475.00    1.80413   1.75035   -1.000
 5476.00    1.76087   1.72794   81.220
 5477.00    1.74721   1.71949   79.793
 5478.00    1.77618   1.73208   -1.000
 5479.00    1.83369   1.75575   -1.000
 5480.00    1.82953   1.77258   -1.000
 5481.00    1.80366   1.77630   79.810
 5482.00    1.79896   1.77677   78.161
 5483.00    1.81225   1.78600   77.587
 5484.00    1.85038   1.80424   -1.000
 5485.00    1.88531   1.82054   -1.000
 5486.00    1.85675   1.82481   80.032
 5487.00    1.83025   1.81740   80.002
 5488.00    1.85022   1.80745   -1.000
 5489.00    1.84291   1.80379   -1.000
 5490.00    1.87336   1.80813   -1.000
 5491.00    1.89967   1.81603   -1.000
 5492.00    1.86921   1.82223   -1.000
 5493.00    1.85758   1.82463   78.767
 5494.00    1.88401   1.82377   -1.000
 5495.00    1.87194   1.81980   -1.000
 5496.00    1.83143   1.81250   79.411
 5497.00    1.84041   1.80492   -1.000
 5498.00    1.86841   1.80231   -1.000
 5499.00    1.85886   1.80423   -1.000
 5500.00    1.84727   1.80315   -1.000
 5501.00    1.87721   1.79486   -1.000
 5502.00    1.88416   1.78518   -1.000
 5503.00    1.85799   1.78140   -1.000
 5504.00    1.85903   1.78158   -1.000
 5505.00    1.84460   1.77843   -1.000
 5506.00    1.84276   1.77143   -1.000
 5507.00    1.85885   1.76879   -1.000
 5508.00    1.86537   1.77646   -1.000
 5509.00    1.85110   1.78909   -1.000
 5510.00    1.85730   1.79469   -1.000
 5511.00    1.83311   1.78687   -1.000
 5512.00    1.83905   1.77031   -1.000
 5513.00    1.78496   1.75624   80.851
 5514.00    1.79701   1.75376   -1.000
 5515.00    1.86719   1.76439   -1.000
 5516.00    1.91003   1.78374   -1.000
 5517.00    1.91501   1.80627   -1.000
 5518.00    1.91747   1.82727   -1.000
 5519.00    1.91167   1.84274   -1.000
 5520.00    1.92173   1.85053   -1.000
 5521.00    1.90286   1.85209   -1.000
 5522.00    1.91639   1.85118   -1.000
 5523.00    1.91483   1.84935   -1.000
 5524.00    1.88282   1.84347   -1.000
 5525.00    1.88659   1.82847   -1.000
 5526.00    1.83979   1.80308   -1.000
 5527.00    1.78670   1.77437   81.347
 5528.00    1.78759   1.75613   -1.000
 5529.00    1.80874   1.75948   -1.000
 5530.00    1.86094   1.78225   -1.000
 5531.00    1.89667   1.80923   -1.000
 5532.00    1.88616   1.82534   -1.000
 5533.00    1.86899   1.82702   -1.000
 5534.00    1.85226   1.82092   78.682
 5535.00    1.84349   1.81589   78.539
 5536.00    1.87431   1.81677   -1.000
 5537.00    1.88266   1.82296   -1.000
 5538.00    1.89106   1.83152   -1.000
 5539.00    1.92272   1.84091   -1.000
 5540.00    1.91081   1.84998   -1.000
 5541.00    1.91890   1.85532   -1.000
 5542.00    1.91496   1.85363   -1.000
 5543.00    1.90217   1.84651   -1.000
 5544.00    1.87685   1.83981   -1.000
 5545.00    1.88926   1.83807   -1.000
 5546.00    1.90981   1.84169   -1.000
 5547.00    1.91320   1.84970   -1.000
 5548.00    1.91517   1.86114   -1.000
 5549.00    1.94496   1.87284   -1.000
 5550.00    1.91374   1.88017   -1.000
 5551.00    1.93683   1.88054   -1.000
 5552.00    1.89799   1.87458   78.551
 5553.00    1.88440   1.86534   78.381
 5554.00    1.88119   1.85733   78.126
 5555.00    1.88955   1.85385   -1.000
 5556.00    1.90303   1.85462   -1.000
 5557.00    1.90323   1.85714   -1.000
 5558.00    1.92764   1.85976   -1.000
 5559.00    1.93256   1.86200   -1.000
 5560.00    1.92256   1.86229   -1.000
 5561.00    1.91078   1.85816   -1.000
 5562.00    1.92097   1.84970   -1.000
 5563.00    1.91838   1.84027   -1.000
 5564.00    1.88202   1.83311   -1.000
 5565.00    1.88033   1.82853   -1.000
 5566.00    1.90586   1.82514   -1.000
 5567.00    1.89743   1.82222   -1.000
 5568.00    1.87708   1.82006   -1.000
 5569.00    1.86387   1.81903   -1.000
 5570.00    1.83822   1.81842   80.335
 5571.00    1.80368   1.81671   79.902
 5572.00    1.73535   1.81416   -1.000
 5573.00    1.56474   1.81402   -1.000
 5574.00    1.59720   1.81924   -1.000
 5575.00    2.07212   1.82856   -1.000
 5576.00    2.64024   1.83820   -1.000
 5577.00    2.59678   1.84654   -1.000
 5578.00    2.15880   1.85414   -1.000
 5579.00    2.03981   1.86041   -1.000
 5580.00    1.93660   1.86342   -1.000
 5581.00    1.92954   1.86259   -1.000
 5582.00    1.90289   1.85928   -1.000
 5583.00    1.92312   1.85431   -1.000
 5584.00    1.92761   1.84475   -1.000
 5585.00    1.88443   1.82501   -1.000
 5586.00    1.85369   1.79394   -1.000
 5587.00    1.79628   1.76016   -1.000
 5588.00    1.78499   1.73742   -1.000
 5589.00    1.81418   1.73433   -1.000
 5590.00    1.83024   1.74901   -1.000
 5591.00    1.86085   1.77129   -1.000
 5592.00    1.86899   1.78982   -1.000
 5593.00    1.85329   1.80029   -1.000
 5594.00    1.83785   1.80735   79.713
 5595.00    1.88835   1.81694   -1.000
 5596.00    1.90251   1.82688   -1.000
 5597.00    1.90569   1.82869   -1.000
 5598.00    1.87083   1.81912   -1.000
 5599.00    1.88144   1.80383   -1.000
 5600.00    1.85099   1.78926   -1.000
 5601.00    1.83673   1.77863   -1.000
 5602.00    1.82930   1.77649   -1.000
 5603.00    1.85150   1.78910   -1.000
 5604.00    1.87524   1.81726   -1.000
 5605.00    1.92758   1.85240   -1.000
 5606.00    1.97199   1.88245   -1.000
 5607.00    1.97208   1.90073   -1.000
 5608.00    1.96825   1.90846   -1.000
 5609.00    1.96809   1.91088   -1.000
 5610.00    1.96399   1.91220   -1.000
 5611.00    1.96999   1.91195   -1.000
 5612.00    1.95720   1.90404   -1.000
 5613.00    1.91753   1.88135   -1.000
 5614.00    1.86097   1.84479   82.740
 5615.00    1.83057   1.80853   80.671
 5616.00    1.84316   1.79163   -1.000
 5617.00    1.85435   1.80044   -1.000
 5618.00    1.89198   1.82356   -1.000
 5619.00    1.92966   1.84563   -1.000
 5620.00    1.94113   1.86028   -1.000
 5621.00    1.97400   1.86782   -1.000
 5622.00    1.96372   1.86722   -1.000
 5623.00    1.90994   1.85699   -1.000
 5624.00    1.90201   1.84174   -1.000
 5625.00    1.88963   1.83212   -1.000
 5626.00    1.87592   1.83581   -1.000
 5627.00    1.93455   1.85071   -1.000
 5628.00    1.97056   1.86869   -1.000
 5629.00    1.97155   1.88364   -1.000
 5630.00    1.97807   1.89369   -1.000
 5631.00    1.98973   1.89856   -1.000
 5632.00    1.95836   1.89834   -1.000
 5633.00    1.96087   1.89385   -1.000
 5634.00    1.95195   1.88617   -1.000
 5635.00    1.96021   1.87625   -1.000
 5636.00    1.95278   1.86579   -1.000
 5637.00    1.93505   1.85762   -1.000
 5638.00    1.91200   1.85385   -1.000
 5639.00    1.93063   1.85347   -1.000
 5640.00    1.90392   1.85325   -1.000
 5641.00    1.92797   1.85196   -1.000
 5642.00    1.92153   1.85197   -1.000
 5643.00    1.93366   1.85536   -1.000
 5644.00    1.95600   1.86109   -1.000
 5645.00    1.96468   1.86691   -1.000
 5646.00    1.95791   1.87148   -1.000
 5647.00    1.96546   1.87398   -1.000
 5648.00    1.95334   1.87406   -1.000
 5649.00    1.94700   1.87297   -1.000
 5650.00    1.95226   1.87346   -1.000
 5651.00    1.95428   1.87688   -1.000
 5652.00    1.96883   1.88087   -1.000
 5653.00    1.94539   1.88126   -1.000
 5654.00    1.92626   1.87577   -1.000
 5655.00    1.95622   1.86401   -1.000
 5656.00    1.91639   1.84537   -1.000
 5657.00    1.86759   1.82148   -1.000
 5658.00    1.82188   1.80055   81.723
 5659.00    1.82846   1.79303   -1.000
 5660.00    1.89592   1.80081   -1.000
 5661.00    1.90262   1.81507   -1.000
 5662.00    1.90559   1.82769   -1.000
 5663.00    1.92380   1.83942   -1.000
 5664.00    1.93003   1.85316   -1.000
 5665.00    1.93631   1.86532   -1.000
 5666.00    1.92345   1.86968   -1.000
 5667.00    1.94381   1.86606   -1.000
 5668.00    1.94085   1.86077   -1.000
 5669.00    1.91220   1.85993   -1.000
 5670.00    1.95868   1.86510   -1.000
 5671.00    1.98483   1.87465   -1.000
 5672.00    1.98742   1.88605   -1.000
 5673.00    1.98789   1.89636   -1.000
 5674.00    1.95240   1.90310   -1.000
 5675.00    1.95280   1.90606   -1.000
 5676.00    1.96542   1.90706   -1.000
 5677.00    1.97039   1.90718   -1.000
 5678.00    1.96406   1.90541   -1.000
 5679.00    1.96660   1.90003   -1.000
 5680.00    1.96231   1.89032   -1.000
 5681.00    1.96762   1.87681   -1.000
 5682.00    1.92153   1.86201   -1.000
 5683.00    1.91601   1.85093   -1.000
 5684.00    1.92489   1.84772   -1.000
 5685.00    1.90281   1.85071   -1.000
 5686.00    1.88770   1.85362   -1.000
 5687.00    1.90411   1.85279   -1.000
 5688.00    1.92003   1.85113   -1.000
 5689.00    1.91346   1.85440   -1.000
 5690.00    1.94852   1.86506   -1.000
 5691.00    1.98786   1.88008   -1.000
 5692.00    1.98998   1.89384   -1.000
 5693.00    1.98431   1.90255   -1.000
 5694.00    1.97660   1.90594   -1.000
 5695.00    1.99703   1.90568   -1.000
 5696.00    1.97560   1.90271   -1.000
 5697.00    1.98062   1.89673   -1.000
 5698.00    1.96357   1.88754   -1.000
 5699.00    1.90294   1.87634   81.521
 5700.00    1.89392   1.86549   80.771
 5701.00    1.88762   1.85777   79.967
 5702.00    1.90428   1.85581   -1.000
 5703.00    1.92297   1.85959   -1.000
 5704.00    1.93414   1.86438   -1.000
 5705.00    1.91864   1.86370   -1.000
 5706.00    1.89239   1.85428   -1.000
 5707.00    1.87573   1.83777   -1.000
 5708.00    1.86838   1.81890   -1.000
 5709.00    1.84953   1.80341   -1.000
 5710.00    1.83686   1.79668   -1.000
 5711.00    1.86688   1.80202   -1.000
 5712.00    1.89754   1.81939   -1.000
 5713.00    1.90572   1.84479   -1.000
 5714.00    1.96156   1.87061   -1.000
 5715.00    1.98677   1.89003   -1.000
 5716.00    1.96823   1.90182   -1.000
 5717.00    1.97623   1.90909   -1.000
 5718.00    1.98103   1.91515   -1.000
 5719.00    2.01003   1.92177   -1.000
 5720.00    2.02665   1.92923   -1.000
 5721.00    2.03347   1.93657   -1.000
 5722.00    2.02523   1.94246   -1.000
 5723.00    2.04040   1.94581   -1.000
 5724.00    2.01389   1.94518   -1.000
 5725.00    2.00033   1.93904   -1.000
 5726.00    1.97860   1.92868   -1.000
 5727.00    1.96441   1.91931   -1.000
 5728.00    1.98184   1.91573   -1.000
 5729.00    1.99431   1.91739   -1.000
 5730.00    1.99644   1.91986   -1.000
 5731.00    1.98588   1.92090   -1.000
 5732.00    1.97885   1.92295   -1.000
 5733.00    1.99554   1.92898   -1.000
 5734.00    1.98355   1.93758   -1.000
 5735.00    1.99739   1.94381   -1.000
 5736.00    2.01229   1.94488   -1.000
 5737.00    2.00977   1.94242   -1.000
 5738.00    1.98980   1.93968   -1.000
 5739.00    1.99139   1.93841   -1.000
 5740.00    1.99025   1.93806   -1.000
 5741.00    2.01192   1.93735   -1.000
 5742.00    1.98850   1.93655   -1.000
 5743.00    1.97304   1.93764   -1.000
 5744.00    1.99502   1.94145   -1.000
 5745.00    2.00243   1.94524   -1.000
 5746.00    1.98186   1.94490   -1.000
 5747.00    1.96786   1.94028   77.522
 5748.00    1.98612   1.93632   -1.000
 5749.00    2.01162   1.93675   -1.000
 5750.00    1.99146   1.93818   -1.000
 5751.00    1.97277   1.93334   -1.000
 5752.00    1.93283   1.92000   79.581
 5753.00    1.92319   1.90515   78.389
 5754.00    1.92317   1.89978   76.948
 5755.00    1.95921   1.90913   -1.000
 5756.00    1.98736   1.92830   -1.000
 5757.00    2.00643   1.94674   -1.000
 5758.00    2.02548   1.95578   -1.000
 5759.00    2.02629   1.95255   -1.000
 5760.00    1.99355   1.93966   -1.000
 5761.00    1.94707   1.92331   78.751
 5762.00    1.93747   1.91162   77.342
 5763.00    1.95849   1.91179   -1.000
 5764.00    1.98526   1.92510   -1.000
 5765.00    2.01019   1.94461   -1.000
 5766.00    2.01521   1.96066   -1.000
 5767.00    2.01124   1.96879   -1.000
 5768.00    2.01410   1.97043   -1.000
 5769.00    2.01130   1.96860   -1.000
 5770.00    2.00971   1.96499   -1.000
 5771.00    1.98525   1.96002   77.768
 5772.00    1.98176   1.95391   77.824
 5773.00    1.99372   1.94759   -1.000
 5774.00    1.95704   1.94275   77.223
 5775.00    1.92670   1.94091   77.235
 5776.00    1.93374   1.94183   77.624
 5777.00    1.95514   1.94220   78.948
 5778.00    1.91552   1.93695   80.713
 5779.00    1.88011   1.92326   81.503
 5780.00    1.89187   1.90345   81.201
 5781.00    1.91308   1.88416   80.883
 5782.00    1.95060   1.87184   -1.000
 5783.00    1.96488   1.86830   -1.000
 5784.00    1.94051   1.87078   -1.000
 5785.00    1.92439   1.87701   -1.000
 5786.00    1.96929   1.88769   -1.000
 5787.00    1.98379   1.90241   -1.000
 5788.00    2.00430   1.91662   -1.000
 5789.00    2.00448   1.92511   -1.000
 5790.00    1.97207   1.92723   -1.000
 5791.00    1.96521   1.92769   -1.000
 5792.00    1.96205   1.93243   76.435
 5793.00    1.95212   1.94308   76.500
 5794.00    1.96056   1.95561   77.019
 5795.00    1.98011   1.96395   77.394
 5796.00    1.98336   1.96465   76.838
 5797.00    1.99396   1.96010   -1.000
 5798.00    2.00944   1.95742   -1.000
 5799.00    2.03239   1.96204   -1.000
 5800.00    2.03606   1.97238   -1.000
 5801.00    2.03189   1.98176   -1.000
 5802.00    2.04214   1.98433   -1.000
 5803.00    2.04218   1.97898   -1.000
 5804.00    1.98851   1.96960   76.756
 5805.00    1.99206   1.96214   -1.000
 5806.00    2.00694   1.96034   -1.000
 5807.00    1.99978   1.96363   -1.000
 5808.00    1.97491   1.96895   76.175
 5809.00    1.99504   1.97393   75.872
 5810.00    2.04570   1.97787   -1.000
 5811.00    2.04753   1.98031   -1.000
 5812.00    2.04781   1.98009   -1.000
 5813.00    2.05793   1.97607   -1.000
 5814.00    2.03318   1.96842   -1.000
 5815.00    2.00800   1.95987   -1.000
 5816.00    1.99244   1.95560   -1.000
 5817.00    2.02534   1.95962   -1.000
 5818.00    2.07702   1.97027   -1.000
 5819.00    2.08109   1.98139   -1.000
 5820.00    2.09043   1.98813   -1.000
 5821.00    2.08449   1.99001   -1.000
 5822.00    2.05076   1.98909   -1.000
 5823.00    2.03138   1.98742   -1.000
 5824.00    2.04877   1.98626   -1.000
 5825.00    2.04369   1.98635   -1.000
 5826.00    2.04953   1.98799   -1.000
 5827.00    2.05984   1.99087   -1.000
 5828.00    2.06410   1.99411   -1.000
 5829.00    2.06825   1.99661   -1.000
 5830.00    2.07738   1.99753   -1.000
 5831.00    2.07358   1.99667   -1.000
 5832.00    2.04370   1.99432   -1.000
 5833.00    2.04919   1.99072   -1.000
 5834.00    2.08115   1.98680   -1.000
 5835.00    2.05717   1.98449   -1.000
 5836.00    2.04234   1.98493   -1.000
 5837.00    2.02885   1.98710   -1.000
 5838.00    2.04697   1.98968   -1.000
 5839.00    2.05305   1.99287   -1.000
 5840.00    2.05774   1.99701   -1.000
 5841.00    2.05519   2.00083   -1.000
 5842.00    2.03852   2.00223   -1.000
 5843.00    2.05326   2.00012   -1.000
 5844.00    2.06713   1.99491   -1.000
 5845.00    2.05059   1.98768   -1.000
 5846.00    2.04160   1.97988   -1.000
 5847.00    2.05703   1.97344   -1.000
 5848.00    2.04865   1.96992   -1.000
 5849.00    2.03231   1.96833   -1.000
 5850.00    2.04673   1.96511   -1.000
 5851.00    2.05025   1.95723   -1.000
 5852.00    2.04241   1.94565   -1.000
 5853.00    2.02917   1.93467   -1.000
 5854.00    2.00723   1.92679   -1.000
 5855.00    1.98442   1.91918   -1.000
 5856.00    1.99101   1.90754   -1.000
 5857.00    1.96410   1.89394   -1.000
 5858.00    1.98531   1.88747   -1.000
 5859.00    1.99181   1.89434   -1.000
 5860.00    1.99725   1.91071   -1.000
 5861.00    2.00611   1.92749   -1.000
 5862.00    2.02421   1.93915   -1.000
 5863.00    2.01615   1.94562   -1.000
 5864.00    2.03436   1.94809   -1.000
 5865.00    2.05308   1.94660   -1.000
 5866.00    2.03583   1.94269   -1.000
 5867.00    2.04687   1.94111   -1.000
 5868.00    2.06137   1.94609   -1.000
 5869.00    2.04389   1.95658   -1.000
 5870.00    2.02766   1.96708   -1.000
 5871.00    2.04647   1.97282   -1.000
 5872.00    2.07382   1.97320   -1.000
 5873.00    2.05913   1.97077   -1.000
 5874.00    2.03642   1.96807   -1.000
 5875.00    2.06213   1.96561   -1.000
 5876.00    2.07171   1.96227   -1.000
 5877.00    2.04380   1.95662   -1.000
 5878.00    2.03039   1.94840   -1.000
 5879.00    2.02327   1.93907   -1.000
 5880.00    2.01658   1.93102   -1.000
 5881.00    2.01279   1.92546   -1.000
 5882.00    2.01818   1.92132   -1.000
 5883.00    1.98513   1.91652   -1.000
 5884.00    1.93534   1.90974   80.081
 5885.00    1.80978   1.89861   -1.000
 5886.00    1.66673   1.87504   -1.000
 5887.00    1.52806   1.82720   -1.000
 5888.00    1.51623   1.75314   -1.000
 5889.00    1.56267   1.67375   -1.000
 5890.00    1.61999   1.62445   88.106
 5891.00    1.61518   1.62495   87.127
 5892.00    1.58892   1.65901   -1.000
 5893.00    1.54181   1.68962   -1.000
 5894.00    1.56898   1.69274   -1.000
 5895.00    1.66181   1.67539   86.868
 5896.00    1.76912   1.66559   -1.000
 5897.00    1.84799   1.68554   -1.000
 5898.00    1.90710   1.73225   -1.000
 5899.00    1.94395   1.78592   -1.000
 5900.00    1.98290   1.83169   -1.000
 5901.00    2.02034   1.86632   -1.000
 5902.00    2.04213   1.89090   -1.000
 5903.00    2.02584   1.90652   -1.000
 5904.00    2.02156   1.91522   -1.000
 5905.00    1.99670   1.92011   -1.000
 5906.00    2.00755   1.92418   -1.000
 5907.00    1.99636   1.92891   -1.000
 5908.00    2.01763   1.93412   -1.000
 5909.00    2.03843   1.93873   -1.000
 5910.00    2.04069   1.94146   -1.000
 5911.00    2.04538   1.94046   -1.000
 5912.00    2.02231   1.93383   -1.000
 5913.00    1.95791   1.92196   -1.000
 5914.00    1.95077   1.90915   -1.000
 5915.00    1.98284   1.90142   -1.000
 5916.00    2.00921   1.90212   -1.000
 5917.00    1.99655   1.91003   -1.000
 5918.00    1.98364   1.92106   -1.000
 5919.00    2.01785   1.93083   -1.000
 5920.00    2.02938   1.93673   -1.000
 5921.00    2.02846   1.93891   -1.000
 5922.00    2.03654   1.93947   -1.000
 5923.00    2.02995   1.94086   -1.000
 5924.00    2.02485   1.94439   -1.000
 5925.00    2.03944   1.94926   -1.000
 5926.00    2.06928   1.95285   -1.000
 5927.00    2.06949   1.95214   -1.000
 5928.00    2.02392   1.94621   -1.000
 5929.00    1.99607   1.93831   -1.000
 5930.00    2.00522   1.93411   -1.000
 5931.00    2.01399   1.93623   -1.000
 5932.00    2.03318   1.94112   -1.000
 5933.00    2.04518   1.94332   -1.000
 5934.00    2.04582   1.94222   -1.000
 5935.00    2.03664   1.94215   -1.000
 5936.00    2.03785   1.94641   -1.000
 5937.00    2.04876   1.95318   -1.000
 5938.00    2.00925   1.95754   -1.000
 5939.00    2.02672   1.95603   -1.000
 5940.00    2.00974   1.94929   -1.000
 5941.00    2.01967   1.94153   -1.000
 5942.00    2.01764   1.93767   -1.000
 5943.00    2.00313   1.93995   -1.000
 5944.00    2.01796   1.94636   -1.000
 5945.00    2.02624   1.95220   -1.000
 5946.00    2.00976   1.95329   -1.000
 5947.00    2.01437   1.94888   -1.000
 5948.00    2.01460   1.94246   -1.000
 5949.00    2.01005   1.93895   -1.000
 5950.00    2.02000   1.93961   -1.000
 5951.00    2.01829   1.94107   -1.000
 5952.00    2.03684   1.94050   -1.000
 5953.00    2.01924   1.93911   -1.000
 5954.00    2.01220   1.93880   -1.000
 5955.00    2.02925   1.93858   -1.000
 5956.00    2.03862   1.93718   -1.000
 5957.00    1.99566   1.93673   -1.000
 5958.00    2.04038   1.94082   -1.000
 5959.00    2.04395   1.95003   -1.000
 5960.00    2.04272   1.96120   -1.000
 5961.00    2.04176   1.97025   -1.000
 5962.00    2.04434   1.97491   -1.000
 5963.00    2.03997   1.97490   -1.000
 5964.00    2.02785   1.97134   -1.000
 5965.00    2.01500   1.96649   -1.000
 5966.00    2.02062   1.96342   -1.000
 5967.00    2.05112   1.96414   -1.000
 5968.00    2.04618   1.96810   -1.000
 5969.00    2.02033   1.97331   -1.000
 5970.00    2.02938   1.97818   -1.000
 5971.00    2.04357   1.98155   -1.000
 5972.00    2.03958   1.98216   -1.000
 5973.00    2.01953   1.97902   -1.000
 5974.00    2.00607   1.97168   -1.000
 5975.00    2.01505   1.96098   -1.000
 5976.00    2.01717   1.95026   -1.000
 5977.00    2.01980   1.94440   -1.000
 5978.00    2.02879   1.94617   -1.000
 5979.00    2.04130   1.95390   -1.000
 5980.00    2.04069   1.96218   -1.000
 5981.00    2.04499   1.96490   -1.000
 5982.00    2.02521   1.95918   -1.000
 5983.00    2.01625   1.94782   -1.000
 5984.00    2.01626   1.93799   -1.000
 5985.00    2.00419   1.93594   -1.000
 5986.00    2.01278   1.94219   -1.000
 5987.00    2.00714   1.95227   -1.000
 5988.00    2.00674   1.96139   -1.000
 5989.00    2.02810   1.96733   -1.000
 5990.00    2.03546   1.97023   -1.000
 5991.00    2.04283   1.97235   -1.000
 5992.00    2.02627   1.97690   -1.000
 5993.00    2.03002   1.98420   -1.000
 5994.00    2.05939   1.99008   -1.000
 5995.00    2.06152   1.98994   -1.000
 5996.00    2.04532   1.98385   -1.000
 5997.00    2.01963   1.97635   -1.000
 5998.00    2.03709   1.97209   -1.000
 5999.00    2.04159   1.97203   -1.000
 6000.00    2.02835   1.97328   -1.000
 6001.00    2.01879   1.97243   -1.000
 6002.00    2.01872   1.96899   -1.000
 6003.00    2.02729   1.96538   -1.000
 6004.00    2.01160   1.96319   -1.000
 6005.00    2.01696   1.96029   -1.000
 6006.00    2.02807   1.95345   -1.000
 6007.00    2.00575   1.94443   -1.000
 6008.00    1.99329   1.94019   -1.000
 6009.00    2.00486   1.94542   -1.000
 6010.00    2.03014   1.95654   -1.000
 6011.00    2.01775   1.96499   -1.000
 6012.00    2.01203   1.96632   -1.000
 6013.00    2.00836   1.96337   -1.000
 6014.00    2.01483   1.96066   -1.000
 6015.00    2.01570   1.95943   -1.000
 6016.00    2.03605   1.95841   -1.000
 6017.00    2.02647   1.95662   -1.000
 6018.00    2.03646   1.95379   -1.000
 6019.00    1.98241   1.94965   -1.000
 6020.00    1.97259   1.94524   -1.000
 6021.00    1.96652   1.94324   79.901
 6022.00    1.98099   1.94532   -1.000
 6023.00    2.01678   1.95090   -1.000
 6024.00    2.00281   1.95892   -1.000
 6025.00    2.01455   1.96868   -1.000
 6026.00    2.02201   1.97865   -1.000
 6027.00    2.04004   1.98722   -1.000
 6028.00    2.05180   1.99429   -1.000
 6029.00    2.06646   2.00023   -1.000
 6030.00    2.06534   2.00474   -1.000
 6031.00    2.06227   2.00808   -1.000
 6032.00    2.05382   2.01128   -1.000
 6033.00    2.06969   2.01474   -1.000
 6034.00    2.08729   2.01788   -1.000
 6035.00    2.06708   2.01975   -1.000
 6036.00    2.07053   2.01954   -1.000
 6037.00    2.08896   2.01684   -1.000
 6038.00    2.06150   2.01207   -1.000
 6039.00    2.03448   2.00658   -1.000
 6040.00    2.01913   2.00232   78.058
 6041.00    2.03085   2.00076   -1.000
 6042.00    2.04208   2.00225   -1.000
 6043.00    2.07127   2.00668   -1.000
 6044.00    2.07472   2.01353   -1.000
 6045.00    2.05648   2.02087   -1.000
 6046.00    2.07046   2.02651   -1.000
 6047.00    2.07468   2.03014   -1.000
 6048.00    2.06097   2.03243   -1.000
 6049.00    2.05643   2.03348   77.711
 6050.00    2.06833   2.03284   -1.000
 6051.00    2.07550   2.03013   -1.000
 6052.00    2.08651   2.02530   -1.000
 6053.00    2.09221   2.01875   -1.000
 6054.00    2.05758   2.01135   -1.000
 6055.00    2.03110   2.00469   -1.000
 6056.00    2.02491   2.00088   78.347
 6057.00    2.03870   2.00135   -1.000
 6058.00    2.05625   2.00553   -1.000
 6059.00    2.06684   2.01101   -1.000
 6060.00    2.09221   2.01467   -1.000
 6061.00    2.08240   2.01337   -1.000
 6062.00    2.04067   2.00508   -1.000
 6063.00    2.02219   1.99085   66.575
 6064.00    1.89990   1.97616   27.642
 6065.00    1.74581   1.96912   -1.000
 6066.00    0.98300   1.97504   -1.000
 6067.00    0.89862   1.99165   -1.000
 6068.00    1.97750   2.01088   75.782
 6069.00    2.03726   2.02581   75.580
 6070.00    1.89230   2.03457   -1.000
 6071.00    1.77606   2.03843   -1.000
 6072.00    1.10490   2.03923   -1.000
 6073.00    0.93763   2.03867   -1.000
 6074.00    2.13015   2.03757   -1.000
 6075.00    2.04971   2.03451   78.823
 6076.00    2.02987   2.02758   79.423
 6077.00    2.03048   2.01775   79.776
 6078.00    2.02903   2.00830   79.778
 6079.00    2.02248   2.00156   79.903
 6080.00    2.01701   1.99711   80.090
 6081.00    2.02004   1.99338   -1.000
 6082.00    2.03697   1.99039   -1.000
 6083.00    2.02989   1.98933   -1.000
 6084.00    2.03698   1.99039   -1.000
 6085.00    2.03918   1.99301   -1.000
 6086.00    2.01858   1.99684   79.665
 6087.00    2.00980   2.00074   80.143
 6088.00    2.02359   2.00224   80.362
 6089.00    2.02160   1.99980   80.156
 6090.00    2.01469   1.99499   79.621
 6091.00    2.01821   1.99157   79.231
 6092.00    2.03022   1.99249   -1.000
 6093.00    2.03028   1.99800   -1.000
 6094.00    2.06249   2.00595   -1.000
 6095.00    2.06297   2.01355   -1.000
 6096.00    2.04287   2.01916   78.873
 6097.00    2.04002   2.02268   79.121
 6098.00    2.03602   2.02339   80.440
 6099.00    2.04300   2.01781   -1.000
 6100.00    2.01125   2.00166   83.064
 6101.00    1.98073   1.97595   82.000
 6102.00    1.97667   1.95082   -1.000
 6103.00    1.96450   1.94006   -1.000
 6104.00    1.97751   1.94888   -1.000
 6105.00    2.00906   1.96927   -1.000
 6106.00    2.01017   1.98937   79.938
 6107.00    2.02776   2.00349   79.845
 6108.00    2.02311   2.01252   79.611
 6109.00    2.01098   2.01848   79.331
 6110.00    2.02891   2.02179   79.246
 6111.00    2.02394   2.02309   78.834
 6112.00    2.01123   2.02450   78.810
 6113.00    2.00849   2.02725   79.225
 6114.00    2.04481   2.02998   79.657
 6115.00    2.05230   2.03069   79.793
 6116.00    2.03884   2.02887   80.425
 6117.00    2.02718   2.02424   81.645
 6118.00    2.02437   2.01429   82.603
 6119.00    2.01008   1.99628   83.169
 6120.00    1.98648   1.97219   82.771
 6121.00    1.95300   1.94949   81.363
 6122.00    1.93943   1.93776   80.643
 6123.00    1.99208   1.94221   -1.000
 6124.00    2.02803   1.95831   -1.000
 6125.00    2.02480   1.97584   -1.000
 6126.00    2.01196   1.98817   -1.000
 6127.00    2.01581   1.99544   79.967
 6128.00    2.01896   2.00158   79.370
 6129.00    2.01469   2.00977   79.356
 6130.00    2.02081   2.01982   79.700
 6131.00    2.01870   2.02852   80.806
 6132.00    2.01344   2.03112   82.904
 6133.00    2.00324   2.02208   85.318
 6134.00    2.00426   1.99742   86.891
 6135.00    1.97494   1.96006   86.259
 6136.00    1.90281   1.92371   83.790
 6137.00    1.87314   1.90615   81.822
 6138.00    1.90810   1.91423   81.358
 6139.00    1.94980   1.93718   81.590
 6140.00    1.96146   1.95846   81.439
 6141.00    1.97712   1.97180   80.470
 6142.00    1.98624   1.98264   79.739
 6143.00    1.97707   1.99635   79.847
 6144.00    2.00367   2.01049   80.295
 6145.00    2.02304   2.01941   80.837
 6146.00    2.00259   2.02083   81.398
 6147.00    2.00100   2.01633   81.727
 6148.00    2.00611   2.00895   81.597
 6149.00    1.99018   2.00190   81.192
 6150.00    1.98822   1.99795   80.731
 6151.00    1.98410   1.99822   80.911
 6152.00    1.99191   2.00090   81.602
 6153.00    2.00468   2.00203   81.875
 6154.00    1.95911   1.99918   81.982
 6155.00    1.95403   1.99385   82.512
 6156.00    1.97175   1.98874   83.643
 6157.00    1.96214   1.98312   85.584
 6158.00    1.93671   1.97175   88.254
 6159.00    1.92792   1.94807   90.298
 6160.00    1.90995   1.91069   90.338
 6161.00    1.84183   1.86913   88.449
 6162.00    1.82301   1.84028   86.225
 6163.00    1.85950   1.83597   85.311
 6164.00    1.90735   1.85355   -1.000
 6165.00    1.93878   1.87951   -1.000
 6166.00    1.95648   1.89993   -1.000
 6167.00    1.93427   1.90737   -1.000
 6168.00    1.89389   1.90291   86.149
 6169.00    1.89354   1.89579   84.523
 6170.00    1.90733   1.89747   83.779
 6171.00    1.93223   1.91152   83.983
 6172.00    1.95132   1.93137   83.947
 6173.00    1.95699   1.94871   83.727
 6174.00    1.95649   1.96037   83.557
 6175.00    1.93109   1.96744   83.265
 6176.00    1.95399   1.97203   82.865
 6177.00    1.99469   1.97610   82.592
 6178.00    1.98401   1.98051   82.293
 6179.00    1.98288   1.98500   81.947
 6180.00    1.99402   1.98975   81.874
 6181.00    2.00173   1.99524   82.115
 6182.00    1.98022   2.00027   82.523
 6183.00    1.98693   2.00226   83.300
 6184.00    1.99044   1.99955   84.221
 6185.00    1.98020   1.99219   85.061
 6186.00    1.98434   1.98145   85.805
 6187.00    1.98427   1.96896   86.557
 6188.00    1.98573   1.95500   -1.000
 6189.00    1.97378   1.93860   -1.000
 6190.00    1.93745   1.92186   86.080
 6191.00    1.93233   1.91241   84.054
 6192.00    1.92078   1.91765   83.046
 6193.00    1.93947   1.93621   82.733
 6194.00    1.95627   1.95889   82.845
 6195.00    1.97248   1.97694   83.590
 6196.00    1.97693   1.98647   84.515
 6197.00    1.96522   1.98694   84.924
 6198.00    1.96861   1.98039   84.519
 6199.00    1.94867   1.97231   83.520
 6200.00    1.92041   1.96963   -1.000
 6201.00    1.92963   1.97531   -1.000
 6202.00    1.96002   1.98623   82.623
 6203.00    2.00742   1.99723   82.505
 6204.00    2.01009   2.00525   82.624
 6205.00    1.99523   2.01025   82.877
 6206.00    1.98493   2.01346   82.941
 6207.00    2.00478   2.01532   83.485
 6208.00    2.02605   2.01483   84.256
 6209.00    2.00246   2.01037   84.945
 6210.00    1.98307   2.00069   85.950
 6211.00    1.96889   1.98544   87.177
 6212.00    1.97499   1.96601   87.787
 6213.00    1.97413   1.94662   -1.000
 6214.00    1.94776   1.93289   86.445
 6215.00    1.93953   1.92751   86.480
 6216.00    1.94672   1.92814   86.935
 6217.00    1.92975   1.92969   86.376
 6218.00    1.94581   1.92892   86.094
 6219.00    1.95474   1.92718   -1.000
 6220.00    1.95602   1.92847   -1.000
 6221.00    1.95212   1.93451   88.131
 6222.00    1.95359   1.94273   85.306
 6223.00    1.89371   1.94958   -1.000
 6224.00    1.72247   1.95405   -1.000
 6225.00    1.89106   1.95638   -1.000
 6226.00    2.00292   1.95537   -1.000
 6227.00    1.94653   1.94801   89.221
 6228.00    1.92750   1.93211   89.828
 6229.00    1.92889   1.91049   88.987
 6230.00    1.91473   1.89203   87.500
 6231.00    1.88880   1.88644   85.885
 6232.00    1.90716   1.89687   84.842
 6233.00    1.94189   1.91806   84.864
 6234.00    1.96558   1.94051   85.618
 6235.00    1.95519   1.95577   86.506
 6236.00    1.95227   1.96008   87.397
 6237.00    1.97178   1.95495   88.152
 6238.00    1.97033   1.94500   88.323
 6239.00    1.95614   1.93469   88.478
 6240.00    1.94030   1.92629   89.189
 6241.00    1.94921   1.91940   -1.000
 6242.00    1.94276   1.91218   -1.000
 6243.00    1.91114   1.90415   88.535
 6244.00    1.89338   1.89778   87.547
 6245.00    1.91084   1.89698   86.474
 6246.00    1.91687   1.90459   85.863
 6247.00    1.92193   1.91982   86.146
 6248.00    1.93816   1.93668   87.290
 6249.00    1.95349   1.94671   88.809
 6250.00    1.96761   1.94428   89.673
 6251.00    1.94213   1.93022   90.127
 6252.00    1.91114   1.91151   90.251
 6253.00    1.88517   1.89640   90.471
 6254.00    1.86703   1.88835   91.385
 6255.00    1.87285   1.88506   91.785
 6256.00    1.88992   1.88298   90.942
 6257.00    1.89087   1.88193   89.490
 6258.00    1.89145   1.88535   88.201
 6259.00    1.91154   1.89608   86.958
 6260.00    1.93740   1.91323   85.893
 6261.00    1.95896   1.93266   85.926
 6262.00    1.96272   1.94941   86.672
 6263.00    1.96270   1.95984   86.901
 6264.00    1.96632   1.96384   86.338
 6265.00    1.96919   1.96510   86.007
 6266.00    1.92355   1.96727   -1.000
 6267.00    1.91373   1.97028   -1.000
 6268.00    1.94203   1.97160   86.475
 6269.00    1.94734   1.97066   86.197
 6270.00    1.94737   1.96981   86.149
 6271.00    1.95069   1.97065   86.550
 6272.00    1.96018   1.97142   87.239
 6273.00    1.94419   1.96842   88.177
 6274.00    1.89544   1.95924   -1.000
 6275.00    1.86324   1.94466   -1.000
 6276.00    1.84305   1.92768   -1.000
 6277.00    1.84194   1.91149   -1.000
 6278.00    1.83898   1.89877   -1.000
 6279.00    1.80688   1.89175   -1.000
 6280.00    1.78584   1.89284   -1.000
 6281.00    1.80999   1.90329   -1.000
 6282.00    1.84078   1.92119   -1.000
 6283.00    1.85779   1.94203   -1.000
 6284.00    1.88961   1.96101   -1.000
 6285.00    1.94331   1.97549   85.465
 6286.00    1.95568   1.98522   85.545
 6287.00    1.94518   1.99048   86.148
 6288.00    1.95052   1.99098   86.871
 6289.00    1.95047   1.98667   87.344
 6290.00    1.95616   1.97951   87.444
 6291.00    1.94813   1.97256   87.559
 6292.00    1.94191   1.96764   87.899
 6293.00    1.94659   1.96422   88.597
 6294.00    1.95013   1.96009   89.011
 6295.00    1.94655   1.95328   89.014
 6296.00    1.98736   1.94435   -1.000
 6297.00    2.01435   1.93655   -1.000
 6298.00    2.04451   1.93227   -1.000
 6299.00    2.05368   1.93030   -1.000
 6300.00    2.00666   1.92815   -1.000
 6301.00    1.93464   1.92669   88.600
 6302.00    1.90510   1.93020   87.265
 6303.00    1.91618   1.94105   86.340
 6304.00    1.93471   1.95654   85.609
 6305.00    1.93855   1.97207   85.043
 6306.00    1.95080   1.98478   85.141
 6307.00    1.96809   1.99370   85.626
 6308.00    1.97354   1.99820   86.136
 6309.00    1.97727   1.99852   86.451
 6310.00    1.96026   1.99594   86.717
 6311.00    1.93617   1.99165   -1.000
 6312.00    1.92954   1.98587   -1.000
 6313.00    1.91422   1.97823   -1.000
 6314.00    1.89355   1.96913   -1.000
 6315.00    1.90906   1.96040   -1.000
 6316.00    1.90054   1.95390   -1.000
 6317.00    1.87285   1.95072   -1.000
 6318.00    1.86742   1.95247   -1.000
 6319.00    1.91276   1.96050   -1.000
 6320.00    1.93935   1.97283   85.159
 6321.00    1.94944   1.98526   84.810
 6322.00    1.94712   1.99597   -1.000
 6323.00    1.96874   2.00572   84.233
 6324.00    1.98437   2.01445   84.070
 6325.00    1.98644   2.02061   83.789
 6326.00    1.96024   2.02348   -1.000
 6327.00    1.96983   2.02406   -1.000
 6328.00    1.96971   2.02406   -1.000
 6329.00    2.00390   2.02467   83.613
 6330.00    1.98722   2.02639   83.622
 6331.00    1.96994   2.02848   -1.000
 6332.00    1.95075   2.02767   -1.000
 6333.00    1.94094   2.01991   -1.000
 6334.00    1.94485   2.00515   -1.000
 6335.00    1.99106   1.98931   85.065
 6336.00    2.05654   1.98048   -1.000
 6337.00    1.96124   1.98261   83.416
 6338.00    1.94918   1.99328   83.051
 6339.00    1.95461   2.00702   -1.000
 6340.00    1.97226   2.01866   83.154
 6341.00    1.97276   2.02443   -1.000
 6342.00    1.94806   2.02348   -1.000
 6343.00    1.95266   2.01897   -1.000
 6344.00    1.94970   2.01622   -1.000
 6345.00    1.94742   2.01892   -1.000
 6346.00    1.98248   2.02681   82.156
 6347.00    2.00046   2.03715   82.126
 6348.00    1.96690   2.04712   -1.000
 6349.00    1.97014   2.05465   -1.000
 6350.00    1.97600   2.05825   -1.000
 6351.00    1.95900   2.05709   -1.000
 6352.00    1.96362   2.05101   -1.000
 6353.00    1.96905   2.04128   -1.000
 6354.00    1.96028   2.03064   -1.000
 6355.00    1.94302   2.02172   -1.000
 6356.00    1.94431   2.01454   -1.000
 6357.00    1.95061   2.00705   -1.000
 6358.00    1.94583   1.99864   -1.000
 6359.00    1.95162   1.99101   85.455
 6360.00    1.95991   1.98539   85.310
 6361.00    1.97252   1.98188   84.898
 6362.00    1.99401   1.98125   84.325
 6363.00    1.96788   1.98481   83.822
 6364.00    1.94024   1.99278   -1.000
 6365.00    1.96128   2.00366   82.799
 6366.00    1.96383   2.01527   -1.000
 6367.00    1.97437   2.02553   -1.000
 6368.00    1.97456   2.03288   -1.000
 6369.00    1.97105   2.03704   -1.000
 6370.00    1.98289   2.03984   -1.000
 6371.00    1.99959   2.04344   81.985
 6372.00    1.99716   2.04825   82.075
 6373.00    1.96716   2.05287   -1.000
 6374.00    1.95476   2.05535   -1.000
 6375.00    1.93251   2.05470   -1.000
 6376.00    1.92026   2.05126   -1.000
 6377.00    1.96164   2.04594   -1.000
 6378.00    1.95318   2.03986   -1.000
 6379.00    1.93849   2.03421   -1.000
 6380.00    1.94495   2.02995   -1.000
 6381.00    1.95984   2.02781   -1.000
 6382.00    1.95627   2.02787   -1.000
 6383.00    1.95214   2.02956   -1.000
 6384.00    1.94671   2.03240   -1.000
 6385.00    1.94630   2.03612   -1.000
 6386.00    1.95304   2.04000   -1.000
 6387.00    1.91990   2.04268   -1.000
 6388.00    1.92740   2.04304   -1.000
 6389.00    1.94429   2.04009   -1.000
 6390.00    1.92794   2.03242   -1.000
 6391.00    1.89323   2.01982   -1.000
 6392.00    1.88616   2.00615   -1.000
 6393.00    1.86346   1.99884   -1.000
 6394.00    1.84155   2.00292   -1.000
 6395.00    1.83337   2.01542   -1.000
 6396.00    1.86563   2.02656   -1.000
 6397.00    1.87996   2.02756   -1.000
 6398.00    1.84149   2.01723   -1.000
 6399.00    1.80296   2.00361   -1.000
 6400.00    1.77126   1.99855   -1.000
 6401.00    1.77868   2.00799   -1.000
 6402.00    1.80569   2.02727   -1.000
 6403.00    1.82450   2.04595   -1.000
 6404.00    1.81730   2.05607   -1.000
 6405.00    1.81594   2.05544   -1.000
 6406.00    1.80743   2.04723   -1.000
 6407.00    1.78199   2.03771   -1.000
 6408.00    1.74614   2.03192   -1.000
 6409.00    1.71021   2.03031   -1.000
 6410.00    1.70360   2.02988   -1.000
 6411.00    1.71945   2.02933   -1.000
 6412.00    1.72735   2.03044   -1.000
 6413.00    1.70777   2.03438   -1.000
 6414.00    1.70838   2.03990   -1.000
 6415.00    1.71486   2.04463   -1.000
 6416.00    1.70129   2.04621   -1.000
 6417.00    1.70114   2.04275   -1.000
 6418.00    1.68716   2.03375   -1.000
 6419.00    1.64192   2.02189   -1.000
 6420.00    1.60696   2.01347   -1.000
 6421.00    1.58881   2.01474   -1.000
 6422.00    1.58573   2.02682   -1.000
 6423.00    1.59434   2.04438   -1.000
 6424.00    1.60854   2.06047   -1.000
 6425.00    1.59035   2.07157   -1.000
 6426.00    1.58725   2.07652   -1.000
 6427.00    1.58234   2.07381   -1.000
 6428.00    1.00453   2.06241   -1.000
