###################################################################
## OUTPUT of StarlightChains_v04.for    [Cid@UFSC - 01/Apr/2007] ##
###################################################################

## Some input info
NGC6638_a_1.cxt                          [arq_obs]
Base.BC03.S                              [arq_base]
NGC6638_a_1.msk                          [arq_masks]
StCv04.C11.config                        [arq_config]
  150                                    [N_base]
    0                                    [N_YAV_components = # of components with extra extinction!]
    0                                    [i_FitPowerLaw (1/0 = Yes/No)]
-9.99                                    [alpha_PowerLaw]
CCM                                      [red_law_option]
 1.458241                                [q_norm = A(l_norm)/A(V)]

## (Re)Sampling Parameters
 3359.00                                 [l_ini (A)]
 6428.00                                 [l_fin (A)]
    1.00                                 [dl    (A)]     (OBS: dl_cushion =    50.00 A)

## Normalization info
 4020.00                                 [l_norm (A) - for base]
 4010.00                                 [llow_norm (A) - window for f_obs]
 4060.00                                 [lupp_norm (A) - window for f_obs]
7.127479E-15                             [fobs_norm (in input units)]

## S/N
 4730.00                                 [llow_SN (A) - window for S/N]
 4780.00                                 [lupp_SN (A) - window for S/N]
  53.764                                 [S/N in S/N window]
  34.599                                 [S/N in norm. window]
  41.866                                 [S/N_err in S/N window]
  26.942                                 [S/N_err in norm. window]
  1.0000                                 [fscale_chi2]

## etc...
  2147483593                             [idum_orig]
  3067                                   [NOl_eff]
  1570                                   [Nl_eff]
  1497    NSIGMA                         [Ntot_cliped & clip_method]
  1724940                                [Nglobal_steps]
   7                                     [N_chains]
  24                                     [NEX0s_base = N_base in EX0s-fits]
 0   0   1      211   2.0   5.860E+02    [Clip-Bug, RC-Crash & Burn-In warning-flags, n_censored_weights, wei_nsig_threshold & wei_limit]
    67     67.297     67.285      0.012  [idt_all, wdt_TotTime, wdt_UsrTime & wdt_SysTime (sec)]

## Synthesis Results - Best model ##

 2.20064E+00                             [chi2/Nl_eff]
     2.06284                             [adev (%)]

    99.80900                             [sum-of-x (%)]
 4.62975E-14                             [Flux_tot (units of input spectrum!)]
 1.60201E-09                             [Mini_tot (???)]
 8.06887E-10                             [Mcor_tot (???)]

   7.31                                  [v0_min  (km/s)]
  57.52                                  [vd_min  (km/s)]
 1.3946                                  [AV_min  (mag)]
 0.0000                                  [YAV_min (mag)]

# j     x_j(%)      Mini_j(%)     Mcor_j(%)     age_j(yr)     Z_j      (L/M)_j    YAV?  Mstars   component_j        a/Fe...       SSP_chi2r SSP_adev(%)   SSP_AV   SSP_x(%)
  1      0.0000     0.0000E+00    0.0000E+00    1.000000E+06  0.00010  8.160E-03    0   1.0000   age020_m22            0.0000     1.1212E+03    32.8086   4.0000    78.3589
  2     24.5155     1.4916E-02    2.9614E-02    3.160000E+06  0.00010  4.759E-02    0   1.0000   age045_m22            0.0000     1.1743E+02     5.5785   3.1426    95.9845
  3      0.0000     0.0000E+00    0.0000E+00    5.010000E+06  0.00010  1.932E-02    0   0.9582   age055_m22            0.0000     2.4294E+02    11.9691   3.5825    82.8188
  4      0.0000     0.0000E+00    0.0000E+00    6.610000E+06  0.00010  9.973E-03    0   0.9297   age061_m22            0.0000     1.0340E+03    32.4262   4.0000    80.6774
  5      0.0000     0.0000E+00    0.0000E+00    8.710000E+06  0.00010  7.690E-03    0   0.9030   age067_m22            0.0000     9.9548E+02    32.0809   4.0000    81.1861
  6      0.0000     0.0000E+00    0.0000E+00    1.000000E+07  0.00010  6.375E-03    0   0.8902   age070_m22            0.0000     9.7946E+02    32.2328   4.0000    81.3952
  7      0.0000     0.0000E+00    0.0000E+00    1.445000E+07  0.00010  4.874E-03    0   0.8589   age078_m22            0.0000     7.0416E+02    27.3527   4.0000    84.7661
  8      0.0000     0.0000E+00    0.0000E+00    2.512000E+07  0.00010  4.103E-03    0   0.8174   age090_m22            0.0000     3.0086E+02    16.3678   4.0000    91.0427
  9      3.2539     2.5784E-02    4.0084E-02    4.000000E+07  0.00010  3.654E-03    0   0.7830   age104_m22            0.0000     2.4659E+02     8.9946   4.0000    94.4580
 10      0.1469     1.3749E-03    2.0738E-03    5.500000E+07  0.00010  3.093E-03    0   0.7597   age110_m22            0.0000     2.6823E+02     6.9637   4.0000    95.4777
 11      0.0000     0.0000E+00    0.0000E+00    1.015200E+08  0.00010  2.431E-03    0   0.7138   age116_m22            0.0000     3.6413E+02     6.8759   3.6890    97.8005
 12      0.0000     0.0000E+00    0.0000E+00    1.609000E+08  0.00010  1.319E-03    0   0.6775   age120_m22            0.0000     3.6879E+02     7.3600   3.1657   100.3391
 13      0.0000     0.0000E+00    0.0000E+00    2.861200E+08  0.00010  1.075E-03    0   0.6412   age125_m22            0.0000     7.5891E+02    11.9219   3.0864   104.6189
 14      0.0000     0.0000E+00    0.0000E+00    5.088000E+08  0.00010  7.183E-04    0   0.6083   age130_m22            0.0000     8.8724E+02    13.8563   2.7776   106.9855
 15      0.0000     0.0000E+00    0.0000E+00    9.047900E+08  0.00010  4.524E-04    0   0.5785   age135_m22            0.0000     8.9611E+02    14.3796   2.5529   108.4010
 16      0.0000     0.0000E+00    0.0000E+00    1.278050E+09  0.00010  3.018E-04    0   0.5588   age138_m22            0.0000     5.0807E+02    11.1834   2.1080   106.1485
 17      0.0000     0.0000E+00    0.0000E+00    1.434000E+09  0.00010  2.691E-04    0   0.5532   age139_m22            0.0000     4.3692E+02    10.5800   1.9637   105.5900
 18      0.0000     0.0000E+00    0.0000E+00    2.500000E+09  0.00010  1.582E-04    0   0.5296   age150_m22            0.0000     3.9863E+02     9.8687   1.8846   105.9289
 19      0.0000     0.0000E+00    0.0000E+00    4.250000E+09  0.00010  1.007E-04    0   0.5110   age158_m22            0.0000     2.6142E+02     7.8672   1.7833   104.1885
 20      0.0000     0.0000E+00    0.0000E+00    6.250000E+09  0.00010  6.869E-05    0   0.4985   age166_m22            0.0000     1.5330E+02     5.8867   1.7754   101.4945
 21      0.0000     0.0000E+00    0.0000E+00    7.500000E+09  0.00010  5.873E-05    0   0.4931   age171_m22            0.0000     1.4036E+02     5.6584   1.7791   100.8420
 22      0.0000     0.0000E+00    0.0000E+00    1.000000E+10  0.00010  4.481E-05    0   0.4854   age181_m22            0.0000     1.3526E+02     5.5957   1.7398   100.5095
 23      0.0000     0.0000E+00    0.0000E+00    1.300000E+10  0.00010  3.489E-05    0   0.4791   age193_m22            0.0000     1.2398E+02     5.4142   1.6828   100.0452
 24      0.0000     0.0000E+00    0.0000E+00    1.500000E+10  0.00010  3.035E-05    0   0.4766   age201_m22            0.0000     1.1735E+02     5.2873   1.6461    99.8830
 25      0.3535     4.0778E-01    3.8336E-01    1.800000E+10  0.00010  2.510E-05    0   0.4735   age213_m22            0.0000     1.0172E+02     5.0006   1.5845    99.3278
 26      0.0000     0.0000E+00    0.0000E+00    1.000000E+06  0.00040  8.458E-03    0   1.0000   age020_m32            0.0000     1.1126E+03    33.2160   4.0000    78.8632
 27      0.0000     0.0000E+00    0.0000E+00    3.160000E+06  0.00040  3.973E-02    0   1.0000   age045_m32            0.0000     2.6963E+02    13.8797   4.0000    90.8816
 28      0.0000     0.0000E+00    0.0000E+00    5.010000E+06  0.00040  1.935E-02    0   0.9532   age055_m32            0.0000     5.3523E+02    21.2185   4.0000    84.9095
 29      0.0000     0.0000E+00    0.0000E+00    6.610000E+06  0.00040  1.204E-02    0   0.9243   age061_m32            0.0000     8.2461E+02    28.7825   4.0000    83.0064
 30      0.0000     0.0000E+00    0.0000E+00    8.710000E+06  0.00040  9.433E-03    0   0.9001   age067_m32            0.0000     7.5647E+02    27.8539   4.0000    84.0265
 31      0.0000     0.0000E+00    0.0000E+00    1.000000E+07  0.00040  8.053E-03    0   0.8877   age070_m32            0.0000     7.1033E+02    26.8981   4.0000    84.5565
 32      0.0000     0.0000E+00    0.0000E+00    1.445000E+07  0.00040  7.027E-03    0   0.8578   age078_m32            0.0000     2.7685E+02    13.2820   4.0000    89.3001
 33      0.0000     0.0000E+00    0.0000E+00    2.512000E+07  0.00040  4.707E-03    0   0.8166   age090_m32            0.0000     1.7056E+02     7.4118   4.0000    92.0305
 34      0.0000     0.0000E+00    0.0000E+00    4.000000E+07  0.00040  3.714E-03    0   0.7827   age104_m32            0.0000     2.1399E+02     6.5103   3.8625    94.6388
 35      0.0000     0.0000E+00    0.0000E+00    5.500000E+07  0.00040  2.982E-03    0   0.7593   age110_m32            0.0000     2.5113E+02     6.4914   3.7753    95.8096
 36      0.0000     0.0000E+00    0.0000E+00    1.015200E+08  0.00040  2.188E-03    0   0.7143   age116_m32            0.0000     4.7244E+02     8.1747   3.4021   100.3821
 37      0.0000     0.0000E+00    0.0000E+00    1.609000E+08  0.00040  1.690E-03    0   0.6856   age120_m32            0.0000     6.4791E+02    10.2667   3.1330   103.1961
 38      0.0000     0.0000E+00    0.0000E+00    2.861200E+08  0.00040  1.152E-03    0   0.6509   age125_m32            0.0000     7.8982E+02    12.7266   2.8078   105.9313
 39      0.0000     0.0000E+00    0.0000E+00    5.088000E+08  0.00040  7.331E-04    0   0.6182   age130_m32            0.0000     8.3898E+02    13.6807   2.5972   107.1805
 40      0.0000     0.0000E+00    0.0000E+00    9.047900E+08  0.00040  3.960E-04    0   0.5890   age135_m32            0.0000     5.1695E+02    11.6267   2.1655   106.0054
 41      0.0000     0.0000E+00    0.0000E+00    1.278050E+09  0.00040  2.854E-04    0   0.5687   age138_m32            0.0000     4.4718E+02    10.5393   1.9276   107.0653
 42      0.0000     0.0000E+00    0.0000E+00    1.434000E+09  0.00040  2.531E-04    0   0.5632   age139_m32            0.0000     4.3647E+02    10.4399   1.8714   106.9637
 43      0.0000     0.0000E+00    0.0000E+00    2.500000E+09  0.00040  1.488E-04    0   0.5386   age150_m32            0.0000     3.2526E+02     9.2893   1.6393   105.2126
 44      0.0000     0.0000E+00    0.0000E+00    4.250000E+09  0.00040  9.082E-05    0   0.5199   age158_m32            0.0000     1.4777E+02     6.1234   1.6147   101.9490
 45      3.9641     1.8041E+00    1.8182E+00    6.250000E+09  0.00040  6.362E-05    0   0.5076   age166_m32            0.0000     6.3740E+01     4.3083   1.6407    98.6178
 46      8.8885     4.8660E+00    4.8566E+00    7.500000E+09  0.00040  5.289E-05    0   0.5027   age171_m32            0.0000     5.0582E+01     4.0361   1.6091    97.5114
 47      0.7862     5.7310E-01    5.6301E-01    1.000000E+10  0.00040  3.972E-05    0   0.4948   age181_m32            0.0000     4.1327E+01     3.8006   1.5434    96.3706
 48      0.0045     4.0114E-03    3.8786E-03    1.300000E+10  0.00040  3.283E-05    0   0.4870   age193_m32            0.0000     7.1557E+01     4.3569   1.4648    99.0390
 49      0.0000     0.0000E+00    0.0000E+00    1.500000E+10  0.00040  2.925E-05    0   0.4854   age201_m32            0.0000     9.8141E+01     5.0094   1.4265   100.5827
 50      0.0000     0.0000E+00    0.0000E+00    1.800000E+10  0.00040  2.469E-05    0   0.4819   age213_m32            0.0000     1.0928E+02     5.3248   1.3762   101.1177
 51      0.0000     0.0000E+00    0.0000E+00    1.000000E+06  0.00400  1.114E-02    0   1.0000   age020_m42            0.0000     1.0235E+03    31.4123   4.0000    79.5741
 52      0.0000     0.0000E+00    0.0000E+00    3.160000E+06  0.00400  4.073E-02    0   0.9999   age045_m42            0.0000     1.4298E+02     6.6036   4.0000    92.7459
 53      0.0000     0.0000E+00    0.0000E+00    5.010000E+06  0.00400  2.534E-02    0   0.9488   age055_m42            0.0000     3.6224E+02    16.8442   4.0000    87.6448
 54      4.7104     5.2803E-03    9.6659E-03    6.610000E+06  0.00400  2.583E-02    0   0.9220   age061_m42            0.0000     1.5951E+02     6.1057   3.9521    92.6535
 55      2.4422     4.1450E-03    7.3926E-03    8.710000E+06  0.00400  1.706E-02    0   0.8983   age067_m42            0.0000     1.4690E+02     7.6601   3.8205    90.5875
 56      0.0000     0.0000E+00    0.0000E+00    1.000000E+07  0.00400  1.271E-02    0   0.8862   age070_m42            0.0000     1.6719E+02     9.0268   3.8337    88.9623
 57      0.0000     0.0000E+00    0.0000E+00    1.445000E+07  0.00400  7.666E-03    0   0.8571   age078_m42            0.0000     2.2530E+02     9.2623   4.0000    87.2777
 58      0.0000     0.0000E+00    0.0000E+00    2.512000E+07  0.00400  5.070E-03    0   0.8174   age090_m42            0.0000     1.5068E+02     8.3021   3.6825    90.8217
 59      0.0000     0.0000E+00    0.0000E+00    4.000000E+07  0.00400  3.505E-03    0   0.7851   age104_m42            0.0000     1.2582E+02     6.4895   3.3185    94.1473
 60      0.0000     0.0000E+00    0.0000E+00    5.500000E+07  0.00400  3.059E-03    0   0.7629   age110_m42            0.0000     2.2661E+02     5.6119   3.2710    98.8153
 61      0.0000     0.0000E+00    0.0000E+00    1.015200E+08  0.00400  2.268E-03    0   0.7207   age116_m42            0.0000     5.6957E+02     9.4939   3.0458   104.3377
 62      0.0000     0.0000E+00    0.0000E+00    1.609000E+08  0.00400  1.720E-03    0   0.6930   age120_m42            0.0000     6.1106E+02    10.3630   2.8640   106.4581
 63      0.0000     0.0000E+00    0.0000E+00    2.861200E+08  0.00400  1.079E-03    0   0.6613   age125_m42            0.0000     6.0854E+02    11.3594   2.4693   107.0768
 64      0.0000     0.0000E+00    0.0000E+00    5.088000E+08  0.00400  6.261E-04    0   0.6313   age130_m42            0.0000     6.8282E+02    12.6053   2.2418   109.9708
 65      0.0000     0.0000E+00    0.0000E+00    9.047900E+08  0.00400  3.535E-04    0   0.6024   age135_m42            0.0000     4.3215E+02    10.7650   1.8736   110.2646
 66      0.0000     0.0000E+00    0.0000E+00    1.278050E+09  0.00400  2.677E-04    0   0.5837   age138_m42            0.0000     1.4947E+02     8.2066   1.1995   108.7961
 67      0.0000     0.0000E+00    0.0000E+00    1.434000E+09  0.00400  1.910E-04    0   0.5716   age139_m42            0.0000     2.0899E+02     8.6722   1.3601   109.5625
 68      0.0000     0.0000E+00    0.0000E+00    2.500000E+09  0.00400  9.818E-05    0   0.5463   age150_m42            0.0000     5.7555E+01     5.6564   1.1583   104.9516
 69      0.0000     0.0000E+00    0.0000E+00    4.250000E+09  0.00400  5.491E-05    0   0.5269   age158_m42            0.0000     2.8831E+01     4.4893   1.0744   102.0945
 70      0.0000     0.0000E+00    0.0000E+00    6.250000E+09  0.00400  3.857E-05    0   0.5151   age166_m42            0.0000     3.2780E+01     4.7914   0.9496   100.9766
 71      0.0000     0.0000E+00    0.0000E+00    7.500000E+09  0.00400  3.243E-05    0   0.5110   age171_m42            0.0000     4.1366E+01     5.1986   0.8669   100.5586
 72      0.0000     0.0000E+00    0.0000E+00    1.000000E+10  0.00400  2.424E-05    0   0.5028   age181_m42            0.0000     5.9124E+01     5.7095   0.7837   100.0570
 73      0.0000     0.0000E+00    0.0000E+00    1.300000E+10  0.00400  1.883E-05    0   0.4927   age193_m42            0.0000     7.8591E+01     6.0045   0.7458    99.7848
 74      0.0000     0.0000E+00    0.0000E+00    1.500000E+10  0.00400  1.685E-05    0   0.4919   age201_m42            0.0000     7.2582E+01     5.8553   0.7531    99.7699
 75      0.0000     0.0000E+00    0.0000E+00    1.800000E+10  0.00400  1.452E-05    0   0.4874   age213_m42            0.0000     6.2912E+01     5.6124   0.7718    99.9866
 76      0.0000     0.0000E+00    0.0000E+00    1.000000E+06  0.00800  1.286E-02    0   1.0000   age020_m52            0.0000     9.2843E+02    30.6245   4.0000    81.3831
 77      0.0000     0.0000E+00    0.0000E+00    3.160000E+06  0.00800  3.147E-02    0   0.9966   age045_m52            0.0000     8.3087E+02    28.6819   4.0000    82.9111
 78      0.0000     0.0000E+00    0.0000E+00    5.010000E+06  0.00800  2.664E-02    0   0.9443   age055_m52            0.0000     4.8183E+02    19.9304   4.0000    86.8330
 79      0.0000     0.0000E+00    0.0000E+00    6.610000E+06  0.00800  2.151E-02    0   0.9177   age061_m52            0.0000     1.1945E+02     7.6397   3.4043    91.3166
 80      0.0000     0.0000E+00    0.0000E+00    8.710000E+06  0.00800  1.628E-02    0   0.8948   age067_m52            0.0000     1.5316E+02     7.9476   3.7775    91.1322
 81      0.0000     0.0000E+00    0.0000E+00    1.000000E+07  0.00800  1.215E-02    0   0.8827   age070_m52            0.0000     1.8715E+02     8.0893   4.0000    89.8776
 82      0.0000     0.0000E+00    0.0000E+00    1.445000E+07  0.00800  8.739E-03    0   0.8552   age078_m52            0.0000     1.9113E+02     7.7037   4.0000    91.2332
 83      0.0000     0.0000E+00    0.0000E+00    2.512000E+07  0.00800  5.676E-03    0   0.8162   age090_m52            0.0000     2.1678E+02     6.9425   3.7102    94.7397
 84      0.0000     0.0000E+00    0.0000E+00    4.000000E+07  0.00800  3.939E-03    0   0.7841   age104_m52            0.0000     2.5629E+02     6.2959   3.4952    97.4009
 85      0.0000     0.0000E+00    0.0000E+00    5.500000E+07  0.00800  3.155E-03    0   0.7627   age110_m52            0.0000     3.1570E+02     6.3899   3.4176    99.4299
 86      0.0000     0.0000E+00    0.0000E+00    1.015200E+08  0.00800  2.206E-03    0   0.7226   age116_m52            0.0000     4.6093E+02     8.1256   3.1426   104.0191
 87      0.1649     2.9915E-03    4.1356E-03    1.609000E+08  0.00800  1.596E-03    0   0.6963   age120_m52            0.0000     5.2740E+02     9.3863   2.8795   106.0912
 88      0.0000     0.0000E+00    0.0000E+00    2.861200E+08  0.00800  1.002E-03    0   0.6665   age125_m52            0.0000     7.0970E+02    12.5383   2.4597   110.0312
 89      0.0000     0.0000E+00    0.0000E+00    5.088000E+08  0.00800  5.759E-04    0   0.6377   age130_m52            0.0000     7.2168E+02    13.9607   2.0258   115.2465
 90      0.0000     0.0000E+00    0.0000E+00    9.047900E+08  0.00800  2.972E-04    0   0.6086   age135_m52            0.0000     3.9042E+02    12.7160   1.4744   114.4930
 91      0.0000     0.0000E+00    0.0000E+00    1.278050E+09  0.00800  2.242E-04    0   0.5907   age138_m52            0.0000     1.4081E+02     9.1567   0.9677   112.7865
 92      0.0000     0.0000E+00    0.0000E+00    1.434000E+09  0.00800  1.645E-04    0   0.5787   age139_m52            0.0000     1.2611E+02     8.2496   1.1501   111.8449
 93      0.0000     0.0000E+00    0.0000E+00    2.500000E+09  0.00800  7.723E-05    0   0.5519   age150_m52            0.0000     6.2475E+01     6.5651   0.8692   108.0711
 94      0.0000     0.0000E+00    0.0000E+00    4.250000E+09  0.00800  4.151E-05    0   0.5320   age158_m52            0.0000     5.3586E+01     6.0627   0.8226   105.3136
 95      0.0000     0.0000E+00    0.0000E+00    6.250000E+09  0.00800  3.010E-05    0   0.5197   age166_m52            0.0000     7.9443E+01     6.7260   0.6230   104.2264
 96      6.4951     7.6232E+00    7.7780E+00    7.500000E+09  0.00800  2.467E-05    0   0.5139   age171_m52            0.0000     9.0300E+01     6.9920   0.5773   103.9152
 97     20.3435     3.1635E+01    3.1744E+01    1.000000E+10  0.00800  1.862E-05    0   0.5054   age181_m52            0.0000     1.2842E+02     7.9268   0.4262   103.8854
 98     10.4466     2.1108E+01    2.0904E+01    1.300000E+10  0.00800  1.433E-05    0   0.4988   age193_m52            0.0000     1.8229E+02     8.7194   0.3222   104.8327
 99      3.9544     9.2041E+00    9.0201E+00    1.500000E+10  0.00800  1.244E-05    0   0.4936   age201_m52            0.0000     2.0741E+02     8.9866   0.2932   105.3842
100      3.7514     1.0151E+01    9.8517E+00    1.800000E+10  0.00800  1.070E-05    0   0.4888   age213_m52            0.0000     2.2361E+02     9.2825   0.2521   105.3323
101      0.0000     0.0000E+00    0.0000E+00    1.000000E+06  0.02000  1.989E-02    0   1.0000   age020_m62            0.0000     9.7523E+02    30.4127   4.0000    80.4615
102      0.0000     0.0000E+00    0.0000E+00    3.160000E+06  0.02000  3.772E-02    0   0.9858   age045_m62            0.0000     8.0722E+02    27.0703   4.0000    82.7973
103      0.0000     0.0000E+00    0.0000E+00    5.010000E+06  0.02000  3.227E-02    0   0.9342   age055_m62            0.0000     2.5553E+02    12.6395   4.0000    90.2945
104      0.0000     0.0000E+00    0.0000E+00    6.610000E+06  0.02000  2.387E-02    0   0.9090   age061_m62            0.0000     2.2307E+02     9.2013   4.0000    88.6716
105      0.0000     0.0000E+00    0.0000E+00    8.710000E+06  0.02000  1.102E-02    0   0.8861   age067_m62            0.0000     4.2361E+02    15.6942   3.9342    82.5346
106      0.0000     0.0000E+00    0.0000E+00    1.000000E+07  0.02000  1.011E-02    0   0.8751   age070_m62            0.0000     2.9807E+02    13.0194   3.9210    85.3019
107      0.0000     0.0000E+00    0.0000E+00    1.445000E+07  0.02000  7.331E-03    0   0.8472   age078_m62            0.0000     2.2104E+02    10.8577   3.9068    87.1266
108      0.0000     0.0000E+00    0.0000E+00    2.512000E+07  0.02000  4.206E-03    0   0.8099   age090_m62            0.0000     2.3481E+02    10.7629   3.8145    86.7126
109      0.0000     0.0000E+00    0.0000E+00    4.000000E+07  0.02000  3.373E-03    0   0.7799   age104_m62            0.0000     1.7788E+02     6.5394   3.4930    95.5217
110      0.0000     0.0000E+00    0.0000E+00    5.500000E+07  0.02000  2.747E-03    0   0.7595   age110_m62            0.0000     2.6462E+02     6.2037   3.3532    99.1245
111      0.0000     0.0000E+00    0.0000E+00    1.015200E+08  0.02000  1.878E-03    0   0.7221   age116_m62            0.0000     5.1282E+02     8.8453   3.1020   104.4181
112      0.0000     0.0000E+00    0.0000E+00    1.609000E+08  0.02000  1.378E-03    0   0.6978   age120_m62            0.0000     6.8304E+02    11.2477   2.8662   107.5949
113      0.0000     0.0000E+00    0.0000E+00    2.861200E+08  0.02000  8.869E-04    0   0.6700   age125_m62            0.0000     9.4893E+02    14.5763   2.3702   113.0821
114      0.0000     0.0000E+00    0.0000E+00    5.088000E+08  0.02000  4.834E-04    0   0.6430   age130_m62            0.0000     7.9114E+02    15.4189   1.8344   117.1433
115      0.0000     0.0000E+00    0.0000E+00    9.047900E+08  0.02000  2.312E-04    0   0.6152   age135_m62            0.0000     3.5276E+02    11.9768   1.3054   116.2586
116      0.0000     0.0000E+00    0.0000E+00    1.278050E+09  0.02000  1.387E-04    0   0.5927   age138_m62            0.0000     1.3102E+02     8.4138   1.0227   111.7045
117      0.0000     0.0000E+00    0.0000E+00    1.434000E+09  0.02000  1.168E-04    0   0.5865   age139_m62            0.0000     1.0200E+02     7.7405   1.0163   110.0582
118      0.0000     0.0000E+00    0.0000E+00    2.500000E+09  0.02000  5.505E-05    0   0.5610   age150_m62            0.0000     7.6339E+01     7.4366   0.6662   107.4035
119      0.0000     0.0000E+00    0.0000E+00    4.250000E+09  0.02000  3.070E-05    0   0.5407   age158_m62            0.0000     1.5103E+02     9.3183   0.3257   108.1546
120      0.0000     0.0000E+00    0.0000E+00    6.250000E+09  0.02000  2.104E-05    0   0.5277   age166_m62            0.0000     2.1467E+02    10.2686   0.1721   109.0028
121      0.2898     4.7410E-01    4.9164E-01    7.500000E+09  0.02000  1.770E-05    0   0.5223   age171_m62            0.0000     2.4714E+02    10.8498   0.0671   109.6759
122      0.0000     0.0000E+00    0.0000E+00    1.000000E+10  0.02000  1.297E-05    0   0.5121   age181_m62            0.0000     3.2414E+02    11.9938  -0.1234   110.7271
123      0.0000     0.0000E+00    0.0000E+00    1.300000E+10  0.02000  9.691E-06    0   0.5047   age193_m62            0.0000     3.8228E+02    12.7437  -0.2264   111.4046
124      0.0000     0.0000E+00    0.0000E+00    1.500000E+10  0.02000  8.360E-06    0   0.4999   age201_m62            0.0000     4.3025E+02    13.4201  -0.3188   112.0139
125      0.0000     0.0000E+00    0.0000E+00    1.800000E+10  0.02000  6.911E-06    0   0.4946   age213_m62            0.0000     4.8867E+02    14.3372  -0.4279   112.8365
126      0.0000     0.0000E+00    0.0000E+00    1.000000E+06  0.05000  2.651E-02    0   0.9998   age020_m72            0.0000     9.4277E+02    30.0469   4.0000    81.5687
127      0.0000     0.0000E+00    0.0000E+00    3.160000E+06  0.05000  4.817E-02    0   0.9577   age045_m72            0.0000     5.8420E+02    22.6182   4.0000    86.5850
128      0.0000     0.0000E+00    0.0000E+00    5.010000E+06  0.05000  3.101E-02    0   0.9147   age055_m72            0.0000     3.3718E+02    13.5865   4.0000    88.8195
129      0.0000     0.0000E+00    0.0000E+00    6.610000E+06  0.05000  1.472E-02    0   0.8877   age061_m72            0.0000     3.5940E+02    12.5110   4.0000    85.1390
130      0.0000     0.0000E+00    0.0000E+00    8.710000E+06  0.05000  1.050E-02    0   0.8638   age067_m72            0.0000     3.8487E+02    13.1933   4.0000    87.2351
131      0.0000     0.0000E+00    0.0000E+00    1.000000E+07  0.05000  8.954E-03    0   0.8524   age070_m72            0.0000     4.6467E+02    19.0537   4.0000    88.1950
132      0.0000     0.0000E+00    0.0000E+00    1.445000E+07  0.05000  6.392E-03    0   0.8262   age078_m72            0.0000     3.9205E+02    17.3073   4.0000    89.3644
133      0.0000     0.0000E+00    0.0000E+00    2.512000E+07  0.05000  4.207E-03    0   0.7902   age090_m72            0.0000     1.8044E+02     7.4414   4.0000    92.9132
134      0.0000     0.0000E+00    0.0000E+00    4.000000E+07  0.05000  3.198E-03    0   0.7618   age104_m72            0.0000     3.3793E+02     6.1177   3.5492   100.2784
135      0.0000     0.0000E+00    0.0000E+00    5.500000E+07  0.05000  2.593E-03    0   0.7432   age110_m72            0.0000     4.2808E+02     7.3921   3.4213   102.0494
136      0.0000     0.0000E+00    0.0000E+00    1.015200E+08  0.05000  1.716E-03    0   0.7092   age116_m72            0.0000     5.9824E+02     9.6669   3.1639   104.8530
137      0.0000     0.0000E+00    0.0000E+00    1.609000E+08  0.05000  1.218E-03    0   0.6876   age120_m72            0.0000     7.7551E+02    11.8167   2.8137   108.4551
138      0.0000     0.0000E+00    0.0000E+00    2.861200E+08  0.05000  7.047E-04    0   0.6618   age125_m72            0.0000     8.9916E+02    14.5333   2.1322   114.2813
139      0.0000     0.0000E+00    0.0000E+00    5.088000E+08  0.05000  3.590E-04    0   0.6356   age130_m72            0.0000     6.5609E+02    14.9704   1.4730   118.3402
140      0.0000     0.0000E+00    0.0000E+00    9.047900E+08  0.05000  1.484E-04    0   0.6088   age135_m72            0.0000     1.7591E+02    10.5418   0.8449   111.7044
141      0.0000     0.0000E+00    0.0000E+00    1.278050E+09  0.05000  9.435E-05    0   0.5924   age138_m72            0.0000     1.3336E+02    10.1005   0.4598   109.4131
142      0.0000     0.0000E+00    0.0000E+00    1.434000E+09  0.05000  7.827E-05    0   0.5847   age139_m72            0.0000     1.2534E+02     9.5391   0.5019   108.5675
143      1.0883     8.3832E-01    9.2925E-01    2.500000E+09  0.05000  3.759E-05    0   0.5583   age150_m72            0.0000     1.9656E+02    10.2881   0.1837   108.2178
144      1.8459     2.9016E+00    3.0959E+00    4.250000E+09  0.05000  1.842E-05    0   0.5374   age158_m72            0.0000     2.9180E+02    11.8162  -0.1684   108.4214
145      1.1193     2.6851E+00    2.7945E+00    6.250000E+09  0.05000  1.207E-05    0   0.5242   age166_m72            0.0000     3.8860E+02    13.7022  -0.4772   109.2632
146      0.6880     1.9934E+00    2.0513E+00    7.500000E+09  0.05000  9.993E-06    0   0.5183   age171_m72            0.0000     3.9946E+02    14.0277  -0.5358   109.4467
147      0.0000     0.0000E+00    0.0000E+00    1.000000E+10  0.05000  7.291E-06    0   0.5081   age181_m72            0.0000     4.6777E+02    15.6289  -0.7357   110.4028
148      0.2512     1.3683E+00    1.3632E+00    1.300000E+10  0.05000  5.316E-06    0   0.5018   age193_m72            0.0000     5.7771E+02    17.5017  -1.0000   111.7598
149      0.0415     2.6728E-01    2.6384E-01    1.500000E+10  0.05000  4.497E-06    0   0.4972   age201_m72            0.0000     6.4345E+02    17.2697  -1.0000   111.9799
150      0.2635     2.0405E+00    1.9949E+00    1.800000E+10  0.05000  3.739E-06    0   0.4924   age213_m72            0.0000     7.4752E+02    16.9273  -1.0000   111.9060


## Synthesis Results - Average & Chains ##

# j      x_j: min, <> & last-chain-values for 1 ...  7 chains
  1      0.0000      0.0127      0.0768      0.0063      0.0000      0.0000      0.0442      0.0000      0.0000
  2     24.5155     22.7109     23.6549     23.2125     23.0937     23.4644     23.5851     23.2970     22.9642
  3      0.0000      0.0255      0.0000      0.0400      0.0000      0.0000      0.0000      0.0183      0.0000
  4      0.0000      0.0037      0.0000      0.0000      0.0000      0.0000      0.0000      0.0000      0.0365
  5      0.0000      0.0236      0.0000      0.0000      0.0000      0.0000      0.0000      0.0000      0.0000
  6      0.0000      0.0125      0.0000      0.0074      0.0000      0.0000      0.0000      0.0000      0.0000
  7      0.0000      0.0261      0.0000      0.1246      0.0000      0.0000      0.1788      0.0000      0.0000
  8      0.0000      0.0464      0.0000      0.0000      0.0224      0.0000      0.3473      0.0000      0.0000
  9      3.2539      2.7928      3.0781      2.5792      2.7680      2.8215      2.5374      2.7564      2.8179
 10      0.1469      0.4506      0.0998      0.4169      0.3860      0.5310      0.4814      0.5300      0.6415
 11      0.0000      0.1053      0.0000      0.1915      0.1255      0.0554      0.0524      0.1617      0.0233
 12      0.0000      0.0282      0.0000      0.0000      0.0000      0.0000      0.0071      0.0000      0.0000
 13      0.0000      0.0101      0.1112      0.0000      0.0000      0.0000      0.0000      0.0000      0.0000
 14      0.0000      0.0215      0.0000      0.0000      0.0000      0.0534      0.0705      0.0000      0.0000
 15      0.0000      0.0102      0.0000      0.0004      0.0000      0.0000      0.0000      0.0000      0.0000
 16      0.0000      0.0158      0.0000      0.0513      0.0076      0.0000      0.0000      0.0038      0.0000
 17      0.0000      0.0159      0.0000      0.0000      0.1148      0.0000      0.1956      0.0383      0.0000
 18      0.0000      0.0237      0.0004      0.0000      0.0675      0.1100      0.0408      0.0000      0.0000
 19      0.0000      0.0471      0.0000      0.0000      0.0000      0.0000      0.1322      0.0000      0.0000
 20      0.0000      0.0782      0.1463      0.0000      0.0000      0.0000      0.0000      0.0000      0.0000
 21      0.0000      0.0840      0.0000      0.0000      0.1481      0.0792      0.0000      0.1659      0.0451
 22      0.0000      0.1095      0.0000      0.2124      0.0000      0.0000      0.0000      0.3240      0.0000
 23      0.0000      0.0745      0.1082      0.0000      0.6251      0.0000      0.0716      0.0000      0.0000
 24      0.0000      0.2286      0.7720      0.0000      0.0137      0.0512      0.2049      0.1100      0.0000
 25      0.3535      0.1589      0.0000      0.0834      0.2316      0.2077      0.0651      0.0000      0.6032
 26      0.0000      0.0117      0.0000      0.0000      0.0000      0.0000      0.0000      0.1796      0.0316
 27      0.0000      0.0324      0.0000      0.0972      0.0000      0.0000      0.0000      0.0000      0.0000
 28      0.0000      0.0199      0.0190      0.0000      0.0000      0.0000      0.0000      0.0000      0.0000
 29      0.0000      0.0280      0.0282      0.0000      0.0000      0.0000      0.0000      0.0000      0.0000
 30      0.0000      0.0212      0.0000      0.0000      0.0000      0.0000      0.0000      0.0000      0.0000
 31      0.0000      0.0163      0.0000      0.0000      0.0900      0.0000      0.0000      0.0000      0.1146
 32      0.0000      0.0954      0.1395      0.0967      0.0000      0.0000      0.0000      0.0000      0.0770
 33      0.0000      0.0456      0.0000      0.0000      0.1512      0.0000      0.0000      0.3015      0.0000
 34      0.0000      0.2329      0.2811      0.0309      0.0000      0.1207      0.1257      0.2410      0.3003
 35      0.0000      0.0703      0.0308      0.0758      0.0000      0.0000      0.3267      0.0000      0.0000
 36      0.0000      0.0413      0.0000      0.0000      0.0000      0.0000      0.0496      0.0000      0.0000
 37      0.0000      0.0282      0.0000      0.0000      0.0000      0.0000      0.0000      0.0356      0.0000
 38      0.0000      0.0114      0.0000      0.0000      0.0000      0.0000      0.0111      0.0000      0.0000
 39      0.0000      0.0088      0.0000      0.0000      0.0000      0.0000      0.0000      0.0000      0.0000
 40      0.0000      0.0067      0.0000      0.0000      0.0000      0.0000      0.0000      0.0000      0.0000
 41      0.0000      0.0190      0.0000      0.0000      0.1303      0.0000      0.0000      0.0154      0.0000
 42      0.0000      0.0187      0.0000      0.0000      0.0000      0.0000      0.0000      0.0000      0.1023
 43      0.0000      0.0451      0.0000      0.0000      0.0000      0.0000      0.0000      0.0000      0.2884
 44      0.0000      0.1262      0.0000      0.0000      0.3397      0.1474      0.0000      0.3556      0.0000
 45      3.9641      4.1606      4.3900      4.4613      4.1968      4.8916      4.3517      3.9224      4.1353
 46      8.8885      7.4909      7.0917      7.4693      7.5526      7.2542      7.4585      7.7869      7.9536
 47      0.7862      0.6975      1.0200      1.3965      0.5747      1.1431      0.8234      0.9271      0.5806
 48      0.0045      0.1694      0.0000      0.2907      0.0000      0.1684      0.0000      0.0000      0.0348
 49      0.0000      0.1614      0.0000      0.0000      0.0000      0.0988      0.0876      0.0454      0.0004
 50      0.0000      0.1100      0.0000      0.0000      0.0000      0.0000      0.0000      0.3683      0.0000
 51      0.0000      0.0109      0.0000      0.0000      0.0000      0.0764      0.0000      0.0000      0.0000
 52      0.0000      0.1119      0.2343      0.1745      0.1139      0.1402      0.0334      0.0000      0.0000
 53      0.0000      0.0432      0.0000      0.0000      0.0000      0.0000      0.0000      0.0000      0.0526
 54      4.7104      4.4288      4.5741      4.3410      4.7035      4.4201      4.5424      4.2824      4.6076
 55      2.4422      2.0106      1.9927      2.2389      2.2113      2.1618      2.0961      1.8810      1.9269
 56      0.0000      0.0564      0.0252      0.0469      0.1636      0.0000      0.0000      0.0000      0.0008
 57      0.0000      0.0197      0.0000      0.0000      0.0000      0.0000      0.0000      0.0469      0.0000
 58      0.0000      0.0272      0.0000      0.0000      0.0000      0.0000      0.0370      0.0543      0.0000
 59      0.0000      0.0141      0.0000      0.0000      0.0000      0.0000      0.0000      0.0000      0.0000
 60      0.0000      0.0276      0.0000      0.0000      0.0000      0.0000      0.0400      0.1890      0.0000
 61      0.0000      0.0375      0.0000      0.1444      0.0000      0.0159      0.0000      0.0000      0.0000
 62      0.0000      0.0219      0.0000      0.0000      0.0000      0.0000      0.0000      0.0000      0.0000
 63      0.0000      0.0111      0.0000      0.0000      0.0000      0.0000      0.0000      0.0020      0.0000
 64      0.0000      0.0171      0.0000      0.0000      0.1014      0.0000      0.0000      0.0000      0.0000
 65      0.0000      0.0255      0.0726      0.0160      0.0054      0.0000      0.0000      0.0000      0.0000
 66      0.0000      0.0225      0.0079      0.0000      0.0000      0.0000      0.0000      0.0000      0.0000
 67      0.0000      0.0243      0.1762      0.0000      0.0126      0.0000      0.0295      0.0745      0.0000
 68      0.0000      0.0834      0.0000      0.0074      0.0000      0.0000      0.0000      0.1003      0.0465
 69      0.0000      0.0965      0.0000      0.0000      0.0000      0.0673      0.3884      0.0000      0.0000
 70      0.0000      0.1359      0.0000      0.0000      0.1423      0.0000      0.0000      0.0000      0.0000
 71      0.0000      0.1027      0.0187      0.0000      0.0000      0.0000      0.0000      0.0000      0.0000
 72      0.0000      0.1291      0.3150      0.0000      0.0000      0.0000      0.0000      0.0000      0.1362
 73      0.0000      0.0491      0.0000      0.0000      0.0000      0.0000      0.0000      0.0000      0.0000
 74      0.0000      0.0684      0.0000      0.0000      0.0000      0.0000      0.0000      0.0060      0.0000
 75      0.0000      0.0644      0.0388      0.2969      0.0000      0.0000      0.1471      0.0000      0.0611
 76      0.0000      0.0084      0.0000      0.0447      0.0226      0.0000      0.0000      0.0000      0.0000
 77      0.0000      0.0060      0.0000      0.0000      0.0000      0.0000      0.0000      0.0000      0.0000
 78      0.0000      0.0118      0.0000      0.0000      0.0000      0.0000      0.0000      0.0000      0.0000
 79      0.0000      0.0352      0.0000      0.2132      0.0000      0.0000      0.2981      0.0000      0.0000
 80      0.0000      0.0225      0.0031      0.0000      0.0000      0.1518      0.0000      0.0000      0.0000
 81      0.0000      0.0333      0.0000      0.0000      0.0409      0.0000      0.0000      0.0000      0.0000
 82      0.0000      0.0120      0.0285      0.0000      0.0000      0.0000      0.0000      0.0000      0.0000
 83      0.0000      0.0552      0.0000      0.2156      0.0000      0.0000      0.0000      0.3263      0.0234
 84      0.0000      0.0390      0.0000      0.0948      0.0721      0.0000      0.0000      0.0000      0.0000
 85      0.0000      0.0234      0.0955      0.0000      0.0000      0.0000      0.0000      0.1046      0.1676
 86      0.0000      0.0184      0.0000      0.0042      0.0000      0.1068      0.1752      0.1188      0.0000
 87      0.1649      0.0162      0.0000      0.0000      0.0000      0.1655      0.0000      0.0161      0.0000
 88      0.0000      0.0125      0.0000      0.0000      0.0000      0.0000      0.0000      0.0000      0.0000
 89      0.0000      0.0122      0.0000      0.0000      0.0000      0.0000      0.0000      0.0000      0.0000
 90      0.0000      0.0145      0.0000      0.0000      0.0000      0.0000      0.0000      0.0000      0.0000
 91      0.0000      0.0202      0.0000      0.0000      0.0000      0.0000      0.0000      0.0000      0.0000
 92      0.0000      0.0207      0.0000      0.0000      0.0000      0.0000      0.0000      0.0000      0.0000
 93      0.0000      0.0668      0.0000      0.0623      0.0088      0.0000      0.0000      0.0233      0.2250
 94      0.0000      0.1252      0.1396      0.1202      0.5705      0.0000      0.0000      0.0711      0.9443
 95      0.0000      0.2529      0.0145      0.0000      0.4753      0.0000      0.0000      0.1540      0.2519
 96      6.4951      6.7885      6.8869      5.8148      5.7668      6.6201      7.9423      6.4392      6.4633
 97     20.3435     19.9906     19.9999     20.4795     20.7627     20.9105     20.7416     20.1548     19.9392
 98     10.4466     10.1253     10.6397     10.1047     10.0677     10.5547     10.2415     10.1262     10.2627
 99      3.9544      4.3274      4.5062      4.3529      4.7003      4.5371      3.8756      4.4170      4.2035
100      3.7514      4.3867      4.5447      4.5172      4.5094      4.5230      3.8830      4.7739      4.3672
101      0.0000      0.0110      0.0000      0.0000      0.0000      0.0000      0.0000      0.0000      0.1270
102      0.0000      0.0043      0.0000      0.0000      0.0000      0.0000      0.0000      0.0000      0.0000
103      0.0000      0.0386      0.0000      0.1156      0.0000      0.0000      0.0000      0.1330      0.1717
104      0.0000      0.0371      0.1354      0.0000      0.2198      0.0585      0.0000      0.0000      0.0000
105      0.0000      0.0271      0.0000      0.0000      0.0000      0.0000      0.0000      0.0000      0.0000
106      0.0000      0.0581      0.0000      0.0000      0.0000      0.0116      0.0000      0.0000      0.2876
107      0.0000      0.0317      0.0895      0.0000      0.1017      0.0000      0.0000      0.0000      0.0000
108      0.0000      0.0162      0.0000      0.0000      0.1274      0.0785      0.0000      0.0000      0.0000
109      0.0000      0.0207      0.0000      0.0000      0.0000      0.0000      0.0000      0.0000      0.0000
110      0.0000      0.0373      0.0116      0.0000      0.0098      0.0000      0.0000      0.0000      0.0000
111      0.0000      0.0201      0.3102      0.0000      0.0000      0.0339      0.0000      0.0000      0.0000
112      0.0000      0.0159      0.0295      0.0000      0.0000      0.0000      0.0000      0.0000      0.1387
113      0.0000      0.0067      0.0000      0.0000      0.0000      0.0000      0.0000      0.0000      0.0000
114      0.0000      0.0065      0.0000      0.0000      0.0709      0.0000      0.0422      0.0000      0.0000
115      0.0000      0.0082      0.0000      0.0000      0.0000      0.0000      0.0000      0.0000      0.0029
116      0.0000      0.0198      0.0000      0.0000      0.0973      0.0000      0.0295      0.0000      0.0000
117      0.0000      0.0303      0.0870      0.1905      0.0000      0.0000      0.0000      0.1541      0.0000
118      0.0000      0.0642      0.0000      0.0000      0.0000      0.0000      0.0000      0.0000      0.0415
119      0.0000      0.1004      0.0000      0.3393      0.0362      0.0000      0.1979      0.4118      0.2706
120      0.0000      0.1280      0.2274      1.1855      0.2117      0.0000      0.0000      0.0301      0.2076
121      0.2898      0.1742      0.1086      0.1692      0.0000      0.3105      0.1810      0.2649      0.0000
122      0.0000      0.0337      0.0014      0.0000      0.0000      0.0000      0.0269      0.0676      0.2321
123      0.0000      0.0683      0.3720      0.0000      0.0000      0.0000      0.0575      0.0000      0.0000
124      0.0000      0.0618      0.0000      0.0256      0.0000      0.0000      0.0000      0.0000      0.0000
125      0.0000      0.0289      0.0000      0.0167      0.0000      0.0000      0.0000      0.0000      0.0000
126      0.0000      0.0049      0.0000      0.0000      0.0000      0.0520      0.0000      0.0000      0.0000
127      0.0000      0.0331      0.0000      0.0000      0.0000      0.1181      0.0000      0.0000      0.0000
128      0.0000      0.0136      0.0000      0.0000      0.0786      0.0000      0.0000      0.0000      0.0000
129      0.0000      0.0241      0.0000      0.0000      0.0000      0.0123      0.0000      0.1592      0.0000
130      0.0000      0.0221      0.0005      0.0000      0.0000      0.0000      0.0000      0.0000      0.0000
131      0.0000      0.0103      0.0000      0.0000      0.0000      0.0000      0.0000      0.0000      0.0000
132      0.0000      0.0077      0.0000      0.0000      0.0000      0.0000      0.0000      0.0211      0.0000
133      0.0000      0.0140      0.0000      0.0388      0.0000      0.0000      0.0000      0.0000      0.0000
134      0.0000      0.0261      0.0481      0.1483      0.0000      0.0000      0.0000      0.0000      0.0000
135      0.0000      0.0135      0.0008      0.0000      0.0000      0.1520      0.0000      0.0000      0.0000
136      0.0000      0.0377      0.0000      0.2695      0.0000      0.0000      0.0000      0.0000      0.1850
137      0.0000      0.0132      0.0000      0.0000      0.0000      0.0000      0.0000      0.0000      0.0000
138      0.0000      0.0069      0.0000      0.0000      0.0000      0.0000      0.0000      0.0000      0.0000
139      0.0000      0.0082      0.0000      0.0000      0.0000      0.0000      0.0000      0.0000      0.0000
140      0.0000      0.0297      0.0000      0.0000      0.0000      0.0000      0.0000      0.0000      0.0000
141      0.0000      0.0887      0.2158      0.1827      0.0329      0.0000      0.0202      0.0000      0.0000
142      0.0000      0.1338      0.0000      0.0000      0.0681      0.0926      0.0000      0.0868      0.2098
143      1.0883      0.3658      0.0000      0.2001      0.5145      0.6674      0.2404      0.1551      0.3421
144      1.8459      0.5695      0.5254      0.4935      0.7012      0.5501      0.6665      0.7172      0.5721
145      1.1193      0.4244      0.3682      0.4305      0.4105      0.4094      0.4795      0.6466      0.5206
146      0.6880      0.4756      0.4935      0.5101      0.5469      0.3914      0.6433      0.5357      0.4803
147      0.0000      0.4340      0.3802      0.3041      0.3089      0.0000      0.4368      0.4051      0.6861
148      0.2512      0.5214      0.5505      0.5149      0.7292      0.4965      0.4380      0.4838      0.3356
149      0.0415      0.3323      0.3768      0.3347      0.1351      0.3726      0.2678      0.3245      0.2508
150      0.2635      0.3299      0.1639      0.2363      0.3274      0.3754      0.3808      0.3297      0.3548

# j      m_j: min, <> & last-chain-values for 1 ...  7 chains
  1  0.0000E+00  8.5818E-05  5.1886E-04  4.2617E-05  0.0000E+00  0.0000E+00  3.0192E-04  0.0000E+00  0.0000E+00
  2  2.9614E-02  2.6362E-02  2.7397E-02  2.7100E-02  2.6880E-02  2.7296E-02  2.7647E-02  2.6908E-02  2.6836E-02
  3  0.0000E+00  6.9891E-05  0.0000E+00  1.1016E-04  0.0000E+00  0.0000E+00  0.0000E+00  4.9912E-05  0.0000E+00
  4  0.0000E+00  1.8955E-05  0.0000E+00  0.0000E+00  0.0000E+00  0.0000E+00  0.0000E+00  0.0000E+00  1.8931E-04
  5  0.0000E+00  1.5331E-04  0.0000E+00  0.0000E+00  0.0000E+00  0.0000E+00  0.0000E+00  0.0000E+00  0.0000E+00
  6  0.0000E+00  9.6400E-05  0.0000E+00  5.7131E-05  0.0000E+00  0.0000E+00  0.0000E+00  0.0000E+00  0.0000E+00
  7  0.0000E+00  2.5456E-04  0.0000E+00  1.2199E-03  0.0000E+00  0.0000E+00  1.7572E-03  0.0000E+00  0.0000E+00
  8  0.0000E+00  5.1069E-04  0.0000E+00  0.0000E+00  2.4741E-04  0.0000E+00  3.8595E-03  0.0000E+00  0.0000E+00
  9  4.0084E-02  3.3060E-02  3.6356E-02  3.0707E-02  3.2856E-02  3.3472E-02  3.0332E-02  3.2466E-02  3.3582E-02
 10  2.0738E-03  6.1139E-03  1.3514E-03  5.6887E-03  5.2524E-03  7.2202E-03  6.5960E-03  7.1550E-03  8.7621E-03
 11  0.0000E+00  1.7079E-03  0.0000E+00  3.1247E-03  2.0417E-03  9.0009E-04  8.5791E-04  2.6094E-03  3.8005E-04
 12  0.0000E+00  7.9961E-04  0.0000E+00  0.0000E+00  0.0000E+00  0.0000E+00  2.0349E-04  0.0000E+00  0.0000E+00
 13  0.0000E+00  3.3322E-04  3.6565E-03  0.0000E+00  0.0000E+00  0.0000E+00  0.0000E+00  0.0000E+00  0.0000E+00
 14  0.0000E+00  1.0047E-03  0.0000E+00  0.0000E+00  0.0000E+00  2.5032E-03  3.3291E-03  0.0000E+00  0.0000E+00
 15  0.0000E+00  7.2188E-04  0.0000E+00  2.5477E-05  0.0000E+00  0.0000E+00  0.0000E+00  0.0000E+00  0.0000E+00
 16  0.0000E+00  1.6185E-03  0.0000E+00  5.2823E-03  7.8092E-04  0.0000E+00  0.0000E+00  3.8295E-04  0.0000E+00
 17  0.0000E+00  1.8056E-03  0.0000E+00  0.0000E+00  1.3067E-02  0.0000E+00  2.2428E-02  4.3324E-03  0.0000E+00
 18  0.0000E+00  4.3743E-03  7.9586E-05  0.0000E+00  1.2523E-02  2.0388E-02  7.6212E-03  0.0000E+00  0.0000E+00
 19  0.0000E+00  1.3198E-02  0.0000E+00  0.0000E+00  0.0000E+00  0.0000E+00  3.7419E-02  0.0000E+00  0.0000E+00
 20  0.0000E+00  3.1363E-02  5.8508E-02  0.0000E+00  0.0000E+00  0.0000E+00  0.0000E+00  0.0000E+00  0.0000E+00
 21  0.0000E+00  3.8947E-02  0.0000E+00  0.0000E+00  6.8857E-02  3.6833E-02  0.0000E+00  7.6579E-02  2.1045E-02
 22  0.0000E+00  6.5536E-02  0.0000E+00  1.2781E-01  0.0000E+00  0.0000E+00  0.0000E+00  1.9291E-01  0.0000E+00
 23  0.0000E+00  5.6545E-02  8.1879E-02  0.0000E+00  4.7549E-01  0.0000E+00  5.4812E-02  0.0000E+00  0.0000E+00
 24  0.0000E+00  1.9832E-01  6.6820E-01  0.0000E+00  1.1954E-02  4.4502E-02  1.7951E-01  9.4971E-02  0.0000E+00
 25  3.8336E-01  1.6556E-01  0.0000E+00  8.7455E-02  2.4206E-01  2.1697E-01  6.8474E-02  0.0000E+00  6.3280E-01
 26  0.0000E+00  7.6538E-05  0.0000E+00  0.0000E+00  0.0000E+00  0.0000E+00  0.0000E+00  1.1673E-03  2.0766E-04
 27  0.0000E+00  4.5013E-05  0.0000E+00  1.3598E-04  0.0000E+00  0.0000E+00  0.0000E+00  0.0000E+00  0.0000E+00
 28  0.0000E+00  5.4195E-05  5.1678E-05  0.0000E+00  0.0000E+00  0.0000E+00  0.0000E+00  0.0000E+00  0.0000E+00
 29  0.0000E+00  1.1855E-04  1.1923E-04  0.0000E+00  0.0000E+00  0.0000E+00  0.0000E+00  0.0000E+00  0.0000E+00
 30  0.0000E+00  1.1186E-04  0.0000E+00  0.0000E+00  0.0000E+00  0.0000E+00  0.0000E+00  0.0000E+00  0.0000E+00
 31  0.0000E+00  9.9327E-05  0.0000E+00  0.0000E+00  5.4942E-04  0.0000E+00  0.0000E+00  0.0000E+00  7.0249E-04
 32  0.0000E+00  6.4325E-04  9.3873E-04  6.5562E-04  0.0000E+00  0.0000E+00  0.0000E+00  0.0000E+00  5.2253E-04
 33  0.0000E+00  4.3669E-04  0.0000E+00  0.0000E+00  1.4533E-03  0.0000E+00  0.0000E+00  2.8753E-03  0.0000E+00
 34  0.0000E+00  2.7119E-03  3.2655E-03  3.6153E-04  0.0000E+00  1.4080E-03  1.4782E-03  2.7912E-03  3.5191E-03
 35  0.0000E+00  9.8869E-04  4.3281E-04  1.0723E-03  0.0000E+00  0.0000E+00  4.6411E-03  0.0000E+00  0.0000E+00
 36  0.0000E+00  7.4538E-04  0.0000E+00  0.0000E+00  0.0000E+00  0.0000E+00  9.0393E-04  0.0000E+00  0.0000E+00
 37  0.0000E+00  6.3087E-04  0.0000E+00  0.0000E+00  0.0000E+00  0.0000E+00  0.0000E+00  7.9449E-04  0.0000E+00
 38  0.0000E+00  3.5652E-04  0.0000E+00  0.0000E+00  0.0000E+00  0.0000E+00  3.5045E-04  0.0000E+00  0.0000E+00
 39  0.0000E+00  4.1175E-04  0.0000E+00  0.0000E+00  0.0000E+00  0.0000E+00  0.0000E+00  0.0000E+00  0.0000E+00
 40  0.0000E+00  5.5162E-04  0.0000E+00  0.0000E+00  0.0000E+00  0.0000E+00  0.0000E+00  0.0000E+00  0.0000E+00
 41  0.0000E+00  2.0869E-03  0.0000E+00  0.0000E+00  1.4385E-02  0.0000E+00  0.0000E+00  1.6823E-03  0.0000E+00
 42  0.0000E+00  2.3030E-03  0.0000E+00  0.0000E+00  0.0000E+00  0.0000E+00  0.0000E+00  0.0000E+00  1.2665E-02
 43  0.0000E+00  9.0228E-03  0.0000E+00  0.0000E+00  0.0000E+00  0.0000E+00  0.0000E+00  0.0000E+00  5.8058E-02
 44  0.0000E+00  3.9913E-02  0.0000E+00  0.0000E+00  1.0773E-01  4.6726E-02  0.0000E+00  1.1188E-01  0.0000E+00
 45  1.8182E+00  1.8338E+00  1.9306E+00  1.9777E+00  1.8548E+00  2.1607E+00  1.9369E+00  1.7202E+00  1.8349E+00
 46  4.8566E+00  3.9331E+00  3.7152E+00  3.9443E+00  3.9764E+00  3.8171E+00  3.9547E+00  4.0681E+00  4.2041E+00
 47  5.6301E-01  4.8000E-01  7.0036E-01  9.6654E-01  3.9656E-01  7.8832E-01  5.7219E-01  6.3480E-01  4.0224E-01
 48  3.8786E-03  1.3882E-01  0.0000E+00  2.3955E-01  0.0000E+00  1.3830E-01  0.0000E+00  0.0000E+00  2.8707E-02
 49  0.0000E+00  1.4793E-01  0.0000E+00  0.0000E+00  0.0000E+00  9.0778E-02  8.1098E-02  4.1445E-02  3.8419E-04
 50  0.0000E+00  1.1862E-01  0.0000E+00  0.0000E+00  0.0000E+00  0.0000E+00  0.0000E+00  3.9512E-01  0.0000E+00
 51  0.0000E+00  5.3946E-05  0.0000E+00  0.0000E+00  0.0000E+00  3.7984E-04  0.0000E+00  0.0000E+00  0.0000E+00
 52  0.0000E+00  1.5177E-04  3.1705E-04  2.3805E-04  1.5493E-04  1.9050E-04  4.5748E-05  0.0000E+00  0.0000E+00
 53  0.0000E+00  8.9424E-05  0.0000E+00  0.0000E+00  0.0000E+00  0.0000E+00  0.0000E+00  0.0000E+00  1.0957E-04
 54  9.6659E-03  8.7329E-03  8.9994E-03  8.6091E-03  9.3001E-03  8.7346E-03  9.0452E-03  8.4020E-03  9.1466E-03
 55  7.3926E-03  5.8483E-03  5.7833E-03  6.5500E-03  6.4498E-03  6.3018E-03  6.1571E-03  5.4439E-03  5.6427E-03
 56  0.0000E+00  2.1709E-04  9.6967E-05  1.8186E-04  6.3200E-04  0.0000E+00  0.0000E+00  0.0000E+00  3.2072E-06
 57  0.0000E+00  1.2191E-04  0.0000E+00  0.0000E+00  0.0000E+00  0.0000E+00  0.0000E+00  2.8825E-04  0.0000E+00
 58  0.0000E+00  2.4222E-04  0.0000E+00  0.0000E+00  0.0000E+00  0.0000E+00  3.3255E-04  4.8102E-04  0.0000E+00
 59  0.0000E+00  1.7483E-04  0.0000E+00  0.0000E+00  0.0000E+00  0.0000E+00  0.0000E+00  0.0000E+00  0.0000E+00
 60  0.0000E+00  3.8092E-04  0.0000E+00  0.0000E+00  0.0000E+00  0.0000E+00  5.5642E-04  2.5912E-03  0.0000E+00
 61  0.0000E+00  6.5871E-04  0.0000E+00  2.5497E-03  0.0000E+00  2.7925E-04  0.0000E+00  0.0000E+00  0.0000E+00
 62  0.0000E+00  4.8768E-04  0.0000E+00  0.0000E+00  0.0000E+00  0.0000E+00  0.0000E+00  0.0000E+00  0.0000E+00
 63  0.0000E+00  3.7448E-04  0.0000E+00  0.0000E+00  0.0000E+00  0.0000E+00  0.0000E+00  6.6371E-05  0.0000E+00
 64  0.0000E+00  9.5075E-04  0.0000E+00  0.0000E+00  5.6651E-03  0.0000E+00  0.0000E+00  0.0000E+00  0.0000E+00
 65  0.0000E+00  2.3991E-03  6.8192E-03  1.5156E-03  5.0717E-04  0.0000E+00  0.0000E+00  0.0000E+00  0.0000E+00
 66  0.0000E+00  2.7082E-03  9.4769E-04  0.0000E+00  0.0000E+00  0.0000E+00  0.0000E+00  0.0000E+00  0.0000E+00
 67  0.0000E+00  4.0118E-03  2.9070E-02  0.0000E+00  2.0865E-03  0.0000E+00  4.9317E-03  1.2262E-02  0.0000E+00
 68  0.0000E+00  2.5639E-02  0.0000E+00  2.2902E-03  0.0000E+00  0.0000E+00  0.0000E+00  3.0686E-02  1.4400E-02
 69  0.0000E+00  5.1130E-02  0.0000E+00  0.0000E+00  0.0000E+00  3.5758E-02  2.0792E-01  0.0000E+00  0.0000E+00
 70  0.0000E+00  1.0030E-01  0.0000E+00  0.0000E+00  1.0529E-01  0.0000E+00  0.0000E+00  0.0000E+00  0.0000E+00
 71  0.0000E+00  8.9396E-02  1.6268E-02  0.0000E+00  0.0000E+00  0.0000E+00  0.0000E+00  0.0000E+00  0.0000E+00
 72  0.0000E+00  1.4787E-01  3.6014E-01  0.0000E+00  0.0000E+00  0.0000E+00  0.0000E+00  0.0000E+00  1.5714E-01
 73  0.0000E+00  7.1029E-02  0.0000E+00  0.0000E+00  0.0000E+00  0.0000E+00  0.0000E+00  0.0000E+00  0.0000E+00
 74  0.0000E+00  1.1025E-01  0.0000E+00  0.0000E+00  0.0000E+00  0.0000E+00  0.0000E+00  9.6595E-03  0.0000E+00
 75  0.0000E+00  1.1950E-01  7.1862E-02  5.5377E-01  0.0000E+00  0.0000E+00  2.7549E-01  0.0000E+00  1.1402E-01
 76  0.0000E+00  3.6220E-05  0.0000E+00  1.9293E-04  9.7155E-05  0.0000E+00  0.0000E+00  0.0000E+00  0.0000E+00
 77  0.0000E+00  1.0471E-05  0.0000E+00  0.0000E+00  0.0000E+00  0.0000E+00  0.0000E+00  0.0000E+00  0.0000E+00
 78  0.0000E+00  2.3089E-05  0.0000E+00  0.0000E+00  0.0000E+00  0.0000E+00  0.0000E+00  0.0000E+00  0.0000E+00
 79  0.0000E+00  8.3062E-05  0.0000E+00  5.0534E-04  0.0000E+00  0.0000E+00  7.0949E-04  0.0000E+00  0.0000E+00
 80  0.0000E+00  6.8405E-05  9.3129E-06  0.0000E+00  0.0000E+00  4.6183E-04  0.0000E+00  0.0000E+00  0.0000E+00
 81  0.0000E+00  1.3364E-04  0.0000E+00  0.0000E+00  1.6461E-04  0.0000E+00  0.0000E+00  0.0000E+00  0.0000E+00
 82  0.0000E+00  6.4672E-05  1.5374E-04  0.0000E+00  0.0000E+00  0.0000E+00  0.0000E+00  0.0000E+00  0.0000E+00
 83  0.0000E+00  4.3819E-04  0.0000E+00  1.7224E-03  0.0000E+00  0.0000E+00  0.0000E+00  2.5787E-03  1.8703E-04
 84  0.0000E+00  4.2922E-04  0.0000E+00  1.0482E-03  7.9486E-04  0.0000E+00  0.0000E+00  0.0000E+00  0.0000E+00
 85  0.0000E+00  3.1230E-04  1.2725E-03  0.0000E+00  0.0000E+00  0.0000E+00  0.0000E+00  1.3896E-03  2.2532E-03
 86  0.0000E+00  3.3346E-04  0.0000E+00  7.5624E-05  0.0000E+00  1.9364E-03  3.2023E-03  2.1384E-03  0.0000E+00
 87  4.1356E-03  3.9005E-04  0.0000E+00  0.0000E+00  0.0000E+00  3.9984E-03  0.0000E+00  3.8511E-04  0.0000E+00
 88  0.0000E+00  4.5937E-04  0.0000E+00  0.0000E+00  0.0000E+00  0.0000E+00  0.0000E+00  0.0000E+00  0.0000E+00
 89  0.0000E+00  7.4744E-04  0.0000E+00  0.0000E+00  0.0000E+00  0.0000E+00  0.0000E+00  0.0000E+00  0.0000E+00
 90  0.0000E+00  1.6446E-03  0.0000E+00  0.0000E+00  0.0000E+00  0.0000E+00  0.0000E+00  0.0000E+00  0.0000E+00
 91  0.0000E+00  2.9457E-03  0.0000E+00  0.0000E+00  0.0000E+00  0.0000E+00  0.0000E+00  0.0000E+00  0.0000E+00
 92  0.0000E+00  4.0273E-03  0.0000E+00  0.0000E+00  0.0000E+00  0.0000E+00  0.0000E+00  0.0000E+00  0.0000E+00
 93  0.0000E+00  2.6389E-02  0.0000E+00  2.4743E-02  3.4897E-03  0.0000E+00  0.0000E+00  9.1562E-03  8.9429E-02
 94  0.0000E+00  8.8607E-02  9.8602E-02  8.5601E-02  4.0500E-01  0.0000E+00  0.0000E+00  5.0051E-02  6.7302E-01
 95  0.0000E+00  2.4117E-01  1.3845E-02  0.0000E+00  4.5459E-01  0.0000E+00  0.0000E+00  1.4610E-01  2.4187E-01
 96  7.7780E+00  7.8118E+00  7.9074E+00  6.7299E+00  6.6543E+00  7.6345E+00  9.2296E+00  7.3727E+00  7.4876E+00
 97  3.1744E+01  2.9974E+01  2.9921E+01  3.0884E+01  3.1217E+01  3.1422E+01  3.1407E+01  3.0069E+01  3.0098E+01
 98  2.0904E+01  1.9470E+01  2.0413E+01  1.9542E+01  1.9412E+01  2.0339E+01  1.9887E+01  1.9374E+01  1.9866E+01
 99  9.0201E+00  9.4853E+00  9.8551E+00  9.5961E+00  1.0331E+01  9.9664E+00  8.5787E+00  9.6332E+00  9.2757E+00
100  9.8517E+00  1.1070E+01  1.1443E+01  1.1465E+01  1.1411E+01  1.1439E+01  9.8956E+00  1.1987E+01  1.1095E+01
101  0.0000E+00  3.0461E-05  0.0000E+00  0.0000E+00  0.0000E+00  0.0000E+00  0.0000E+00  0.0000E+00  3.5501E-04
102  0.0000E+00  6.2328E-06  0.0000E+00  0.0000E+00  0.0000E+00  0.0000E+00  0.0000E+00  0.0000E+00  0.0000E+00
103  0.0000E+00  6.1741E-05  0.0000E+00  1.8589E-04  0.0000E+00  0.0000E+00  0.0000E+00  2.1162E-04  2.7650E-04
104  0.0000E+00  7.8004E-05  2.8417E-04  0.0000E+00  4.6369E-04  1.2334E-04  0.0000E+00  0.0000E+00  0.0000E+00
105  0.0000E+00  1.2048E-04  0.0000E+00  0.0000E+00  0.0000E+00  0.0000E+00  0.0000E+00  0.0000E+00  0.0000E+00
106  0.0000E+00  2.7765E-04  0.0000E+00  0.0000E+00  0.0000E+00  5.5593E-05  0.0000E+00  0.0000E+00  1.3845E-03
107  0.0000E+00  2.0247E-04  5.7030E-04  0.0000E+00  6.5078E-04  0.0000E+00  0.0000E+00  0.0000E+00  0.0000E+00
108  0.0000E+00  1.7227E-04  0.0000E+00  0.0000E+00  1.3584E-03  8.3650E-04  0.0000E+00  0.0000E+00  0.0000E+00
109  0.0000E+00  2.6481E-04  0.0000E+00  0.0000E+00  0.0000E+00  0.0000E+00  0.0000E+00  0.0000E+00  0.0000E+00
110  0.0000E+00  5.6995E-04  1.7714E-04  0.0000E+00  1.5013E-04  0.0000E+00  0.0000E+00  0.0000E+00  0.0000E+00
111  0.0000E+00  4.2661E-04  6.5747E-03  0.0000E+00  0.0000E+00  7.2246E-04  0.0000E+00  0.0000E+00  0.0000E+00
112  0.0000E+00  4.4517E-04  8.2330E-04  0.0000E+00  0.0000E+00  0.0000E+00  0.0000E+00  0.0000E+00  3.9050E-03
113  0.0000E+00  2.8162E-04  0.0000E+00  0.0000E+00  0.0000E+00  0.0000E+00  0.0000E+00  0.0000E+00  0.0000E+00
114  0.0000E+00  4.7766E-04  0.0000E+00  0.0000E+00  5.2273E-03  0.0000E+00  3.1342E-03  0.0000E+00  0.0000E+00
115  0.0000E+00  1.2081E-03  0.0000E+00  0.0000E+00  0.0000E+00  0.0000E+00  0.0000E+00  0.0000E+00  4.3365E-04
116  0.0000E+00  4.6745E-03  0.0000E+00  0.0000E+00  2.3026E-02  0.0000E+00  7.0207E-03  0.0000E+00  0.0000E+00
117  0.0000E+00  8.4012E-03  2.4069E-02  5.3141E-02  0.0000E+00  0.0000E+00  0.0000E+00  4.2519E-02  0.0000E+00
118  0.0000E+00  3.6136E-02  0.0000E+00  0.0000E+00  0.0000E+00  0.0000E+00  0.0000E+00  0.0000E+00  2.3529E-02
119  0.0000E+00  9.7698E-02  0.0000E+00  3.3197E-01  3.5277E-02  0.0000E+00  1.9442E-01  3.9863E-01  2.6502E-01
120  0.0000E+00  1.7731E-01  3.1434E-01  1.6520E+00  2.9415E-01  0.0000E+00  0.0000E+00  4.1561E-02  2.8955E-01
121  4.9164E-01  2.8394E-01  1.7662E-01  2.7747E-01  0.0000E+00  5.0720E-01  2.9793E-01  4.2966E-01  0.0000E+00
122  0.0000E+00  7.3523E-02  2.9384E-03  0.0000E+00  0.0000E+00  0.0000E+00  5.9174E-02  1.4680E-01  5.0964E-01
123  0.0000E+00  1.9660E-01  1.0677E+00  0.0000E+00  0.0000E+00  0.0000E+00  1.6720E-01  0.0000E+00  0.0000E+00
124  0.0000E+00  2.0415E-01  0.0000E+00  8.5022E-02  0.0000E+00  0.0000E+00  0.0000E+00  0.0000E+00  0.0000E+00
125  0.0000E+00  1.1407E-01  0.0000E+00  6.6364E-02  0.0000E+00  0.0000E+00  0.0000E+00  0.0000E+00  0.0000E+00
126  0.0000E+00  1.0123E-05  0.0000E+00  0.0000E+00  0.0000E+00  1.0851E-04  0.0000E+00  0.0000E+00  0.0000E+00
127  0.0000E+00  3.6369E-05  0.0000E+00  0.0000E+00  0.0000E+00  1.2996E-04  0.0000E+00  0.0000E+00  0.0000E+00
128  0.0000E+00  2.2143E-05  0.0000E+00  0.0000E+00  1.2846E-04  0.0000E+00  0.0000E+00  0.0000E+00  0.0000E+00
129  0.0000E+00  8.0288E-05  0.0000E+00  0.0000E+00  0.0000E+00  4.1092E-05  0.0000E+00  5.2787E-04  0.0000E+00
130  0.0000E+00  1.0022E-04  2.4070E-06  0.0000E+00  0.0000E+00  0.0000E+00  0.0000E+00  0.0000E+00  0.0000E+00
131  0.0000E+00  5.4287E-05  0.0000E+00  0.0000E+00  0.0000E+00  0.0000E+00  0.0000E+00  0.0000E+00  0.0000E+00
132  0.0000E+00  5.5126E-05  0.0000E+00  0.0000E+00  0.0000E+00  0.0000E+00  0.0000E+00  1.4974E-04  0.0000E+00
133  0.0000E+00  1.4556E-04  0.0000E+00  4.0534E-04  0.0000E+00  0.0000E+00  0.0000E+00  0.0000E+00  0.0000E+00
134  0.0000E+00  3.4321E-04  6.3092E-04  1.9628E-03  0.0000E+00  0.0000E+00  0.0000E+00  0.0000E+00  0.0000E+00
135  0.0000E+00  2.1337E-04  1.2757E-05  0.0000E+00  0.0000E+00  2.4118E-03  0.0000E+00  0.0000E+00  0.0000E+00
136  0.0000E+00  8.6085E-04  0.0000E+00  6.1885E-03  0.0000E+00  0.0000E+00  0.0000E+00  0.0000E+00  4.2525E-03
137  0.0000E+00  4.1034E-04  0.0000E+00  0.0000E+00  0.0000E+00  0.0000E+00  0.0000E+00  0.0000E+00  0.0000E+00
138  0.0000E+00  3.5930E-04  0.0000E+00  0.0000E+00  0.0000E+00  0.0000E+00  0.0000E+00  0.0000E+00  0.0000E+00
139  0.0000E+00  7.9904E-04  0.0000E+00  0.0000E+00  0.0000E+00  0.0000E+00  0.0000E+00  0.0000E+00  0.0000E+00
140  0.0000E+00  6.7418E-03  0.0000E+00  0.0000E+00  0.0000E+00  0.0000E+00  0.0000E+00  0.0000E+00  0.0000E+00
141  0.0000E+00  3.0768E-02  7.4683E-02  6.3750E-02  1.1460E-02  0.0000E+00  7.0582E-03  0.0000E+00  0.0000E+00
142  0.0000E+00  5.5222E-02  0.0000E+00  0.0000E+00  2.8184E-02  3.8310E-02  0.0000E+00  3.5633E-02  8.7166E-02
143  9.2925E-01  3.0013E-01  0.0000E+00  1.6510E-01  4.2326E-01  5.4881E-01  1.9918E-01  1.2661E-01  2.8259E-01
144  3.0959E+00  9.1791E-01  8.4482E-01  7.9997E-01  1.1333E+00  8.8846E-01  1.0848E+00  1.1502E+00  9.2820E-01
145  2.7945E+00  1.0181E+00  8.8137E-01  1.0388E+00  9.8763E-01  9.8437E-01  1.1618E+00  1.5434E+00  1.2575E+00
146  2.0513E+00  1.3626E+00  1.4107E+00  1.4699E+00  1.5713E+00  1.1239E+00  1.8614E+00  1.5271E+00  1.3853E+00
147  0.0000E+00  1.6709E+00  1.4603E+00  1.1775E+00  1.1924E+00  0.0000E+00  1.6979E+00  1.5516E+00  2.6590E+00
148  1.3632E+00  2.7190E+00  2.8642E+00  2.7003E+00  3.8129E+00  2.5948E+00  2.3065E+00  2.5100E+00  1.7616E+00
149  2.6384E-01  2.0296E+00  2.2960E+00  2.0558E+00  8.2737E-01  2.2806E+00  1.6515E+00  1.9720E+00  1.5421E+00
150  1.9949E+00  2.4000E+00  1.1898E+00  1.7292E+00  2.3886E+00  2.7370E+00  2.7977E+00  2.3863E+00  2.5986E+00

# AV, chi2 & Mass for <> & i_chain = 1 ...  7 solutions
AV       1.3946      1.3929      1.3964      1.3959      1.3934      1.3935      1.3950      1.3906      1.3938
chi2 2.2006E+00  2.2200E+00  2.2124E+00  2.2152E+00  2.2130E+00  2.2102E+00  2.2114E+00  2.2139E+00  2.2141E+00
Mass 8.0689E-10  8.3780E-10  8.4365E-10  8.3641E-10  8.3611E-10  8.3668E-10  8.3201E-10  8.3940E-10  8.3322E-10
   7.31                                  [v0_min (km/s) before EX0s...]
  57.52                                  [vd_min (km/s) before EX0s...]


## Synthetic spectrum (Best Model) ##l_obs f_obs f_syn wei
 3070    [Nl_obs]
 3359.00    0.00000   0.43619   -2.000
 3360.00    0.17953   0.41280   -1.000
 3361.00    0.19151   0.41146   -1.000
 3362.00    0.21467   0.43135   -1.000
 3363.00    0.24258   0.46073   -1.000
 3364.00    0.26243   0.48356   -1.000
 3365.00    0.28992   0.48904   -1.000
 3366.00    0.28761   0.47858   -1.000
 3367.00    0.29679   0.46180   -1.000
 3368.00    0.28894   0.44598   -1.000
 3369.00    0.26477   0.43515   -1.000
 3370.00    0.25721   0.42769   -1.000
 3371.00    0.24218   0.42279   -1.000
 3372.00    0.23721   0.42417   -1.000
 3373.00    0.25751   0.43680   -1.000
 3374.00    0.28444   0.45983   -1.000
 3375.00    0.28773   0.48594   -1.000
 3376.00    0.31256   0.50299   -1.000
 3377.00    0.34266   0.50213   -1.000
 3378.00    0.34259   0.48580   -1.000
 3379.00    0.34273   0.46781   -1.000
 3380.00    0.32491   0.45992   -1.000
 3381.00    0.32342   0.46480   -1.000
 3382.00    0.33885   0.47677   -1.000
 3383.00    0.32884   0.48821   -1.000
 3384.00    0.34916   0.49673   -1.000
 3385.00    0.34847   0.50374   -1.000
 3386.00    0.34322   0.50658   -1.000
 3387.00    0.34312   0.50504   -1.000
 3388.00    0.35421   0.50351   -1.000
 3389.00    0.34894   0.50420   -1.000
 3390.00    0.35364   0.50417   -1.000
 3391.00    0.35607   0.49856   -1.000
 3392.00    0.37014   0.48806   -1.000
 3393.00    0.35532   0.48188   -1.000
 3394.00    0.36173   0.48731   -1.000
 3395.00    0.37364   0.50210   -1.000
 3396.00    0.38482   0.51880   -1.000
 3397.00    0.38943   0.53286   -1.000
 3398.00    0.40973   0.54316   -1.000
 3399.00    0.44368   0.54648   -1.000
 3400.00    0.44867   0.54235   -1.000
 3401.00    0.44291   0.53343   -1.000
 3402.00    0.42803   0.52037   -1.000
 3403.00    0.42228   0.50868   -1.000
 3404.00    0.42788   0.50191   -1.000
 3405.00    0.42477   0.49870   -1.000
 3406.00    0.41307   0.49537   -1.000
 3407.00    0.42353   0.49132   -1.000
 3408.00    0.41172   0.48920   -1.000
 3409.00    0.39123   0.49162   -1.000
 3410.00    0.39948   0.49724   -1.000
 3411.00    0.42452   0.49831   -1.000
 3412.00    0.42153   0.49190   -1.000
 3413.00    0.42551   0.48188   -1.000
 3414.00    0.39271   0.47581   -1.000
 3415.00    0.38119   0.47972   -1.000
 3416.00    0.37897   0.49196   -1.000
 3417.00    0.41438   0.50868   -1.000
 3418.00    0.44919   0.52573   -1.000
 3419.00    0.44822   0.53979   -1.000
 3420.00    0.43411   0.54606   -1.000
 3421.00    0.44486   0.54117   -1.000
 3422.00    0.46381   0.52740   -1.000
 3423.00    0.44900   0.51567   -1.000
 3424.00    0.44229   0.51295   -1.000
 3425.00    0.46070   0.51610   -1.000
 3426.00    0.45779   0.52056   -1.000
 3427.00    0.45302   0.52750   -1.000
 3428.00    0.47060   0.54061   -1.000
 3429.00    0.47787   0.55624   -1.000
 3430.00    0.48535   0.56148   -1.000
 3431.00    0.49069   0.55091   -1.000
 3432.00    0.47530   0.53315   -1.000
 3433.00    0.46647   0.52199   -1.000
 3434.00    0.46349   0.52459   -1.000
 3435.00    0.47769   0.53336   -1.000
 3436.00    0.48460   0.53577   -1.000
 3437.00    0.44981   0.52757   -1.000
 3438.00    0.46167   0.51091   -1.000
 3439.00    0.45303   0.48715   79.428
 3440.00    0.40858   0.46157   -1.000
 3441.00    0.42168   0.44232   89.430
 3442.00    0.42073   0.43571   89.961
 3443.00    0.39693   0.44140   -1.000
 3444.00    0.40283   0.45355   -1.000
 3445.00    0.43742   0.46709   81.808
 3446.00    0.44180   0.48302   -1.000
 3447.00    0.47312   0.50171   74.423
 3448.00    0.46362   0.52117   -1.000
 3449.00    0.46173   0.53637   -1.000
 3450.00    0.48795   0.53857   -1.000
 3451.00    0.49147   0.52680   -1.000
 3452.00    0.49351   0.51308   -1.000
 3453.00    0.49562   0.50813   -1.000
 3454.00    0.48778   0.51272   -1.000
 3455.00    0.48665   0.51897   -1.000
 3456.00    0.48944   0.51807   -1.000
 3457.00    0.49570   0.50813   -1.000
 3458.00    0.48874   0.49351  586.018
 3459.00    0.47210   0.48079   81.200
 3460.00    0.47596   0.47301   73.116
 3461.00    0.47010   0.47412   72.795
 3462.00    0.48418   0.48713  339.667
 3463.00    0.49595   0.50548   -1.000
 3464.00    0.51369   0.51398  586.018
 3465.00    0.51129   0.51167  586.018
 3466.00    0.50929   0.50942  586.018
 3467.00    0.51008   0.51454  586.018
 3468.00    0.53581   0.52707   -1.000
 3469.00    0.53982   0.54020  586.018
 3470.00    0.53791   0.54511   -1.000
 3471.00    0.54199   0.53766  586.018
 3472.00    0.52422   0.52159  586.018
 3473.00    0.50919   0.50069   -1.000
 3474.00    0.51650   0.47949   -1.000
 3475.00    0.48754   0.46410   81.926
 3476.00    0.46660   0.46130   75.268
 3477.00    0.47705   0.47189   74.118
 3478.00    0.48706   0.48868  338.536
 3479.00    0.49441   0.50437   -1.000
 3480.00    0.51628   0.51568  586.018
 3481.00    0.53270   0.51934   -1.000
 3482.00    0.53447   0.51414   -1.000
 3483.00    0.53442   0.50606   -1.000
 3484.00    0.53873   0.50502   -1.000
 3485.00    0.52291   0.51639   -1.000
 3486.00    0.53921   0.53205   -1.000
 3487.00    0.55740   0.53942   -1.000
 3488.00    0.54956   0.53196   -1.000
 3489.00    0.55489   0.51325   -1.000
 3490.00    0.52021   0.49527   -1.000
 3491.00    0.51048   0.48871   -1.000
 3492.00    0.50898   0.49379   -1.000
 3493.00    0.50719   0.50160   -1.000
 3494.00    0.49935   0.50412  586.018
 3495.00    0.50477   0.49830   -1.000
 3496.00    0.49568   0.49024   -1.000
 3497.00    0.49681   0.49256  586.018
 3498.00    0.51873   0.50864   -1.000
 3499.00    0.54550   0.52898   -1.000
 3500.00    0.54237   0.54117  580.915
 3501.00    0.55911   0.54621   -1.000
 3502.00    0.55023   0.55182  564.475
 3503.00    0.55883   0.55556  560.074
 3504.00    0.55427   0.55166  573.822
 3505.00    0.54879   0.54142   -1.000
 3506.00    0.55373   0.53209   -1.000
 3507.00    0.54373   0.52916   -1.000
 3508.00    0.54960   0.52922   -1.000
 3509.00    0.56021   0.52571   -1.000
 3510.00    0.55430   0.51845   -1.000
 3511.00    0.55669   0.51003   -1.000
 3512.00    0.54494   0.50042   -1.000
 3513.00    0.54141   0.49096   -1.000
 3514.00    0.52414   0.48885   -1.000
 3515.00    0.52748   0.50179   -1.000
 3516.00    0.55806   0.52743   -1.000
 3517.00    0.56396   0.55132   -1.000
 3518.00    0.58000   0.56054   -1.000
 3519.00    0.58754   0.55154   -1.000
 3520.00    0.54974   0.53288   -1.000
 3521.00    0.53136   0.51435   -1.000
 3522.00    0.52252   0.49980   -1.000
 3523.00    0.51725   0.48657   -1.000
 3524.00    0.50830   0.47285   -1.000
 3525.00    0.45560   0.46438   74.505
 3526.00    0.47087   0.47094   74.385
 3527.00    0.49960   0.49201   -1.000
 3528.00    0.51298   0.51900   -1.000
 3529.00    0.54232   0.54028  586.018
 3530.00    0.55134   0.54905  586.018
 3531.00    0.56259   0.54736   -1.000
 3532.00    0.55037   0.54356   -1.000
 3533.00    0.54609   0.54329  586.018
 3534.00    0.55630   0.54651   -1.000
 3535.00    0.54934   0.55110  586.018
 3536.00    0.55581   0.55612  578.668
 3537.00    0.56565   0.56301  580.617
 3538.00    0.57207   0.57242  575.376
 3539.00    0.58751   0.57915   -1.000
 3540.00    0.58697   0.57847   -1.000
 3541.00    0.57043   0.57283  581.896
 3542.00    0.55731   0.56981   -1.000
 3543.00    0.56898   0.57388   -1.000
 3544.00    0.56828   0.58048   -1.000
 3545.00    0.55250   0.58295   -1.000
 3546.00    0.55519   0.57995   -1.000
 3547.00    0.53694   0.57556   -1.000
 3548.00    0.53346   0.57397   -1.000
 3549.00    0.55533   0.57554   -1.000
 3550.00    0.55890   0.57677   -1.000
 3551.00    0.56440   0.57343   -1.000
 3552.00    0.52829   0.56424   -1.000
 3553.00    0.53216   0.55300   -1.000
 3554.00    0.51590   0.54654   -1.000
 3555.00    0.52328   0.54780   -1.000
 3556.00    0.52126   0.55220   -1.000
 3557.00    0.54814   0.55506   -1.000
 3558.00    0.53153   0.55459   -1.000
 3559.00    0.53593   0.55327   -1.000
 3560.00    0.52122   0.55576   -1.000
 3561.00    0.53574   0.56337   -1.000
 3562.00    0.54125   0.56949   -1.000
 3563.00    0.53962   0.56183   -1.000
 3564.00    0.52889   0.53705   -1.000
 3565.00    0.47643   0.50711   82.264
 3566.00    0.46320   0.48912   75.568
 3567.00    0.47285   0.48623   75.157
 3568.00    0.48027   0.48652   74.682
 3569.00    0.47590   0.48072   76.886
 3570.00    0.46558   0.47267   78.450
 3571.00    0.45698   0.47061   76.430
 3572.00    0.47357   0.47755   73.114
 3573.00    0.49881   0.48778   -1.000
 3574.00    0.50242   0.49631   -1.000
 3575.00    0.52356   0.50307   -1.000
 3576.00    0.50572   0.50733  586.018
 3577.00    0.50458   0.50569  586.018
 3578.00    0.51450   0.49649   -1.000
 3579.00    0.48639   0.47936   85.102
 3580.00    0.44890   0.45986   80.633
 3581.00    0.44376   0.44591   85.309
 3582.00    0.44389   0.44311   86.345
 3583.00    0.43396   0.44739   86.719
 3584.00    0.43322   0.44684   88.697
 3585.00    0.42474   0.43822   91.552
 3586.00    0.40579   0.42991   93.051
 3587.00    0.40355   0.43102   89.011
 3588.00    0.43379   0.44411   84.281
 3589.00    0.45061   0.46721   80.161
 3590.00    0.47643   0.49414   73.334
 3591.00    0.51509   0.51589  325.974
 3592.00    0.52548   0.52630  586.018
 3593.00    0.52423   0.52939   -1.000
 3594.00    0.52539   0.53495   -1.000
 3595.00    0.55345   0.54761  586.018
 3596.00    0.57377   0.56342   -1.000
 3597.00    0.56972   0.57592   -1.000
 3598.00    0.57743   0.58448   -1.000
 3599.00    0.58675   0.59039  542.779
 3600.00    0.59339   0.58911  547.538
 3601.00    0.57530   0.57523  571.659
 3602.00    0.56117   0.55355   -1.000
 3603.00    0.57106   0.53307   -1.000
 3604.00    0.55298   0.52130   -1.000
 3605.00    0.53165   0.51864   -1.000
 3606.00    0.53457   0.51813   -1.000
 3607.00    0.53427   0.51251   -1.000
 3608.00    0.52139   0.50217   -1.000
 3609.00    0.50294   0.49579   -1.000
 3610.00    0.49663   0.49963  586.018
 3611.00    0.51216   0.51157  586.018
 3612.00    0.52783   0.52372  586.018
 3613.00    0.52886   0.53320   -1.000
 3614.00    0.53799   0.54396   -1.000
 3615.00    0.55344   0.55478  586.018
 3616.00    0.57548   0.55377   -1.000
 3617.00    0.54494   0.53431   -1.000
 3618.00    0.51568   0.50649   -1.000
 3619.00    0.48966   0.49218   81.266
 3620.00    0.49737   0.50232  324.239
 3621.00    0.54310   0.52941   -1.000
 3622.00    0.57277   0.55707   -1.000
 3623.00    0.57064   0.57520   -1.000
 3624.00    0.56160   0.58866   -1.000
 3625.00    0.58184   0.60692   -1.000
 3626.00    0.60383   0.62851   -1.000
 3627.00    0.62043   0.64258   -1.000
 3628.00    0.60130   0.63647   -1.000
 3629.00    0.58773   0.60619   -1.000
 3630.00    0.54609   0.56198   -1.000
 3631.00    0.52811   0.52661  586.018
 3632.00    0.50823   0.51477   -1.000
 3633.00    0.50515   0.52438   -1.000
 3634.00    0.51267   0.54251   -1.000
 3635.00    0.54818   0.55734   -1.000
 3636.00    0.56657   0.56713  586.018
 3637.00    0.56794   0.57892   -1.000
 3638.00    0.59759   0.59546  543.106
 3639.00    0.60772   0.61043  524.196
 3640.00    0.61657   0.61653  521.644
 3641.00    0.60285   0.61066   -1.000
 3642.00    0.58794   0.59520   -1.000
 3643.00    0.56498   0.57649   -1.000
 3644.00    0.54761   0.55987   -1.000
 3645.00    0.54816   0.54700  586.018
 3646.00    0.54399   0.53653   -1.000
 3647.00    0.54019   0.52882   -1.000
 3648.00    0.53653   0.52808   -1.000
 3649.00    0.53324   0.53637  586.018
 3650.00    0.54568   0.55301   -1.000
 3651.00    0.57657   0.57453  564.035
 3652.00    0.59878   0.59619  539.933
 3653.00    0.58456   0.61219   -1.000
 3654.00    0.60109   0.62203   -1.000
 3655.00    0.61502   0.62974   -1.000
 3656.00    0.61438   0.63867   -1.000
 3657.00    0.62136   0.64849   -1.000
 3658.00    0.64206   0.65514   -1.000
 3659.00    0.62906   0.65683   -1.000
 3660.00    0.62587   0.65365   -1.000
 3661.00    0.62470   0.64557   -1.000
 3662.00    0.63795   0.63407  506.074
 3663.00    0.62306   0.62504  514.418
 3664.00    0.61258   0.62259   -1.000
 3665.00    0.61492   0.62466   -1.000
 3666.00    0.63023   0.62560  513.275
 3667.00    0.62886   0.62074   -1.000
 3668.00    0.61174   0.61125  529.357
 3669.00    0.60115   0.60439  541.686
 3670.00    0.60235   0.60758   -1.000
 3671.00    0.61104   0.62008   -1.000
 3672.00    0.61098   0.63329   -1.000
 3673.00    0.62624   0.64025   -1.000
 3674.00    0.64862   0.64003   -1.000
 3675.00    0.62534   0.63268   -1.000
 3676.00    0.60795   0.61790   -1.000
 3677.00    0.62539   0.59856   -1.000
 3678.00    0.60366   0.58062   -1.000
 3679.00    0.57681   0.57073  569.306
 3680.00    0.56827   0.57278   -1.000
 3681.00    0.60572   0.58401   -1.000
 3682.00    0.62414   0.59601   -1.000
 3683.00    0.61193   0.60154   -1.000
 3684.00    0.60183   0.59615  544.858
 3685.00    0.58866   0.57961   -1.000
 3686.00    0.57434   0.56062   -1.000
 3687.00    0.54507   0.55474   -1.000
 3688.00    0.56077   0.56978   -1.000
 3689.00    0.59112   0.59972   -1.000
 3690.00    0.62444   0.62879  514.595
 3691.00    0.62636   0.64500   -1.000
 3692.00    0.63393   0.64744   -1.000
 3693.00    0.63074   0.64211   -1.000
 3694.00    0.62909   0.63636   -1.000
 3695.00    0.61470   0.63234   -1.000
 3696.00    0.63731   0.62993   -1.000
 3697.00    0.63528   0.63438  507.578
 3698.00    0.63313   0.65125   -1.000
 3699.00    0.66535   0.67509   -1.000
 3700.00    0.68641   0.69145  472.047
 3701.00    0.68306   0.68606  479.369
 3702.00    0.65646   0.65439  500.028
 3703.00    0.61675   0.60468   -1.000
 3704.00    0.56744   0.55795   -1.000
 3705.00    0.54109   0.53130   -1.000
 3706.00    0.55113   0.52961   -1.000
 3707.00    0.57187   0.54327   -1.000
 3708.00    0.57004   0.55889   -1.000
 3709.00    0.57555   0.56960   -1.000
 3710.00    0.58267   0.57777  563.626
 3711.00    0.58874   0.58952  537.951
 3712.00    0.61638   0.60972   -1.000
 3713.00    0.64818   0.63792   -1.000
 3714.00    0.67752   0.66575   -1.000
 3715.00    0.69724   0.68314   -1.000
 3716.00    0.69526   0.68520   -1.000
 3717.00    0.68021   0.66995   -1.000
 3718.00    0.64312   0.63246   -1.000
 3719.00    0.58469   0.57447   -1.000
 3720.00    0.52791   0.51363   -1.000
 3721.00    0.49632   0.47765   83.209
 3722.00    0.49892   0.47970   -1.000
 3723.00    0.55336   0.51600   -1.000
 3724.00    0.61967   0.57206   -1.000
 3725.00    0.65111   0.62055   -1.000
 3726.00    0.65386   0.64034   -1.000
 3727.00    0.63605   0.64081  540.750
 3728.00    0.62988   0.64180   -1.000
 3729.00    0.63836   0.64651   -1.000
 3730.00    0.63765   0.64174  543.125
 3731.00    0.60627   0.61301   -1.000
 3732.00    0.57342   0.55838   -1.000
 3733.00    0.52129   0.49573   81.575
 3734.00    0.47759   0.44615   79.451
 3735.00    0.45659   0.42634   83.292
 3736.00    0.46295   0.44237   79.981
 3737.00    0.50439   0.48850   72.832
 3738.00    0.56618   0.54968   -1.000
 3739.00    0.60638   0.61060  579.268
 3740.00    0.64172   0.65230   -1.000
 3741.00    0.66761   0.66413  536.495
 3742.00    0.64167   0.64952   -1.000
 3743.00    0.59751   0.62238   -1.000
 3744.00    0.59369   0.59390  586.018
 3745.00    0.57918   0.56774   -1.000
 3746.00    0.55782   0.54048   -1.000
 3747.00    0.51595   0.50719   82.890
 3748.00    0.48702   0.47168   77.092
 3749.00    0.45700   0.44877   78.454
 3750.00    0.48947   0.45753   -1.000
 3751.00    0.53586   0.50116   -1.000
 3752.00    0.60389   0.56293   -1.000
 3753.00    0.64349   0.62381   -1.000
 3754.00    0.68386   0.67147   -1.000
 3755.00    0.70496   0.69316   -1.000
 3756.00    0.68397   0.68161  503.081
 3757.00    0.63891   0.64299  565.215
 3758.00    0.59619   0.60076  586.018
 3759.00    0.59040   0.58055   -1.000
 3760.00    0.60135   0.58518   -1.000
 3761.00    0.63392   0.60102   -1.000
 3762.00    0.65620   0.61579   -1.000
 3763.00    0.65829   0.62454   -1.000
 3764.00    0.65414   0.62762   -1.000
 3765.00    0.64443   0.62384   -1.000
 3766.00    0.63726   0.61183   -1.000
 3767.00    0.62472   0.59568   -1.000
 3768.00    0.60752   0.57859   -1.000
 3769.00    0.59483   0.56148   -1.000
 3770.00    0.59072   0.55121   -1.000
 3771.00    0.60338   0.56051   -1.000
 3772.00    0.62917   0.59098   -1.000
 3773.00    0.65398   0.62753   -1.000
 3774.00    0.67934   0.65448   -1.000
 3775.00    0.67427   0.67035  498.617
 3776.00    0.69092   0.68310   -1.000
 3777.00    0.70973   0.69907   -1.000
 3778.00    0.71660   0.71915  489.748
 3779.00    0.73959   0.73948  474.276
 3780.00    0.76375   0.75660   -1.000
 3781.00    0.77439   0.76723   -1.000
 3782.00    0.76155   0.77062   -1.000
 3783.00    0.76087   0.76835   -1.000
 3784.00    0.76820   0.75792   -1.000
 3785.00    0.74647   0.73456   -1.000
 3786.00    0.71791   0.70199   -1.000
 3787.00    0.67303   0.67136  551.957
 3788.00    0.65615   0.65268  564.184
 3789.00    0.65367   0.64957  564.984
 3790.00    0.65825   0.65670  555.926
 3791.00    0.66531   0.66315  549.716
 3792.00    0.66510   0.65884   -1.000
 3793.00    0.64715   0.63922   -1.000
 3794.00    0.61848   0.60848   -1.000
 3795.00    0.59752   0.57270   -1.000
 3796.00    0.56897   0.53519   -1.000
 3797.00    0.54443   0.49995   -1.000
 3798.00    0.51958   0.48241   -1.000
 3799.00    0.54054   0.50006   -1.000
 3800.00    0.58069   0.55168   -1.000
 3801.00    0.62737   0.61489   -1.000
 3802.00    0.67172   0.66937  523.900
 3803.00    0.70248   0.70515  511.064
 3804.00    0.71551   0.72066  507.222
 3805.00    0.71342   0.71756  513.836
 3806.00    0.69518   0.70501   -1.000
 3807.00    0.67397   0.69923   -1.000
 3808.00    0.67627   0.70921   -1.000
 3809.00    0.71593   0.72979   -1.000
 3810.00    0.73968   0.74590   -1.000
 3811.00    0.73797   0.74243  512.968
 3812.00    0.70294   0.71435   -1.000
 3813.00    0.67361   0.67319  571.935
 3814.00    0.64870   0.63737   -1.000
 3815.00    0.63008   0.62145   -1.000
 3816.00    0.63964   0.62700   -1.000
 3817.00    0.65484   0.64023   -1.000
 3818.00    0.65453   0.64126   -1.000
 3819.00    0.62682   0.62274  586.018
 3820.00    0.60175   0.60180  586.018
 3821.00    0.59773   0.59864  586.018
 3822.00    0.62083   0.61122   -1.000
 3823.00    0.63220   0.61574   -1.000
 3824.00    0.59917   0.59785  586.018
 3825.00    0.56936   0.57139   85.933
 3826.00    0.54650   0.55436   76.851
 3827.00    0.54779   0.55048   76.452
 3828.00    0.55926   0.55387   75.273
 3829.00    0.55789   0.55730   74.034
 3830.00    0.55093   0.55299   74.710
 3831.00    0.51742   0.53354   77.845
 3832.00    0.47897   0.49965   83.800
 3833.00    0.46730   0.46127   86.875
 3834.00    0.45742   0.43265   85.642
 3835.00    0.45334   0.42276   82.347
 3836.00    0.46913   0.43057   -1.000
 3837.00    0.47339   0.44886   81.685
 3838.00    0.47133   0.47003   83.655
 3839.00    0.49723   0.49359   82.563
 3840.00    0.52322   0.52405   78.174
 3841.00    0.55528   0.56509  334.340
 3842.00    0.59757   0.61017   -1.000
 3843.00    0.64279   0.64887   -1.000
 3844.00    0.66514   0.67397   -1.000
 3845.00    0.66927   0.68679   -1.000
 3846.00    0.68051   0.69384   -1.000
 3847.00    0.68249   0.69698   -1.000
 3848.00    0.67497   0.69212   -1.000
 3849.00    0.66408   0.68140   -1.000
 3850.00    0.65681   0.67550   -1.000
 3851.00    0.65599   0.68232   -1.000
 3852.00    0.66821   0.69531   -1.000
 3853.00    0.67225   0.70114   -1.000
 3854.00    0.66943   0.69466   -1.000
 3855.00    0.65124   0.68017   -1.000
 3856.00    0.65475   0.66460   -1.000
 3857.00    0.65440   0.65013  586.018
 3858.00    0.62124   0.63490   81.470
 3859.00    0.59702   0.62431   75.376
 3860.00    0.59512   0.62995   74.446
 3861.00    0.62866   0.65435   -1.000
 3862.00    0.67005   0.68389   -1.000
 3863.00    0.70077   0.70147  573.792
 3864.00    0.68760   0.70380   -1.000
 3865.00    0.68008   0.69863   -1.000
 3866.00    0.68719   0.69501   -1.000
 3867.00    0.69366   0.69628  586.018
 3868.00    0.67868   0.69720   -1.000
 3869.00    0.66744   0.69052   -1.000
 3870.00    0.64573   0.67348   -1.000
 3871.00    0.60677   0.65229   -1.000
 3872.00    0.59688   0.63875   -1.000
 3873.00    0.63055   0.64560   -1.000
 3874.00    0.65735   0.67131   -1.000
 3875.00    0.68185   0.69476   -1.000
 3876.00    0.68905   0.69441  572.317
 3877.00    0.65986   0.67191   -1.000
 3878.00    0.62287   0.65026   -1.000
 3879.00    0.61127   0.64528   -1.000
 3880.00    0.61486   0.65078   -1.000
 3881.00    0.60298   0.65376   -1.000
 3882.00    0.59537   0.65099   -1.000
 3883.00    0.62746   0.64742   -1.000
 3884.00    0.65135   0.63769   -1.000
 3885.00    0.63993   0.60958   -1.000
 3886.00    0.61788   0.56626   -1.000
 3887.00    0.58929   0.52305   -1.000
 3888.00    0.55693   0.49768   -1.000
 3889.00    0.55548   0.50243   -1.000
 3890.00    0.59951   0.53945   -1.000
 3891.00    0.65502   0.59637   -1.000
 3892.00    0.69790   0.64943   -1.000
 3893.00    0.71029   0.67989   -1.000
 3894.00    0.70452   0.69071   -1.000
 3895.00    0.71427   0.69670   -1.000
 3896.00    0.73097   0.70641   -1.000
 3897.00    0.74257   0.71674   -1.000
 3898.00    0.73782   0.72005   -1.000
 3899.00    0.72884   0.71717   -1.000
 3900.00    0.72963   0.71771   -1.000
 3901.00    0.73968   0.72507   -1.000
 3902.00    0.73608   0.73082  476.921
 3903.00    0.73040   0.72752  495.704
 3904.00    0.72036   0.71634  508.884
 3905.00    0.72259   0.70548   -1.000
 3906.00    0.72180   0.70722   -1.000
 3907.00    0.72926   0.72918  494.074
 3908.00    0.77022   0.76258   -1.000
 3909.00    0.80255   0.79099   -1.000
 3910.00    0.81343   0.80728   -1.000
 3911.00    0.82258   0.81325   -1.000
 3912.00    0.82461   0.80950   -1.000
 3913.00    0.82279   0.79756   -1.000
 3914.00    0.81402   0.78376   -1.000
 3915.00    0.80534   0.77529   -1.000
 3916.00    0.78998   0.77168   -1.000
 3917.00    0.77619   0.76671   -1.000
 3918.00    0.77726   0.75541   -1.000
 3919.00    0.74330   0.73643   -1.000
 3920.00    0.72095   0.71669  529.989
 3921.00    0.70847   0.70553  542.607
 3922.00    0.71128   0.70543   -1.000
 3923.00    0.73154   0.71085   -1.000
 3924.00    0.71898   0.71264   -1.000
 3925.00    0.70173   0.70282  556.644
 3926.00    0.67786   0.67639  586.018
 3927.00    0.61673   0.63628   -1.000
 3928.00    0.55406   0.58913   91.181
 3929.00    0.49664   0.54062   -1.000
 3930.00    0.44333   0.49140   -1.000
 3931.00    0.39034   0.43780   -1.000
 3932.00    0.33427   0.38250   -1.000
 3933.00    0.28519   0.34155   -1.000
 3934.00    0.28136   0.33618   -1.000
 3935.00    0.31182   0.37015   -1.000
 3936.00    0.37354   0.42736   -1.000
 3937.00    0.44328   0.49014   -1.000
 3938.00    0.51281   0.55052   80.047
 3939.00    0.56812   0.60282   -1.000
 3940.00    0.61189   0.64250   -1.000
 3941.00    0.64150   0.66570   -1.000
 3942.00    0.65697   0.67327   -1.000
 3943.00    0.65542   0.67609   -1.000
 3944.00    0.67711   0.68632   -1.000
 3945.00    0.71748   0.70679   -1.000
 3946.00    0.74419   0.72950   -1.000
 3947.00    0.75376   0.74466   -1.000
 3948.00    0.75573   0.75233  489.066
 3949.00    0.76044   0.75951  472.720
 3950.00    0.77741   0.76730   -1.000
 3951.00    0.78241   0.77065   -1.000
 3952.00    0.78183   0.77231   -1.000
 3953.00    0.78342   0.77977  456.869
 3954.00    0.81539   0.78826   -1.000
 3955.00    0.80718   0.78721   -1.000
 3956.00    0.78792   0.77689   -1.000
 3957.00    0.75524   0.76708   -1.000
 3958.00    0.76669   0.76349  466.043
 3959.00    0.77021   0.75497   -1.000
 3960.00    0.73753   0.72526   -1.000
 3961.00    0.66872   0.67963   -1.000
 3962.00    0.62002   0.63565   -1.000
 3963.00    0.58333   0.60041   -1.000
 3964.00    0.55417   0.56464   85.984
 3965.00    0.49331   0.51388   86.175
 3966.00    0.41847   0.44536  105.571
 3967.00    0.33007   0.37064   -1.000
 3968.00    0.27945   0.31349   -1.000
 3969.00    0.27562   0.29497  137.715
 3970.00    0.31074   0.31985  115.018
 3971.00    0.38767   0.37805   94.502
 3972.00    0.47105   0.45221   78.899
 3973.00    0.54678   0.52603   -1.000
 3974.00    0.60399   0.59313   -1.000
 3975.00    0.66541   0.65140   -1.000
 3976.00    0.71684   0.70087   -1.000
 3977.00    0.74831   0.74373  463.450
 3978.00    0.78990   0.78126   -1.000
 3979.00    0.82950   0.81153   -1.000
 3980.00    0.85742   0.82759   -1.000
 3981.00    0.85750   0.82803   -1.000
 3982.00    0.85212   0.82162   -1.000
 3983.00    0.84423   0.82159   -1.000
 3984.00    0.85602   0.83386   -1.000
 3985.00    0.86966   0.85079   -1.000
 3986.00    0.89437   0.86436   -1.000
 3987.00    0.90410   0.87479   -1.000
 3988.00    0.90046   0.88330   -1.000
 3989.00    0.89779   0.88842  382.343
 3990.00    0.91690   0.89307   -1.000
 3991.00    0.92934   0.90181   -1.000
 3992.00    0.93571   0.91367   -1.000
 3993.00    0.93500   0.92192   -1.000
 3994.00    0.93815   0.91918   -1.000
 3995.00    0.92403   0.90423   -1.000
 3996.00    0.91066   0.88544   -1.000
 3997.00    0.89937   0.87631   -1.000
 3998.00    0.90098   0.88413   -1.000
 3999.00    0.93694   0.90455   -1.000
 4000.00    0.96881   0.92559   -1.000
 4001.00    0.98186   0.93902   -1.000
 4002.00    0.98139   0.94105   -1.000
 4003.00    0.98045   0.92841   -1.000
 4004.00    0.95729   0.90171   -1.000
 4005.00    0.91232   0.87582   -1.000
 4006.00    0.89801   0.87265   -1.000
 4007.00    0.93837   0.89547   -1.000
 4008.00    0.96134   0.92650   -1.000
 4009.00    0.98058   0.94825   -1.000
 4010.00    0.99730   0.95807   -1.000
 4011.00    1.01003   0.96011   -1.000
 4012.00    0.98860   0.95899   -1.000
 4013.00    0.97542   0.96074   -1.000
 4014.00    1.01099   0.96672   -1.000
 4015.00    1.01275   0.97225   -1.000
 4016.00    1.00000   0.97484   -1.000
 4017.00    0.99208   0.97679   -1.000
 4018.00    0.99136   0.98217   -1.000
 4019.00    0.99888   0.98989   -1.000
 4020.00    0.99456   0.99405  342.919
 4021.00    0.99500   0.99051  347.523
 4022.00    1.00425   0.98026   -1.000
 4023.00    1.00362   0.96628   -1.000
 4024.00    0.98871   0.95426   -1.000
 4025.00    0.98396   0.95471   -1.000
 4026.00    1.01166   0.97237   -1.000
 4027.00    1.04866   0.99351   -1.000
 4028.00    1.04625   0.99731   -1.000
 4029.00    1.00602   0.97573   -1.000
 4030.00    0.96650   0.93872   -1.000
 4031.00    0.93111   0.90525   -1.000
 4032.00    0.92786   0.88845   -1.000
 4033.00    0.94007   0.89105   -1.000
 4034.00    0.94693   0.91093   -1.000
 4035.00    0.96948   0.94464   -1.000
 4036.00    1.01011   0.98470   -1.000
 4037.00    1.05205   1.01961   -1.000
 4038.00    1.07425   1.03694   -1.000
 4039.00    1.05410   1.03422   -1.000
 4040.00    1.02145   1.02185  335.368
 4041.00    1.01081   1.01068  339.543
 4042.00    1.02101   0.99604   -1.000
 4043.00    1.00215   0.96231   -1.000
 4044.00    0.93248   0.90948   -1.000
 4045.00    0.87364   0.86563  420.433
 4046.00    0.87817   0.86380   -1.000
 4047.00    0.94266   0.90603   -1.000
 4048.00    1.00715   0.96090   -1.000
 4049.00    1.02184   1.00036   -1.000
 4050.00    1.03822   1.01719   -1.000
 4051.00    1.04355   1.01655   -1.000
 4052.00    1.02924   1.00415   -1.000
 4053.00    1.01299   0.98604   -1.000
 4054.00    0.99383   0.97071   -1.000
 4055.00    0.98132   0.96171   -1.000
 4056.00    0.98229   0.95621   -1.000
 4057.00    0.98190   0.95437   -1.000
 4058.00    0.98879   0.96292   -1.000
 4059.00    1.01494   0.98057   -1.000
 4060.00    1.02624   0.98997   -1.000
 4061.00    1.02676   0.97403   -1.000
 4062.00    0.98501   0.93612   -1.000
 4063.00    0.92772   0.90011   -1.000
 4064.00    0.92278   0.88623   -1.000
 4065.00    0.95180   0.89477   -1.000
 4066.00    0.96571   0.91529   -1.000
 4067.00    0.97500   0.93820   -1.000
 4068.00    1.00631   0.95752   -1.000
 4069.00    1.03978   0.96403   -1.000
 4070.00    1.01717   0.94941   -1.000
 4071.00    0.98109   0.92599   -1.000
 4072.00    0.98115   0.91907   -1.000
 4073.00    0.99287   0.93260   -1.000
 4074.00    0.99548   0.94388   -1.000
 4075.00    0.96671   0.93043   -1.000
 4076.00    0.89625   0.89638  394.958
 4077.00    0.86067   0.87005   -1.000
 4078.00    0.87273   0.87578  398.977
 4079.00    0.92089   0.91555  372.920
 4080.00    0.98867   0.96531   -1.000
 4081.00    1.02241   0.99732   -1.000
 4082.00    1.01717   1.00105   -1.000
 4083.00    0.99552   0.98538   -1.000
 4084.00    0.97744   0.96931   -1.000
 4085.00    0.97236   0.96832  352.060
 4086.00    1.00740   0.98619   -1.000
 4087.00    1.04026   1.01404   -1.000
 4088.00    1.07260   1.03773   -1.000
 4089.00    1.08104   1.04675   -1.000
 4090.00    1.07045   1.04056   -1.000
 4091.00    1.04869   1.02848   -1.000
 4092.00    1.03520   1.01832   -1.000
 4093.00    1.03610   1.00714   -1.000
 4094.00    1.02145   0.98877   -1.000
 4095.00    0.98374   0.96153   -1.000
 4096.00    0.95161   0.93040   -1.000
 4097.00    0.93519   0.90122   -1.000
 4098.00    0.91644   0.86818   -1.000
 4099.00    0.88168   0.81994   -1.000
 4100.00    0.81823   0.75872   -1.000
 4101.00    0.74485   0.70829   -1.000
 4102.00    0.73719   0.69868   -1.000
 4103.00    0.79039   0.74098   -1.000
 4104.00    0.86172   0.81307   -1.000
 4105.00    0.93020   0.88203   -1.000
 4106.00    0.96678   0.92935   -1.000
 4107.00    0.97930   0.95351   -1.000
 4108.00    0.97519   0.96017   -1.000
 4109.00    0.96239   0.95771  360.403
 4110.00    0.96515   0.95604   -1.000
 4111.00    0.96177   0.96265  362.554
 4112.00    0.97549   0.97846  354.690
 4113.00    0.99579   0.99930  348.354
 4114.00    1.01031   1.01940   -1.000
 4115.00    1.03613   1.03287  339.362
 4116.00    1.04216   1.03365  340.473
 4117.00    1.01915   1.02004  347.135
 4118.00    0.98661   0.99984   -1.000
 4119.00    0.98142   0.98573  363.634
 4120.00    0.99862   0.98396   -1.000
 4121.00    0.98770   0.98859  356.169
 4122.00    0.97590   0.99250   -1.000
 4123.00    0.99619   0.99791  352.745
 4124.00    1.01709   1.00763   -1.000
 4125.00    1.03669   1.01591   -1.000
 4126.00    1.03046   1.01346   -1.000
 4127.00    1.01597   0.99951   -1.000
 4128.00    1.00176   0.98393   -1.000
 4129.00    1.00023   0.97427   -1.000
 4130.00    1.00481   0.96542   -1.000
 4131.00    0.98207   0.95113   -1.000
 4132.00    0.95327   0.93774   -1.000
 4133.00    0.93608   0.93978  391.074
 4134.00    0.95173   0.96237   -1.000
 4135.00    0.98876   0.99560  361.091
 4136.00    1.03336   1.02638  348.552
 4137.00    1.05321   1.04903  342.301
 4138.00    1.06459   1.06410  336.952
 4139.00    1.06155   1.07040   -1.000
 4140.00    1.05012   1.06052   -1.000
 4141.00    1.02501   1.02780  357.894
 4142.00    0.97114   0.97969   -1.000
 4143.00    0.92123   0.94219   -1.000
 4144.00    0.92109   0.93930   -1.000
 4145.00    0.97651   0.96924  375.001
 4146.00    1.01509   1.00661  359.979
 4147.00    1.03845   1.02724   -1.000
 4148.00    1.03128   1.02715  360.764
 4149.00    1.00313   1.01801   -1.000
 4150.00    0.99935   1.01189   -1.000
 4151.00    1.00599   1.01099  374.004
 4152.00    0.99748   1.00955   -1.000
 4153.00    0.98891   1.00333   -1.000
 4154.00    0.98766   0.99521   -1.000
 4155.00    0.98872   0.99205  372.756
 4156.00    0.97761   0.99839   -1.000
 4157.00    1.14974   1.01343   -1.000
 4158.00    1.28567   1.03255   -1.000
 4159.00    0.97691   1.04920   -1.000
 4160.00    0.83066   1.05941   -1.000
 4161.00    1.01711   1.06478   -1.000
 4162.00    1.07921   1.06886   -1.000
 4163.00    1.06615   1.07156  345.127
 4164.00    1.06429   1.07069  350.464
 4165.00    1.04673   1.06502   -1.000
 4166.00    1.03346   1.05437   -1.000
 4167.00    1.02200   1.04533   -1.000
 4168.00    1.01609   1.04445   -1.000
 4169.00    1.03294   1.04503   -1.000
 4170.00    1.03312   1.03105  364.107
 4171.00    0.99820   0.99628  383.852
 4172.00    0.94205   0.95752   -1.000
 4173.00    0.91242   0.93895   -1.000
 4174.00    0.92585   0.94873   -1.000
 4175.00    0.96806   0.97228  383.683
 4176.00    0.97988   0.98789   -1.000
 4177.00    0.97887   0.99021   -1.000
 4178.00    0.96903   0.99102   -1.000
 4179.00    0.99018   0.99985   -1.000
 4180.00    1.00629   1.01230  373.166
 4181.00    0.99567   1.01883   -1.000
 4182.00    1.00024   1.02074   -1.000
 4183.00    1.00738   1.02751   -1.000
 4184.00    1.01478   1.03770   -1.000
 4185.00    1.02334   1.04018   -1.000
 4186.00    1.02051   1.02911   -1.000
 4187.00    1.00668   1.01435   -1.000
 4188.00    0.99765   1.01199   -1.000
 4189.00    1.00659   1.02126   -1.000
 4190.00    1.02436   1.03094  364.515
 4191.00    1.02938   1.03986   -1.000
 4192.00    1.03558   1.05114   -1.000
 4193.00    1.06451   1.05961  347.425
 4194.00    1.05957   1.05352  355.917
 4195.00    1.01681   1.02856   -1.000
 4196.00    0.98185   0.99640   -1.000
 4197.00    0.96727   0.97080  394.679
 4198.00    0.96009   0.95701  396.188
 4199.00    0.96662   0.95373   -1.000
 4200.00    0.97477   0.95693   -1.000
 4201.00    0.97278   0.96208   -1.000
 4202.00    0.98412   0.96975   -1.000
 4203.00    1.00006   0.98488   -1.000
 4204.00    1.00260   1.00667  373.575
 4205.00    1.01358   1.02932   -1.000
 4206.00    1.03581   1.05051   -1.000
 4207.00    1.05821   1.06793   -1.000
 4208.00    1.06357   1.07549   -1.000
 4209.00    1.05135   1.07369   -1.000
 4210.00    1.04901   1.07149   -1.000
 4211.00    1.05455   1.07466   -1.000
 4212.00    1.05505   1.07725   -1.000
 4213.00    1.05246   1.06603   -1.000
 4214.00    1.01965   1.03941   -1.000
 4215.00    0.98035   1.01509   -1.000
 4216.00    0.98410   1.01424   -1.000
 4217.00    1.02389   1.04266   -1.000
 4218.00    1.06061   1.08140   -1.000
 4219.00    1.09334   1.10987   -1.000
 4220.00    1.10337   1.12112   -1.000
 4221.00    1.10792   1.11375  324.133
 4222.00    1.09793   1.08457   -1.000
 4223.00    1.04915   1.03307   -1.000
 4224.00    0.98181   0.96426   -1.000
 4225.00    0.89686   0.89535  445.108
 4226.00    0.82614   0.85504   -1.000
 4227.00    0.83183   0.86956   -1.000
 4228.00    0.92398   0.93668   -1.000
 4229.00    1.02267   1.02040  359.349
 4230.00    1.06808   1.07652   -1.000
 4231.00    1.07136   1.08885   -1.000
 4232.00    1.06139   1.07144   -1.000
 4233.00    1.04413   1.04624  349.962
 4234.00    1.03388   1.02736  354.059
 4235.00    1.02504   1.01866  361.849
 4236.00    1.01104   1.01751   -1.000
 4237.00    1.01141   1.02302   -1.000
 4238.00    1.02097   1.03621   -1.000
 4239.00    1.03117   1.05457   -1.000
 4240.00    1.05451   1.07356   -1.000
 4241.00    1.07501   1.08968   -1.000
 4242.00    1.08505   1.10322   -1.000
 4243.00    1.09226   1.11684   -1.000
 4244.00    1.10782   1.12716   -1.000
 4245.00    1.11713   1.12239  330.006
 4246.00    1.08288   1.09612   -1.000
 4247.00    1.03180   1.05986   -1.000
 4248.00    1.00882   1.03068   -1.000
 4249.00    1.00085   1.01631   -1.000
 4250.00    1.00178   1.01709   -1.000
 4251.00    1.02371   1.03075  361.498
 4252.00    1.05600   1.04558   -1.000
 4253.00    1.06113   1.04941   -1.000
 4254.00    1.04002   1.04763  360.856
 4255.00    1.04264   1.05522   -1.000
 4256.00    1.07349   1.07280  344.580
 4257.00    1.09601   1.07999   -1.000
 4258.00    1.08001   1.06095   -1.000
 4259.00    1.02343   1.02769  371.067
 4260.00    0.99627   1.00841   -1.000
 4261.00    1.00892   1.02265   -1.000
 4262.00    1.04830   1.06624   -1.000
 4263.00    1.09651   1.11641   -1.000
 4264.00    1.12245   1.14988   -1.000
 4265.00    1.13704   1.15891   -1.000
 4266.00    1.11992   1.14960   -1.000
 4267.00    1.10225   1.12776   -1.000
 4268.00    1.08257   1.09398   -1.000
 4269.00    1.05601   1.04924  359.068
 4270.00    1.00983   0.99897   -1.000
 4271.00    0.95295   0.95684  405.719
 4272.00    0.92820   0.93801   -1.000
 4273.00    0.94155   0.94625  404.284
 4274.00    0.95820   0.97307   -1.000
 4275.00    0.98199   1.01223   -1.000
 4276.00    1.04082   1.05963   -1.000
 4277.00    1.09336   1.10030  336.188
 4278.00    1.09788   1.11596   -1.000
 4279.00    1.08002   1.10583   -1.000
 4280.00    1.03388   1.08641   -1.000
 4281.00    1.02878   1.07627   -1.000
 4282.00    1.05058   1.07818   -1.000
 4283.00    1.05870   1.08044   -1.000
 4284.00    1.04631   1.07542   -1.000
 4285.00    1.02314   1.06322   -1.000
 4286.00    0.99081   1.04660   -1.000
 4287.00    0.97395   1.02537   -1.000
 4288.00    0.95791   0.99656   -1.000
 4289.00    0.93100   0.96709   -1.000
 4290.00    0.90803   0.95643   -1.000
 4291.00    0.94257   0.97563   -1.000
 4292.00    0.98510   1.00944   -1.000
 4293.00    1.02065   1.02942  366.833
 4294.00    1.02985   1.02613  369.234
 4295.00    1.02390   1.01122   -1.000
 4296.00    0.98398   0.99064  383.495
 4297.00    0.93660   0.95870   -1.000
 4298.00    0.90142   0.91494   -1.000
 4299.00    0.84553   0.87130   -1.000
 4300.00    0.81619   0.84360   -1.000
 4301.00    0.82542   0.83757   -1.000
 4302.00    0.82384   0.84648   -1.000
 4303.00    0.84375   0.86196   -1.000
 4304.00    0.86308   0.87711   -1.000
 4305.00    0.86509   0.88098   -1.000
 4306.00    0.86148   0.86681  460.149
 4307.00    0.82276   0.84276   -1.000
 4308.00    0.80163   0.82758   -1.000
 4309.00    0.80248   0.83580   -1.000
 4310.00    0.81796   0.86559   -1.000
 4311.00    0.85044   0.90336   -1.000
 4312.00    0.88896   0.93812   -1.000
 4313.00    0.92785   0.97378   -1.000
 4314.00    0.97618   1.02452   -1.000
 4315.00    1.05765   1.09407   -1.000
 4316.00    1.13036   1.16672   -1.000
 4317.00    1.18877   1.21764   -1.000
 4318.00    1.22091   1.23487   -1.000
 4319.00    1.20389   1.22462   -1.000
 4320.00    1.17651   1.19905   -1.000
 4321.00    1.14840   1.16364   -1.000
 4322.00    1.10321   1.11638   -1.000
 4323.00    1.03797   1.05536   -1.000
 4324.00    0.97267   0.99406   -1.000
 4325.00    0.93897   0.96525   -1.000
 4326.00    0.97871   0.99434   -1.000
 4327.00    1.04668   1.06701   -1.000
 4328.00    1.13627   1.13903  324.349
 4329.00    1.16491   1.17752   -1.000
 4330.00    1.15425   1.18502   -1.000
 4331.00    1.14586   1.18366   -1.000
 4332.00    1.14950   1.18832   -1.000
 4333.00    1.15785   1.19578   -1.000
 4334.00    1.16493   1.19350   -1.000
 4335.00    1.15887   1.16748  310.917
 4336.00    1.09686   1.10695  329.497
 4337.00    1.02911   1.01590   -1.000
 4338.00    0.93869   0.91714   -1.000
 4339.00    0.85381   0.84306   -1.000
 4340.00    0.81191   0.81751  440.630
 4341.00    0.86226   0.84873   -1.000
 4342.00    0.95789   0.92228   -1.000
 4343.00    1.02914   1.00536   -1.000
 4344.00    1.07764   1.07130  335.768
 4345.00    1.11237   1.11729  326.554
 4346.00    1.13856   1.15300   -1.000
 4347.00    1.15682   1.18356   -1.000
 4348.00    1.16523   1.20229   -1.000
 4349.00    1.17050   1.19354   -1.000
 4350.00    1.12632   1.15238   -1.000
 4351.00    1.05498   1.10158   -1.000
 4352.00    1.02695   1.07692   -1.000
 4353.00    1.06694   1.09451   -1.000
 4354.00    1.12265   1.13690   -1.000
 4355.00    1.14199   1.17687   -1.000
 4356.00    1.17212   1.20041   -1.000
 4357.00    1.19585   1.20566  312.724
 4358.00    1.17117   1.19820   -1.000
 4359.00    1.14445   1.19283   -1.000
 4360.00    1.16317   1.20252   -1.000
 4361.00    1.19772   1.22389   -1.000
 4362.00    1.21529   1.24586   -1.000
 4363.00    1.22652   1.26260   -1.000
 4364.00    1.23740   1.27187   -1.000
 4365.00    1.23691   1.26821   -1.000
 4366.00    1.21416   1.24631   -1.000
 4367.00    1.17648   1.21390   -1.000
 4368.00    1.15651   1.18964   -1.000
 4369.00    1.16448   1.18168   -1.000
 4370.00    1.16476   1.18184   -1.000
 4371.00    1.16650   1.17757  318.076
 4372.00    1.16141   1.15986  320.935
 4373.00    1.13075   1.12771  333.147
 4374.00    1.08528   1.09603  346.573
 4375.00    1.07074   1.08976   -1.000
 4376.00    1.10840   1.11783  334.994
 4377.00    1.16841   1.16206  318.296
 4378.00    1.20850   1.19348   -1.000
 4379.00    1.20444   1.19708  312.850
 4380.00    1.19445   1.17210   -1.000
 4381.00    1.17174   1.11741   -1.000
 4382.00    1.09627   1.03826   -1.000
 4383.00    1.00602   0.96610   -1.000
 4384.00    0.97153   0.94117   -1.000
 4385.00    1.01390   0.97538   -1.000
 4386.00    1.09069   1.04029   -1.000
 4387.00    1.14371   1.09389   -1.000
 4388.00    1.15268   1.11837   -1.000
 4389.00    1.13454   1.12275   -1.000
 4390.00    1.12513   1.12368  336.974
 4391.00    1.14092   1.13101   -1.000
 4392.00    1.17043   1.14110   -1.000
 4393.00    1.17890   1.14239   -1.000
 4394.00    1.14441   1.13608  331.817
 4395.00    1.14145   1.14130  331.459
 4396.00    1.18735   1.16656   -1.000
 4397.00    1.21732   1.19256   -1.000
 4398.00    1.21028   1.19435   -1.000
 4399.00    1.17646   1.17190  321.638
 4400.00    1.14805   1.15115  331.514
 4401.00    1.16039   1.14757   -1.000
 4402.00    1.18383   1.14605   -1.000
 4403.00    1.17835   1.12704   -1.000
 4404.00    1.12670   1.09664   -1.000
 4405.00    1.09601   1.08149   -1.000
 4406.00    1.12668   1.09316   -1.000
 4407.00    1.13269   1.11694   -1.000
 4408.00    1.13452   1.14129  336.717
 4409.00    1.16238   1.17166  324.725
 4410.00    1.20757   1.21068  310.838
 4411.00    1.24600   1.24467  300.017
 4412.00    1.25869   1.25298  295.862
 4413.00    1.24651   1.22764   -1.000
 4414.00    1.21288   1.18117   -1.000
 4415.00    1.16123   1.14148   -1.000
 4416.00    1.14487   1.13465   -1.000
 4417.00    1.16437   1.16292  320.456
 4418.00    1.20660   1.20786  307.234
 4419.00    1.24024   1.24590  298.162
 4420.00    1.24541   1.25948   -1.000
 4421.00    1.22253   1.24739   -1.000
 4422.00    1.19276   1.22846   -1.000
 4423.00    1.19519   1.22160   -1.000
 4424.00    1.20071   1.22685   -1.000
 4425.00    1.20018   1.23368   -1.000
 4426.00    1.19023   1.23717   -1.000
 4427.00    1.18640   1.23965   -1.000
 4428.00    1.18806   1.24132   -1.000
 4429.00    1.17901   1.24025   -1.000
 4430.00    1.17628   1.23803   -1.000
 4431.00    1.18259   1.23822   -1.000
 4432.00    1.18998   1.23580   -1.000
 4433.00    1.17580   1.22051   -1.000
 4434.00    1.14473   1.19679   -1.000
 4435.00    1.13089   1.18696   -1.000
 4436.00    1.17231   1.20976   -1.000
 4437.00    1.24312   1.25750   -1.000
 4438.00    1.28413   1.30105   -1.000
 4439.00    1.29010   1.31452   -1.000
 4440.00    1.27085   1.29165   -1.000
 4441.00    1.23320   1.24865   -1.000
 4442.00    1.19321   1.21161   -1.000
 4443.00    1.15274   1.20231   -1.000
 4444.00    1.17553   1.22713   -1.000
 4445.00    1.23217   1.27164   -1.000
 4446.00    1.26860   1.30893   -1.000
 4447.00    1.28084   1.32460   -1.000
 4448.00    1.28613   1.32463   -1.000
 4449.00    1.28273   1.31877   -1.000
 4450.00    1.26234   1.31123   -1.000
 4451.00    1.25614   1.30375   -1.000
 4452.00    1.26444   1.29214   -1.000
 4453.00    1.24936   1.26736   -1.000
 4454.00    1.21533   1.23106   -1.000
 4455.00    1.18181   1.20218   -1.000
 4456.00    1.19159   1.19550  330.109
 4457.00    1.21669   1.20380   -1.000
 4458.00    1.22439   1.21090   -1.000
 4459.00    1.21450   1.20957  325.361
 4460.00    1.20223   1.20430  328.628
 4461.00    1.20377   1.20534  331.629
 4462.00    1.20833   1.22040   -1.000
 4463.00    1.24411   1.24603  313.613
 4464.00    1.28392   1.26937   -1.000
 4465.00    1.28614   1.28120  304.632
 4466.00    1.27007   1.28027  304.832
 4467.00    1.26763   1.26895  307.999
 4468.00    1.24983   1.25394  313.768
 4469.00    1.23330   1.24685   -1.000
 4470.00    1.23936   1.25753   -1.000
 4471.00    1.26876   1.28596   -1.000
 4472.00    1.30633   1.32136   -1.000
 4473.00    1.34074   1.35218  284.266
 4474.00    1.36592   1.37331  281.349
 4475.00    1.37454   1.38688  281.634
 4476.00    1.37881   1.39820   -1.000
 4477.00    1.38335   1.40336   -1.000
 4478.00    1.38438   1.38826  279.840
 4479.00    1.35408   1.34690  289.488
 4480.00    1.30831   1.29575   -1.000
 4481.00    1.27042   1.26501  311.645
 4482.00    1.25924   1.27398   -1.000
 4483.00    1.29545   1.31676   -1.000
 4484.00    1.34703   1.36870   -1.000
 4485.00    1.37850   1.40453   -1.000
 4486.00    1.39019   1.41109   -1.000
 4487.00    1.37552   1.38833   -1.000
 4488.00    1.33774   1.35001   -1.000
 4489.00    1.29579   1.31984   -1.000
 4490.00    1.29486   1.31531   -1.000
 4491.00    1.33084   1.33223  292.607
 4492.00    1.35547   1.34831  287.596
 4493.00    1.35467   1.34465   -1.000
 4494.00    1.31328   1.32582   -1.000
 4495.00    1.29939   1.31346   -1.000
 4496.00    1.30500   1.32183   -1.000
 4497.00    1.32215   1.34659   -1.000
 4498.00    1.35009   1.37115   -1.000
 4499.00    1.37058   1.38068  282.224
 4500.00    1.36524   1.37498  284.989
 4501.00    1.34459   1.37155   -1.000
 4502.00    1.35042   1.38739   -1.000
 4503.00    1.39865   1.41956   31.473
 4504.00    1.45348   1.45040   26.546
 4505.00    1.45410   1.46503   26.664
 4506.00    1.43517   1.46052   27.181
 4507.00    1.43107   1.44548   27.481
 4508.00    1.41778   1.43389   27.525
 4509.00    1.43026   1.43394   27.335
 4510.00    1.44290   1.44062   27.140
 4511.00    1.43503   1.44153   27.329
 4512.00    1.41441   1.42995   27.845
 4513.00    1.39831   1.41062   28.351
 4514.00    1.38063   1.39260   28.561
 4515.00    1.37702   1.38221   28.449
 4516.00    1.37834   1.37960   28.413
 4517.00    1.37592   1.37924   28.725
 4518.00    1.36160   1.37942   28.915
 4519.00    1.36507   1.38434   28.489
 4520.00    1.39673   1.39306   27.927
 4521.00    1.40887   1.39671   27.946
 4522.00    1.37826   1.38890   28.556
 4523.00    1.35491   1.37324   29.152
 4524.00    1.34489   1.35674   29.436
 4525.00    1.32560   1.33886   29.903
 4526.00    1.29922   1.31460   30.781
 4527.00    1.27485   1.28449   31.664
 4528.00    1.26595   1.25820   32.097
 4529.00    1.26508   1.24890   31.922
 4530.00    1.28316   1.26060   31.388
 4531.00    1.30652   1.28163   30.814
 4532.00    1.31745   1.29231   30.620
 4533.00    1.28791   1.28345   31.377
 4534.00    1.24910   1.26835   32.437
 4535.00    1.24406   1.27149   32.173
 4536.00    1.29801   1.30538   30.465
 4537.00    1.37423   1.35547   28.660
 4538.00    1.41519   1.39361   27.793
 4539.00    1.41232   1.40404   27.961
 4540.00    1.40753   1.39334   28.605
 4541.00    1.39722   1.38067   28.656
 4542.00    1.39375   1.37776   28.458
 4543.00    1.40311   1.38065   28.340
 4544.00    1.37732   1.38028   38.866
 4545.00    1.42449   1.37533   14.384
 4546.00    0.75629   1.37024   -1.000
 4547.00    0.05527   1.36337   -1.000
 4548.00   -0.05809   1.34850    0.000
 4549.00    0.65995   1.33038   -1.000
 4550.00    0.74138   1.32464   -1.000
 4551.00    0.58539   1.33624   -1.000
 4552.00    1.29639   1.34877   29.683
 4553.00    1.33644   1.34565   30.117
 4554.00    1.29888   1.33276   30.419
 4555.00    1.30909   1.33022   30.038
 4556.00    1.36050   1.35104   29.001
 4557.00    1.40666   1.38831   27.837
 4558.00    1.43346   1.42283   27.279
 4559.00    1.44666   1.44463   27.367
 4560.00    1.45991   1.45647   27.374
 4561.00    1.45601   1.45806   27.380
 4562.00    1.41584   1.44362   27.950
 4563.00    1.38680   1.41498   28.650
 4564.00    1.37263   1.38851   29.166
 4565.00    1.37676   1.38236   28.932
 4566.00    1.40220   1.39994   28.234
 4567.00    1.43441   1.42914   27.486
 4568.00    1.46127   1.45193   27.161
 4569.00    1.46108   1.45584   27.400
 4570.00    1.41705   1.44072   28.059
 4571.00    1.36781   1.41778   28.800
 4572.00    1.36725   1.40586   28.697
 4573.00    1.40272   1.41671   27.891
 4574.00    1.43543   1.43932   27.439
 4575.00    1.44976   1.45400   27.413
 4576.00    1.45635   1.45486   27.531
 4577.00    1.44581   1.44635   27.688
 4578.00    1.42557   1.42956   28.128
 4579.00    1.39300   1.40411   28.936
 4580.00    1.36091   1.37726   29.569
 4581.00    1.37128   1.36009   29.562
 4582.00    1.37778   1.35454   29.175
 4583.00    1.38451   1.35485   28.935
 4584.00    1.38213   1.35929   28.989
 4585.00    1.38630   1.36913   29.164
 4586.00    1.40083   1.38459   28.826
 4587.00    1.42534   1.40538   28.102
 4588.00    1.45379   1.42667   27.486
 4589.00    1.46369   1.43946   27.385
 4590.00    1.44958   1.43907   27.741
 4591.00    1.43277   1.42778   28.252
 4592.00    1.40878   1.41249   28.752
 4593.00    1.40141   1.40197   28.833
 4594.00    1.39197   1.39943   28.614
 4595.00    1.40799   1.40096   28.385
 4596.00    1.42611   1.40491   28.293
 4597.00    1.43695   1.41196   28.232
 4598.00    1.45606   1.41873   28.169
 4599.00    1.44979   1.42080   28.383
 4600.00    1.43433   1.41820   28.641
 4601.00    1.41718   1.41553   28.741
 4602.00    1.40944   1.41674   28.477
 4603.00    1.40642   1.42063   28.156
 4604.00    1.43118   1.42388   28.162
 4605.00    1.44809   1.42813   28.128
 4606.00    1.45396   1.43952   27.850
 4607.00    1.46352   1.46089   27.323
 4608.00    1.48675   1.48685   26.740
 4609.00    1.50775   1.50684   26.396
 4610.00    1.51301   1.51247   26.467
 4611.00    1.50435   1.50431   26.809
 4612.00    1.47799   1.49086   27.117
 4613.00    1.47180   1.48176   27.306
 4614.00    1.49459   1.48198   27.205
 4615.00    1.50058   1.48778   26.972
 4616.00    1.49622   1.49132   26.848
 4617.00    1.49012   1.48942   26.997
 4618.00    1.48512   1.48416   27.198
 4619.00    1.48983   1.48050   27.198
 4620.00    1.49078   1.48364   26.962
 4621.00    1.50697   1.49412   26.549
 4622.00    1.52565   1.50593   26.493
 4623.00    1.50776   1.51168   26.555
 4624.00    1.50168   1.51014   26.609
 4625.00    1.51481   1.50561   26.833
 4626.00    1.49563   1.50148   26.921
 4627.00    1.49599   1.49780   26.914
 4628.00    1.49317   1.49330   27.067
 4629.00    1.47675   1.48999   27.140
 4630.00    1.49543   1.49218   27.024
 4631.00    1.50876   1.49865   26.729
 4632.00    1.50032   1.50141   26.799
 4633.00    1.48556   1.49493   27.165
 4634.00    1.47468   1.48270   27.478
 4635.00    1.48016   1.47258   27.489
 4636.00    1.48195   1.46601   27.682
 4637.00    1.46710   1.45973   28.037
 4638.00    1.45834   1.45372   28.182
 4639.00    1.45581   1.45190   28.157
 4640.00    1.46606   1.45907   27.726
 4641.00    1.49527   1.47481   27.064
 4642.00    1.52305   1.49028   26.659
 4643.00    1.52798   1.49432   26.716
 4644.00    1.50881   1.48206   27.175
 4645.00    1.47812   1.45669   27.917
 4646.00    1.43919   1.42682   28.696
 4647.00    1.42003   1.40674   28.895
 4648.00    1.43455   1.40769   28.447
 4649.00    1.47475   1.42848   27.793
 4650.00    1.49596   1.45850   27.381
 4651.00    1.50146   1.48432   27.298
 4652.00    1.49304   1.49578   27.245
 4653.00    1.48135   1.49062   27.527
 4654.00    1.47162   1.47416   28.136
 4655.00    1.44517   1.45796   28.500
 4656.00    1.44378   1.45541   28.317
 4657.00    1.46674   1.47451   27.482
 4658.00    1.52790   1.51075   26.440
 4659.00    1.55941   1.54690   25.798
 4660.00    1.56544   1.56451   25.713
 4661.00    1.54686   1.55745   25.998
 4662.00    1.51474   1.53453   26.606
 4663.00    1.50147   1.50818   27.149
 4664.00    1.50576   1.48283   27.264
 4665.00    1.50167   1.45230   27.665
 4666.00    1.45550   1.41343   28.777
 4667.00    1.39707   1.37887   29.990
 4668.00    1.37052   1.36791   30.160
 4669.00    1.41157   1.38706   29.328
 4670.00    1.46707   1.42353   28.125
 4671.00    1.49577   1.45862   27.315
 4672.00    1.51187   1.48115   27.091
 4673.00    1.51375   1.49116   27.097
 4674.00    1.51360   1.49760   27.075
 4675.00    1.52277   1.50784   26.758
 4676.00    1.54589   1.51837   26.357
 4677.00    1.56325   1.51832   26.429
 4678.00    1.53597   1.50291   26.960
 4679.00    1.50140   1.47929   27.504
 4680.00    1.48710   1.45857   27.969
 4681.00    1.47225   1.44908   28.260
 4682.00    1.46808   1.45353   27.976
 4683.00    1.48771   1.46775   27.302
 4684.00    1.52609   1.48269   26.904
 4685.00    1.53775   1.49129   26.948
 4686.00    1.52180   1.49289   26.972
 4687.00    1.51188   1.49074   27.110
 4688.00    1.51799   1.48834   27.130
 4689.00    1.52525   1.48705   27.131
 4690.00    1.51705   1.48603   27.305
 4691.00    1.50117   1.48534   27.380
 4692.00    1.50326   1.48848   27.096
 4693.00    1.53438   1.49871   26.697
 4694.00    1.55087   1.51353   26.122
 4695.00    1.56957   1.52573   25.759
 4696.00    1.56855   1.52713   25.837
 4697.00    1.56521   1.51265   26.517
 4698.00    1.52771   1.48703   27.322
 4699.00    1.50109   1.46340   27.699
 4700.00    1.51630   1.44914   27.533
 4701.00    1.51641   1.43943   27.686
 4702.00    1.49357   1.43093   28.150
 4703.00    1.47538   1.42950   28.340
 4704.00    1.48702   1.43920   27.874
 4705.00    1.51436   1.45326   27.444
 4706.00    1.51526   1.45929   27.738
 4707.00    1.48815   1.45240   28.285
 4708.00    1.46400   1.44129   28.593
 4709.00    1.44813   1.44005   28.489
 4710.00    1.48645   1.45425   27.721
 4711.00    1.53664   1.47565   26.948
 4712.00    1.55917   1.48978   26.629
 4713.00    1.55463   1.48889   26.829
 4714.00    1.52792   1.48135   27.314
 4715.00    1.51087   1.48343   27.376
 4716.00    1.52510   1.50136   26.888
 4717.00    1.55474   1.52799   26.364
 4718.00    1.57337   1.55243   26.163
 4719.00    1.58243   1.56846   26.065
 4720.00    1.58130   1.57516   25.976
 4721.00    1.57381   1.57381   26.162
 4722.00    1.55910   1.56850   26.356
 4723.00    1.55940   1.56666   26.239
 4724.00    1.57216   1.56983   25.966
 4725.00    1.57232   1.56790   25.968
 4726.00    1.55362   1.54981   26.535
 4727.00    1.51138   1.51579   27.511
 4728.00    1.48240   1.47940   28.182
 4729.00    1.48474   1.45679   28.159
 4730.00    1.50695   1.45302   27.885
 4731.00    1.51960   1.46361   27.656
 4732.00    1.51721   1.48270   27.336
 4733.00    1.52991   1.50408   27.087
 4734.00    1.54680   1.51978   26.925
 4735.00    1.55395   1.52446   26.775
 4736.00    1.54605   1.52144   27.014
 4737.00    1.53898   1.52025   27.082
 4738.00    1.55551   1.52637   26.771
 4739.00    1.56372   1.53568   26.739
 4740.00    1.55151   1.54090   26.882
 4741.00    1.55249   1.54182   26.932
 4742.00    1.56582   1.54389   26.743
 4743.00    1.56595   1.54852   26.457
 4744.00    1.57863   1.55391   26.471
 4745.00    1.58049   1.56067   26.501
 4746.00    1.58393   1.56936   26.327
 4747.00    1.58972   1.57906   26.066
 4748.00    1.58513   1.58832   25.987
 4749.00    1.58651   1.59538   26.018
 4750.00    1.59341   1.59906   26.038
 4751.00    1.60033   1.59762   26.208
 4752.00    1.58746   1.58936   26.496
 4753.00    1.57544   1.57596   26.728
 4754.00    1.56194   1.56211   26.915
 4755.00    1.55016   1.55274   26.894
 4756.00    1.54100   1.55129   26.980
 4757.00    1.54224   1.55752   27.171
 4758.00    1.54609   1.56761   27.222
 4759.00    1.55481   1.57673   27.023
 4760.00    1.55829   1.57846   26.951
 4761.00    1.53732   1.56625   27.320
 4762.00    1.51058   1.54103   27.980
 4763.00    1.48703   1.51272   28.383
 4764.00    1.48786   1.49232   28.460
 4765.00    1.48994   1.48413   28.410
 4766.00    1.51383   1.48761   28.226
 4767.00    1.52952   1.50287   27.856
 4768.00    1.53816   1.52928   27.248
 4769.00    1.55606   1.55965   26.840
 4770.00    1.56995   1.58080   26.838
 4771.00    1.55057   1.58592   27.048
 4772.00    1.53638   1.58325   27.289
 4773.00    1.55778   1.58683   27.038
 4774.00    1.58634   1.60143   26.483
 4775.00    1.59659   1.61917   26.255
 4776.00    1.59382   1.63082   26.255
 4777.00    1.58996   1.63454   26.328
 4778.00    1.57666   1.63128   26.489
 4779.00    1.55848   1.62160   26.775
 4780.00    1.55317   1.60968   26.951
 4781.00    1.55117   1.60051   27.028
 4782.00    1.55269   1.59344   27.152
 4783.00    1.55383   1.58591   27.362
 4784.00    1.54625   1.57862   27.379
 4785.00    1.54185   1.57209   27.457
 4786.00    1.52395   1.56442   27.711
 4787.00    1.50758   1.55691   27.886
 4788.00    1.51498   1.55408   27.880
 4789.00    1.52352   1.55680   27.753
 4790.00    1.53748   1.56399   27.585
 4791.00    1.55828   1.57692   27.311
 4792.00    1.57380   1.59747   26.880
 4793.00    1.59022   1.62509   26.297
 4794.00    1.62235   1.65388   25.828
 4795.00    1.64489   1.67363   25.693
 4796.00    1.63277   1.67610   25.913
 4797.00    1.60642   1.65945   26.409
 4798.00    1.57471   1.63058   26.911
 4799.00    1.55957   1.60534   27.253
 4800.00    1.56492   1.59868   27.080
 4801.00    1.58774   1.61271   26.562
 4802.00    1.60941   1.63607   26.160
 4803.00    1.61172   1.65091   26.150
 4804.00    1.59633   1.64602   26.466
 4805.00    1.57490   1.62751   26.810
 4806.00    1.56632   1.61006   27.066
 4807.00    1.56594   1.60185   27.089
 4808.00    1.58009   1.60262   27.026
 4809.00    1.59927   1.60962   26.910
 4810.00    1.60348   1.61935   26.680
 4811.00    1.60387   1.62786   26.482
 4812.00    1.59354   1.63373   26.340
 4813.00    1.59423   1.63824   26.301
 4814.00    1.60771   1.64380   26.243
 4815.00    1.61147   1.65252   26.152
 4816.00    1.61622   1.66457   25.995
 4817.00    1.63378   1.67780   25.833
 4818.00    1.64534   1.68885   25.721
 4819.00    1.64017   1.69516   25.701
 4820.00    1.63412   1.69494   25.701
 4821.00    1.62738   1.68357   25.900
 4822.00    1.60266   1.65747   26.532
 4823.00    1.57329   1.62440   27.067
 4824.00    1.56146   1.60212   27.084
 4825.00    1.59382   1.60261   26.652
 4826.00    1.61288   1.62004   26.229
 4827.00    1.60885   1.63662   26.275
 4828.00    1.59580   1.64049   26.566
 4829.00    1.60063   1.63374   26.752
 4830.00    1.59665   1.62333   26.765
 4831.00    1.58265   1.61266   26.980
 4832.00    1.57517   1.60496   27.054
 4833.00    1.59991   1.60561   26.676
 4834.00    1.62396   1.61604   26.309
 4835.00    1.61673   1.62978   26.181
 4836.00    1.61768   1.63848   26.209
 4837.00    1.62239   1.63926   26.325
 4838.00    1.61101   1.63262   26.658
 4839.00    1.58334   1.61996   27.124
 4840.00    1.57586   1.60678   27.200
 4841.00    1.59171   1.59958   27.148
 4842.00    1.58645   1.59887   27.021
 4843.00    1.58696   1.60220   26.826
 4844.00    1.60119   1.61079   26.566
 4845.00    1.62389   1.62462   26.166
 4846.00    1.64023   1.63509   25.995
 4847.00    1.62962   1.63168   26.442
 4848.00    1.60880   1.61647   26.861
 4849.00    1.57776   1.60481   26.909
 4850.00    1.58338   1.60668   26.574
 4851.00    1.59379   1.61536   26.470
 4852.00    1.59554   1.61755   26.596
 4853.00    1.58604   1.60325   26.815
 4854.00    1.54606   1.57002   27.545
 4855.00    1.50330   1.52878   28.339
 4856.00    1.51219   1.49739   28.387
 4857.00    1.52008   1.47885   28.119
 4858.00    1.49438   1.45157   28.749
 4859.00    1.39815   1.38685   31.010
 4860.00    1.24386   1.28480   34.559
 4861.00    1.14912   1.19046   36.572
 4862.00    1.18420   1.15988   34.815
 4863.00    1.30970   1.20949   -1.000
 4864.00    1.40821   1.30382   -1.000
 4865.00    1.46441   1.39587   28.661
 4866.00    1.50875   1.46487   28.006
 4867.00    1.53441   1.51125   27.709
 4868.00    1.54256   1.53775   27.575
 4869.00    1.53528   1.54240   27.768
 4870.00    1.51894   1.52343   28.484
 4871.00    1.49383   1.49134   29.203
 4872.00    1.48230   1.47079   29.080
 4873.00    1.51291   1.48047   28.316
 4874.00    1.53421   1.51299   27.779
 4875.00    1.54369   1.54579   27.531
 4876.00    1.54789   1.56776   27.374
 4877.00    1.55328   1.58510   27.275
 4878.00    1.57402   1.60653   26.918
 4879.00    1.59264   1.62974   26.614
 4880.00    1.58979   1.64368   26.781
 4881.00    1.57682   1.64131   27.203
 4882.00    1.56131   1.62689   27.406
 4883.00    1.55559   1.61032   27.345
 4884.00    1.55515   1.59587   27.458
 4885.00    1.55709   1.58168   27.849
 4886.00    1.54756   1.56963   28.038
 4887.00    1.54186   1.56467   27.927
 4888.00    1.56082   1.56337   27.871
 4889.00    1.56397   1.55439   28.223
 4890.00    1.53481   1.53408   28.827
 4891.00    1.51411   1.51902   28.752
 4892.00    1.54626   1.53512   27.719
 4893.00    1.61862   1.58828   26.442
 4894.00    1.68216   1.65714   25.599
 4895.00    1.70943   1.71501   25.084
 4896.00    1.71203   1.74796   24.916
 4897.00    1.70611   1.75610   24.948
 4898.00    1.69548   1.74554   25.424
 4899.00    1.65909   1.72368   26.025
 4900.00    1.63647   1.70082   26.360
 4901.00    1.63691   1.68557   26.286
 4902.00    1.63757   1.67699   26.297
 4903.00    1.63037   1.67136   26.585
 4904.00    1.63886   1.67347   26.384
 4905.00    1.66735   1.68944   25.850
 4906.00    1.70369   1.71091   25.597
 4907.00    1.69172   1.71860   25.775
 4908.00    1.66339   1.70188   26.348
 4909.00    1.62862   1.66724   27.099
 4910.00    1.61189   1.63213   27.508
 4911.00    1.61436   1.61481   27.242
 4912.00    1.63117   1.62270   26.762
 4913.00    1.64838   1.64822   26.377
 4914.00    1.66349   1.67766   26.032
 4915.00    1.69807   1.69941   25.786
 4916.00    1.69960   1.70188   25.859
 4917.00    1.65960   1.67318   26.654
 4918.00    1.59599   1.61195   28.049
 4919.00    1.54077   1.53709   29.426
 4920.00    1.50018   1.48129   29.921
 4921.00    1.50657   1.46886   29.124
 4922.00    1.55772   1.49447   28.072
 4923.00    1.59361   1.53067   27.568
 4924.00    1.59700   1.55959   27.490
 4925.00    1.61233   1.58691   27.188
 4926.00    1.64478   1.62294   26.524
 4927.00    1.68030   1.66348   26.016
 4928.00    1.71302   1.69848   25.741
 4929.00    1.72730   1.72455   25.556
 4930.00    1.73557   1.73949   25.399
 4931.00    1.72618   1.73721   25.591
 4932.00    1.67695   1.71360   26.228
 4933.00    1.62714   1.67569   27.155
 4934.00    1.61014   1.64390   27.360
 4935.00    1.62486   1.63372   26.941
 4936.00    1.64631   1.63414   26.851
 4937.00    1.62919   1.62221   27.529
 4938.00    1.59425   1.59650   28.305
 4939.00    1.58895   1.58152   28.209
 4940.00    1.61094   1.59927   27.340
 4941.00    1.66414   1.64544   26.449
 4942.00    1.70675   1.69587   25.908
 4943.00    1.71526   1.72952   25.638
 4944.00    1.72296   1.74082   25.621
 4945.00    1.72098   1.73674   25.782
 4946.00    1.70698   1.73023   25.858
 4947.00    1.71014   1.73228   25.666
 4948.00    1.73338   1.74452   25.369
 4949.00    1.73966   1.75998   25.259
 4950.00    1.74108   1.77053   25.158
 4951.00    1.75379   1.77252   25.255
 4952.00    1.75146   1.76687   25.424
 4953.00    1.72122   1.75625   25.702
 4954.00    1.70590   1.73885   26.020
 4955.00    1.68358   1.70454   26.661
 4956.00    1.62987   1.64620   27.945
 4957.00    1.55608   1.58136   29.129
 4958.00    1.54672   1.55135   28.800
 4959.00    1.61852   1.57993   27.286
 4960.00    1.69050   1.64523   26.248
 4961.00    1.69896   1.70568   25.945
 4962.00    1.68478   1.73701   26.022
 4963.00    1.68004   1.73957   26.219
 4964.00    1.67167   1.72329   26.516
 4965.00    1.65473   1.69686   27.044
 4966.00    1.64581   1.67101   27.431
 4967.00    1.64304   1.65627   27.489
 4968.00    1.64595   1.65380   27.419
 4969.00    1.64338   1.65915   27.234
 4970.00    1.65515   1.67081   26.955
 4971.00    1.67268   1.68881   26.665
 4972.00    1.68087   1.71107   26.351
 4973.00    1.71074   1.73232   26.092
 4974.00    1.72926   1.74592   25.965
 4975.00    1.71777   1.74828   26.104
 4976.00    1.70752   1.73946   26.367
 4977.00    1.69225   1.72121   26.714
 4978.00    1.67104   1.69850   27.141
 4979.00    1.65738   1.67670   27.492
 4980.00    1.64435   1.65365   27.874
 4981.00    1.60945   1.62139   28.714
 4982.00    1.55334   1.57900   29.655
 4983.00    1.52518   1.54181   29.802
 4984.00    1.55265   1.53086   29.319
 4985.00    1.59407   1.55282   28.532
 4986.00    1.63301   1.59676   27.638
 4987.00    1.67575   1.64463   26.923
 4988.00    1.68793   1.67882   26.842
 4989.00    1.66785   1.68918   27.186
 4990.00    1.64355   1.68084   27.487
 4991.00    1.65380   1.66967   27.540
 4992.00    1.66552   1.66703   27.331
 4993.00    1.66559   1.67286   27.195
 4994.00    1.66852   1.68216   27.167
 4995.00    1.67430   1.69258   27.047
 4996.00    1.70197   1.70230   26.910
 4997.00    1.70547   1.70476   27.029
 4998.00    1.67262   1.69222   27.363
 4999.00    1.63112   1.66384   27.890
 5000.00    1.60200   1.63040   28.275
 5001.00    1.60939   1.60786   28.345
 5002.00    1.62844   1.60169   28.117
 5003.00    1.63755   1.60214   27.917
 5004.00    1.62968   1.59525   28.229
 5005.00    1.60545   1.57702   28.907
 5006.00    1.58126   1.56012   29.160
 5007.00    1.59296   1.56414   28.573
 5008.00    1.63701   1.59398   27.720
 5009.00    1.67955   1.63026   27.340
 5010.00    1.66221   1.64670   27.601
 5011.00    1.63716   1.63216   28.364
 5012.00    1.58918   1.59554   29.401
 5013.00    1.54823   1.55684   30.155
 5014.00    1.52951   1.53490   30.136
 5015.00    1.56134   1.53639   29.542
 5016.00    1.60202   1.55048   28.914
 5017.00    1.61075   1.56027   28.719
 5018.00    1.60903   1.56216   28.708
 5019.00    1.62172   1.56758   28.432
 5020.00    1.64788   1.58335   28.183
 5021.00    1.65336   1.60129   28.255
 5022.00    1.64097   1.61373   28.329
 5023.00    1.64653   1.62519   28.200
 5024.00    1.66562   1.64140   27.921
 5025.00    1.67725   1.65732   27.716
 5026.00    1.67835   1.66330   27.801
 5027.00    1.66285   1.65935   27.936
 5028.00    1.66555   1.65710   27.739
 5029.00    1.70170   1.66583   27.253
 5030.00    1.72057   1.68443   26.844
 5031.00    1.73565   1.70814   26.416
 5032.00    1.75861   1.73208   26.092
 5033.00    1.75157   1.74709   26.083
 5034.00    1.72375   1.74139   26.800
 5035.00    1.68354   1.71281   27.843
 5036.00    1.64580   1.67660   28.406
 5037.00    1.63677   1.65004   28.559
 5038.00    1.63215   1.62969   28.872
 5039.00    1.59057   1.59815   29.891
 5040.00    1.52704   1.55301   31.111
 5041.00    1.50350   1.51928   31.317
 5042.00    1.53764   1.52825   30.016
 5043.00    1.63725   1.58383   28.205
 5044.00    1.71188   1.65985   26.965
 5045.00    1.73734   1.72548   26.322
 5046.00    1.79735   1.76153   25.380
 5047.00    1.66613   1.76195   25.892
 5048.00    0.51037   1.73260   -1.000
 5049.00    0.07455   1.69025   -1.000
 5050.00    0.06400   1.65436   -1.000
 5051.00    0.93463   1.63592   -1.000
 5052.00    1.57138   1.63905   27.585
 5053.00    1.71593   1.66572   26.895
 5054.00    1.75687   1.70711   26.377
 5055.00    1.77745   1.74378   26.092
 5056.00    1.79168   1.76447   25.985
 5057.00    1.79083   1.77333   26.014
 5058.00    1.78255   1.77917   26.063
 5059.00    1.78162   1.78737   26.062
 5060.00    1.78252   1.79885   25.908
 5061.00    1.79338   1.80867   25.893
 5062.00    1.79471   1.80594   26.194
 5063.00    1.75288   1.78152   26.899
 5064.00    1.69555   1.73931   27.838
 5065.00    1.66690   1.69856   28.262
 5066.00    1.68562   1.67785   28.012
 5067.00    1.71772   1.67733   27.595
 5068.00    1.71642   1.68554   27.458
 5069.00    1.72538   1.69584   27.336
 5070.00    1.74973   1.70541   27.162
 5071.00    1.74131   1.70914   27.323
 5072.00    1.72038   1.70515   27.543
 5073.00    1.71065   1.70035   27.285
 5074.00    1.72952   1.70192   27.049
 5075.00    1.74803   1.70860   26.988
 5076.00    1.73743   1.71330   26.966
 5077.00    1.73388   1.70697   27.187
 5078.00    1.69825   1.68138   28.037
 5079.00    1.63461   1.63917   29.329
 5080.00    1.60851   1.60178   29.829
 5081.00    1.62361   1.59199   29.333
 5082.00    1.66819   1.60874   28.701
 5083.00    1.67990   1.63539   28.282
 5084.00    1.70037   1.66298   27.771
 5085.00    1.74048   1.68999   27.286
 5086.00    1.75578   1.71261   27.052
 5087.00    1.75829   1.72714   26.994
 5088.00    1.76633   1.73557   26.873
 5089.00    1.76808   1.74332   26.686
 5090.00    1.77385   1.75338   26.532
 5091.00    1.77418   1.76599   26.394
 5092.00    1.80845   1.78054   26.112
 5093.00    1.80951   1.79382   25.867
 5094.00    1.81097   1.79821   26.035
 5095.00    1.92187   1.78509   -1.000
 5096.00    1.82180   1.75247   27.113
 5097.00    1.73060   1.70883   27.761
 5098.00    1.69751   1.66901   28.357
 5099.00    1.68680   1.64875   28.521
 5100.00    1.72707   1.65793   27.928
 5101.00    1.76704   1.69013   27.129
 5102.00    1.76929   1.72418   26.811
 5103.00    1.76670   1.74172   26.916
 5104.00    1.75442   1.74024   27.246
 5105.00    1.74090   1.72732   27.595
 5106.00    1.71755   1.70874   27.934
 5107.00    1.69215   1.68831   28.284
 5108.00    1.67548   1.67152   28.298
 5109.00    1.66786   1.66401   28.134
 5110.00    1.68050   1.66961   27.934
 5111.00    1.70810   1.68877   27.560
 5112.00    1.74499   1.71624   27.212
 5113.00    1.76940   1.74285   26.880
 5114.00    1.78543   1.76295   26.626
 5115.00    1.80523   1.77800   26.470
 5116.00    1.81480   1.79178   26.210
 5117.00    1.82452   1.80472   25.981
 5118.00    1.83052   1.81224   26.017
 5119.00    1.81742   1.80795   26.322
 5120.00    1.79835   1.78975   26.714
 5121.00    1.77901   1.76077   27.150
 5122.00    1.73026   1.72529   27.814
 5123.00    1.69127   1.68913   28.640
 5124.00    1.66975   1.66171   28.936
 5125.00    1.67496   1.64999   28.738
 5126.00    1.69032   1.65109   28.578
 5127.00    1.69811   1.65550   28.413
 5128.00    1.69646   1.65763   28.424
 5129.00    1.69838   1.66048   28.409
 5130.00    1.70816   1.67001   28.086
 5131.00    1.72654   1.68780   27.619
 5132.00    1.74635   1.70925   27.359
 5133.00    1.77067   1.72909   27.105
 5134.00    1.78608   1.74524   26.863
 5135.00    1.79077   1.75486   26.770
 5136.00    1.77409   1.75151   27.176
 5137.00    1.74892   1.73100   27.819
 5138.00    1.70911   1.70105   28.299
 5139.00    1.69299   1.67862   28.394
 5140.00    1.71194   1.67243   28.176
 5141.00    1.72485   1.67512   28.318
 5142.00    1.70118   1.67630   28.749
 5143.00    1.68462   1.67667   28.674
 5144.00    1.70489   1.68238   28.228
 5145.00    1.71839   1.68910   28.074
 5146.00    1.70335   1.68731   28.290
 5147.00    1.71673   1.68025   28.391
 5148.00    1.73739   1.67926   28.098
 5149.00    1.74586   1.68544   27.910
 5150.00    1.72116   1.68850   28.187
 5151.00    1.68754   1.68114   28.684
 5152.00    1.68982   1.66817   28.922
 5153.00    1.69184   1.66040   28.820
 5154.00    1.71316   1.66599   28.321
 5155.00    1.75511   1.68841   27.621
 5156.00    1.78576   1.72369   26.917
 5157.00    1.82600   1.76009   26.388
 5158.00    1.84317   1.78629   26.154
 5159.00    1.83302   1.79845   26.125
 5160.00    1.84093   1.79799   26.202
 5161.00    1.83894   1.78722   26.345
 5162.00    1.81885   1.76860   26.622
 5163.00    1.80664   1.74142   27.022
 5164.00    1.77102   1.69646   27.968
 5165.00    1.67623   1.62062   30.105
 5166.00    1.53616   1.51560   33.177
 5167.00    1.43377   1.41414   35.604
 5168.00    1.42339   1.36306   35.302
 5169.00    1.49752   1.37638   -1.000
 5170.00    1.54474   1.41387   -1.000
 5171.00    1.49532   1.41966   34.505
 5172.00    1.40535   1.38855   36.875
 5173.00    1.41221   1.37586   35.900
 5174.00    1.53603   1.42872   -1.000
 5175.00    1.66950   1.53311   -1.000
 5176.00    1.74932   1.63618   -1.000
 5177.00    1.77652   1.70145   27.788
 5178.00    1.78309   1.72915   27.701
 5179.00    1.79088   1.73047   27.932
 5180.00    1.75642   1.70350   28.815
 5181.00    1.67846   1.63645   30.754
 5182.00    1.55264   1.53160   34.151
 5183.00    1.43052   1.42565   37.043
 5184.00    1.43436   1.37722   35.924
 5185.00    1.54863   1.42042   -1.000
 5186.00    1.68670   1.52655   -1.000
 5187.00    1.76037   1.63030   -1.000
 5188.00    1.77079   1.69334   27.800
 5189.00    1.77375   1.71780   27.672
 5190.00    1.76972   1.71447   27.915
 5191.00    1.71333   1.68823   28.727
 5192.00    1.66840   1.65171   29.545
 5193.00    1.66947   1.62959   29.461
 5194.00    1.70458   1.63407   28.981
 5195.00    1.73351   1.65325   28.541
 5196.00    1.74800   1.67407   28.124
 5197.00    1.77325   1.69717   27.578
 5198.00    1.79388   1.72532   27.096
 5199.00    1.81672   1.75398   26.843
 5200.00    1.83252   1.77449   26.793
 5201.00    1.82279   1.77986   26.978
 5202.00    1.79940   1.76637   27.434
 5203.00    1.76866   1.73341   28.048
 5204.00    1.72371   1.68543   28.900
 5205.00    1.67239   1.63476   29.796
 5206.00    1.65664   1.59660   30.014
 5207.00    1.66149   1.57757   30.159
 5208.00    1.65987   1.57442   30.340
 5209.00    1.65350   1.58618   29.980
 5210.00    1.69693   1.61913   29.065
 5211.00    1.76915   1.67344   27.918
 5212.00    1.82714   1.73338   26.819
 5213.00    1.87849   1.77632   26.199
 5214.00    1.88479   1.78756   26.382
 5215.00    1.82959   1.77069   26.972
 5216.00    1.79326   1.74697   27.346
 5217.00    1.80310   1.74034   27.189
 5218.00    1.83513   1.75938   26.642
 5219.00    1.86560   1.79333   26.213
 5220.00    1.88742   1.82494   25.987
 5221.00    1.90929   1.84166   25.872
 5222.00    1.88734   1.83678   26.149
 5223.00    1.85493   1.80727   26.892
 5224.00    1.79725   1.75301   27.970
 5225.00    1.73362   1.68215   29.266
 5226.00    1.67684   1.61819   30.156
 5227.00    1.67964   1.59272   29.701
 5228.00    1.74788   1.62177   -1.000
 5229.00    1.81853   1.68932   -1.000
 5230.00    1.86853   1.75601   -1.000
 5231.00    1.88219   1.78745   26.296
 5232.00    1.86648   1.77672   26.757
 5233.00    1.83580   1.74521   27.250
 5234.00    1.81523   1.72554   27.261
 5235.00    1.84260   1.73762   -1.000
 5236.00    1.88231   1.77574   -1.000
 5237.00    1.91731   1.81905   25.726
 5238.00    1.93058   1.84953   25.671
 5239.00    1.91945   1.86279   25.742
 5240.00    1.92679   1.86540   25.713
 5241.00    1.94207   1.86428   25.573
 5242.00    1.92856   1.86366   25.587
 5243.00    1.92540   1.86626   25.548
 5244.00    1.93052   1.86977   25.505
 5245.00    1.90581   1.86391   25.945
 5246.00    1.86540   1.84005   26.728
 5247.00    1.82514   1.80505   27.383
 5248.00    1.81324   1.77594   27.524
 5249.00    1.81890   1.76006   27.572
 5250.00    1.80396   1.75351   27.733
 5251.00    1.79906   1.75517   27.643
 5252.00    1.82902   1.76533   27.288
 5253.00    1.84415   1.77679   27.001
 5254.00    1.84391   1.78263   26.972
 5255.00    1.85072   1.78907   26.806
 5256.00    1.89064   1.81038   26.231
 5257.00    1.94374   1.84894   25.528
 5258.00    1.97633   1.88636   25.243
 5259.00    1.97209   1.89960   25.424
 5260.00    1.92758   1.87852   26.067
 5261.00    1.86242   1.82657   27.128
 5262.00    1.79118   1.75610   28.408
 5263.00    1.74831   1.68293   29.443
 5264.00    1.70830   1.62237   30.101
 5265.00    1.68488   1.58734   -1.000
 5266.00    1.70295   1.58174   -1.000
 5267.00    1.73991   1.59113   -1.000
 5268.00    1.72837   1.58830   -1.000
 5269.00    1.66125   1.56448   -1.000
 5270.00    1.64968   1.54905   -1.000
 5271.00    1.73234   1.57675   -1.000
 5272.00    1.82302   1.64313   -1.000
 5273.00    1.86194   1.70720   -1.000
 5274.00    1.85982   1.73786   -1.000
 5275.00    1.85258   1.74659   -1.000
 5276.00    1.87500   1.76553   -1.000
 5277.00    1.92604   1.80767   -1.000
 5278.00    1.97098   1.85559   -1.000
 5279.00    1.97910   1.88029   -1.000
 5280.00    1.95000   1.87006   25.909
 5281.00    1.90683   1.83626   26.583
 5282.00    1.87484   1.79831   27.097
 5283.00    1.85732   1.77467   27.275
 5284.00    1.87874   1.78078   -1.000
 5285.00    1.95099   1.82055   -1.000
 5286.00    1.97768   1.87688   -1.000
 5287.00    1.98221   1.92273   24.925
 5288.00    2.01330   1.94576   25.023
 5289.00    2.00439   1.95422   25.040
 5290.00    2.00112   1.95843   24.909
 5291.00    1.99969   1.95923   24.843
 5292.00    1.99411   1.95367   24.965
 5293.00    1.99885   1.94227   25.192
 5294.00    1.99053   1.92542   25.516
 5295.00    1.94361   1.89672   26.165
 5296.00    1.88542   1.85090   27.138
 5297.00    1.82793   1.79928   27.912
 5298.00    1.82255   1.76706   27.851
 5299.00    1.85722   1.76971   27.200
 5300.00    1.88455   1.79666   26.666
 5301.00    1.88352   1.82628   26.457
 5302.00    1.90817   1.85219   26.154
 5303.00    1.96367   1.88239   25.493
 5304.00    2.00453   1.91811   24.993
 5305.00    2.03701   1.94686   24.881
 5306.00    2.02070   1.95640   25.089
 5307.00    1.99011   1.95089   25.314
 5308.00    1.99725   1.94651   25.196
 5309.00    2.01135   1.95310   24.940
 5310.00    2.04630   1.96584   24.767
 5311.00    2.03914   1.97310   24.769
 5312.00    2.03332   1.96943   24.896
 5313.00    2.02488   1.95770   25.009
 5314.00    2.01366   1.94112   25.181
 5315.00    2.00072   1.92092   25.424
 5316.00    1.98421   1.90110   25.654
 5317.00    1.97916   1.89018   25.689
 5318.00    1.99483   1.89391   -1.000
 5319.00    2.00391   1.90669   -1.000
 5320.00    2.00220   1.91629   25.469
 5321.00    1.99024   1.91446   25.640
 5322.00    1.96742   1.89862   25.928
 5323.00    1.94227   1.87175   26.366
 5324.00    1.93862   1.84295   -1.000
 5325.00    1.94206   1.81658   -1.000
 5326.00    1.90566   1.78120   -1.000
 5327.00    1.82330   1.72628   -1.000
 5328.00    1.74595   1.67096   29.999
 5329.00    1.75681   1.65772   -1.000
 5330.00    1.86561   1.70664   -1.000
 5331.00    1.94589   1.78672   -1.000
 5332.00    1.95622   1.85073   -1.000
 5333.00    1.98165   1.88507   -1.000
 5334.00    2.01554   1.90398   -1.000
 5335.00    2.02002   1.91822   -1.000
 5336.00    2.00306   1.92604   25.528
 5337.00    1.99420   1.92180   25.697
 5338.00    1.97784   1.90301   25.964
 5339.00    1.95892   1.87162   26.576
 5340.00    1.91640   1.83819   27.074
 5341.00    1.91134   1.82317   26.935
 5342.00    1.95077   1.83887   -1.000
 5343.00    1.98495   1.87176   -1.000
 5344.00    1.99545   1.89612   -1.000
 5345.00    1.98117   1.90115   25.849
 5346.00    1.97366   1.89299   26.018
 5347.00    1.97641   1.88051   -1.000
 5348.00    1.96354   1.86873   -1.000
 5349.00    1.95079   1.86362   26.459
 5350.00    1.96456   1.87392   26.105
 5351.00    2.00364   1.90024   -1.000
 5352.00    2.02930   1.93121   -1.000
 5353.00    2.04858   1.95699   25.057
 5354.00    2.06315   1.97781   24.877
 5355.00    2.07626   1.99758   24.571
 5356.00    2.08631   2.01540   24.370
 5357.00    2.08975   2.02596   24.368
 5358.00    2.08410   2.02740   24.405
 5359.00    2.07978   2.02078   24.488
 5360.00    2.06591   2.00554   24.752
 5361.00    2.04188   1.98218   25.156
 5362.00    2.01901   1.95586   25.533
 5363.00    2.00101   1.93294   25.736
 5364.00    1.98565   1.91643   25.887
 5365.00    1.97603   1.90614   26.042
 5366.00    1.98572   1.90079   25.990
 5367.00    1.99193   1.89668   -1.000
 5368.00    1.98184   1.88412   -1.000
 5369.00    1.94919   1.85332   -1.000
 5370.00    1.89316   1.81020   27.624
 5371.00    1.86770   1.78072   27.804
 5372.00    1.91903   1.79166   -1.000
 5373.00    1.99858   1.84453   -1.000
 5374.00    2.04843   1.91230   -1.000
 5375.00    2.07986   1.96371   -1.000
 5376.00    2.08474   1.98669   -1.000
 5377.00    2.07913   1.98885   24.821
 5378.00    2.08161   1.98391   -1.000
 5379.00    2.05644   1.97745   24.998
 5380.00    2.03598   1.96756   25.235
 5381.00    2.02869   1.95303   25.485
 5382.00    2.03137   1.93849   -1.000
 5383.00    2.02446   1.93182   -1.000
 5384.00    2.02117   1.93708   25.513
 5385.00    2.04962   1.95051   -1.000
 5386.00    2.06047   1.96286   -1.000
 5387.00    2.06588   1.96551   -1.000
 5388.00    2.04140   1.95539   25.506
 5389.00    2.01157   1.93527   25.882
 5390.00    1.99896   1.91192   26.187
 5391.00    2.00379   1.89250   -1.000
 5392.00    1.99579   1.88039   -1.000
 5393.00    1.98131   1.87416   -1.000
 5394.00    1.97296   1.86822   -1.000
 5395.00    1.95698   1.85444   -1.000
 5396.00    1.91801   1.83128   27.464
 5397.00    1.88882   1.81234   27.549
 5398.00    1.91867   1.81626   -1.000
 5399.00    1.98751   1.84493   -1.000
 5400.00    2.03526   1.88089   -1.000
 5401.00    2.03226   1.90550   -1.000
 5402.00    2.01423   1.90785   -1.000
 5403.00    1.98412   1.88264   -1.000
 5404.00    1.92329   1.83468   -1.000
 5405.00    1.89264   1.78540   -1.000
 5406.00    1.90249   1.76283   -1.000
 5407.00    1.93380   1.77561   -1.000
 5408.00    1.95989   1.80303   -1.000
 5409.00    1.94695   1.82111   -1.000
 5410.00    1.93569   1.83055   -1.000
 5411.00    1.97212   1.84896   -1.000
 5412.00    2.03121   1.88253   -1.000
 5413.00    2.05618   1.91565   -1.000
 5414.00    2.04504   1.93485   -1.000
 5415.00    2.04090   1.94597   -1.000
 5416.00    2.05765   1.96038   -1.000
 5417.00    2.07232   1.97699   -1.000
 5418.00    2.06449   1.98448   25.282
 5419.00    2.05313   1.97798   25.520
 5420.00    2.05288   1.96541   25.686
 5421.00    2.06125   1.95609   -1.000
 5422.00    2.06213   1.94991   -1.000
 5423.00    2.03569   1.94112   -1.000
 5424.00    2.01859   1.93243   26.066
 5425.00    2.03705   1.93747   -1.000
 5426.00    2.06009   1.95867   -1.000
 5427.00    2.07236   1.97371   -1.000
 5428.00    2.02848   1.95826   26.079
 5429.00    1.97321   1.91703   26.913
 5430.00    1.95337   1.88154   27.055
 5431.00    1.98167   1.87299   -1.000
 5432.00    2.00213   1.87947   -1.000
 5433.00    1.98048   1.87761   -1.000
 5434.00    1.95506   1.86341   -1.000
 5435.00    1.94895   1.85519   -1.000
 5436.00    1.97768   1.87156   -1.000
 5437.00    2.01935   1.91315   -1.000
 5438.00    2.06804   1.96516   -1.000
 5439.00    2.09955   2.01008   25.005
 5440.00    2.11325   2.03865   24.784
 5441.00    2.12022   2.05159   24.725
 5442.00    2.11170   2.05250   24.721
 5443.00    2.10123   2.04009   24.954
 5444.00    2.07133   2.00709   25.578
 5445.00    1.99834   1.95281   26.600
 5446.00    1.92764   1.89479   27.511
 5447.00    1.90641   1.86248   27.431
 5448.00    1.96135   1.87337   26.605
 5449.00    2.02148   1.91679   -1.000
 5450.00    2.05335   1.96362   25.545
 5451.00    2.06186   1.98935   25.527
 5452.00    2.05013   1.98667   25.725
 5453.00    2.01622   1.95978   26.286
 5454.00    1.95889   1.91655   27.033
 5455.00    1.92923   1.87532   27.644
 5456.00    1.94612   1.86298   27.351
 5457.00    1.99910   1.89233   -1.000
 5458.00    2.06314   1.94500   -1.000
 5459.00    2.07453   1.98628   25.495
 5460.00    2.05762   1.99473   25.753
 5461.00    2.04537   1.97432   26.224
 5462.00    2.01676   1.94305   26.597
 5463.00    2.01250   1.92117   -1.000
 5464.00    2.03509   1.92076   -1.000
 5465.00    2.04697   1.93804   -1.000
 5466.00    2.05854   1.95944   -1.000
 5467.00    2.07523   1.97533   -1.000
 5468.00    2.08270   1.98413   -1.000
 5469.00    2.06934   1.98536   25.828
 5470.00    2.05845   1.97878   26.099
 5471.00    2.06321   1.96728   -1.000
 5472.00    2.05567   1.95451   -1.000
 5473.00    2.03105   1.94030   26.595
 5474.00    2.00953   1.92044   26.965
 5475.00    1.98886   1.89163   -1.000
 5476.00    1.96113   1.85999   -1.000
 5477.00    1.95561   1.84446   -1.000
 5478.00    1.98951   1.86034   -1.000
 5479.00    2.03460   1.89535   -1.000
 5480.00    2.03727   1.91839   -1.000
 5481.00    2.02889   1.91767   -1.000
 5482.00    2.02240   1.91152   -1.000
 5483.00    2.03715   1.92280   -1.000
 5484.00    2.06871   1.95287   -1.000
 5485.00    2.09650   1.98125   -1.000
 5486.00    2.08420   1.98891   -1.000
 5487.00    2.06559   1.97594   -1.000
 5488.00    2.05212   1.95837   -1.000
 5489.00    2.04371   1.95207   -1.000
 5490.00    2.04443   1.95949   26.253
 5491.00    2.06670   1.97240   -1.000
 5492.00    2.07943   1.98130   -1.000
 5493.00    2.08149   1.98323   -1.000
 5494.00    2.08930   1.98167   -1.000
 5495.00    2.09337   1.97966   -1.000
 5496.00    2.06959   1.97578   -1.000
 5497.00    2.04106   1.97069   26.368
 5498.00    2.05114   1.97151   26.260
 5499.00    2.07933   1.97944   -1.000
 5500.00    2.07491   1.98197   -1.000
 5501.00    2.05129   1.96956   26.534
 5502.00    2.04951   1.95041   -1.000
 5503.00    2.06179   1.93901   -1.000
 5504.00    2.07024   1.93720   -1.000
 5505.00    2.05474   1.93404   -1.000
 5506.00    2.02245   1.92491   -1.000
 5507.00    2.01813   1.92037   -1.000
 5508.00    2.04876   1.92985   -1.000
 5509.00    2.07990   1.94660   -1.000
 5510.00    2.07030   1.95335   -1.000
 5511.00    2.03573   1.94067   -1.000
 5512.00    2.00676   1.91626   -1.000
 5513.00    2.00302   1.89679   -1.000
 5514.00    2.01872   1.89473   -1.000
 5515.00    2.03583   1.91064   -1.000
 5516.00    2.07309   1.93659   -1.000
 5517.00    2.10341   1.96591   -1.000
 5518.00    2.12758   1.99460   -1.000
 5519.00    2.14175   2.01808   -1.000
 5520.00    2.15080   2.03103   -1.000
 5521.00    2.13626   2.03285   -1.000
 5522.00    2.13949   2.02916   -1.000
 5523.00    2.14010   2.02486   -1.000
 5524.00    2.11779   2.01731   -1.000
 5525.00    2.09188   1.99929   -1.000
 5526.00    2.05936   1.96733   -1.000
 5527.00    2.00962   1.92955   27.316
 5528.00    1.99477   1.90456   -1.000
 5529.00    2.03835   1.90821   -1.000
 5530.00    2.08323   1.93818   -1.000
 5531.00    2.10106   1.97347   -1.000
 5532.00    2.11209   1.99314   -1.000
 5533.00    2.10163   1.99224   -1.000
 5534.00    2.08354   1.98045   -1.000
 5535.00    2.08773   1.97069   -1.000
 5536.00    2.09433   1.96996   -1.000
 5537.00    2.11590   1.97798   -1.000
 5538.00    2.12740   1.99106   -1.000
 5539.00    2.14308   2.00702   -1.000
 5540.00    2.15720   2.02367   -1.000
 5541.00    2.15486   2.03454   -1.000
 5542.00    2.14231   2.03302   -1.000
 5543.00    2.12300   2.02110   -1.000
 5544.00    2.11896   2.00838   -1.000
 5545.00    2.11885   2.00299   -1.000
 5546.00    2.12955   2.00663   -1.000
 5547.00    2.14576   2.01810   -1.000
 5548.00    2.14844   2.03589   -1.000
 5549.00    2.16873   2.05499   -1.000
 5550.00    2.18742   2.06771   -1.000
 5551.00    2.18432   2.06976   -1.000
 5552.00    2.17496   2.06172   -1.000
 5553.00    2.14582   2.04727   -1.000
 5554.00    2.12352   2.03335   -1.000
 5555.00    2.11935   2.02674   -1.000
 5556.00    2.13703   2.02801   -1.000
 5557.00    2.14919   2.03188   -1.000
 5558.00    2.14551   2.03432   -1.000
 5559.00    2.14390   2.03528   -1.000
 5560.00    2.13867   2.03509   -1.000
 5561.00    2.14273   2.03090   -1.000
 5562.00    2.13074   2.02069   -1.000
 5563.00    2.11013   2.00796   -1.000
 5564.00    2.10859   1.99813   -1.000
 5565.00    2.10761   1.99276   -1.000
 5566.00    2.09661   1.98974   -1.000
 5567.00    2.09626   1.98724   -1.000
 5568.00    2.09594   1.98601   -1.000
 5569.00    2.09354   1.98710   -1.000
 5570.00    2.09939   1.98970   -1.000
 5571.00    2.10038   1.99086   -1.000
 5572.00    2.09118   1.98920   -1.000
 5573.00    2.06003   1.98894   26.423
 5574.00    1.96228   1.99587   26.154
 5575.00    1.54079   2.00951   -1.000
 5576.00    0.70791   2.02328   -1.000
 5577.00   -0.05647   2.03264    0.000
 5578.00    0.16750   2.03929   -1.000
 5579.00    0.94065   2.04565   -1.000
 5580.00    1.58552   2.04998   -1.000
 5581.00    1.97851   2.04959   26.438
 5582.00    2.11421   2.04432   26.137
 5583.00    2.12567   2.03572   -1.000
 5584.00    2.13743   2.02231   -1.000
 5585.00    2.11761   1.99715   -1.000
 5586.00    2.05929   1.95688   -1.000
 5587.00    2.01180   1.91199   -1.000
 5588.00    2.00960   1.88120   -1.000
 5589.00    2.02341   1.87716   -1.000
 5590.00    2.03622   1.89746   -1.000
 5591.00    2.06615   1.92689   -1.000
 5592.00    2.08678   1.94992   -1.000
 5593.00    2.08191   1.96181   -1.000
 5594.00    2.07338   1.97142   -1.000
 5595.00    2.10128   1.98862   -1.000
 5596.00    2.12892   2.00939   -1.000
 5597.00    2.12048   2.01752   -1.000
 5598.00    2.07758   2.00470   27.004
 5599.00    2.06401   1.98015   27.314
 5600.00    2.06585   1.95614   -1.000
 5601.00    2.06960   1.93793   -1.000
 5602.00    2.05031   1.93064   -1.000
 5603.00    2.05494   1.94337   -1.000
 5604.00    2.10208   1.98036   -1.000
 5605.00    2.15475   2.03078   -1.000
 5606.00    2.18278   2.07446   -1.000
 5607.00    2.19614   2.09918   -1.000
 5608.00    2.19221   2.10734   25.475
 5609.00    2.19385   2.10770   25.527
 5610.00    2.19080   2.10822   25.510
 5611.00    2.19533   2.11019   25.434
 5612.00    2.19023   2.10510   25.533
 5613.00    2.15708   2.07932   26.024
 5614.00    2.09693   2.02945   26.902
 5615.00    2.06024   1.97444   -1.000
 5616.00    2.06396   1.94551   -1.000
 5617.00    2.10710   1.95612   -1.000
 5618.00    2.13771   1.98843   -1.000
 5619.00    2.14428   2.01756   -1.000
 5620.00    2.15696   2.03513   -1.000
 5621.00    2.16257   2.04581   -1.000
 5622.00    2.16098   2.04798   -1.000
 5623.00    2.13389   2.03381   -1.000
 5624.00    2.10204   2.00713   -1.000
 5625.00    2.09067   1.98689   -1.000
 5626.00    2.10733   1.98928   -1.000
 5627.00    2.14932   2.01276   -1.000
 5628.00    2.17213   2.04211   -1.000
 5629.00    2.18064   2.06615   -1.000
 5630.00    2.20135   2.08312   -1.000
 5631.00    2.20994   2.09242   -1.000
 5632.00    2.20712   2.09287   -1.000
 5633.00    2.20111   2.08501   -1.000
 5634.00    2.18706   2.07143   -1.000
 5635.00    2.17783   2.05509   -1.000
 5636.00    2.16129   2.03864   -1.000
 5637.00    2.13832   2.02564   -1.000
 5638.00    2.14131   2.01977   -1.000
 5639.00    2.15317   2.01962   -1.000
 5640.00    2.15049   2.01896   -1.000
 5641.00    2.14419   2.01541   -1.000
 5642.00    2.14539   2.01393   -1.000
 5643.00    2.15756   2.01941   -1.000
 5644.00    2.15074   2.03031   -1.000
 5645.00    2.15831   2.04158   -1.000
 5646.00    2.16874   2.05023   -1.000
 5647.00    2.17896   2.05510   -1.000
 5648.00    2.18576   2.05481   -1.000
 5649.00    2.18784   2.05090   -1.000
 5650.00    2.19573   2.04928   -1.000
 5651.00    2.19570   2.05435   -1.000
 5652.00    2.20731   2.06247   -1.000
 5653.00    2.20938   2.06513   -1.000
 5654.00    2.19410   2.05779   -1.000
 5655.00    2.17335   2.04188   -1.000
 5656.00    2.15129   2.01781   -1.000
 5657.00    2.09822   1.98484   -1.000
 5658.00    2.04776   1.95201   -1.000
 5659.00    2.05927   1.93723   -1.000
 5660.00    2.09895   1.94802   -1.000
 5661.00    2.12409   1.97044   -1.000
 5662.00    2.12374   1.98718   -1.000
 5663.00    2.12756   1.99986   -1.000
 5664.00    2.14764   2.01881   -1.000
 5665.00    2.15468   2.03892   -1.000
 5666.00    2.15396   2.04645   -1.000
 5667.00    2.14193   2.03920   -1.000
 5668.00    2.13491   2.02812   -1.000
 5669.00    2.13895   2.02494   -1.000
 5670.00    2.15476   2.03312   -1.000
 5671.00    2.17979   2.04973   -1.000
 5672.00    2.19701   2.07068   -1.000
 5673.00    2.21578   2.09039   -1.000
 5674.00    2.22732   2.10303   -1.000
 5675.00    2.22626   2.10767   -1.000
 5676.00    2.21864   2.10832   -1.000
 5677.00    2.21134   2.10751   -1.000
 5678.00    2.20522   2.10377   -1.000
 5679.00    2.21057   2.09491   -1.000
 5680.00    2.21190   2.08119   -1.000
 5681.00    2.18615   2.06385   -1.000
 5682.00    2.16633   2.04442   -1.000
 5683.00    2.16929   2.02839   -1.000
 5684.00    2.17814   2.02310   -1.000
 5685.00    2.17737   2.02729   -1.000
 5686.00    2.16269   2.03065   -1.000
 5687.00    2.14804   2.02807   -1.000
 5688.00    2.15125   2.02613   -1.000
 5689.00    2.17216   2.03383   -1.000
 5690.00    2.19079   2.05229   -1.000
 5691.00    2.21902   2.07421   -1.000
 5692.00    2.22161   2.09159   -1.000
 5693.00    2.22036   2.10099   -1.000
 5694.00    2.23006   2.10292   -1.000
 5695.00    2.22247   2.10030   -1.000
 5696.00    2.20614   2.09486   -1.000
 5697.00    2.20446   2.08555   -1.000
 5698.00    2.18521   2.07179   -1.000
 5699.00    2.16510   2.05599   -1.000
 5700.00    2.15848   2.04120   -1.000
 5701.00    2.14356   2.02956   -1.000
 5702.00    2.13621   2.02477   -1.000
 5703.00    2.15252   2.02973   -1.000
 5704.00    2.13673   2.03837   -1.000
 5705.00    2.13605   2.03843   -1.000
 5706.00    2.13290   2.02392   -1.000
 5707.00    2.10550   1.99932   -1.000
 5708.00    2.08068   1.97398   -1.000
 5709.00    2.06780   1.95567   -1.000
 5710.00    2.06342   1.94879   -1.000
 5711.00    2.07174   1.95625   -1.000
 5712.00    2.10759   1.97905   -1.000
 5713.00    2.15549   2.01432   -1.000
 5714.00    2.19458   2.05245   -1.000
 5715.00    2.20930   2.08135   -1.000
 5716.00    2.22888   2.09786   -1.000
 5717.00    2.22754   2.10771   -1.000
 5718.00    2.21120   2.11579   -1.000
 5719.00    2.21717   2.12460   -1.000
 5720.00    2.23057   2.13511   -1.000
 5721.00    2.25092   2.14624   -1.000
 5722.00    2.26492   2.15598   -1.000
 5723.00    2.26069   2.16239   -1.000
 5724.00    2.25388   2.16270   -1.000
 5725.00    2.23931   2.15374   -1.000
 5726.00    2.20979   2.13697   25.780
 5727.00    2.19029   2.12121   25.991
 5728.00    2.19488   2.11568   25.880
 5729.00    2.20864   2.11961   -1.000
 5730.00    2.20873   2.12350   25.773
 5731.00    2.20608   2.12232   25.903
 5732.00    2.21894   2.12243   -1.000
 5733.00    2.24798   2.13146   -1.000
 5734.00    2.26585   2.14675   -1.000
 5735.00    2.25762   2.15783   -1.000
 5736.00    2.25040   2.15840   -1.000
 5737.00    2.23755   2.15216   -1.000
 5738.00    2.24394   2.14590   -1.000
 5739.00    2.24993   2.14277   -1.000
 5740.00    2.23915   2.14175   -1.000
 5741.00    2.23774   2.14053   -1.000
 5742.00    2.23766   2.13948   -1.000
 5743.00    2.23683   2.14188   -1.000
 5744.00    2.25795   2.14963   -1.000
 5745.00    2.25605   2.15812   -1.000
 5746.00    2.25183   2.15862   -1.000
 5747.00    2.24569   2.14895   -1.000
 5748.00    2.23543   2.13885   -1.000
 5749.00    2.23158   2.13904   -1.000
 5750.00    2.24437   2.14612   -1.000
 5751.00    2.23844   2.14408   -1.000
 5752.00    2.21577   2.12362   -1.000
 5753.00    2.18561   2.09485   -1.000
 5754.00    2.17620   2.08006   -1.000
 5755.00    2.21624   2.09245   -1.000
 5756.00    2.25387   2.12444   -1.000
 5757.00    2.27815   2.15625   -1.000
 5758.00    2.27806   2.17099   -1.000
 5759.00    2.27486   2.16390   -1.000
 5760.00    2.24678   2.14086   -1.000
 5761.00    2.21663   2.11358   -1.000
 5762.00    2.20022   2.09528   -1.000
 5763.00    2.19290   2.09672   -1.000
 5764.00    2.22660   2.12007   -1.000
 5765.00    2.24994   2.15362   -1.000
 5766.00    2.25072   2.17999   25.244
 5767.00    2.26430   2.19169   25.217
 5768.00    2.26857   2.19310   25.175
 5769.00    2.27320   2.18930   25.218
 5770.00    2.26725   2.18256   -1.000
 5771.00    2.24591   2.17426   25.437
 5772.00    2.23347   2.16560   25.595
 5773.00    2.22526   2.15755   25.667
 5774.00    2.22440   2.15160   25.700
 5775.00    2.21996   2.14962   25.654
 5776.00    2.21828   2.15202   25.530
 5777.00    2.20063   2.15444   25.496
 5778.00    2.16226   2.14794   25.568
 5779.00    2.10595   2.12591   25.916
 5780.00    2.04672   2.09120   26.490
 5781.00    2.03494   2.05601   26.861
 5782.00    2.07166   2.03347   26.846
 5783.00    2.11925   2.02710   -1.000
 5784.00    2.15217   2.03064   -1.000
 5785.00    2.16684   2.03924   -1.000
 5786.00    2.18465   2.05661   -1.000
 5787.00    2.22267   2.08395   -1.000
 5788.00    2.24546   2.11107   -1.000
 5789.00    2.25042   2.12661   -1.000
 5790.00    2.24264   2.12974   -1.000
 5791.00    2.23649   2.12884   -1.000
 5792.00    2.23571   2.13455   -1.000
 5793.00    2.23558   2.15062   -1.000
 5794.00    2.24184   2.17047   25.271
 5795.00    2.25389   2.18285   25.241
 5796.00    2.21016   2.18132   25.378
 5797.00    2.19147   2.17055   25.543
 5798.00    2.21460   2.16414   25.448
 5799.00    2.26200   2.17280   -1.000
 5800.00    2.30805   2.19343   -1.000
 5801.00    2.30822   2.21270   -1.000
 5802.00    2.30140   2.21839   -1.000
 5803.00    2.29082   2.20749   -1.000
 5804.00    2.28020   2.18783   -1.000
 5805.00    2.27823   2.17193   -1.000
 5806.00    2.27490   2.16750   -1.000
 5807.00    2.28308   2.17306   -1.000
 5808.00    2.28390   2.18280   -1.000
 5809.00    2.27664   2.19241   -1.000
 5810.00    2.29085   2.20041   -1.000
 5811.00    2.30658   2.20580   -1.000
 5812.00    2.29000   2.20642   -1.000
 5813.00    2.29070   2.20017   -1.000
 5814.00    2.29485   2.18738   -1.000
 5815.00    2.27459   2.17256   -1.000
 5816.00    2.26997   2.16444   -1.000
 5817.00    2.28304   2.17074   -1.000
 5818.00    2.29833   2.19000   -1.000
 5819.00    2.30122   2.21135   -1.000
 5820.00    2.31290   2.22495   -1.000
 5821.00    2.31444   2.22847   -1.000
 5822.00    2.31232   2.22498   -1.000
 5823.00    2.31064   2.21958   -1.000
 5824.00    2.31020   2.21647   -1.000
 5825.00    2.31306   2.21698   -1.000
 5826.00    2.31661   2.21981   -1.000
 5827.00    2.31617   2.22357   -1.000
 5828.00    2.32572   2.22793   -1.000
 5829.00    2.32595   2.23235   -1.000
 5830.00    2.32411   2.23504   -1.000
 5831.00    2.31830   2.23452   -1.000
 5832.00    2.30555   2.23085   24.732
 5833.00    2.29843   2.22455   24.889
 5834.00    2.30756   2.21676   -1.000
 5835.00    2.32659   2.21100   -1.000
 5836.00    2.32418   2.21014   -1.000
 5837.00    2.32197   2.21239   -1.000
 5838.00    2.32693   2.21511   -1.000
 5839.00    2.32677   2.22006   -1.000
 5840.00    2.32040   2.22913   -1.000
 5841.00    2.30877   2.23931   24.568
 5842.00    2.31320   2.24549   24.562
 5843.00    2.32872   2.24471   -1.000
 5844.00    2.32582   2.23675   -1.000
 5845.00    2.31366   2.22333   -1.000
 5846.00    2.29624   2.20768   -1.000
 5847.00    2.27831   2.19454   -1.000
 5848.00    2.26426   2.18795   25.132
 5849.00    2.25584   2.18741   25.164
 5850.00    2.26519   2.18636   25.300
 5851.00    2.26485   2.17713   -1.000
 5852.00    2.24656   2.15919   -1.000
 5853.00    2.22263   2.14114   25.839
 5854.00    2.22187   2.13107   -1.000
 5855.00    2.23934   2.12590   -1.000
 5856.00    2.22387   2.11516   -1.000
 5857.00    2.19702   2.09752   -1.000
 5858.00    2.20359   2.08652   -1.000
 5859.00    2.23147   2.09427   -1.000
 5860.00    2.25362   2.11682   -1.000
 5861.00    2.26463   2.14016   -1.000
 5862.00    2.26418   2.15521   -1.000
 5863.00    2.26377   2.16279   -1.000
 5864.00    2.26198   2.16594   -1.000
 5865.00    2.25431   2.16455   -1.000
 5866.00    2.25397   2.15922   -1.000
 5867.00    2.25938   2.15640   -1.000
 5868.00    2.27089   2.16365   -1.000
 5869.00    2.28592   2.17965   -1.000
 5870.00    2.30170   2.19467   -1.000
 5871.00    2.30115   2.20118   -1.000
 5872.00    2.30704   2.19950   -1.000
 5873.00    2.31227   2.19453   -1.000
 5874.00    2.29004   2.19050   -1.000
 5875.00    2.28847   2.18800   -1.000
 5876.00    2.30160   2.18472   -1.000
 5877.00    2.29202   2.17759   -1.000
 5878.00    2.26756   2.16551   -1.000
 5879.00    2.25824   2.15087   -1.000
 5880.00    2.25238   2.13844   -1.000
 5881.00    2.25386   2.13197   -1.000
 5882.00    2.27300   2.13039   -1.000
 5883.00    2.26522   2.12868   -1.000
 5884.00    2.25616   2.12470   -1.000
 5885.00    2.24991   2.11861   -1.000
 5886.00    2.21317   2.09989   -1.000
 5887.00    2.08991   2.04529   27.105
 5888.00    1.80387   1.94366   -1.000
 5889.00    1.48191   1.82363   -1.000
 5890.00    1.39773   1.74472   -1.000
 5891.00    1.59753   1.74651   -1.000
 5892.00    1.85644   1.80816   29.426
 5893.00    1.95929   1.86680   28.799
 5894.00    1.87180   1.87484   29.059
 5895.00    1.68633   1.83990   -1.000
 5896.00    1.60966   1.81349   -1.000
 5897.00    1.77612   1.83982   29.049
 5898.00    1.99030   1.91280   28.007
 5899.00    2.13048   1.99153   -1.000
 5900.00    2.19687   2.05006   -1.000
 5901.00    2.21767   2.08879   -1.000
 5902.00    2.23339   2.11361   -1.000
 5903.00    2.24414   2.12756   -1.000
 5904.00    2.25549   2.13371   -1.000
 5905.00    2.25302   2.13603   -1.000
 5906.00    2.24105   2.13880   -1.000
 5907.00    2.24611   2.14492   -1.000
 5908.00    2.25093   2.15352   -1.000
 5909.00    2.25087   2.16115   25.885
 5910.00    2.25456   2.16542   -1.000
 5911.00    2.25681   2.16448   -1.000
 5912.00    2.24554   2.15506   -1.000
 5913.00    2.21405   2.13635   26.405
 5914.00    2.19786   2.11474   26.622
 5915.00    2.19893   2.10100   -1.000
 5916.00    2.20736   2.10145   -1.000
 5917.00    2.22051   2.11397   -1.000
 5918.00    2.23346   2.13186   -1.000
 5919.00    2.22979   2.14838   26.162
 5920.00    2.23081   2.15865   26.067
 5921.00    2.23342   2.16163   26.068
 5922.00    2.23468   2.16074   26.093
 5923.00    2.23109   2.16137   25.998
 5924.00    2.23417   2.16622   25.913
 5925.00    2.25130   2.17342   25.863
 5926.00    2.24874   2.17870   25.842
 5927.00    2.26434   2.17770   25.886
 5928.00    2.24447   2.16853   26.065
 5929.00    2.22848   2.15548   26.270
 5930.00    2.24479   2.14826   -1.000
 5931.00    2.25967   2.15271   -1.000
 5932.00    2.26349   2.16238   -1.000
 5933.00    2.25664   2.16524   -1.000
 5934.00    2.24792   2.15902   -1.000
 5935.00    2.23977   2.15363   -1.000
 5936.00    2.25527   2.15843   -1.000
 5937.00    2.28056   2.17158   -1.000
 5938.00    2.28855   2.18274   -1.000
 5939.00    2.27296   2.18358   -1.000
 5940.00    2.24278   2.17359   26.152
 5941.00    2.23054   2.15934   26.307
 5942.00    2.24264   2.15059   -1.000
 5943.00    2.25320   2.15344   -1.000
 5944.00    2.26277   2.16534   -1.000
 5945.00    2.26038   2.17747   25.893
 5946.00    2.25561   2.18142   25.954
 5947.00    2.25349   2.17400   26.178
 5948.00    2.23313   2.16032   26.454
 5949.00    2.22482   2.15093   26.530
 5950.00    2.23731   2.15098   -1.000
 5951.00    2.24227   2.15456   -1.000
 5952.00    2.24062   2.15478   -1.000
 5953.00    2.24140   2.15361   -1.000
 5954.00    2.24898   2.15524   -1.000
 5955.00    2.24993   2.15722   -1.000
 5956.00    2.23999   2.15528   26.402
 5957.00    2.23702   2.15224   26.446
 5958.00    2.24992   2.15588   -1.000
 5959.00    2.27424   2.16911   -1.000
 5960.00    2.28785   2.18669   -1.000
 5961.00    2.29105   2.20152   -1.000
 5962.00    2.29599   2.20961   -1.000
 5963.00    2.29712   2.21027   -1.000
 5964.00    2.29053   2.20504   -1.000
 5965.00    2.28115   2.19745   25.944
 5966.00    2.27736   2.19284   26.038
 5967.00    2.26963   2.19505   25.989
 5968.00    2.28300   2.20260   25.798
 5969.00    2.29003   2.21104   25.724
 5970.00    2.29297   2.21811   25.715
 5971.00    2.30214   2.22320   25.662
 5972.00    2.28057   2.22463   25.632
 5973.00    2.28498   2.22009   25.759
 5974.00    2.28849   2.20807   25.962
 5975.00    2.25904   2.18965   26.161
 5976.00    2.25160   2.17047   26.349
 5977.00    2.24187   2.15874   -1.000
 5978.00    2.25062   2.15954   -1.000
 5979.00    2.26624   2.17121   -1.000
 5980.00    2.27422   2.18569   -1.000
 5981.00    2.27360   2.19205   26.092
 5982.00    2.27746   2.18353   -1.000
 5983.00    2.25526   2.16374   -1.000
 5984.00    2.23885   2.14557   -1.000
 5985.00    2.24348   2.14140   -1.000
 5986.00    2.25895   2.15295   -1.000
 5987.00    2.26998   2.17126   -1.000
 5988.00    2.27853   2.18673   -1.000
 5989.00    2.27837   2.19550   -1.000
 5990.00    2.27656   2.19790   25.963
 5991.00    2.28244   2.19798   -1.000
 5992.00    2.29526   2.20261   -1.000
 5993.00    2.31180   2.21406   -1.000
 5994.00    2.31122   2.22495   -1.000
 5995.00    2.30418   2.22583   25.775
 5996.00    2.29174   2.21526   25.957
 5997.00    2.28052   2.20090   -1.000
 5998.00    2.28218   2.19243   -1.000
 5999.00    2.28292   2.19320   -1.000
 6000.00    2.29076   2.19822   -1.000
 6001.00    2.27880   2.19996   26.260
 6002.00    2.26511   2.19597   26.354
 6003.00    2.26068   2.19057   26.351
 6004.00    2.25731   2.18837   26.283
 6005.00    2.25719   2.18626   26.293
 6006.00    2.24642   2.17674   26.471
 6007.00    2.23583   2.16092   26.735
 6008.00    2.23341   2.15153   -1.000
 6009.00    2.24189   2.15932   -1.000
 6010.00    2.25022   2.17893   26.187
 6011.00    2.26397   2.19313   26.177
 6012.00    2.27517   2.19264   -1.000
 6013.00    2.28018   2.18420   -1.000
 6014.00    2.28486   2.17861   -1.000
 6015.00    2.27180   2.17847   -1.000
 6016.00    2.27003   2.17928   -1.000
 6017.00    2.27991   2.17798   -1.000
 6018.00    2.27278   2.17489   -1.000
 6019.00    2.26316   2.16961   -1.000
 6020.00    2.25720   2.16302   -1.000
 6021.00    2.25404   2.16010   -1.000
 6022.00    2.25581   2.16447   -1.000
 6023.00    2.25392   2.17440   -1.000
 6024.00    2.26700   2.18690   -1.000
 6025.00    2.27901   2.20038   -1.000
 6026.00    2.28896   2.21304   26.130
 6027.00    2.29792   2.22373   25.973
 6028.00    2.30551   2.23354   25.854
 6029.00    2.31339   2.24270   25.813
 6030.00    2.32073   2.24942   25.818
 6031.00    2.31546   2.25399   25.875
 6032.00    2.30499   2.25882   25.837
 6033.00    2.31938   2.26431   25.725
 6034.00    2.32614   2.26889   25.655
 6035.00    2.32897   2.27169   25.641
 6036.00    2.32936   2.27239   25.596
 6037.00    2.32795   2.27037   25.617
 6038.00    2.32409   2.26555   25.756
 6039.00    2.31450   2.25907   25.817
 6040.00    2.30641   2.25296   25.896
 6041.00    2.32416   2.24896   25.852
 6042.00    2.32800   2.24817   -1.000
 6043.00    2.32441   2.25260   25.689
 6044.00    2.33571   2.26304   25.488
 6045.00    2.34756   2.27540   25.484
 6046.00    2.35550   2.28436   25.494
 6047.00    2.34786   2.28881   25.455
 6048.00    2.34114   2.29016   25.475
 6049.00    2.35144   2.28930   25.560
 6050.00    2.34226   2.28722   25.621
 6051.00    2.35261   2.28411   25.646
 6052.00    2.34804   2.27818   25.693
 6053.00    2.34008   2.26864   25.794
 6054.00    2.32662   2.25736   25.876
 6055.00    2.30131   2.24698   26.014
 6056.00    2.30586   2.24026   26.100
 6057.00    2.31461   2.24018   26.064
 6058.00    2.32598   2.24717   -1.000
 6059.00    2.32521   2.25736   25.797
 6060.00    2.32143   2.26461   25.815
 6061.00    2.32267   2.26334   25.873
 6062.00    2.31550   2.25081   26.219
 6063.00    2.34944   2.22939   -1.000
 6064.00    2.22203   2.20785   25.957
 6065.00    2.22291   2.19867   38.845
 6066.00    1.30551   2.21005   -1.000
 6067.00    1.13489   2.23794   -1.000
 6068.00    1.99896   2.26852   -1.000
 6069.00    2.38640   2.29023   -1.000
 6070.00    2.24594   2.30126   25.251
 6071.00    2.33794   2.30499   24.873
 6072.00    1.07913   2.30359   -1.000
 6073.00    1.30190   2.29962   -1.000
 6074.00    2.26805   2.29718   25.592
 6075.00    2.36544   2.29458   25.672
 6076.00    2.33961   2.28548   25.803
 6077.00    2.32397   2.26917   25.950
 6078.00    2.30647   2.25220   26.148
 6079.00    2.30094   2.24066   26.312
 6080.00    2.30301   2.23410   26.339
 6081.00    2.30294   2.22838   -1.000
 6082.00    2.29253   2.22299   26.432
 6083.00    2.28740   2.22094   26.438
 6084.00    2.28333   2.22301   26.419
 6085.00    2.28130   2.22761   26.392
 6086.00    2.29046   2.23373   26.319
 6087.00    2.30461   2.23963   26.215
 6088.00    2.30568   2.24133   26.252
 6089.00    2.28726   2.23598   26.404
 6090.00    2.27448   2.22651   26.522
 6091.00    2.27348   2.22010   26.519
 6092.00    2.28416   2.22169   26.361
 6093.00    2.30283   2.23094   26.224
 6094.00    2.31812   2.24408   -1.000
 6095.00    2.32276   2.25614   25.962
 6096.00    2.32395   2.26383   25.960
 6097.00    2.32801   2.26820   26.022
 6098.00    2.32109   2.27142   26.043
 6099.00    2.31122   2.26947   26.046
 6100.00    2.29775   2.25247   26.328
 6101.00    2.26655   2.21694   26.948
 6102.00    2.21880   2.17765   27.409
 6103.00    2.21190   2.15994   27.270
 6104.00    2.25284   2.17432   -1.000
 6105.00    2.28624   2.20645   -1.000
 6106.00    2.29093   2.23489   26.233
 6107.00    2.28512   2.25088   26.319
 6108.00    2.29440   2.25899   26.390
 6109.00    2.29782   2.26483   26.385
 6110.00    2.30445   2.26838   26.332
 6111.00    2.30335   2.26913   26.221
 6112.00    2.30991   2.27055   26.204
 6113.00    2.31126   2.27529   26.079
 6114.00    2.31499   2.28022   26.006
 6115.00    2.32248   2.28069   26.092
 6116.00    2.31417   2.27710   26.261
 6117.00    2.30839   2.27200   26.312
 6118.00    2.29437   2.26223   26.429
 6119.00    2.27520   2.24145   26.789
 6120.00    2.25246   2.21020   27.145
 6121.00    2.21303   2.17965   27.412
 6122.00    2.21053   2.16601   27.457
 6123.00    2.24754   2.17747   27.054
 6124.00    2.27021   2.20435   26.691
 6125.00    2.27501   2.22722   26.650
 6126.00    2.26919   2.23509   26.795
 6127.00    2.25062   2.23076   26.782
 6128.00    2.27783   2.22498   26.723
 6129.00    2.28698   2.22965   26.520
 6130.00    2.29200   2.24825   26.270
 6131.00    2.28453   2.27070   26.196
 6132.00    2.28974   2.28235   26.238
 6133.00    2.28650   2.27309   26.469
 6134.00    2.24751   2.23786   27.037
 6135.00    2.18777   2.18097   27.827
 6136.00    2.12823   2.12416   28.543
 6137.00    2.11711   2.09812   28.689
 6138.00    2.15205   2.11555   28.040
 6139.00    2.20125   2.15676   27.244
 6140.00    2.22066   2.18986   26.895
 6141.00    2.22473   2.20351   26.914
 6142.00    2.21875   2.21225   26.963
 6143.00    2.23383   2.23028   26.721
 6144.00    2.27210   2.25323   26.400
 6145.00    2.28781   2.26820   26.332
 6146.00    2.28352   2.26883   26.442
 6147.00    2.28467   2.25775   26.608
 6148.00    2.26723   2.24211   26.799
 6149.00    2.24732   2.22971   26.960
 6150.00    2.23604   2.22586   26.977
 6151.00    2.23826   2.23079   26.885
 6152.00    2.25914   2.23899   26.704
 6153.00    2.26004   2.24243   26.655
 6154.00    2.25673   2.23726   26.859
 6155.00    2.25747   2.22732   27.010
 6156.00    2.23986   2.21897   27.039
 6157.00    2.22336   2.21282   27.141
 6158.00    2.20768   2.20148   27.414
 6159.00    2.17775   2.17379   27.918
 6160.00    2.12323   2.12496   28.739
 6161.00    2.05942   2.06759   29.583
 6162.00    2.02816   2.02833   29.925
 6163.00    2.05288   2.02707   29.545
 6164.00    2.09500   2.05945   28.753
 6165.00    2.11450   2.10275   28.274
 6166.00    2.12261   2.13432   28.128
 6167.00    2.13147   2.14288   28.186
 6168.00    2.11962   2.13062   28.528
 6169.00    2.09146   2.11278   28.830
 6170.00    2.08603   2.10957   28.665
 6171.00    2.11657   2.12866   28.133
 6172.00    2.14215   2.15834   27.722
 6173.00    2.14774   2.18193   27.711
 6174.00    2.15950   2.19389   27.739
 6175.00    2.16764   2.19859   27.678
 6176.00    2.16690   2.20152   27.623
 6177.00    2.16918   2.20636   27.550
 6178.00    2.17303   2.21405   27.419
 6179.00    2.17702   2.22265   27.316
 6180.00    2.18848   2.23064   27.228
 6181.00    2.20076   2.23876   27.105
 6182.00    2.20599   2.24638   27.030
 6183.00    2.20864   2.24995   27.074
 6184.00    2.19293   2.24627   27.168
 6185.00    2.17618   2.23475   27.374
 6186.00    2.16729   2.21761   27.669
 6187.00    2.14838   2.19880   27.958
 6188.00    2.13250   2.17988   28.226
 6189.00    2.11930   2.15839   28.435
 6190.00    2.08287   2.13498   28.794
 6191.00    2.06485   2.12045   28.998
 6192.00    2.08179   2.12775   28.717
 6193.00    2.12369   2.15664   28.029
 6194.00    2.15941   2.19260   27.546
 6195.00    2.16350   2.22068   27.355
 6196.00    2.16802   2.23437   27.307
 6197.00    2.17305   2.23289   27.467
 6198.00    2.15884   2.21900   27.778
 6199.00    2.14707   2.20210   28.015
 6200.00    2.13439   2.19554   28.010
 6201.00    2.13627   2.20537   27.744
 6202.00    2.14694   2.22507   27.398
 6203.00    2.15142   2.24358   27.297
 6204.00    2.15579   2.25481   27.297
 6205.00    2.16827   2.25997   27.255
 6206.00    2.18877   2.26308   27.249
 6207.00    2.20419   2.26564   27.347
 6208.00    2.20559   2.26561   27.355
 6209.00    2.18964   2.26018   27.464
 6210.00    2.16500   2.24760   27.707
 6211.00    2.15362   2.22659   27.928
 6212.00    2.13659   2.19723   28.197
 6213.00    2.10573   2.16497   28.616
 6214.00    2.09368   2.14048   28.919
 6215.00    2.08810   2.13172   29.012
 6216.00    2.09489   2.13704   28.668
 6217.00    2.10519   2.14656   28.503
 6218.00    2.10563   2.15042   28.694
 6219.00    2.10747   2.14737   28.621
 6220.00    2.10466   2.14511   28.412
 6221.00    2.10220   2.15067   28.554
 6222.00    2.14465   2.16232   30.511
 6223.00    2.09566   2.17361   29.828
 6224.00    1.82251   2.18137   -1.000
 6225.00    2.02347   2.18614   -1.000
 6226.00    2.13345   2.18692   28.265
 6227.00    2.14263   2.17886   28.411
 6228.00    2.12411   2.15705   28.781
 6229.00    2.08987   2.12398   29.256
 6230.00    2.05390   2.09344   29.641
 6231.00    2.05018   2.08278   29.559
 6232.00    2.06344   2.09882   29.154
 6233.00    2.10271   2.13354   28.610
 6234.00    2.13531   2.17123   28.137
 6235.00    2.15477   2.19695   27.977
 6236.00    2.15984   2.20228   28.140
 6237.00    2.13353   2.18891   28.420
 6238.00    2.11611   2.16646   28.710
 6239.00    2.10410   2.14560   29.015
 6240.00    2.09480   2.13231   29.154
 6241.00    2.07853   2.12521   29.153
 6242.00    2.06245   2.11817   29.344
 6243.00    2.05718   2.10823   29.543
 6244.00    2.06417   2.09962   29.544
 6245.00    2.07982   2.09916   29.369
 6246.00    2.09027   2.11113   29.085
 6247.00    2.09985   2.13451   28.721
 6248.00    2.13308   2.16095   28.414
 6249.00    2.13485   2.17789   28.359
 6250.00    2.11939   2.17600   28.598
 6251.00    2.09146   2.15549   29.106
 6252.00    2.06313   2.12721   29.487
 6253.00    2.06250   2.10505   29.702
 6254.00    2.06753   2.09432   29.795
 6255.00    2.05832   2.08939   29.791
 6256.00    2.04042   2.08301   30.032
 6257.00    2.01324   2.07597   30.305
 6258.00    2.02694   2.07678   30.216
 6259.00    2.04932   2.09239   29.787
 6260.00    2.07835   2.12128   29.336
 6261.00    2.10360   2.15497   28.934
 6262.00    2.12237   2.18341   28.491
 6263.00    2.12806   2.19925   28.317
 6264.00    2.11388   2.20181   28.508
 6265.00    2.11377   2.19841   28.707
 6266.00    2.10922   2.19775   28.611
 6267.00    2.10282   2.20104   28.406
 6268.00    2.10788   2.20278   28.473
 6269.00    2.09983   2.20051   28.618
 6270.00    2.08857   2.19867   28.600
 6271.00    2.10491   2.20174   28.505
 6272.00    2.13155   2.20790   28.434
 6273.00    2.13856   2.21084   28.494
 6274.00    2.12029   2.20580   28.690
 6275.00    2.10012   2.19262   28.921
 6276.00    2.06529   2.17363   29.360
 6277.00    2.02838   2.15124   30.080
 6278.00    1.99553   2.12852   -1.000
 6279.00    1.96537   2.11047   -1.000
 6280.00    1.95644   2.10358   -1.000
 6281.00    1.94447   2.11204   -1.000
 6282.00    1.95049   2.13372   -1.000
 6283.00    1.95683   2.16142   -1.000
 6284.00    1.98124   2.18794   -1.000
 6285.00    2.01630   2.21022   -1.000
 6286.00    2.06139   2.22849   -1.000
 6287.00    2.10511   2.24222   28.275
 6288.00    2.13222   2.24839   28.204
 6289.00    2.14402   2.24433   28.334
 6290.00    2.14281   2.23204   28.568
 6291.00    2.14501   2.21789   28.785
 6292.00    2.13650   2.20785   28.859
 6293.00    2.11874   2.20288   28.890
 6294.00    2.11423   2.19837   28.940
 6295.00    2.10520   2.18889   29.145
 6296.00    2.09162   2.17498   29.344
 6297.00    2.07335   2.16354   29.405
 6298.00    2.05578   2.15928   29.369
 6299.00    2.06533   2.15856   29.253
 6300.00    2.06791   2.15535   29.122
 6301.00    2.06407   2.15071   29.326
 6302.00    2.07700   2.15259   29.658
 6303.00    2.09885   2.16583   29.480
 6304.00    2.12125   2.18683   29.027
 6305.00    2.13074   2.20930   28.657
 6306.00    2.13886   2.22981   28.402
 6307.00    2.16038   2.24620   28.146
 6308.00    2.16737   2.25488   28.075
 6309.00    2.15146   2.25362   28.183
 6310.00    2.15449   2.24514   28.369
 6311.00    2.14746   2.23473   28.489
 6312.00    2.13024   2.22501   28.604
 6313.00    2.13075   2.21443   28.642
 6314.00    2.11851   2.20129   28.877
 6315.00    2.10897   2.18751   29.005
 6316.00    2.11425   2.17663   28.997
 6317.00    2.11355   2.17054   28.968
 6318.00    2.10175   2.17173   29.001
 6319.00    2.10849   2.18329   28.913
 6320.00    2.14431   2.20297   28.590
 6321.00    2.16762   2.22348   28.298
 6322.00    2.16329   2.24089   28.170
 6323.00    2.17148   2.25621   28.077
 6324.00    2.18404   2.26946   27.931
 6325.00    2.19019   2.27825   27.835
 6326.00    2.19491   2.28160   27.812
 6327.00    2.20314   2.28173   27.688
 6328.00    2.20338   2.28149   27.692
 6329.00    2.20210   2.28202   27.716
 6330.00    2.20639   2.28415   27.735
 6331.00    2.22069   2.28852   27.648
 6332.00    2.22197   2.29111   27.594
 6333.00    2.20391   2.28352   27.655
 6334.00    2.18215   2.26229   27.727
 6335.00    2.18185   2.23606   28.303
 6336.00    2.19136   2.21989   28.454
 6337.00    2.16856   2.22212   28.242
 6338.00    2.18702   2.23892   27.957
 6339.00    2.20529   2.26062   27.651
 6340.00    2.21685   2.27828   27.494
 6341.00    2.22492   2.28547   27.362
 6342.00    2.21259   2.28060   27.363
 6343.00    2.19468   2.26937   27.585
 6344.00    2.18532   2.26160   27.655
 6345.00    2.18313   2.26370   27.590
 6346.00    2.18798   2.27493   27.448
 6347.00    2.20143   2.29090   27.260
 6348.00    2.23268   2.30772   27.144
 6349.00    2.22893   2.32190   27.138
 6350.00    2.22667   2.33013   27.088
 6351.00    2.21811   2.33033   27.101
 6352.00    2.20600   2.32196   27.208
 6353.00    2.19843   2.30663   27.333
 6354.00    2.18835   2.28920   27.624
 6355.00    2.16780   2.27518   27.877
 6356.00    2.16695   2.26478   27.918
 6357.00    2.17199   2.25305   27.986
 6358.00    2.15662   2.23794   28.277
 6359.00    2.14491   2.22320   28.429
 6360.00    2.14173   2.21249   28.342
 6361.00    2.14713   2.20636   28.244
 6362.00    2.14664   2.20554   28.210
 6363.00    2.14887   2.21207   28.123
 6364.00    2.16006   2.22638   27.947
 6365.00    2.17084   2.24606   27.767
 6366.00    2.19717   2.26724   27.614
 6367.00    2.21664   2.28576   27.442
 6368.00    2.21946   2.29807   27.260
 6369.00    2.22160   2.30352   27.174
 6370.00    2.22645   2.30618   27.184
 6371.00    2.23577   2.31177   27.108
 6372.00    2.24323   2.32207   27.001
 6373.00    2.23228   2.33334   27.048
 6374.00    2.22432   2.34050   27.079
 6375.00    2.22983   2.34144   27.131
 6376.00    2.21855   2.33689   27.227
 6377.00    2.19802   2.32818   27.361
 6378.00    2.18538   2.31748   27.543
 6379.00    2.18123   2.30832   27.660
 6380.00    2.17255   2.30353   27.689
 6381.00    2.17778   2.30362   27.736
 6382.00    2.18179   2.30694   27.738
 6383.00    2.18953   2.31091   27.672
 6384.00    2.18005   2.31453   27.772
 6385.00    2.18590   2.31902   27.848
 6386.00    2.18350   2.32505   27.835
 6387.00    2.16724   2.33079   -1.000
 6388.00    2.15646   2.33356   -1.000
 6389.00    2.15421   2.33109   -1.000
 6390.00    2.13130   2.32054   -1.000
 6391.00    2.11110   2.30020   -1.000
 6392.00    2.09068   2.27519   -1.000
 6393.00    2.07712   2.25899   -1.000
 6394.00    2.07422   2.26381   -1.000
 6395.00    2.07831   2.28690   -1.000
 6396.00    2.08867   2.31020   -1.000
 6397.00    2.08220   2.31530   -1.000
 6398.00    2.05992   2.29785   -1.000
 6399.00    2.02663   2.27150   -1.000
 6400.00    2.01230   2.25902   -1.000
 6401.00    2.02080   2.27359   -1.000
 6402.00    2.03884   2.30721   -1.000
 6403.00    2.05690   2.33933   -1.000
 6404.00    2.05454   2.35471   -1.000
 6405.00    2.03414   2.35064   -1.000
 6406.00    2.01126   2.33375   -1.000
 6407.00    1.98665   2.31534   -1.000
 6408.00    1.97137   2.30491   -1.000
 6409.00    1.96515   2.30317   -1.000
 6410.00    1.95061   2.30376   -1.000
 6411.00    1.92118   2.30307   -1.000
 6412.00    1.90664   2.30362   -1.000
 6413.00    1.92011   2.30744   -1.000
 6414.00    1.91743   2.31272   -1.000
 6415.00    1.91185   2.31735   -1.000
 6416.00    1.89955   2.32013   -1.000
 6417.00    1.88146   2.31772   -1.000
 6418.00    1.84760   2.30628   -1.000
 6419.00    1.82667   2.28829   -1.000
 6420.00    1.79501   2.27468   -1.000
 6421.00    1.77688   2.27741   -1.000
 6422.00    1.78645   2.29843   -1.000
 6423.00    1.79841   2.32731   -1.000
 6424.00    1.79158   2.35173   -1.000
 6425.00    1.78072   2.36727   -1.000
 6426.00    1.76014   2.37476   -1.000
 6427.00    1.74352   2.37259   -1.000
 6428.00    1.72204   2.35672   -1.000
