###################################################################
## OUTPUT of StarlightChains_v04.for    [Cid@UFSC - 01/Apr/2007] ##
###################################################################

## Some input info
NGC6652_a_1.cxt                          [arq_obs]
Base.BC03.S                              [arq_base]
NGC6652_a_1.msk                          [arq_masks]
StCv04.C11.config                        [arq_config]
  150                                    [N_base]
    0                                    [N_YAV_components = # of components with extra extinction!]
    0                                    [i_FitPowerLaw (1/0 = Yes/No)]
-9.99                                    [alpha_PowerLaw]
CCM                                      [red_law_option]
 1.458241                                [q_norm = A(l_norm)/A(V)]

## (Re)Sampling Parameters
 3359.00                                 [l_ini (A)]
 6428.00                                 [l_fin (A)]
    1.00                                 [dl    (A)]     (OBS: dl_cushion =    50.00 A)

## Normalization info
 4020.00                                 [l_norm (A) - for base]
 4010.00                                 [llow_norm (A) - window for f_obs]
 4060.00                                 [lupp_norm (A) - window for f_obs]
1.310531E-14                             [fobs_norm (in input units)]

## S/N
 4730.00                                 [llow_SN (A) - window for S/N]
 4780.00                                 [lupp_SN (A) - window for S/N]
  53.684                                 [S/N in S/N window]
  42.801                                 [S/N in norm. window]
  62.234                                 [S/N_err in S/N window]
  49.617                                 [S/N_err in norm. window]
  1.0000                                 [fscale_chi2]

## etc...
  2147483592                             [idum_orig]
  3067                                   [NOl_eff]
  2265                                   [Nl_eff]
   802    NSIGMA                         [Ntot_cliped & clip_method]
  1677900                                [Nglobal_steps]
   7                                     [N_chains]
  23                                     [NEX0s_base = N_base in EX0s-fits]
 0   0   1      386   2.0   9.034E+02    [Clip-Bug, RC-Crash & Burn-In warning-flags, n_censored_weights, wei_nsig_threshold & wei_limit]
    55     55.658     55.646      0.012  [idt_all, wdt_TotTime, wdt_UsrTime & wdt_SysTime (sec)]

## Synthesis Results - Best model ##

 2.17842E+00                             [chi2/Nl_eff]
     1.93368                             [adev (%)]

   100.83630                             [sum-of-x (%)]
 1.55335E-14                             [Flux_tot (units of input spectrum!)]
 5.88410E-10                             [Mini_tot (???)]
 2.96582E-10                             [Mcor_tot (???)]

 -20.36                                  [v0_min  (km/s)]
  64.99                                  [vd_min  (km/s)]
 0.1204                                  [AV_min  (mag)]
 0.0000                                  [YAV_min (mag)]

# j     x_j(%)      Mini_j(%)     Mcor_j(%)     age_j(yr)     Z_j      (L/M)_j    YAV?  Mstars   component_j        a/Fe...       SSP_chi2r SSP_adev(%)   SSP_AV   SSP_x(%)
  1      0.0000     0.0000E+00    0.0000E+00    1.000000E+06  0.00010  8.160E-03    0   1.0000   age020_m22            0.0000     2.7566E+02    16.9812   4.0000    69.5801
  2     10.7794     5.9300E-03    1.1765E-02    3.160000E+06  0.00010  4.759E-02    0   1.0000   age045_m22            0.0000     1.1082E+02     7.3811   2.2313    90.2970
  3      0.0000     0.0000E+00    0.0000E+00    5.010000E+06  0.00010  1.932E-02    0   0.9582   age055_m22            0.0000     1.6772E+02    13.8818   2.6785    74.3937
  4      0.0000     0.0000E+00    0.0000E+00    6.610000E+06  0.00010  9.973E-03    0   0.9297   age061_m22            0.0000     2.5097E+02    16.3675   4.0000    71.7912
  5      0.0000     0.0000E+00    0.0000E+00    8.710000E+06  0.00010  7.690E-03    0   0.9030   age067_m22            0.0000     2.3708E+02    15.9193   4.0000    72.3175
  6      0.0000     0.0000E+00    0.0000E+00    1.000000E+07  0.00010  6.375E-03    0   0.8902   age070_m22            0.0000     2.3260E+02    15.9157   4.0000    72.6273
  7      0.0000     0.0000E+00    0.0000E+00    1.445000E+07  0.00010  4.874E-03    0   0.8589   age078_m22            0.0000     1.4311E+02    11.8507   4.0000    75.5709
  8      0.0000     0.0000E+00    0.0000E+00    2.512000E+07  0.00010  4.103E-03    0   0.8174   age090_m22            0.0000     1.1548E+02     9.2224   3.6671    82.3948
  9      0.0000     0.0000E+00    0.0000E+00    4.000000E+07  0.00010  3.654E-03    0   0.7830   age104_m22            0.0000     2.0748E+02     7.6834   3.3094    88.0615
 10      0.0000     0.0000E+00    0.0000E+00    5.500000E+07  0.00010  3.093E-03    0   0.7597   age110_m22            0.0000     2.5052E+02     7.2021   3.1840    90.1764
 11      0.0000     0.0000E+00    0.0000E+00    1.015200E+08  0.00010  2.431E-03    0   0.7138   age116_m22            0.0000     3.6005E+02     7.0847   2.8123    93.4780
 12      0.0000     0.0000E+00    0.0000E+00    1.609000E+08  0.00010  1.319E-03    0   0.6775   age120_m22            0.0000     3.4488E+02     6.7807   2.3341    95.9363
 13      0.0000     0.0000E+00    0.0000E+00    2.861200E+08  0.00010  1.075E-03    0   0.6412   age125_m22            0.0000     7.0627E+02     7.4985   2.3044   102.0611
 14      0.0000     0.0000E+00    0.0000E+00    5.088000E+08  0.00010  7.183E-04    0   0.6083   age130_m22            0.0000     7.9620E+02     8.0942   2.0244   105.5351
 15      0.0000     0.0000E+00    0.0000E+00    9.047900E+08  0.00010  4.524E-04    0   0.5785   age135_m22            0.0000     7.9099E+02     8.2856   1.8079   107.4567
 16      0.0000     0.0000E+00    0.0000E+00    1.278050E+09  0.00010  3.018E-04    0   0.5588   age138_m22            0.0000     4.3150E+02     6.6155   1.3260   104.5871
 17      0.0000     0.0000E+00    0.0000E+00    1.434000E+09  0.00010  2.691E-04    0   0.5532   age139_m22            0.0000     3.6395E+02     6.2914   1.1757   104.0146
 18      0.0000     0.0000E+00    0.0000E+00    2.500000E+09  0.00010  1.582E-04    0   0.5296   age150_m22            0.0000     3.3974E+02     6.3467   1.0806   103.9979
 19      0.0000     0.0000E+00    0.0000E+00    4.250000E+09  0.00010  1.007E-04    0   0.5110   age158_m22            0.0000     2.1833E+02     5.6431   0.9583   101.6395
 20      0.1978     7.5399E-02    7.4570E-02    6.250000E+09  0.00010  6.869E-05    0   0.4985   age166_m22            0.0000     1.2348E+02     5.1962   0.9369    98.0898
 21      0.7645     3.4081E-01    3.3341E-01    7.500000E+09  0.00010  5.873E-05    0   0.4931   age171_m22            0.0000     1.1453E+02     5.3421   0.9367    97.1373
 22      0.8682     5.0724E-01    4.8848E-01    1.000000E+10  0.00010  4.481E-05    0   0.4854   age181_m22            0.0000     1.1009E+02     5.2676   0.8983    96.8398
 23      1.3274     9.9604E-01    9.4676E-01    1.300000E+10  0.00010  3.489E-05    0   0.4791   age193_m22            0.0000     1.0084E+02     5.1212   0.8404    96.4253
 24      1.0785     9.3032E-01    8.7968E-01    1.500000E+10  0.00010  3.035E-05    0   0.4766   age201_m22            0.0000     9.6353E+01     5.0722   0.8017    96.2405
 25      0.7801     8.1372E-01    7.6442E-01    1.800000E+10  0.00010  2.510E-05    0   0.4735   age213_m22            0.0000     8.4987E+01     4.9771   0.7376    95.5839
 26      0.0000     0.0000E+00    0.0000E+00    1.000000E+06  0.00040  8.458E-03    0   1.0000   age020_m32            0.0000     2.7696E+02    17.2970   4.0000    70.1410
 27      0.0000     0.0000E+00    0.0000E+00    3.160000E+06  0.00040  3.973E-02    0   1.0000   age045_m32            0.0000     1.1729E+02     9.6631   3.5706    82.1715
 28      0.0000     0.0000E+00    0.0000E+00    5.010000E+06  0.00040  1.935E-02    0   0.9532   age055_m32            0.0000     1.4405E+02    12.8736   3.8670    75.0619
 29      0.0000     0.0000E+00    0.0000E+00    6.610000E+06  0.00040  1.204E-02    0   0.9243   age061_m32            0.0000     1.7757E+02    13.2999   4.0000    73.7943
 30      0.0000     0.0000E+00    0.0000E+00    8.710000E+06  0.00040  9.433E-03    0   0.9001   age067_m32            0.0000     1.5696E+02    12.5084   4.0000    74.7938
 31      0.0000     0.0000E+00    0.0000E+00    1.000000E+07  0.00040  8.053E-03    0   0.8877   age070_m32            0.0000     1.4657E+02    12.0737   4.0000    75.2098
 32      0.0000     0.0000E+00    0.0000E+00    1.445000E+07  0.00040  7.027E-03    0   0.8578   age078_m32            0.0000     1.1803E+02    10.6770   3.5528    80.3011
 33      0.0000     0.0000E+00    0.0000E+00    2.512000E+07  0.00040  4.707E-03    0   0.8166   age090_m32            0.0000     1.3016E+02     9.1537   3.2213    84.8071
 34      0.0000     0.0000E+00    0.0000E+00    4.000000E+07  0.00040  3.714E-03    0   0.7827   age104_m32            0.0000     1.9417E+02     7.9062   2.9727    89.0093
 35      0.0000     0.0000E+00    0.0000E+00    5.500000E+07  0.00040  2.982E-03    0   0.7593   age110_m32            0.0000     2.3573E+02     7.5044   2.8928    90.6337
 36      0.0000     0.0000E+00    0.0000E+00    1.015200E+08  0.00040  2.188E-03    0   0.7143   age116_m32            0.0000     4.6752E+02     6.9008   2.5529    96.7078
 37      0.0000     0.0000E+00    0.0000E+00    1.609000E+08  0.00040  1.690E-03    0   0.6856   age120_m32            0.0000     6.3730E+02     7.2181   2.3112   100.2089
 38      0.0000     0.0000E+00    0.0000E+00    2.861200E+08  0.00040  1.152E-03    0   0.6509   age125_m32            0.0000     7.2467E+02     7.6968   2.0303   104.0686
 39      0.0000     0.0000E+00    0.0000E+00    5.088000E+08  0.00040  7.331E-04    0   0.6182   age130_m32            0.0000     7.4963E+02     7.9561   1.8375   105.9803
 40      0.0000     0.0000E+00    0.0000E+00    9.047900E+08  0.00040  3.960E-04    0   0.5890   age135_m32            0.0000     4.2642E+02     6.5862   1.3940   104.8875
 41      0.0000     0.0000E+00    0.0000E+00    1.278050E+09  0.00040  2.854E-04    0   0.5687   age138_m32            0.0000     3.8556E+02     6.4776   1.1286   105.5568
 42      0.0000     0.0000E+00    0.0000E+00    1.434000E+09  0.00040  2.531E-04    0   0.5632   age139_m32            0.0000     3.7570E+02     6.4321   1.0702   105.4465
 43      5.8260     1.0250E+00    1.0953E+00    2.500000E+09  0.00040  1.488E-04    0   0.5386   age150_m32            0.0000     2.6679E+02     5.7163   0.8209   103.7164
 44     17.7308     5.1112E+00    5.2720E+00    4.250000E+09  0.00040  9.082E-05    0   0.5199   age158_m32            0.0000     1.1483E+02     4.7344   0.7741    99.2237
 45      0.0169     6.9493E-03    6.9984E-03    6.250000E+09  0.00040  6.362E-05    0   0.5076   age166_m32            0.0000     5.5215E+01     4.8873   0.7828    94.5181
 46      0.0001     6.7483E-05    6.7303E-05    7.500000E+09  0.00040  5.289E-05    0   0.5027   age171_m32            0.0000     4.5242E+01     4.8272   0.7517    93.2865
 47      0.0102     6.7390E-03    6.6154E-03    1.000000E+10  0.00040  3.972E-05    0   0.4948   age181_m32            0.0000     3.7361E+01     4.6289   0.6896    92.1901
 48      0.0000     0.0000E+00    0.0000E+00    1.300000E+10  0.00040  3.283E-05    0   0.4870   age193_m32            0.0000     5.7591E+01     4.3226   0.6179    95.5348
 49      0.0000     0.0000E+00    0.0000E+00    1.500000E+10  0.00040  2.925E-05    0   0.4854   age201_m32            0.0000     7.8040E+01     4.3272   0.5832    97.4657
 50      0.0000     0.0000E+00    0.0000E+00    1.800000E+10  0.00040  2.469E-05    0   0.4819   age213_m32            0.0000     8.7234E+01     4.3011   0.5344    98.2009
 51      0.0000     0.0000E+00    0.0000E+00    1.000000E+06  0.00400  1.114E-02    0   1.0000   age020_m42            0.0000     2.4430E+02    15.5269   4.0000    70.6437
 52      0.0000     0.0000E+00    0.0000E+00    3.160000E+06  0.00400  4.073E-02    0   0.9999   age045_m42            0.0000     1.1220E+02     8.2774   3.2337    85.6686
 53      0.0000     0.0000E+00    0.0000E+00    5.010000E+06  0.00400  2.534E-02    0   0.9488   age055_m42            0.0000     1.1145E+02    10.9038   3.7073    78.2294
 54      0.0000     0.0000E+00    0.0000E+00    6.610000E+06  0.00400  2.583E-02    0   0.9220   age061_m42            0.0000     1.4159E+02     7.8700   3.0348    86.8112
 55      0.0000     0.0000E+00    0.0000E+00    8.710000E+06  0.00400  1.706E-02    0   0.8983   age067_m42            0.0000     1.1246E+02     9.7187   2.9106    83.6635
 56      0.0000     0.0000E+00    0.0000E+00    1.000000E+07  0.00400  1.271E-02    0   0.8862   age070_m42            0.0000     1.1354E+02    11.2246   2.9284    81.3379
 57      0.0000     0.0000E+00    0.0000E+00    1.445000E+07  0.00400  7.666E-03    0   0.8571   age078_m42            0.0000     1.1772E+02    11.8734   3.3541    78.0585
 58      0.0000     0.0000E+00    0.0000E+00    2.512000E+07  0.00400  5.070E-03    0   0.8174   age090_m42            0.0000     1.0702E+02    10.6718   2.7900    83.1088
 59      0.0000     0.0000E+00    0.0000E+00    4.000000E+07  0.00400  3.505E-03    0   0.7851   age104_m42            0.0000     1.0568E+02     8.9520   2.4369    87.0216
 60      0.0000     0.0000E+00    0.0000E+00    5.500000E+07  0.00400  3.059E-03    0   0.7629   age110_m42            0.0000     2.2047E+02     6.6391   2.4117    93.4909
 61      0.0000     0.0000E+00    0.0000E+00    1.015200E+08  0.00400  2.268E-03    0   0.7207   age116_m42            0.0000     5.6089E+02     6.6215   2.2299   100.8779
 62      0.0000     0.0000E+00    0.0000E+00    1.609000E+08  0.00400  1.720E-03    0   0.6930   age120_m42            0.0000     5.8654E+02     6.6265   2.0605   103.4792
 63      0.0000     0.0000E+00    0.0000E+00    2.861200E+08  0.00400  1.079E-03    0   0.6613   age125_m42            0.0000     5.4830E+02     6.7316   1.6918   104.6364
 64      0.0000     0.0000E+00    0.0000E+00    5.088000E+08  0.00400  6.261E-04    0   0.6313   age130_m42            0.0000     6.1759E+02     7.3551   1.4767   108.1243
 65      0.0000     0.0000E+00    0.0000E+00    9.047900E+08  0.00400  3.535E-04    0   0.6024   age135_m42            0.0000     3.7266E+02     6.2150   1.0871   108.6003
 66      0.0000     7.8475E-08    9.0878E-08    1.278050E+09  0.00400  2.677E-04    0   0.5837   age138_m42            0.0000     9.7758E+01     3.9728   0.3986   107.7863
 67      0.0000     0.0000E+00    0.0000E+00    1.434000E+09  0.00400  1.910E-04    0   0.5716   age139_m42            0.0000     1.5560E+02     4.3084   0.5600   108.4824
 68      0.0000     0.0000E+00    0.0000E+00    2.500000E+09  0.00400  9.818E-05    0   0.5463   age150_m42            0.0000     1.8623E+01     2.4656   0.3313   103.3680
 69      0.0000     0.0000E+00    0.0000E+00    4.250000E+09  0.00400  5.491E-05    0   0.5269   age158_m42            0.0000     3.8526E+00     2.0716   0.2377    99.8846
 70      0.0000     0.0000E+00    0.0000E+00    6.250000E+09  0.00400  3.857E-05    0   0.5151   age166_m42            0.0000     7.0572E+00     2.2730   0.1112    98.9264
 71      0.6757     5.4550E-01    5.5304E-01    7.500000E+09  0.00400  3.243E-05    0   0.5110   age171_m42            0.0000     1.2759E+01     2.6037   0.0000    98.8302
 72      0.6664     7.1977E-01    7.1800E-01    1.000000E+10  0.00400  2.424E-05    0   0.5028   age181_m42            0.0000     2.4943E+01     2.8452  -0.0518    98.3846
 73      0.4209     5.8517E-01    5.7200E-01    1.300000E+10  0.00400  1.883E-05    0   0.4927   age193_m42            0.0000     4.0406E+01     3.1440  -0.0868    98.0873
 74      0.0000     0.0000E+00    0.0000E+00    1.500000E+10  0.00400  1.685E-05    0   0.4919   age201_m42            0.0000     3.6511E+01     3.0874  -0.0806    97.9829
 75      0.0000     0.0000E+00    0.0000E+00    1.800000E+10  0.00400  1.452E-05    0   0.4874   age213_m42            0.0000     2.9739E+01     2.9968  -0.0627    98.0328
 76      0.0000     0.0000E+00    0.0000E+00    1.000000E+06  0.00800  1.286E-02    0   1.0000   age020_m52            0.0000     2.1116E+02    14.4771   4.0000    72.3942
 77      0.0000     0.0000E+00    0.0000E+00    3.160000E+06  0.00800  3.147E-02    0   0.9966   age045_m52            0.0000     1.7796E+02    13.0864   4.0000    73.6507
 78      0.0000     0.0000E+00    0.0000E+00    5.010000E+06  0.00800  2.664E-02    0   0.9443   age055_m52            0.0000     1.2428E+02    11.3716   3.8470    76.8670
 79      0.0000     0.0000E+00    0.0000E+00    6.610000E+06  0.00800  2.151E-02    0   0.9177   age061_m52            0.0000     9.0212E+01     9.9963   2.5114    83.6293
 80      0.0000     0.0000E+00    0.0000E+00    8.710000E+06  0.00800  1.628E-02    0   0.8948   age067_m52            0.0000     1.1362E+02    10.2101   2.8868    83.4928
 81      0.0000     0.0000E+00    0.0000E+00    1.000000E+07  0.00800  1.215E-02    0   0.8827   age070_m52            0.0000     1.2054E+02    10.8553   3.2450    81.2967
 82      0.0000     0.0000E+00    0.0000E+00    1.445000E+07  0.00800  8.739E-03    0   0.8552   age078_m52            0.0000     1.3249E+02    10.0785   3.2644    82.9796
 83      0.0000     0.0000E+00    0.0000E+00    2.512000E+07  0.00800  5.676E-03    0   0.8162   age090_m52            0.0000     2.0314E+02     9.0242   2.8219    88.1416
 84      0.0000     0.0000E+00    0.0000E+00    4.000000E+07  0.00800  3.939E-03    0   0.7841   age104_m52            0.0000     2.5404E+02     7.8046   2.6237    91.5191
 85      0.0000     0.0000E+00    0.0000E+00    5.500000E+07  0.00800  3.155E-03    0   0.7627   age110_m52            0.0000     3.1247E+02     7.0773   2.5616    94.1693
 86      0.0000     0.0000E+00    0.0000E+00    1.015200E+08  0.00800  2.206E-03    0   0.7226   age116_m52            0.0000     4.5003E+02     6.4754   2.3126    99.9784
 87      0.0000     0.0000E+00    0.0000E+00    1.609000E+08  0.00800  1.596E-03    0   0.6963   age120_m52            0.0000     4.9727E+02     6.5302   2.0673   102.6757
 88      0.0000     0.0000E+00    0.0000E+00    2.861200E+08  0.00800  1.002E-03    0   0.6665   age125_m52            0.0000     6.3112E+02     7.1881   1.6992   108.2626
 89      0.0000     0.0000E+00    0.0000E+00    5.088000E+08  0.00800  5.759E-04    0   0.6377   age130_m52            0.0000     5.9872E+02     7.7029   1.2839   115.1529
 90      0.0000     0.0000E+00    0.0000E+00    9.047900E+08  0.00800  2.972E-04    0   0.6086   age135_m52            0.0000     2.4418E+02     6.6926   0.7354   115.9551
 91      0.0000     0.0000E+00    0.0000E+00    1.278050E+09  0.00800  2.242E-04    0   0.5907   age138_m52            0.0000     5.4778E+01     4.4473   0.1847   113.1208
 92      0.0000     0.0000E+00    0.0000E+00    1.434000E+09  0.00800  1.645E-04    0   0.5787   age139_m52            0.0000     5.3837E+01     3.8986   0.3531   111.5320
 93      0.0000     0.0000E+00    0.0000E+00    2.500000E+09  0.00800  7.723E-05    0   0.5519   age150_m52            0.0000     8.1869E+00     3.3178   0.0000   107.4614
 94      0.0000     1.0446E-05    1.1025E-05    4.250000E+09  0.00800  4.151E-05    0   0.5320   age158_m52            0.0000     6.9701E+00     2.6000  -0.0048   104.3014
 95      0.0000     0.0000E+00    0.0000E+00    6.250000E+09  0.00800  3.010E-05    0   0.5197   age166_m52            0.0000     2.5789E+01     3.0679  -0.2015   103.4696
 96      0.0000     1.8788E-05    1.9155E-05    7.500000E+09  0.00800  2.467E-05    0   0.5139   age171_m52            0.0000     3.2966E+01     3.2487  -0.2461   103.3004
 97     52.1023     7.3257E+01    7.3455E+01    1.000000E+10  0.00800  1.862E-05    0   0.5054   age181_m52            0.0000     5.6149E+01     3.8636  -0.3905   103.7439
 98      4.1144     7.5168E+00    7.4386E+00    1.300000E+10  0.00800  1.433E-05    0   0.4988   age193_m52            0.0000     9.0723E+01     4.4559  -0.4949   105.0011
 99      2.7767     5.8436E+00    5.7226E+00    1.500000E+10  0.00800  1.244E-05    0   0.4936   age201_m52            0.0000     1.0643E+02     4.6662  -0.5269   105.6732
100      0.6999     1.7124E+00    1.6606E+00    1.800000E+10  0.00800  1.070E-05    0   0.4888   age213_m52            0.0000     1.1654E+02     4.8716  -0.5661   105.7539
101      0.0000     0.0000E+00    0.0000E+00    1.000000E+06  0.02000  1.989E-02    0   1.0000   age020_m62            0.0000     2.3296E+02    14.7884   4.0000    71.3573
102      0.0000     0.0000E+00    0.0000E+00    3.160000E+06  0.02000  3.772E-02    0   0.9858   age045_m62            0.0000     1.7515E+02    12.8035   4.0000    73.2131
103      0.0000     0.0000E+00    0.0000E+00    5.010000E+06  0.02000  3.227E-02    0   0.9342   age055_m62            0.0000     1.1243E+02     9.6146   3.5314    81.6359
104      0.0000     0.0000E+00    0.0000E+00    6.610000E+06  0.02000  2.387E-02    0   0.9090   age061_m62            0.0000     1.2067E+02    11.6810   3.3281    79.7218
105      0.0000     0.0000E+00    0.0000E+00    8.710000E+06  0.02000  1.102E-02    0   0.8861   age067_m62            0.0000     2.2331E+02    17.3167   3.0613    72.5784
106      0.0000     0.0000E+00    0.0000E+00    1.000000E+07  0.02000  1.011E-02    0   0.8751   age070_m62            0.0000     1.6835E+02    15.0047   3.0421    75.9133
107      0.0000     0.0000E+00    0.0000E+00    1.445000E+07  0.02000  7.331E-03    0   0.8472   age078_m62            0.0000     1.3323E+02    13.0200   3.0243    78.3122
108      0.0000     0.0000E+00    0.0000E+00    2.512000E+07  0.02000  4.206E-03    0   0.8099   age090_m62            0.0000     1.4107E+02    12.9396   2.9394    77.9063
109      0.0000     0.0000E+00    0.0000E+00    4.000000E+07  0.02000  3.373E-03    0   0.7799   age104_m62            0.0000     1.4901E+02     8.6020   2.6342    88.6757
110      0.0000     0.0000E+00    0.0000E+00    5.500000E+07  0.02000  2.747E-03    0   0.7595   age110_m62            0.0000     2.4126E+02     7.2910   2.5145    93.3250
111      0.0000     0.0000E+00    0.0000E+00    1.015200E+08  0.02000  1.878E-03    0   0.7221   age116_m62            0.0000     4.8647E+02     6.8766   2.2971    99.9924
112      0.0000     0.0000E+00    0.0000E+00    1.609000E+08  0.02000  1.378E-03    0   0.6978   age120_m62            0.0000     6.3736E+02     7.1750   2.0916   104.1985
113      0.0000     0.0000E+00    0.0000E+00    2.861200E+08  0.02000  8.869E-04    0   0.6700   age125_m62            0.0000     8.6078E+02     8.2839   1.6399   111.3056
114      0.0000     0.0000E+00    0.0000E+00    5.088000E+08  0.02000  4.834E-04    0   0.6430   age130_m62            0.0000     6.5493E+02     8.3509   1.1218   117.7411
115      0.0000     0.0000E+00    0.0000E+00    9.047900E+08  0.02000  2.312E-04    0   0.6152   age135_m62            0.0000     2.4430E+02     6.2404   0.5493   117.3538
116      0.0000     0.0000E+00    0.0000E+00    1.278050E+09  0.02000  1.387E-04    0   0.5927   age138_m62            0.0000     5.9127E+01     3.9005   0.2357   111.2290
117      0.0000     0.0000E+00    0.0000E+00    1.434000E+09  0.02000  1.168E-04    0   0.5865   age139_m62            0.0000     3.5270E+01     3.4738   0.2235   109.3150
118      0.0000     0.0000E+00    0.0000E+00    2.500000E+09  0.02000  5.505E-05    0   0.5610   age150_m62            0.0000     9.5706E+00     3.3080  -0.1378   106.8238
119      0.0000     0.0000E+00    0.0000E+00    4.250000E+09  0.02000  3.070E-05    0   0.5407   age158_m62            0.0000     4.5661E+01     4.6720  -0.4637   108.6489
120      0.0000     0.0000E+00    0.0000E+00    6.250000E+09  0.02000  2.104E-05    0   0.5277   age166_m62            0.0000     8.2293E+01     5.4117  -0.6106   110.0079
121      0.0000     0.0000E+00    0.0000E+00    7.500000E+09  0.02000  1.770E-05    0   0.5223   age171_m62            0.0000     1.0014E+02     5.8735  -0.7113   111.0298
122      0.0000     0.0000E+00    0.0000E+00    1.000000E+10  0.02000  1.297E-05    0   0.5121   age181_m62            0.0000     1.4558E+02     6.7841  -0.8933   112.7633
123      0.0000     0.0000E+00    0.0000E+00    1.300000E+10  0.02000  9.691E-06    0   0.5047   age193_m62            0.0000     1.8185E+02     7.3581  -0.9911   113.9160
124      0.0000     0.0000E+00    0.0000E+00    1.500000E+10  0.02000  8.360E-06    0   0.4999   age201_m62            0.0000     2.1420E+02     7.6654  -1.0000   114.5073
125      0.0000     0.0000E+00    0.0000E+00    1.800000E+10  0.02000  6.911E-06    0   0.4946   age213_m62            0.0000     2.6196E+02     9.3691  -1.0000   115.2127
126      0.0000     0.0000E+00    0.0000E+00    1.000000E+06  0.05000  2.651E-02    0   0.9998   age020_m72            0.0000     2.1850E+02    14.3792   4.0000    72.3201
127      0.0000     0.0000E+00    0.0000E+00    3.160000E+06  0.05000  4.817E-02    0   0.9577   age045_m72            0.0000     1.2485E+02    11.3936   3.9593    76.5262
128      0.0000     0.0000E+00    0.0000E+00    5.010000E+06  0.05000  3.101E-02    0   0.9147   age055_m72            0.0000     1.1701E+02    11.3131   3.6067    78.7831
129      0.0000     0.0000E+00    0.0000E+00    6.610000E+06  0.05000  1.472E-02    0   0.8877   age061_m72            0.0000     1.8034E+02    14.9430   3.2527    74.7659
130      0.0000     0.0000E+00    0.0000E+00    8.710000E+06  0.05000  1.050E-02    0   0.8638   age067_m72            0.0000     1.4108E+02    12.7570   3.6067    76.5141
131      0.0000     0.0000E+00    0.0000E+00    1.000000E+07  0.05000  8.954E-03    0   0.8524   age070_m72            0.0000     1.1670E+02    11.0128   3.8493    77.7526
132      0.0000     0.0000E+00    0.0000E+00    1.445000E+07  0.05000  6.392E-03    0   0.8262   age078_m72            0.0000     1.0571E+02    10.3178   3.7789    79.1493
133      0.0000     0.0000E+00    0.0000E+00    2.512000E+07  0.05000  4.207E-03    0   0.7902   age090_m72            0.0000     9.8511E+01     8.6313   3.3532    84.3781
134      0.0000     0.0000E+00    0.0000E+00    4.000000E+07  0.05000  3.198E-03    0   0.7618   age104_m72            0.0000     2.9462E+02     6.3558   2.7132    95.0169
135      0.0000     0.0000E+00    0.0000E+00    5.500000E+07  0.05000  2.593E-03    0   0.7432   age110_m72            0.0000     3.9017E+02     6.5289   2.5949    97.3101
136      0.0000     0.0000E+00    0.0000E+00    1.015200E+08  0.05000  1.716E-03    0   0.7092   age116_m72            0.0000     5.5645E+02     6.8829   2.3629   100.8090
137      0.0000     0.0000E+00    0.0000E+00    1.609000E+08  0.05000  1.218E-03    0   0.6876   age120_m72            0.0000     7.1916E+02     7.2982   2.0399   105.3386
138      0.0000     0.0000E+00    0.0000E+00    2.861200E+08  0.05000  7.047E-04    0   0.6618   age125_m72            0.0000     8.0522E+02     8.0460   1.4013   113.2425
139      0.0000     0.0000E+00    0.0000E+00    5.088000E+08  0.05000  3.590E-04    0   0.6356   age130_m72            0.0000     5.3111E+02     8.1099   0.7531   119.8014
140      0.0000     0.0000E+00    0.0000E+00    9.047900E+08  0.05000  1.484E-04    0   0.6088   age135_m72            0.0000     6.4021E+01     5.2487   0.0802   112.9901
141      0.0000     0.0000E+00    0.0000E+00    1.278050E+09  0.05000  9.435E-05    0   0.5924   age138_m72            0.0000     2.0282E+01     5.1533  -0.3126   110.5859
142      0.0000     0.0000E+00    0.0000E+00    1.434000E+09  0.05000  7.827E-05    0   0.5847   age139_m72            0.0000     1.9496E+01     4.7666  -0.2827   109.4362
143      0.0000     8.5397E-06    9.4590E-06    2.500000E+09  0.05000  3.759E-05    0   0.5583   age150_m72            0.0000     6.6723E+01     5.5807  -0.6118   109.4979
144      0.0000     0.0000E+00    0.0000E+00    4.250000E+09  0.05000  1.842E-05    0   0.5374   age158_m72            0.0000     1.2758E+02     6.9337  -0.9582   110.6141
145      0.0000     0.0000E+00    0.0000E+00    6.250000E+09  0.05000  1.207E-05    0   0.5242   age166_m72            0.0000     2.1341E+02    10.5907  -1.0000   110.6818
146      0.0000     0.0000E+00    0.0000E+00    7.500000E+09  0.05000  9.993E-06    0   0.5183   age171_m72            0.0000     2.3260E+02    11.8076  -1.0000   110.4834
147      0.0000     0.0000E+00    0.0000E+00    1.000000E+10  0.05000  7.291E-06    0   0.5081   age181_m72            0.0000     3.2957E+02    15.9685  -1.0000   110.4024
148      0.0000     0.0000E+00    0.0000E+00    1.300000E+10  0.05000  5.316E-06    0   0.5018   age193_m72            0.0000     5.4048E+02    21.9323  -1.0000   109.5430
149      0.0000     0.0000E+00    0.0000E+00    1.500000E+10  0.05000  4.497E-06    0   0.4972   age201_m72            0.0000     6.5641E+02    24.3491  -1.0000   109.4267
150      0.0000     0.0000E+00    0.0000E+00    1.800000E+10  0.05000  3.739E-06    0   0.4924   age213_m72            0.0000     8.4042E+02    27.4503  -1.0000   108.5607


## Synthesis Results - Average & Chains ##

# j      x_j: min, <> & last-chain-values for 1 ...  7 chains
  1      0.0000      0.0028      0.0000      0.0000      0.0000      0.0000      0.0000      0.0000      0.0000
  2     10.7794      8.8658      8.8518      9.1540      9.2861      9.0839      9.4830      8.6393      9.1657
  3      0.0000      0.0173      0.0476      0.0000      0.1321      0.0000      0.0000      0.0000      0.0000
  4      0.0000      0.0033      0.0407      0.0000      0.0000      0.0000      0.0000      0.0000      0.0000
  5      0.0000      0.0013      0.0000      0.0000      0.0000      0.0000      0.0000      0.0000      0.0000
  6      0.0000      0.0022      0.0000      0.0000      0.0000      0.0000      0.0000      0.0000      0.0000
  7      0.0000      0.0163      0.0000      0.0088      0.0000      0.0000      0.0000      0.0000      0.0000
  8      0.0000      0.0137      0.0000      0.0000      0.0000      0.0848      0.0000      0.0364      0.0000
  9      0.0000      0.0398      0.0000      0.2391      0.0000      0.0000      0.0000      0.0000      0.0000
 10      0.0000      0.0174      0.1761      0.0000      0.0000      0.0000      0.0000      0.0000      0.0787
 11      0.0000      0.0209      0.0438      0.0000      0.0000      0.0000      0.0000      0.0000      0.0000
 12      0.0000      0.0163      0.0000      0.0498      0.0000      0.0000      0.0000      0.0000      0.0000
 13      0.0000      0.0142      0.0000      0.0372      0.0000      0.0000      0.0034      0.0000      0.0380
 14      0.0000      0.0058      0.0000      0.0000      0.0000      0.0000      0.0000      0.0000      0.0000
 15      0.0000      0.0078      0.0000      0.0000      0.0000      0.0000      0.0000      0.0000      0.0000
 16      0.0000      0.0216      0.0029      0.1158      0.0000      0.0000      0.0000      0.0000      0.0000
 17      0.0000      0.0180      0.0000      0.0000      0.0000      0.0000      0.0000      0.0000      0.0000
 18      0.0000      0.0275      0.0000      0.0000      0.0000      0.0000      0.0000      0.0000      0.0000
 19      0.0000      0.0745      0.0000      0.0417      0.1203      0.0000      0.0000      0.1392      0.0303
 20      0.1978      0.0959      0.2614      0.2635      0.0000      0.0605      0.0000      0.1937      0.0000
 21      0.7645      0.3546      0.4454      0.2458      0.5524      0.8562      0.6240      0.3839      0.4579
 22      0.8682      0.2425      0.2334      0.4092      0.0000      0.0000      0.3183      0.2380      0.3961
 23      1.3274      0.2746      0.3320      0.0982      0.4258      0.0268      0.2207      0.4138      0.6456
 24      1.0785      0.4536      1.2547      0.5227      0.2449      0.0406      0.0755      0.5411      0.6653
 25      0.7801      0.3349      0.2121      0.2470      0.1657      0.5137      0.7786      0.3581      0.2824
 26      0.0000      0.0137      0.0000      0.0097      0.0000      0.1132      0.0428      0.0000      0.0000
 27      0.0000      0.0299      0.0000      0.0000      0.1043      0.0000      0.0000      0.0000      0.0000
 28      0.0000      0.0100      0.0139      0.0000      0.0445      0.0000      0.0000      0.0000      0.0000
 29      0.0000      0.0029      0.0000      0.0036      0.0000      0.0000      0.0508      0.0000      0.0000
 30      0.0000      0.0074      0.0000      0.0642      0.0000      0.0000      0.0000      0.0000      0.0000
 31      0.0000      0.0039      0.0338      0.0000      0.0000      0.0491      0.0000      0.0000      0.0000
 32      0.0000      0.0143      0.0000      0.0000      0.0000      0.0000      0.0000      0.0000      0.0487
 33      0.0000      0.0087      0.0000      0.0000      0.0000      0.0000      0.0000      0.0400      0.0548
 34      0.0000      0.0304      0.0000      0.0237      0.0000      0.0920      0.0000      0.0000      0.0000
 35      0.0000      0.0172      0.0000      0.0000      0.0000      0.0000      0.0000      0.0000      0.0000
 36      0.0000      0.0240      0.0855      0.0960      0.0050      0.0135      0.0000      0.0000      0.0000
 37      0.0000      0.0418      0.0457      0.0000      0.0000      0.1396      0.1404      0.1658      0.0000
 38      0.0000      0.0153      0.0000      0.0000      0.0000      0.0000      0.0000      0.0000      0.0000
 39      0.0000      0.0119      0.0000      0.0000      0.0000      0.0000      0.0000      0.0000      0.0000
 40      0.0000      0.0148      0.0000      0.0000      0.0000      0.0000      0.0000      0.0000      0.0620
 41      0.0000      0.0220      0.0000      0.0000      0.0000      0.0000      0.0000      0.0000      0.0000
 42      0.0000      0.0153      0.0000      0.0000      0.0000      0.1645      0.0000      0.0000      0.0000
 43      5.8260      6.3761      6.2500      6.3489      6.7725      6.5680      6.9707      6.3950      5.9187
 44     17.7308     18.1822     18.4876     18.0953     18.4414     18.7236     17.9397     18.0225     18.8123
 45      0.0169      0.1999      0.3684      0.0000      0.0000      0.4116      0.0051      0.4290      0.2030
 46      0.0001      0.3073      0.2846      0.2496      0.4400      0.2163      0.0000      0.7812      0.6133
 47      0.0102      0.3596      0.4999      0.4548      0.2804      0.0511      0.2913      0.4200      0.0869
 48      0.0000      0.1693      0.0000      0.0520      0.0000      0.0000      0.3762      0.0000      0.0112
 49      0.0000      0.2651      0.1578      0.7515      0.0390      0.1775      0.3924      0.0000      0.1109
 50      0.0000      0.2134      0.1020      0.2338      0.2046      0.2467      0.0000      0.2752      0.0912
 51      0.0000      0.0016      0.0326      0.0000      0.0097      0.0000      0.0000      0.0000      0.0000
 52      0.0000      0.0295      0.0000      0.0000      0.0000      0.0000      0.0000      0.3032      0.0000
 53      0.0000      0.0064      0.0000      0.0000      0.0000      0.0000      0.0034      0.0000      0.0365
 54      0.0000      0.0194      0.1760      0.0000      0.0000      0.0000      0.0000      0.0000      0.0000
 55      0.0000      0.0455      0.0000      0.0000      0.0924      0.0416      0.0000      0.1526      0.0000
 56      0.0000      0.0160      0.0000      0.0000      0.0000      0.0000      0.0000      0.0000      0.0000
 57      0.0000      0.0196      0.0000      0.0000      0.0000      0.0000      0.0000      0.0000      0.0000
 58      0.0000      0.0204      0.0000      0.0000      0.0000      0.0000      0.0000      0.0000      0.0378
 59      0.0000      0.0093      0.0000      0.0000      0.0000      0.0000      0.0715      0.0000      0.0000
 60      0.0000      0.0185      0.0000      0.0000      0.0000      0.0241      0.0526      0.1239      0.0000
 61      0.0000      0.0203      0.0000      0.0000      0.0000      0.0367      0.0000      0.0866      0.1438
 62      0.0000      0.0158      0.0000      0.0000      0.0873      0.0000      0.0000      0.0000      0.0943
 63      0.0000      0.0248      0.0119      0.0000      0.0000      0.0000      0.0000      0.0000      0.0000
 64      0.0000      0.0255      0.0000      0.0000      0.0000      0.0000      0.0000      0.1185      0.0296
 65      0.0000      0.0510      0.1559      0.1600      0.0000      0.2076      0.0000      0.1384      0.0000
 66      0.0000      0.0765      0.2571      0.3594      0.0000      0.0000      0.0000      0.0000      0.0000
 67      0.0000      0.0525      0.0000      0.0000      0.0000      0.0096      0.0000      0.0000      0.0000
 68      0.0000      0.1835      0.0000      0.2208      0.0000      0.0000      0.0000      0.0000      0.0000
 69      0.0000      0.3216      0.0000      0.3982      0.5033      0.6762      0.7038      0.1905      0.0000
 70      0.0000      0.4319      0.0753      0.4466      0.0272      0.2312      0.7065      0.4487      0.0000
 71      0.6757      0.3642      0.2974      0.3691      0.2232      0.3747      0.2203      0.0000      0.7690
 72      0.6664      0.4732      0.5712      1.2094      0.6580      0.4250      0.8999      0.5739      0.0086
 73      0.4209      0.2042      0.6308      0.2957      0.0000      0.0000      0.3402      0.4727      0.0685
 74      0.0000      0.2015      0.1431      0.0000      0.0997      0.0000      0.0000      0.1687      0.0000
 75      0.0000      0.3272      0.0000      0.2912      0.0000      0.2901      0.6834      0.6205      0.0744
 76      0.0000      0.0044      0.0000      0.0000      0.0000      0.0000      0.0000      0.0000      0.0000
 77      0.0000      0.0031      0.0000      0.0000      0.0000      0.0000      0.0000      0.0371      0.0000
 78      0.0000      0.0178      0.0000      0.0098      0.1698      0.0000      0.0000      0.0436      0.0758
 79      0.0000      0.0139      0.0486      0.0000      0.0000      0.0000      0.0305      0.0000      0.1338
 80      0.0000      0.0193      0.0000      0.0000      0.0000      0.1069      0.0131      0.0000      0.0000
 81      0.0000      0.0109      0.0000      0.0355      0.0000      0.0000      0.0000      0.0959      0.0000
 82      0.0000      0.0225      0.0225      0.0575      0.0000      0.0000      0.0000      0.0000      0.0122
 83      0.0000      0.0481      0.0388      0.0000      0.0751      0.0000      0.0000      0.0000      0.0802
 84      0.0000      0.0302      0.0053      0.0000      0.0000      0.1601      0.0000      0.0000      0.0000
 85      0.0000      0.0303      0.0000      0.0000      0.0795      0.0192      0.0000      0.0000      0.0000
 86      0.0000      0.0310      0.0000      0.0000      0.0000      0.0367      0.0000      0.0314      0.0000
 87      0.0000      0.0329      0.0000      0.0000      0.2796      0.0005      0.0000      0.0000      0.0000
 88      0.0000      0.0137      0.0000      0.0000      0.0075      0.0000      0.0000      0.0000      0.0000
 89      0.0000      0.0104      0.0000      0.0000      0.0000      0.0000      0.0000      0.0000      0.0000
 90      0.0000      0.0108      0.0104      0.0000      0.0000      0.0000      0.0000      0.0000      0.0000
 91      0.0000      0.0224      0.0014      0.0000      0.0000      0.0000      0.0000      0.0957      0.0000
 92      0.0000      0.0247      0.0000      0.0000      0.0000      0.0000      0.0000      0.0000      0.0000
 93      0.0000      0.1194      0.0000      0.0000      0.0746      0.0489      0.0588      0.0000      0.0676
 94      0.0000      0.2326      0.3060      0.0000      0.0993      0.2290      0.5125      0.4684      0.1128
 95      0.0000      0.5250      0.1087      0.5298      0.5255      0.3862      1.0372      0.5630      0.5485
 96      0.0000      0.8396      1.0237      0.9435      0.9349      0.7934      0.3490      0.9000      0.5010
 97     52.1023     52.1558     53.0433     51.9610     53.1399     54.0377     51.3722     51.6785     54.0235
 98      4.1144      2.5524      2.5082      2.7107      2.7351      3.0751      2.5133      2.9041      2.4285
 99      2.7767      1.5995      2.0548      1.5176      1.8373      1.5525      2.3344      1.7354      1.7438
100      0.6999      0.5609      0.4698      0.5728      0.8870      0.2085      0.0000      0.6954      0.8801
101      0.0000      0.0025      0.0000      0.0000      0.0000      0.0000      0.0000      0.0000      0.0000
102      0.0000      0.0088      0.0000      0.0000      0.0000      0.0000      0.0000      0.0000      0.0000
103      0.0000      0.0250      0.0000      0.0000      0.0000      0.0000      0.0039      0.0000      0.0000
104      0.0000      0.0097      0.0041      0.0000      0.0000      0.0117      0.0000      0.0000      0.0000
105      0.0000      0.0046      0.0000      0.0000      0.0000      0.0000      0.0000      0.0000      0.0000
106      0.0000      0.0123      0.0374      0.0768      0.0067      0.0000      0.0000      0.0000      0.0000
107      0.0000      0.0085      0.0000      0.0510      0.0000      0.0000      0.0000      0.0000      0.0000
108      0.0000      0.0149      0.0000      0.0000      0.0000      0.0246      0.0581      0.0000      0.0000
109      0.0000      0.0091      0.0000      0.0000      0.0000      0.0000      0.0000      0.0118      0.0000
110      0.0000      0.0137      0.0072      0.0000      0.0000      0.0000      0.0117      0.0144      0.0000
111      0.0000      0.0266      0.0000      0.0000      0.0000      0.0000      0.0000      0.0000      0.2327
112      0.0000      0.0104      0.0000      0.0000      0.0000      0.0000      0.0000      0.0000      0.0249
113      0.0000      0.0099      0.0000      0.0000      0.0000      0.0000      0.0000      0.0000      0.0088
114      0.0000      0.0100      0.0000      0.0000      0.0584      0.0000      0.0000      0.0000      0.0000
115      0.0000      0.0179      0.0000      0.0000      0.1326      0.0000      0.0000      0.0000      0.0000
116      0.0000      0.0330      0.0000      0.0000      0.0000      0.0000      0.0000      0.0000      0.0000
117      0.0000      0.0265      0.0000      0.0000      0.0000      0.0000      0.0000      0.0000      0.0000
118      0.0000      0.0522      0.0000      0.0000      0.0000      0.0000      0.0000      0.0000      0.0000
119      0.0000      0.0636      0.0000      0.0000      0.0000      0.0000      0.0000      0.0000      0.0000
120      0.0000      0.0616      0.0000      0.0921      0.3299      0.0000      0.0000      0.0000      0.0000
121      0.0000      0.0391      0.0000      0.0000      0.0374      0.0000      0.3136      0.1625      0.0000
122      0.0000      0.0509      0.0284      0.0000      0.0000      0.0000      0.0000      0.0000      0.0000
123      0.0000      0.0200      0.0000      0.0000      0.0012      0.0000      0.0000      0.0000      0.0000
124      0.0000      0.0267      0.0000      0.0000      0.0000      0.0000      0.1710      0.0000      0.0000
125      0.0000      0.0815      0.0000      0.0000      0.0000      0.2144      0.0000      0.0000      0.0000
126      0.0000      0.0034      0.0000      0.0000      0.0000      0.0000      0.0000      0.0000      0.0000
127      0.0000      0.0052      0.0000      0.0000      0.0000      0.0014      0.0328      0.0000      0.0000
128      0.0000      0.0185      0.0000      0.0000      0.0000      0.0000      0.0000      0.0000      0.0435
129      0.0000      0.0064      0.0000      0.0000      0.0000      0.0000      0.0158      0.0301      0.0000
130      0.0000      0.0035      0.0000      0.0215      0.0000      0.0000      0.0000      0.0000      0.0000
131      0.0000      0.0035      0.0000      0.0000      0.0000      0.0000      0.0000      0.0000      0.0000
132      0.0000      0.0039      0.0000      0.0000      0.0000      0.0000      0.0000      0.0000      0.0000
133      0.0000      0.0084      0.0000      0.0356      0.0000      0.0000      0.0000      0.0000      0.0360
134      0.0000      0.0125      0.0000      0.0000      0.0000      0.0000      0.0000      0.0000      0.0000
135      0.0000      0.0119      0.0000      0.0104      0.0000      0.0000      0.0000      0.0000      0.0335
136      0.0000      0.0152      0.0000      0.0000      0.0000      0.0000      0.0973      0.0000      0.0000
137      0.0000      0.0199      0.0000      0.0000      0.2884      0.0000      0.0000      0.0000      0.0000
138      0.0000      0.0136      0.0000      0.0000      0.0000      0.0000      0.0000      0.0000      0.0000
139      0.0000      0.0074      0.0000      0.0000      0.0000      0.0000      0.0000      0.0000      0.0661
140      0.0000      0.0265      0.0000      0.0749      0.0000      0.0000      0.0191      0.0000      0.0000
141      0.0000      0.0344      0.0623      0.0000      0.0000      0.0000      0.0000      0.0000      0.0000
142      0.0000      0.0468      0.0000      0.0079      0.1326      0.0000      0.0000      0.0000      0.1533
143      0.0000      0.1004      0.3097      0.0000      0.0000      0.0000      0.0000      0.0000      0.0000
144      0.0000      0.0960      0.1424      0.0000      0.0000      0.0000      0.0000      0.0000      0.0620
145      0.0000      0.0844      0.0000      0.0000      0.0000      0.0000      0.0124      0.0826      0.0000
146      0.0000      0.2732      0.0000      0.4884      0.1292      0.0000      0.5228      0.4001      0.2990
147      0.0000      0.0651      0.0000      0.0000      0.0000      0.0000      0.1242      0.0000      0.0000
148      0.0000      0.1402      0.1446      0.0306      0.0000      0.0000      0.0000      0.0000      0.2484
149      0.0000      0.0816      0.0000      0.0000      0.0000      0.0000      0.0000      0.0000      0.0000
150      0.0000      0.1752      0.0076      0.1512      0.1762      0.1972      0.0000      0.1723      0.2187

# j      m_j: min, <> & last-chain-values for 1 ...  7 chains
  1  0.0000E+00  1.8019E-05  0.0000E+00  0.0000E+00  0.0000E+00  0.0000E+00  0.0000E+00  0.0000E+00  0.0000E+00
  2  1.1765E-02  9.6428E-03  9.7748E-03  1.0086E-02  1.0224E-02  9.9890E-03  1.0464E-02  9.4248E-03  9.9048E-03
  3  0.0000E+00  4.4400E-05  1.2419E-04  0.0000E+00  3.4335E-04  0.0000E+00  0.0000E+00  0.0000E+00  0.0000E+00
  4  0.0000E+00  1.6032E-05  1.9925E-04  0.0000E+00  0.0000E+00  0.0000E+00  0.0000E+00  0.0000E+00  0.0000E+00
  5  0.0000E+00  7.7391E-06  0.0000E+00  0.0000E+00  0.0000E+00  0.0000E+00  0.0000E+00  0.0000E+00  0.0000E+00
  6  0.0000E+00  1.5696E-05  0.0000E+00  0.0000E+00  0.0000E+00  0.0000E+00  0.0000E+00  0.0000E+00  0.0000E+00
  7  0.0000E+00  1.4864E-04  0.0000E+00  8.0978E-05  0.0000E+00  0.0000E+00  0.0000E+00  0.0000E+00  0.0000E+00
  8  0.0000E+00  1.4098E-04  0.0000E+00  0.0000E+00  0.0000E+00  8.8422E-04  0.0000E+00  3.7611E-04  0.0000E+00
  9  0.0000E+00  4.4146E-04  0.0000E+00  2.6861E-03  0.0000E+00  0.0000E+00  0.0000E+00  0.0000E+00  0.0000E+00
 10  0.0000E+00  2.2082E-04  2.2735E-03  0.0000E+00  0.0000E+00  0.0000E+00  0.0000E+00  0.0000E+00  9.9450E-04
 11  0.0000E+00  3.1783E-04  6.7563E-04  0.0000E+00  0.0000E+00  0.0000E+00  0.0000E+00  0.0000E+00  0.0000E+00
 12  0.0000E+00  4.3311E-04  0.0000E+00  1.3420E-03  0.0000E+00  0.0000E+00  0.0000E+00  0.0000E+00  0.0000E+00
 13  0.0000E+00  4.3820E-04  0.0000E+00  1.1624E-03  0.0000E+00  0.0000E+00  1.0535E-04  0.0000E+00  1.1647E-03
 14  0.0000E+00  2.5214E-04  0.0000E+00  0.0000E+00  0.0000E+00  0.0000E+00  0.0000E+00  0.0000E+00  0.0000E+00
 15  0.0000E+00  5.1931E-04  0.0000E+00  0.0000E+00  0.0000E+00  0.0000E+00  0.0000E+00  0.0000E+00  0.0000E+00
 16  0.0000E+00  2.0729E-03  2.8183E-04  1.1240E-02  0.0000E+00  0.0000E+00  0.0000E+00  0.0000E+00  0.0000E+00
 17  0.0000E+00  1.9108E-03  0.0000E+00  0.0000E+00  0.0000E+00  0.0000E+00  0.0000E+00  0.0000E+00  0.0000E+00
 18  0.0000E+00  4.7672E-03  0.0000E+00  0.0000E+00  0.0000E+00  0.0000E+00  0.0000E+00  0.0000E+00  0.0000E+00
 19  0.0000E+00  1.9559E-02  0.0000E+00  1.1107E-02  3.1999E-02  0.0000E+00  0.0000E+00  3.6668E-02  7.9180E-03
 20  7.4570E-02  3.6022E-02  9.9704E-02  1.0026E-01  0.0000E+00  2.2994E-02  0.0000E+00  7.2979E-02  0.0000E+00
 21  3.3341E-01  1.5409E-01  1.9651E-01  1.0822E-01  2.4303E-01  3.7618E-01  2.7511E-01  1.6735E-01  1.9771E-01
 22  4.8848E-01  1.3596E-01  1.3288E-01  2.3244E-01  0.0000E+00  0.0000E+00  1.8105E-01  1.3387E-01  2.2065E-01
 23  9.4676E-01  1.9520E-01  2.3959E-01  7.0732E-02  3.0636E-01  1.9225E-02  1.5915E-01  2.9503E-01  4.5589E-01
 24  8.7968E-01  3.6870E-01  1.0355E+00  4.3039E-01  2.0155E-01  3.3365E-02  6.2273E-02  4.4116E-01  5.3730E-01
 25  7.6442E-01  3.2700E-01  2.1022E-01  2.4433E-01  1.6382E-01  5.0709E-01  7.7127E-01  3.5075E-01  2.7402E-01
 26  0.0000E+00  8.3835E-05  0.0000E+00  6.0148E-05  0.0000E+00  7.0060E-04  2.6597E-04  0.0000E+00  0.0000E+00
 27  0.0000E+00  3.8906E-05  0.0000E+00  0.0000E+00  1.3757E-04  0.0000E+00  0.0000E+00  0.0000E+00  0.0000E+00
 28  0.0000E+00  2.5394E-05  3.5951E-05  0.0000E+00  1.1485E-04  0.0000E+00  0.0000E+00  0.0000E+00  0.0000E+00
 29  0.0000E+00  1.1605E-05  0.0000E+00  1.4434E-05  0.0000E+00  0.0000E+00  2.0467E-04  0.0000E+00  0.0000E+00
 30  0.0000E+00  3.6486E-05  0.0000E+00  3.2130E-04  0.0000E+00  0.0000E+00  0.0000E+00  0.0000E+00  0.0000E+00
 31  0.0000E+00  2.2135E-05  1.9552E-04  0.0000E+00  0.0000E+00  2.8297E-04  0.0000E+00  0.0000E+00  0.0000E+00
 32  0.0000E+00  9.0446E-05  0.0000E+00  0.0000E+00  0.0000E+00  0.0000E+00  0.0000E+00  0.0000E+00  3.0550E-04
 33  0.0000E+00  7.7999E-05  0.0000E+00  0.0000E+00  0.0000E+00  0.0000E+00  0.0000E+00  3.6032E-04  4.8912E-04
 34  0.0000E+00  3.3199E-04  0.0000E+00  2.6136E-04  0.0000E+00  1.0150E-03  0.0000E+00  0.0000E+00  0.0000E+00
 35  0.0000E+00  2.2693E-04  0.0000E+00  0.0000E+00  0.0000E+00  0.0000E+00  0.0000E+00  0.0000E+00  0.0000E+00
 36  0.0000E+00  4.0574E-04  1.4663E-03  1.6439E-03  8.5434E-05  2.3130E-04  0.0000E+00  0.0000E+00  0.0000E+00
 37  0.0000E+00  8.7832E-04  9.7374E-04  0.0000E+00  0.0000E+00  2.9628E-03  2.9905E-03  3.4924E-03  0.0000E+00
 38  0.0000E+00  4.4656E-04  0.0000E+00  0.0000E+00  0.0000E+00  0.0000E+00  0.0000E+00  0.0000E+00  0.0000E+00
 39  0.0000E+00  5.1816E-04  0.0000E+00  0.0000E+00  0.0000E+00  0.0000E+00  0.0000E+00  0.0000E+00  0.0000E+00
 40  0.0000E+00  1.1365E-03  0.0000E+00  0.0000E+00  0.0000E+00  0.0000E+00  0.0000E+00  0.0000E+00  4.7435E-03
 41  0.0000E+00  2.2738E-03  0.0000E+00  0.0000E+00  0.0000E+00  0.0000E+00  0.0000E+00  0.0000E+00  0.0000E+00
 42  0.0000E+00  1.7582E-03  0.0000E+00  0.0000E+00  0.0000E+00  1.9153E-02  0.0000E+00  0.0000E+00  0.0000E+00
 43  1.0953E+00  1.1946E+00  1.1889E+00  1.2050E+00  1.2845E+00  1.2441E+00  1.3249E+00  1.2018E+00  1.1018E+00
 44  5.2720E+00  5.3875E+00  5.5617E+00  5.4318E+00  5.5317E+00  5.6091E+00  5.3928E+00  5.3563E+00  5.5383E+00
 45  6.9984E-03  8.2534E-02  1.5448E-01  0.0000E+00  0.0000E+00  1.7186E-01  2.1272E-03  1.7772E-01  8.3314E-02
 46  6.7303E-05  1.5120E-01  1.4216E-01  1.2442E-01  2.1913E-01  1.0760E-01  0.0000E+00  3.8547E-01  2.9977E-01
 47  6.6154E-03  2.3190E-01  3.2729E-01  2.9707E-01  1.8304E-01  3.3312E-02  1.9054E-01  2.7161E-01  5.5684E-02
 48  0.0000E+00  1.3002E-01  0.0000E+00  4.0418E-02  0.0000E+00  0.0000E+00  2.9304E-01  0.0000E+00  8.5572E-03
 49  0.0000E+00  2.2770E-01  1.3764E-01  6.5395E-01  3.3888E-02  1.5418E-01  3.4198E-01  0.0000E+00  9.4657E-02
 50  0.0000E+00  2.1560E-01  1.0465E-01  2.3930E-01  2.0930E-01  2.5195E-01  0.0000E+00  2.7884E-01  9.1575E-02
 51  0.0000E+00  7.6568E-06  1.5381E-04  0.0000E+00  4.5861E-05  0.0000E+00  0.0000E+00  0.0000E+00  0.0000E+00
 52  0.0000E+00  3.7532E-05  0.0000E+00  0.0000E+00  0.0000E+00  0.0000E+00  0.0000E+00  3.8639E-04  0.0000E+00
 53  0.0000E+00  1.2494E-05  0.0000E+00  0.0000E+00  0.0000E+00  0.0000E+00  6.6437E-06  0.0000E+00  7.0276E-05
 54  0.0000E+00  3.5923E-05  3.3017E-04  0.0000E+00  0.0000E+00  0.0000E+00  0.0000E+00  0.0000E+00  0.0000E+00
 55  0.0000E+00  1.2403E-04  0.0000E+00  0.0000E+00  2.5500E-04  1.1470E-04  0.0000E+00  4.1712E-04  0.0000E+00
 56  0.0000E+00  5.7806E-05  0.0000E+00  0.0000E+00  0.0000E+00  0.0000E+00  0.0000E+00  0.0000E+00  0.0000E+00
 57  0.0000E+00  1.1318E-04  0.0000E+00  0.0000E+00  0.0000E+00  0.0000E+00  0.0000E+00  0.0000E+00  0.0000E+00
 58  0.0000E+00  1.6988E-04  0.0000E+00  0.0000E+00  0.0000E+00  0.0000E+00  0.0000E+00  0.0000E+00  3.1312E-04
 59  0.0000E+00  1.0814E-04  0.0000E+00  0.0000E+00  0.0000E+00  0.0000E+00  8.4052E-04  0.0000E+00  0.0000E+00
 60  0.0000E+00  2.3876E-04  0.0000E+00  0.0000E+00  0.0000E+00  3.1501E-04  6.8851E-04  1.6043E-03  0.0000E+00
 61  0.0000E+00  3.3339E-04  0.0000E+00  0.0000E+00  0.0000E+00  6.1018E-04  0.0000E+00  1.4279E-03  2.3500E-03
 62  0.0000E+00  3.3004E-04  0.0000E+00  0.0000E+00  1.8433E-03  0.0000E+00  0.0000E+00  0.0000E+00  1.9533E-03
 63  0.0000E+00  7.8634E-04  3.8323E-04  0.0000E+00  0.0000E+00  0.0000E+00  0.0000E+00  0.0000E+00  0.0000E+00
 64  0.0000E+00  1.3328E-03  0.0000E+00  0.0000E+00  0.0000E+00  0.0000E+00  0.0000E+00  6.2047E-03  1.5366E-03
 65  0.0000E+00  4.5017E-03  1.3965E-02  1.4294E-02  0.0000E+00  1.8517E-02  0.0000E+00  1.2245E-02  0.0000E+00
 66  9.0878E-08  8.6358E-03  2.9459E-02  4.1093E-02  0.0000E+00  0.0000E+00  0.0000E+00  0.0000E+00  0.0000E+00
 67  0.0000E+00  8.1355E-03  0.0000E+00  0.0000E+00  0.0000E+00  1.5054E-03  0.0000E+00  0.0000E+00  0.0000E+00
 68  0.0000E+00  5.2854E-02  0.0000E+00  6.4430E-02  0.0000E+00  0.0000E+00  0.0000E+00  0.0000E+00  0.0000E+00
 69  0.0000E+00  1.5974E-01  0.0000E+00  2.0035E-01  2.5308E-01  3.3955E-01  3.5462E-01  9.4928E-02  0.0000E+00
 70  0.0000E+00  2.9854E-01  5.2863E-02  3.1279E-01  1.9043E-02  1.6160E-01  4.9547E-01  3.1112E-01  0.0000E+00
 71  5.5304E-01  2.9702E-01  2.4623E-01  3.0497E-01  1.8425E-01  3.0895E-01  1.8228E-01  0.0000E+00  6.2312E-01
 72  7.1800E-01  5.0805E-01  6.2268E-01  1.3155E+00  7.1518E-01  4.6137E-01  9.8017E-01  6.1805E-01  9.1501E-03
 73  5.7200E-01  2.7653E-01  8.6744E-01  4.0578E-01  0.0000E+00  0.0000E+00  4.6738E-01  6.4214E-01  9.2136E-02
 74  0.0000E+00  3.0451E-01  2.1953E-01  0.0000E+00  1.5250E-01  0.0000E+00  0.0000E+00  2.5566E-01  0.0000E+00
 75  0.0000E+00  5.6858E-01  0.0000E+00  5.1260E-01  0.0000E+00  5.0957E-01  1.2047E+00  1.0814E+00  1.2844E-01
 76  0.0000E+00  1.7510E-05  0.0000E+00  0.0000E+00  0.0000E+00  0.0000E+00  0.0000E+00  0.0000E+00  0.0000E+00
 77  0.0000E+00  5.0307E-06  0.0000E+00  0.0000E+00  0.0000E+00  0.0000E+00  0.0000E+00  6.1036E-05  0.0000E+00
 78  0.0000E+00  3.2694E-05  0.0000E+00  1.8301E-05  3.1537E-04  0.0000E+00  0.0000E+00  8.0234E-05  1.3822E-04
 79  0.0000E+00  3.0676E-05  1.0899E-04  0.0000E+00  0.0000E+00  0.0000E+00  6.8327E-05  0.0000E+00  2.9355E-04
 80  0.0000E+00  5.5031E-05  0.0000E+00  0.0000E+00  0.0000E+00  3.0741E-04  3.7904E-05  0.0000E+00  0.0000E+00
 81  0.0000E+00  4.0914E-05  0.0000E+00  1.3513E-04  0.0000E+00  0.0000E+00  0.0000E+00  3.6162E-04  0.0000E+00
 82  0.0000E+00  1.1416E-04  1.1553E-04  2.9529E-04  0.0000E+00  0.0000E+00  0.0000E+00  0.0000E+00  6.1621E-05
 83  0.0000E+00  3.5816E-04  2.9314E-04  0.0000E+00  5.6621E-04  0.0000E+00  0.0000E+00  0.0000E+00  5.9339E-04
 84  0.0000E+00  3.1072E-04  5.5721E-05  0.0000E+00  0.0000E+00  1.6677E-03  0.0000E+00  0.0000E+00  0.0000E+00
 85  0.0000E+00  3.7975E-04  0.0000E+00  0.0000E+00  1.0067E-03  2.4288E-04  0.0000E+00  0.0000E+00  0.0000E+00
 86  0.0000E+00  5.2484E-04  0.0000E+00  0.0000E+00  0.0000E+00  6.2926E-04  0.0000E+00  5.3365E-04  0.0000E+00
 87  0.0000E+00  7.4340E-04  0.0000E+00  0.0000E+00  6.3925E-03  1.2498E-05  0.0000E+00  0.0000E+00  0.0000E+00
 88  0.0000E+00  4.7220E-04  0.0000E+00  0.0000E+00  2.6233E-04  0.0000E+00  0.0000E+00  0.0000E+00  0.0000E+00
 89  0.0000E+00  5.9376E-04  0.0000E+00  0.0000E+00  0.0000E+00  0.0000E+00  0.0000E+00  0.0000E+00  0.0000E+00
 90  0.0000E+00  1.1401E-03  1.1183E-03  0.0000E+00  0.0000E+00  0.0000E+00  0.0000E+00  0.0000E+00  0.0000E+00
 91  0.0000E+00  3.0510E-03  1.8907E-04  0.0000E+00  0.0000E+00  0.0000E+00  0.0000E+00  1.3087E-02  0.0000E+00
 92  0.0000E+00  4.5033E-03  0.0000E+00  0.0000E+00  0.0000E+00  0.0000E+00  0.0000E+00  0.0000E+00  0.0000E+00
 93  0.0000E+00  4.4179E-02  0.0000E+00  0.0000E+00  2.7923E-02  1.8296E-02  2.2066E-02  0.0000E+00  2.4826E-02
 94  1.1025E-05  1.5432E-01  2.0606E-01  0.0000E+00  6.6704E-02  1.5359E-01  3.4489E-01  3.1164E-01  7.4320E-02
 95  0.0000E+00  4.6922E-01  9.8658E-02  4.7966E-01  4.7546E-01  3.4896E-01  9.4041E-01  5.0471E-01  4.8701E-01
 96  1.9155E-05  9.0527E-01  1.1207E+00  1.0306E+00  1.0205E+00  8.6492E-01  3.8173E-01  9.7332E-01  5.3668E-01
 97  7.3455E+01  7.3276E+01  7.5662E+01  7.3956E+01  7.5579E+01  7.6757E+01  7.3222E+01  7.2824E+01  7.5411E+01
 98  7.4386E+00  4.5987E+00  4.5882E+00  4.9477E+00  4.9885E+00  5.6016E+00  4.5938E+00  5.2481E+00  4.3473E+00
 99  5.7226E+00  3.2851E+00  4.2847E+00  3.1577E+00  3.8200E+00  3.2236E+00  4.8639E+00  3.5750E+00  3.5583E+00
100  1.6606E+00  1.3262E+00  1.1280E+00  1.3721E+00  2.1233E+00  4.9841E-01  0.0000E+00  1.6492E+00  2.0676E+00
101  0.0000E+00  6.6176E-06  0.0000E+00  0.0000E+00  0.0000E+00  0.0000E+00  0.0000E+00  0.0000E+00  0.0000E+00
102  0.0000E+00  1.1941E-05  0.0000E+00  0.0000E+00  0.0000E+00  0.0000E+00  0.0000E+00  0.0000E+00  0.0000E+00
103  0.0000E+00  3.7519E-05  0.0000E+00  0.0000E+00  0.0000E+00  0.0000E+00  5.8836E-06  0.0000E+00  0.0000E+00
104  0.0000E+00  1.9177E-05  8.1829E-06  0.0000E+00  0.0000E+00  2.3273E-05  0.0000E+00  0.0000E+00  0.0000E+00
105  0.0000E+00  1.8984E-05  0.0000E+00  0.0000E+00  0.0000E+00  0.0000E+00  0.0000E+00  0.0000E+00  0.0000E+00
106  0.0000E+00  5.4972E-05  1.7004E-04  3.4875E-04  3.0552E-05  0.0000E+00  0.0000E+00  0.0000E+00  0.0000E+00
107  0.0000E+00  5.0983E-05  0.0000E+00  3.0901E-04  0.0000E+00  0.0000E+00  0.0000E+00  0.0000E+00  0.0000E+00
108  0.0000E+00  1.4853E-04  0.0000E+00  0.0000E+00  0.0000E+00  2.4743E-04  5.8722E-04  0.0000E+00  0.0000E+00
109  0.0000E+00  1.0939E-04  0.0000E+00  0.0000E+00  0.0000E+00  0.0000E+00  0.0000E+00  1.4190E-04  0.0000E+00
110  0.0000E+00  1.9624E-04  1.0398E-04  0.0000E+00  0.0000E+00  0.0000E+00  1.6975E-04  2.0694E-04  0.0000E+00
111  0.0000E+00  5.2913E-04  0.0000E+00  0.0000E+00  0.0000E+00  0.0000E+00  0.0000E+00  0.0000E+00  4.6015E-03
112  0.0000E+00  2.7165E-04  0.0000E+00  0.0000E+00  0.0000E+00  0.0000E+00  0.0000E+00  0.0000E+00  6.4902E-04
113  0.0000E+00  3.8746E-04  0.0000E+00  0.0000E+00  0.0000E+00  0.0000E+00  0.0000E+00  0.0000E+00  3.4186E-04
114  0.0000E+00  6.9139E-04  0.0000E+00  0.0000E+00  4.0726E-03  0.0000E+00  0.0000E+00  0.0000E+00  0.0000E+00
115  0.0000E+00  2.4664E-03  0.0000E+00  0.0000E+00  1.8487E-02  0.0000E+00  0.0000E+00  0.0000E+00  0.0000E+00
116  0.0000E+00  7.2973E-03  0.0000E+00  0.0000E+00  0.0000E+00  0.0000E+00  0.0000E+00  0.0000E+00  0.0000E+00
117  0.0000E+00  6.8801E-03  0.0000E+00  0.0000E+00  0.0000E+00  0.0000E+00  0.0000E+00  0.0000E+00  0.0000E+00
118  0.0000E+00  2.7538E-02  0.0000E+00  0.0000E+00  0.0000E+00  0.0000E+00  0.0000E+00  0.0000E+00  0.0000E+00
119  0.0000E+00  5.7955E-02  0.0000E+00  0.0000E+00  0.0000E+00  0.0000E+00  0.0000E+00  0.0000E+00  0.0000E+00
120  0.0000E+00  7.9907E-02  0.0000E+00  1.2110E-01  4.3351E-01  0.0000E+00  0.0000E+00  0.0000E+00  0.0000E+00
121  0.0000E+00  5.9766E-02  0.0000E+00  0.0000E+00  5.7820E-02  0.0000E+00  4.8588E-01  2.4897E-01  0.0000E+00
122  0.0000E+00  1.0406E-01  5.8880E-02  0.0000E+00  0.0000E+00  0.0000E+00  0.0000E+00  0.0000E+00  0.0000E+00
123  0.0000E+00  5.3867E-02  0.0000E+00  0.0000E+00  3.3767E-03  0.0000E+00  0.0000E+00  0.0000E+00  0.0000E+00
124  0.0000E+00  8.2546E-02  0.0000E+00  0.0000E+00  0.0000E+00  0.0000E+00  5.3689E-01  0.0000E+00  0.0000E+00
125  0.0000E+00  3.0186E-01  0.0000E+00  0.0000E+00  0.0000E+00  8.0307E-01  0.0000E+00  0.0000E+00  0.0000E+00
126  0.0000E+00  6.6456E-06  0.0000E+00  0.0000E+00  0.0000E+00  0.0000E+00  0.0000E+00  0.0000E+00  0.0000E+00
127  0.0000E+00  5.3032E-06  0.0000E+00  0.0000E+00  0.0000E+00  1.4083E-06  3.4202E-05  0.0000E+00  0.0000E+00
128  0.0000E+00  2.8243E-05  0.0000E+00  0.0000E+00  0.0000E+00  0.0000E+00  0.0000E+00  0.0000E+00  6.6035E-05
129  0.0000E+00  1.9959E-05  0.0000E+00  0.0000E+00  0.0000E+00  0.0000E+00  4.9891E-05  9.4382E-05  0.0000E+00
130  0.0000E+00  1.4995E-05  0.0000E+00  9.2799E-05  0.0000E+00  0.0000E+00  0.0000E+00  0.0000E+00  0.0000E+00
131  0.0000E+00  1.7350E-05  0.0000E+00  0.0000E+00  0.0000E+00  0.0000E+00  0.0000E+00  0.0000E+00  0.0000E+00
132  0.0000E+00  2.6183E-05  0.0000E+00  0.0000E+00  0.0000E+00  0.0000E+00  0.0000E+00  0.0000E+00  0.0000E+00
133  0.0000E+00  8.1828E-05  0.0000E+00  3.5059E-04  0.0000E+00  0.0000E+00  0.0000E+00  0.0000E+00  3.4754E-04
134  0.0000E+00  1.5443E-04  0.0000E+00  0.0000E+00  0.0000E+00  0.0000E+00  0.0000E+00  0.0000E+00  0.0000E+00
135  0.0000E+00  1.7640E-04  0.0000E+00  1.5627E-04  0.0000E+00  0.0000E+00  0.0000E+00  0.0000E+00  4.9427E-04
136  0.0000E+00  3.2441E-04  0.0000E+00  0.0000E+00  0.0000E+00  0.0000E+00  2.1124E-03  0.0000E+00  0.0000E+00
137  0.0000E+00  5.8058E-04  0.0000E+00  0.0000E+00  8.5314E-03  0.0000E+00  0.0000E+00  0.0000E+00  0.0000E+00
138  0.0000E+00  6.6104E-04  0.0000E+00  0.0000E+00  0.0000E+00  0.0000E+00  0.0000E+00  0.0000E+00  0.0000E+00
139  0.0000E+00  6.7524E-04  0.0000E+00  0.0000E+00  0.0000E+00  0.0000E+00  0.0000E+00  0.0000E+00  6.0217E-03
140  0.0000E+00  5.6330E-03  0.0000E+00  1.6117E-02  0.0000E+00  0.0000E+00  4.1067E-03  0.0000E+00  0.0000E+00
141  0.0000E+00  1.1177E-02  2.0541E-02  0.0000E+00  0.0000E+00  0.0000E+00  0.0000E+00  0.0000E+00  0.0000E+00
142  0.0000E+00  1.8089E-02  0.0000E+00  3.0915E-03  5.1911E-02  0.0000E+00  0.0000E+00  0.0000E+00  5.8887E-02
143  9.4590E-06  7.7206E-02  2.4170E-01  0.0000E+00  0.0000E+00  0.0000E+00  0.0000E+00  0.0000E+00  0.0000E+00
144  0.0000E+00  1.4492E-01  2.1832E-01  0.0000E+00  0.0000E+00  0.0000E+00  0.0000E+00  0.0000E+00  9.3000E-02
145  0.0000E+00  1.8970E-01  0.0000E+00  0.0000E+00  0.0000E+00  0.0000E+00  2.8171E-02  1.8624E-01  0.0000E+00
146  0.0000E+00  7.3336E-01  0.0000E+00  1.3283E+00  3.5105E-01  0.0000E+00  1.4238E+00  1.0774E+00  7.9761E-01
147  0.0000E+00  2.3473E-01  0.0000E+00  0.0000E+00  0.0000E+00  0.0000E+00  4.5466E-01  0.0000E+00  0.0000E+00
148  0.0000E+00  6.8502E-01  7.1718E-01  1.5153E-01  0.0000E+00  0.0000E+00  0.0000E+00  0.0000E+00  1.2056E+00
149  0.0000E+00  4.6714E-01  0.0000E+00  0.0000E+00  0.0000E+00  0.0000E+00  0.0000E+00  0.0000E+00  0.0000E+00
150  0.0000E+00  1.1945E+00  5.2719E-02  1.0438E+00  1.2157E+00  1.3591E+00  0.0000E+00  1.1778E+00  1.4809E+00

# AV, chi2 & Mass for <> & i_chain = 1 ...  7 solutions
AV       0.1204      0.0995      0.1079      0.1092      0.1085      0.1062      0.1054      0.1059      0.1002
chi2 2.1784E+00  2.2189E+00  2.1992E+00  2.2032E+00  2.2083E+00  2.2047E+00  2.2046E+00  2.2050E+00  2.2098E+00
Mass 2.9658E-10  2.8937E-10  2.8826E-10  2.8940E-10  2.8934E-10  2.8883E-10  2.8753E-10  2.9101E-10  2.9156E-10
 -20.36                                  [v0_min (km/s) before EX0s...]
  64.99                                  [vd_min (km/s) before EX0s...]


## Synthetic spectrum (Best Model) ##l_obs f_obs f_syn wei
 3070    [Nl_obs]
 3359.00    0.00000   0.41243   -2.000
 3360.00    0.00000   0.38642   -2.000
 3361.00    0.14296   0.39326   -1.000
 3362.00    0.22996   0.42642   -1.000
 3363.00    0.25273   0.46735   -1.000
 3364.00    0.27435   0.49455   -1.000
 3365.00    0.27774   0.49757   -1.000
 3366.00    0.27822   0.48188   -1.000
 3367.00    0.27392   0.45981   -1.000
 3368.00    0.26636   0.43995   -1.000
 3369.00    0.25831   0.42430   -1.000
 3370.00    0.26018   0.41106   -1.000
 3371.00    0.25134   0.40422   -1.000
 3372.00    0.25920   0.41101   -1.000
 3373.00    0.28432   0.43424   -1.000
 3374.00    0.30391   0.46825   -1.000
 3375.00    0.31641   0.50170   -1.000
 3376.00    0.34243   0.52055   -1.000
 3377.00    0.36089   0.51591   -1.000
 3378.00    0.34823   0.49298   -1.000
 3379.00    0.33032   0.46947   -1.000
 3380.00    0.32822   0.45921   -1.000
 3381.00    0.33185   0.46516   -1.000
 3382.00    0.33573   0.48016   -1.000
 3383.00    0.33667   0.49519   -1.000
 3384.00    0.34606   0.50736   -1.000
 3385.00    0.35881   0.51542   -1.000
 3386.00    0.36445   0.51625   -1.000
 3387.00    0.36918   0.51363   -1.000
 3388.00    0.37151   0.51391   -1.000
 3389.00    0.38263   0.51663   -1.000
 3390.00    0.39381   0.51513   -1.000
 3391.00    0.38974   0.50391   -1.000
 3392.00    0.37702   0.48793   -1.000
 3393.00    0.36615   0.48142   -1.000
 3394.00    0.38128   0.49172   -1.000
 3395.00    0.40372   0.51445   -1.000
 3396.00    0.41158   0.53973   -1.000
 3397.00    0.42836   0.56146   -1.000
 3398.00    0.44659   0.57680   -1.000
 3399.00    0.45188   0.58146   -1.000
 3400.00    0.46067   0.57508   -1.000
 3401.00    0.47163   0.56032   -1.000
 3402.00    0.46947   0.54176   -1.000
 3403.00    0.46204   0.52719   -1.000
 3404.00    0.44437   0.51899   -1.000
 3405.00    0.43375   0.51402   -1.000
 3406.00    0.42989   0.50820   -1.000
 3407.00    0.41891   0.50192   -1.000
 3408.00    0.41511   0.49928   -1.000
 3409.00    0.41662   0.50350   -1.000
 3410.00    0.42093   0.51050   -1.000
 3411.00    0.42495   0.50981   -1.000
 3412.00    0.42253   0.49830   -1.000
 3413.00    0.41747   0.48331   -1.000
 3414.00    0.40303   0.47659   -1.000
 3415.00    0.39644   0.48376   -1.000
 3416.00    0.41681   0.50110   -1.000
 3417.00    0.43584   0.52390   -1.000
 3418.00    0.46325   0.54700   -1.000
 3419.00    0.47235   0.56505   -1.000
 3420.00    0.47001   0.57109   -1.000
 3421.00    0.47074   0.56140   -1.000
 3422.00    0.46745   0.54287   -1.000
 3423.00    0.46804   0.52985   -1.000
 3424.00    0.47065   0.52815   -1.000
 3425.00    0.46975   0.53257   -1.000
 3426.00    0.47421   0.53849   -1.000
 3427.00    0.48456   0.54935   -1.000
 3428.00    0.49183   0.56830   -1.000
 3429.00    0.50408   0.58676   -1.000
 3430.00    0.51178   0.58857   -1.000
 3431.00    0.51124   0.57097   -1.000
 3432.00    0.49758   0.54858   -1.000
 3433.00    0.48078   0.53892   -1.000
 3434.00    0.48754   0.54631   -1.000
 3435.00    0.49926   0.55636   -1.000
 3436.00    0.49062   0.55452   -1.000
 3437.00    0.47862   0.53875   -1.000
 3438.00    0.45468   0.51202   -1.000
 3439.00    0.42516   0.47809   -1.000
 3440.00    0.40361   0.44584   -1.000
 3441.00    0.38879   0.42481   -1.000
 3442.00    0.38451   0.42039   -1.000
 3443.00    0.39483   0.43030   -1.000
 3444.00    0.41111   0.44788   -1.000
 3445.00    0.43083   0.46920   -1.000
 3446.00    0.45564   0.49456   -1.000
 3447.00    0.47006   0.52163   -1.000
 3448.00    0.48832   0.54603   -1.000
 3449.00    0.50920   0.56142   -1.000
 3450.00    0.51992   0.55952   -1.000
 3451.00    0.52462   0.54325   -1.000
 3452.00    0.51388   0.52849   -1.000
 3453.00    0.49992   0.52592   -1.000
 3454.00    0.49610   0.53308   -1.000
 3455.00    0.50659   0.53879   -1.000
 3456.00    0.51211   0.53404   -1.000
 3457.00    0.50680   0.51919   -1.000
 3458.00    0.49427   0.50073   -1.000
 3459.00    0.48498   0.48542  903.397
 3460.00    0.47509   0.47738  204.475
 3461.00    0.46774   0.48212  133.948
 3462.00    0.48193   0.50054  134.098
 3463.00    0.50626   0.52094   -1.000
 3464.00    0.52031   0.52826   -1.000
 3465.00    0.52022   0.52431   -1.000
 3466.00    0.52079   0.52298  903.397
 3467.00    0.52788   0.53307   -1.000
 3468.00    0.53870   0.55204   -1.000
 3469.00    0.55813   0.56832   -1.000
 3470.00    0.56788   0.57083  903.397
 3471.00    0.55494   0.55742  903.397
 3472.00    0.53641   0.53279   -1.000
 3473.00    0.51956   0.50278   -1.000
 3474.00    0.49579   0.47526   -1.000
 3475.00    0.46879   0.45887   -1.000
 3476.00    0.45806   0.46150  207.873
 3477.00    0.47662   0.48165  136.975
 3478.00    0.49969   0.50788  137.136
 3479.00    0.52217   0.52985  293.160
 3480.00    0.54412   0.54223  903.397
 3481.00    0.55403   0.54254   -1.000
 3482.00    0.55432   0.53391   -1.000
 3483.00    0.54395   0.52511   -1.000
 3484.00    0.54083   0.52654   -1.000
 3485.00    0.54921   0.54154   -1.000
 3486.00    0.56521   0.55855   -1.000
 3487.00    0.57770   0.56190   -1.000
 3488.00    0.56814   0.54599   -1.000
 3489.00    0.53710   0.51993   -1.000
 3490.00    0.51134   0.49959   -1.000
 3491.00    0.50215   0.49453   -1.000
 3492.00    0.50217   0.50146  903.397
 3493.00    0.51627   0.50986   -1.000
 3494.00    0.52512   0.51090   -1.000
 3495.00    0.51264   0.50278   -1.000
 3496.00    0.49861   0.49584   -1.000
 3497.00    0.50550   0.50364   -1.000
 3498.00    0.53499   0.52652   -1.000
 3499.00    0.56160   0.55161   -1.000
 3500.00    0.58356   0.56684   -1.000
 3501.00    0.59968   0.57474   -1.000
 3502.00    0.60827   0.58109   -1.000
 3503.00    0.61140   0.58260   -1.000
 3504.00    0.60058   0.57560   -1.000
 3505.00    0.58376   0.56309   -1.000
 3506.00    0.56977   0.55312   -1.000
 3507.00    0.56959   0.55005   -1.000
 3508.00    0.57586   0.54832   -1.000
 3509.00    0.58173   0.54183   -1.000
 3510.00    0.57722   0.53174   -1.000
 3511.00    0.55597   0.52027   -1.000
 3512.00    0.53725   0.50746   -1.000
 3513.00    0.53065   0.49717   -1.000
 3514.00    0.52380   0.49956   -1.000
 3515.00    0.53680   0.52215   -1.000
 3516.00    0.56782   0.55685   -1.000
 3517.00    0.59539   0.58357   -1.000
 3518.00    0.60206   0.58760   -1.000
 3519.00    0.58481   0.56995   -1.000
 3520.00    0.57239   0.54419   -1.000
 3521.00    0.55351   0.52060   -1.000
 3522.00    0.52436   0.50074   -1.000
 3523.00    0.50418   0.48109   -1.000
 3524.00    0.48047   0.46300   -1.000
 3525.00    0.46860   0.45718  212.156
 3526.00    0.47171   0.47252  135.561
 3527.00    0.49618   0.50436  137.053
 3528.00    0.53275   0.53954  284.367
 3529.00    0.56531   0.56392  903.397
 3530.00    0.57825   0.57148   -1.000
 3531.00    0.57168   0.56721   -1.000
 3532.00    0.56266   0.56298  903.397
 3533.00    0.55919   0.56560   -1.000
 3534.00    0.57306   0.57280  903.397
 3535.00    0.58703   0.58004   -1.000
 3536.00    0.59078   0.58703  903.397
 3537.00    0.60033   0.59693  903.397
 3538.00    0.61422   0.60884   -1.000
 3539.00    0.61223   0.61498   -1.000
 3540.00    0.60242   0.61120   -1.000
 3541.00    0.60572   0.60338  903.397
 3542.00    0.60142   0.60130  903.397
 3543.00    0.60050   0.60747   -1.000
 3544.00    0.60210   0.61467   -1.000
 3545.00    0.59512   0.61574   -1.000
 3546.00    0.58865   0.61036   -1.000
 3547.00    0.58067   0.60410   -1.000
 3548.00    0.58029   0.60226   -1.000
 3549.00    0.58341   0.60442   -1.000
 3550.00    0.58864   0.60500   -1.000
 3551.00    0.59199   0.59839   -1.000
 3552.00    0.57548   0.58464   -1.000
 3553.00    0.55569   0.57086   -1.000
 3554.00    0.54915   0.56558   -1.000
 3555.00    0.55725   0.56968   -1.000
 3556.00    0.56498   0.57610   -1.000
 3557.00    0.56376   0.57876   -1.000
 3558.00    0.55899   0.57696   -1.000
 3559.00    0.54991   0.57593   -1.000
 3560.00    0.54680   0.58087   -1.000
 3561.00    0.55676   0.59047   -1.000
 3562.00    0.56403   0.59319   -1.000
 3563.00    0.56036   0.57524   -1.000
 3564.00    0.53125   0.53834   -1.000
 3565.00    0.48515   0.50197   -1.000
 3566.00    0.45986   0.48484   -1.000
 3567.00    0.46674   0.48393  137.220
 3568.00    0.47165   0.48228  138.711
 3569.00    0.46203   0.47360  137.551
 3570.00    0.45560   0.46660  139.877
 3571.00    0.46507   0.46993  143.442
 3572.00    0.48294   0.48242  141.938
 3573.00    0.49513   0.49569  136.343
 3574.00    0.50603   0.50571  269.784
 3575.00    0.51635   0.51355   -1.000
 3576.00    0.51861   0.51793  903.397
 3577.00    0.50859   0.51433   -1.000
 3578.00    0.50027   0.49939  903.397
 3579.00    0.47844   0.47436   -1.000
 3580.00    0.44443   0.44840  228.372
 3581.00    0.41553   0.43270  144.671
 3582.00    0.41429   0.43222  154.244
 3583.00    0.42580   0.43687  158.470
 3584.00    0.42191   0.43256  159.246
 3585.00    0.40668   0.42007  161.792
 3586.00    0.39473   0.41157  166.608
 3587.00    0.40176   0.41760  170.351
 3588.00    0.42466   0.44012  166.375
 3589.00    0.45427   0.47365  157.639
 3590.00    0.49206   0.50824  149.687
 3591.00    0.52151   0.53336  138.837
 3592.00    0.54415   0.54440  264.183
 3593.00    0.55598   0.54870   -1.000
 3594.00    0.55978   0.55817  903.397
 3595.00    0.56978   0.57653   -1.000
 3596.00    0.59213   0.59694   -1.000
 3597.00    0.60737   0.61179   -1.000
 3598.00    0.61910   0.62124   -1.000
 3599.00    0.62581   0.62566  903.397
 3600.00    0.61948   0.61843  903.397
 3601.00    0.60626   0.59626   -1.000
 3602.00    0.58411   0.56738   -1.000
 3603.00    0.55478   0.54342   -1.000
 3604.00    0.53491   0.53166   -1.000
 3605.00    0.53571   0.52938   -1.000
 3606.00    0.54176   0.52678   -1.000
 3607.00    0.53367   0.51671   -1.000
 3608.00    0.51485   0.50338   -1.000
 3609.00    0.50405   0.49829   -1.000
 3610.00    0.50764   0.50714  903.397
 3611.00    0.52203   0.52434  903.397
 3612.00    0.53804   0.54012  903.397
 3613.00    0.54730   0.55381   -1.000
 3614.00    0.56230   0.56921   -1.000
 3615.00    0.57564   0.57914   -1.000
 3616.00    0.56620   0.56882  903.397
 3617.00    0.54181   0.53656   -1.000
 3618.00    0.50658   0.50204   -1.000
 3619.00    0.48716   0.49221   -1.000
 3620.00    0.50262   0.51404  223.615
 3621.00    0.53914   0.55152   -1.000
 3622.00    0.57750   0.58373   -1.000
 3623.00    0.59424   0.60450   -1.000
 3624.00    0.60401   0.62394   -1.000
 3625.00    0.62502   0.64981   -1.000
 3626.00    0.64005   0.67547   -1.000
 3627.00    0.64506   0.68610   -1.000
 3628.00    0.64401   0.66877   -1.000
 3629.00    0.61167   0.62324   -1.000
 3630.00    0.55523   0.56791   -1.000
 3631.00    0.51105   0.53052   -1.000
 3632.00    0.50018   0.52364   -1.000
 3633.00    0.51945   0.53923   -1.000
 3634.00    0.53670   0.56068   -1.000
 3635.00    0.54407   0.57800   -1.000
 3636.00    0.56170   0.59260   -1.000
 3637.00    0.59049   0.61108   -1.000
 3638.00    0.61388   0.63336   -1.000
 3639.00    0.62983   0.65069   -1.000
 3640.00    0.63986   0.65451   -1.000
 3641.00    0.63384   0.64252   -1.000
 3642.00    0.61345   0.62022   -1.000
 3643.00    0.58487   0.59646   -1.000
 3644.00    0.56332   0.57640   -1.000
 3645.00    0.55761   0.56042  903.397
 3646.00    0.55093   0.54755   -1.000
 3647.00    0.53562   0.54015   -1.000
 3648.00    0.53487   0.54257   -1.000
 3649.00    0.55235   0.55605   -1.000
 3650.00    0.57311   0.57924   -1.000
 3651.00    0.59745   0.60751   -1.000
 3652.00    0.62081   0.63396   -1.000
 3653.00    0.63879   0.65258   -1.000
 3654.00    0.64615   0.66444   -1.000
 3655.00    0.65437   0.67442   -1.000
 3656.00    0.66967   0.68602   -1.000
 3657.00    0.67419   0.69752   -1.000
 3658.00    0.67005   0.70469   -1.000
 3659.00    0.67567   0.70614   -1.000
 3660.00    0.67772   0.70105   -1.000
 3661.00    0.67270   0.68896   -1.000
 3662.00    0.66164   0.67387   -1.000
 3663.00    0.64639   0.66358   -1.000
 3664.00    0.64618   0.66147   -1.000
 3665.00    0.65182   0.66352   -1.000
 3666.00    0.65175   0.66224   -1.000
 3667.00    0.64529   0.65345   -1.000
 3668.00    0.63996   0.64101  903.397
 3669.00    0.63568   0.63487  903.397
 3670.00    0.63372   0.64240   -1.000
 3671.00    0.64298   0.65934   -1.000
 3672.00    0.65984   0.67453   -1.000
 3673.00    0.67084   0.68140   -1.000
 3674.00    0.66372   0.67898   -1.000
 3675.00    0.65200   0.66673   -1.000
 3676.00    0.64162   0.64585   -1.000
 3677.00    0.62403   0.62190  903.397
 3678.00    0.60440   0.60211  903.397
 3679.00    0.59300   0.59289  903.397
 3680.00    0.59871   0.59688  903.397
 3681.00    0.61764   0.60986   -1.000
 3682.00    0.62804   0.62283   -1.000
 3683.00    0.62673   0.62645  903.397
 3684.00    0.62064   0.61530   -1.000
 3685.00    0.60035   0.59296   -1.000
 3686.00    0.57557   0.57307  903.397
 3687.00    0.57037   0.57119  903.397
 3688.00    0.58712   0.59238   -1.000
 3689.00    0.61561   0.62778   -1.000
 3690.00    0.64836   0.66091   -1.000
 3691.00    0.66713   0.67878   -1.000
 3692.00    0.66494   0.67837   -1.000
 3693.00    0.65696   0.66839   -1.000
 3694.00    0.65593   0.65993   -1.000
 3695.00    0.65614   0.65694  903.397
 3696.00    0.65717   0.65986   -1.000
 3697.00    0.67097   0.67214  903.397
 3698.00    0.69303   0.69441  903.397
 3699.00    0.71303   0.71674   -1.000
 3700.00    0.72102   0.72491   -1.000
 3701.00    0.71390   0.70782   -1.000
 3702.00    0.67758   0.66451   -1.000
 3703.00    0.61989   0.60817   -1.000
 3704.00    0.57320   0.56019   -1.000
 3705.00    0.54774   0.53503   -1.000
 3706.00    0.54546   0.53355   -1.000
 3707.00    0.55974   0.54501   -1.000
 3708.00    0.57203   0.55913   -1.000
 3709.00    0.58384   0.57401   -1.000
 3710.00    0.60220   0.59249   -1.000
 3711.00    0.63056   0.61759   -1.000
 3712.00    0.66639   0.64982   -1.000
 3713.00    0.70090   0.68348   -1.000
 3714.00    0.72781   0.70783   -1.000
 3715.00    0.73292   0.71506   -1.000
 3716.00    0.72045   0.70376   -1.000
 3717.00    0.69632   0.67141   -1.000
 3718.00    0.64145   0.61584   -1.000
 3719.00    0.56498   0.54671   -1.000
 3720.00    0.50216   0.48831   -1.000
 3721.00    0.47671   0.46627   -1.000
 3722.00    0.50278   0.48739   -1.000
 3723.00    0.56131   0.53936   -1.000
 3724.00    0.62397   0.59825   -1.000
 3725.00    0.66449   0.63684   -1.000
 3726.00    0.66468   0.64654   -1.000
 3727.00    0.64835   0.64305   -1.000
 3728.00    0.64764   0.64287   -1.000
 3729.00    0.65717   0.64402   -1.000
 3730.00    0.65073   0.63190   -1.000
 3731.00    0.61686   0.59363   -1.000
 3732.00    0.56199   0.53247   -1.000
 3733.00    0.49788   0.46861   -1.000
 3734.00    0.44709   0.42317   -1.000
 3735.00    0.42658   0.41101  139.904
 3736.00    0.43981   0.43628  151.113
 3737.00    0.49046   0.49030  149.898
 3738.00    0.55788   0.55675  138.843
 3739.00    0.61654   0.61733  236.277
 3740.00    0.66304   0.65377   -1.000
 3741.00    0.67365   0.65757   -1.000
 3742.00    0.64685   0.63485   -1.000
 3743.00    0.61407   0.60067   -1.000
 3744.00    0.58246   0.56680   -1.000
 3745.00    0.55140   0.53798   -1.000
 3746.00    0.52341   0.50957   -1.000
 3747.00    0.48917   0.47701   -1.000
 3748.00    0.45694   0.44816  245.747
 3749.00    0.45355   0.44034  138.399
 3750.00    0.48746   0.46680   -1.000
 3751.00    0.55374   0.52337   -1.000
 3752.00    0.62317   0.59111   -1.000
 3753.00    0.67813   0.65291   -1.000
 3754.00    0.71748   0.69469   -1.000
 3755.00    0.73372   0.70319   -1.000
 3756.00    0.70631   0.67553   -1.000
 3757.00    0.64285   0.62764   -1.000
 3758.00    0.59250   0.58846   -1.000
 3759.00    0.57896   0.57726  903.397
 3760.00    0.60496   0.58876   -1.000
 3761.00    0.64061   0.60624   -1.000
 3762.00    0.65370   0.61771   -1.000
 3763.00    0.65382   0.62228   -1.000
 3764.00    0.65341   0.62213   -1.000
 3765.00    0.65457   0.61561   -1.000
 3766.00    0.64332   0.60355   -1.000
 3767.00    0.62363   0.59074   -1.000
 3768.00    0.61436   0.57953   -1.000
 3769.00    0.61037   0.57064   -1.000
 3770.00    0.61271   0.57084   -1.000
 3771.00    0.62662   0.58920   -1.000
 3772.00    0.65353   0.62140   -1.000
 3773.00    0.68564   0.65293   -1.000
 3774.00    0.70230   0.67385   -1.000
 3775.00    0.71006   0.68571   -1.000
 3776.00    0.71955   0.69642   -1.000
 3777.00    0.72893   0.71191   -1.000
 3778.00    0.74245   0.73228   -1.000
 3779.00    0.76501   0.75393   -1.000
 3780.00    0.79018   0.77213   -1.000
 3781.00    0.79519   0.78306   -1.000
 3782.00    0.79310   0.78680   -1.000
 3783.00    0.79125   0.78235   -1.000
 3784.00    0.77913   0.76404   -1.000
 3785.00    0.75158   0.73088   -1.000
 3786.00    0.70903   0.69245   -1.000
 3787.00    0.67686   0.66071   -1.000
 3788.00    0.65841   0.64361   -1.000
 3789.00    0.65190   0.64206   -1.000
 3790.00    0.66203   0.64843   -1.000
 3791.00    0.67163   0.65104   -1.000
 3792.00    0.66066   0.64113   -1.000
 3793.00    0.63621   0.61793   -1.000
 3794.00    0.61130   0.58789   -1.000
 3795.00    0.58462   0.55615   -1.000
 3796.00    0.55781   0.52334   -1.000
 3797.00    0.53127   0.49544   -1.000
 3798.00    0.52011   0.48927   -1.000
 3799.00    0.55201   0.51734   -1.000
 3800.00    0.60843   0.57247   -1.000
 3801.00    0.66201   0.63385   -1.000
 3802.00    0.70604   0.68374   -1.000
 3803.00    0.73324   0.71379   -1.000
 3804.00    0.74045   0.72220   -1.000
 3805.00    0.72984   0.71273   -1.000
 3806.00    0.70534   0.69954   -1.000
 3807.00    0.69272   0.69833   -1.000
 3808.00    0.71340   0.71363  903.397
 3809.00    0.73743   0.73552  903.397
 3810.00    0.74714   0.74713  903.397
 3811.00    0.73465   0.73595  903.397
 3812.00    0.70641   0.70272  903.397
 3813.00    0.67366   0.66111   -1.000
 3814.00    0.63376   0.62809   -1.000
 3815.00    0.61585   0.61577  903.397
 3816.00    0.63126   0.62256   -1.000
 3817.00    0.64935   0.63219   -1.000
 3818.00    0.64260   0.62576   -1.000
 3819.00    0.60981   0.60323   -1.000
 3820.00    0.58469   0.58544  903.397
 3821.00    0.58809   0.58593   -1.000
 3822.00    0.60241   0.59444   -1.000
 3823.00    0.59521   0.58917   -1.000
 3824.00    0.55911   0.56489   -1.000
 3825.00    0.53081   0.53771   -1.000
 3826.00    0.51917   0.52167  267.420
 3827.00    0.51381   0.51796  140.113
 3828.00    0.52040   0.52098  141.102
 3829.00    0.52656   0.52292  139.327
 3830.00    0.51370   0.51425  137.041
 3831.00    0.48199   0.49068  136.642
 3832.00    0.45056   0.45718  140.497
 3833.00    0.43299   0.42643  149.213
 3834.00    0.42702   0.41082  157.866
 3835.00    0.43589   0.41154   -1.000
 3836.00    0.44713   0.42227   -1.000
 3837.00    0.44325   0.43552  149.070
 3838.00    0.43946   0.44924  148.836
 3839.00    0.45852   0.46913  152.312
 3840.00    0.49524   0.50308  152.987
 3841.00    0.54959   0.55034  147.265
 3842.00    0.60752   0.59982  239.689
 3843.00    0.64349   0.63893   -1.000
 3844.00    0.65789   0.66189  903.397
 3845.00    0.66276   0.67392   -1.000
 3846.00    0.66783   0.68216   -1.000
 3847.00    0.66951   0.68570   -1.000
 3848.00    0.66410   0.68083   -1.000
 3849.00    0.65343   0.67262   -1.000
 3850.00    0.64517   0.67193   -1.000
 3851.00    0.65313   0.68252   -1.000
 3852.00    0.66906   0.69531   -1.000
 3853.00    0.67136   0.69872   -1.000
 3854.00    0.65946   0.68975   -1.000
 3855.00    0.64337   0.67377   -1.000
 3856.00    0.61990   0.65604   -1.000
 3857.00    0.60321   0.63624   -1.000
 3858.00    0.58062   0.61647   -1.000
 3859.00    0.56220   0.60816   -1.000
 3860.00    0.57941   0.62222   -1.000
 3861.00    0.60796   0.65521   -1.000
 3862.00    0.65562   0.68887   -1.000
 3863.00    0.68417   0.70612   -1.000
 3864.00    0.69031   0.70600   -1.000
 3865.00    0.68566   0.69958   -1.000
 3866.00    0.67806   0.69565   -1.000
 3867.00    0.66495   0.69379   -1.000
 3868.00    0.64692   0.68796   -1.000
 3869.00    0.63550   0.67271   -1.000
 3870.00    0.61373   0.64927   -1.000
 3871.00    0.57890   0.62721   -1.000
 3872.00    0.56987   0.61945   -1.000
 3873.00    0.60986   0.63389   -1.000
 3874.00    0.65641   0.66067  903.397
 3875.00    0.67860   0.67683  903.397
 3876.00    0.66576   0.66736  903.397
 3877.00    0.62302   0.64246   -1.000
 3878.00    0.59916   0.62465   -1.000
 3879.00    0.60497   0.62176   -1.000
 3880.00    0.60180   0.62576   -1.000
 3881.00    0.58649   0.62796   -1.000
 3882.00    0.58387   0.62745   -1.000
 3883.00    0.60322   0.62448   -1.000
 3884.00    0.62845   0.61000   -1.000
 3885.00    0.61669   0.57828   -1.000
 3886.00    0.57864   0.53817   -1.000
 3887.00    0.55315   0.50593   -1.000
 3888.00    0.54544   0.49610   -1.000
 3889.00    0.56120   0.51542   -1.000
 3890.00    0.61026   0.56004   -1.000
 3891.00    0.66415   0.61368   -1.000
 3892.00    0.69227   0.65418   -1.000
 3893.00    0.70061   0.67206   -1.000
 3894.00    0.70660   0.67733   -1.000
 3895.00    0.71337   0.68445   -1.000
 3896.00    0.72826   0.69674   -1.000
 3897.00    0.73654   0.70732   -1.000
 3898.00    0.73608   0.71127   -1.000
 3899.00    0.73551   0.71212   -1.000
 3900.00    0.74139   0.71633   -1.000
 3901.00    0.74300   0.72256   -1.000
 3902.00    0.74053   0.72358   -1.000
 3903.00    0.73031   0.71539   -1.000
 3904.00    0.71115   0.70163   -1.000
 3905.00    0.69341   0.69408  903.397
 3906.00    0.69826   0.70443   -1.000
 3907.00    0.73453   0.73291  903.397
 3908.00    0.77226   0.76681   -1.000
 3909.00    0.79639   0.79301  873.629
 3910.00    0.81360   0.80812   -1.000
 3911.00    0.82236   0.81436   -1.000
 3912.00    0.82562   0.81239   -1.000
 3913.00    0.81562   0.80320   -1.000
 3914.00    0.79419   0.79138  805.357
 3915.00    0.78271   0.78206  818.278
 3916.00    0.77965   0.77461   -1.000
 3917.00    0.77150   0.76418   -1.000
 3918.00    0.75513   0.74663   -1.000
 3919.00    0.72916   0.72371   -1.000
 3920.00    0.70138   0.70426  903.397
 3921.00    0.68682   0.69628   -1.000
 3922.00    0.69113   0.69973   -1.000
 3923.00    0.70392   0.70544  903.397
 3924.00    0.70271   0.70213  903.397
 3925.00    0.67770   0.68211   -1.000
 3926.00    0.62701   0.64382   -1.000
 3927.00    0.55809   0.59280   -1.000
 3928.00    0.49505   0.53621   -1.000
 3929.00    0.43474   0.47877   -1.000
 3930.00    0.35753   0.41974   -1.000
 3931.00    0.29613   0.35845   -1.000
 3932.00    0.25514   0.30408   -1.000
 3933.00    0.22697   0.27411   -1.000
 3934.00    0.22520   0.28187   -1.000
 3935.00    0.26405   0.32530   -1.000
 3936.00    0.32610   0.38979   -1.000
 3937.00    0.39438   0.46101   -1.000
 3938.00    0.47755   0.52845   -1.000
 3939.00    0.54518   0.58364   -1.000
 3940.00    0.59649   0.62216   -1.000
 3941.00    0.62737   0.64256   -1.000
 3942.00    0.63028   0.65070   -1.000
 3943.00    0.62286   0.65957   -1.000
 3944.00    0.64802   0.67818   -1.000
 3945.00    0.69837   0.70383   -1.000
 3946.00    0.73608   0.72592   -1.000
 3947.00    0.74833   0.73883   -1.000
 3948.00    0.75037   0.74743  903.397
 3949.00    0.76851   0.75744  190.942
 3950.00    0.78618   0.76583   88.413
 3951.00    0.78380   0.76815   85.276
 3952.00    0.77683   0.76981   83.826
 3953.00    0.79081   0.77560   84.614
 3954.00    0.80868   0.77916   84.711
 3955.00    0.79877   0.77419   82.904
 3956.00    0.77614   0.76377   82.057
 3957.00    0.77041   0.75595   83.872
 3958.00    0.77454   0.75014   86.282
 3959.00    0.75918   0.73050   86.418
 3960.00    0.71104   0.68780   86.305
 3961.00    0.63633   0.63463   91.223
 3962.00    0.57938   0.58682  101.953
 3963.00    0.53835   0.54656  114.323
 3964.00    0.49081   0.50161  123.824
 3965.00    0.42538   0.44045   29.391
 3966.00    0.34624   0.36675   14.708
 3967.00    0.27520   0.29894   17.593
 3968.00    0.23786   0.25999   21.655
 3969.00    0.24279   0.26265   25.494
 3970.00    0.29292   0.30421   26.212
 3971.00    0.37328   0.37070   23.056
 3972.00    0.45552   0.44571   18.959
 3973.00    0.52957   0.51833   15.704
 3974.00    0.59662   0.58407   21.990
 3975.00    0.65385   0.64156  116.147
 3976.00    0.70664   0.69245  103.480
 3977.00    0.75545   0.73842   94.163
 3978.00    0.80539   0.77887   87.580
 3979.00    0.84315   0.80860   82.682
 3980.00    0.86793   0.82187   -1.000
 3981.00    0.86879   0.82120   -1.000
 3982.00    0.84768   0.81705   75.160
 3983.00    0.84713   0.82107   76.088
 3984.00    0.86870   0.83556   76.752
 3985.00    0.88510   0.85341   75.730
 3986.00    0.89263   0.86960   74.167
 3987.00    0.90354   0.88295   72.814
 3988.00    0.91364   0.89168   71.550
 3989.00    0.91712   0.89681   70.452
 3990.00    0.93248   0.90340   70.168
 3991.00    0.95399   0.91415   70.157
 3992.00    0.96366   0.92563   69.209
 3993.00    0.95770   0.93011   67.547
 3994.00    0.94297   0.92188   66.893
 3995.00    0.92234   0.90380   68.072
 3996.00    0.89892   0.88766   69.706
 3997.00    0.89695   0.88574   71.203
 3998.00    0.91756   0.90100   72.256
 3999.00    0.94285   0.92510   71.932
 4000.00    0.96731   0.94672   69.565
 4001.00    0.98290   0.95911   66.676
 4002.00    0.99493   0.95707   64.917
 4003.00    0.98596   0.93650   63.945
 4004.00    0.93987   0.90388   63.899
 4005.00    0.89738   0.88089   66.410
 4006.00    0.89621   0.88527   70.596
 4007.00    0.94177   0.91287   72.538
 4008.00    0.98177   0.94465   70.383
 4009.00    1.00107   0.96612   66.764
 4010.00    1.00522   0.97554   64.855
 4011.00    1.00979   0.97712   64.094
 4012.00    1.01298   0.97709   63.595
 4013.00    1.00902   0.98015   63.658
 4014.00    1.00621   0.98516   64.087
 4015.00    1.00493   0.98791   64.102
 4016.00    1.00000   0.98778   63.431
 4017.00    0.98944   0.98910   63.091
 4018.00    0.99087   0.99481   63.762
 4019.00    1.00486   1.00171   64.122
 4020.00    1.00627   1.00433   63.515
 4021.00    1.00288   1.00041   62.963
 4022.00    0.99889   0.99176   63.443
 4023.00    0.98785   0.98223   64.174
 4024.00    0.98214   0.97847   64.556
 4025.00    0.99461   0.98779   65.013
 4026.00    1.02322   1.00796   64.675
 4027.00    1.04859   1.02285   62.742
 4028.00    1.04593   1.01509   60.870
 4029.00    1.01348   0.98214   60.352
 4030.00    0.96351   0.93921   61.683
 4031.00    0.92237   0.90608   64.924
 4032.00    0.91633   0.89341   68.778
 4033.00    0.92824   0.90219   70.838
 4034.00    0.94880   0.92949   70.959
 4035.00    0.98022   0.96941   69.457
 4036.00    1.02203   1.01146   66.684
 4037.00    1.04932   1.04200   63.360
 4038.00    1.06219   1.05136   60.589
 4039.00    1.05550   1.04279   59.213
 4040.00    1.03207   1.02879   59.596
 4041.00    1.02056   1.01570   60.961
 4042.00    1.01298   0.99253   62.119
 4043.00    0.98002   0.94649   62.634
 4044.00    0.91044   0.88988   63.955
 4045.00    0.84938   0.85779   68.283
 4046.00    0.86279   0.87438   74.562
 4047.00    0.93673   0.92688   76.829
 4048.00    0.99772   0.98209   71.738
 4049.00    1.02324   1.01743   65.717
 4050.00    1.03075   1.02910   62.595
 4051.00    1.02931   1.02351   61.254
 4052.00    1.01211   1.00737   60.997
 4053.00    0.99425   0.98790   61.918
 4054.00    0.98953   0.97159   63.618
 4055.00    0.98465   0.95972   65.016
 4056.00    0.97232   0.95145   65.826
 4057.00    0.96135   0.95111   66.310
 4058.00    0.96418   0.96423   66.851
 4059.00    0.98876   0.98386   66.989
 4060.00    1.01344   0.98993   65.525
 4061.00    0.99266   0.96671   63.521
 4062.00    0.93367   0.92411   63.165
 4063.00    0.89732   0.89138   65.599
 4064.00    0.90220   0.88465   70.428
 4065.00    0.92861   0.89821   73.036
 4066.00    0.95413   0.92035   70.813
 4067.00    0.97109   0.94330   67.938
 4068.00    1.00036   0.95993   66.248
 4069.00    1.02299   0.95988   -1.000
 4070.00    1.00022   0.94121   -1.000
 4071.00    0.96209   0.92233   63.133
 4072.00    0.95646   0.92208   65.862
 4073.00    0.97632   0.93432   67.587
 4074.00    0.98242   0.93535   66.257
 4075.00    0.95148   0.91148   64.548
 4076.00    0.89540   0.87705   65.509
 4077.00    0.85641   0.86013   69.651
 4078.00    0.87250   0.87741   74.284
 4079.00    0.93259   0.92146   74.662
 4080.00    0.98948   0.96585   71.061
 4081.00    1.01764   0.98770   66.110
 4082.00    1.00536   0.98258   62.511
 4083.00    0.97627   0.96445   61.745
 4084.00    0.96370   0.95314   63.250
 4085.00    0.96636   0.96075   65.014
 4086.00    0.98978   0.98506   65.251
 4087.00    1.02713   1.01311   63.769
 4088.00    1.05497   1.03139   61.468
 4089.00    1.05514   1.03340   59.239
 4090.00    1.04761   1.02268   58.136
 4091.00    1.03433   1.00869   58.791
 4092.00    1.01959   0.99623   59.993
 4093.00    1.01161   0.98167   60.951
 4094.00    0.99674   0.96009   61.397
 4095.00    0.96541   0.93184   61.827
 4096.00    0.93606   0.90286   63.606
 4097.00    0.92530   0.87557   -1.000
 4098.00    0.90882   0.84119   -1.000
 4099.00    0.85346   0.79124   -1.000
 4100.00    0.76877   0.73640   70.631
 4101.00    0.71690   0.70288   75.547
 4102.00    0.73431   0.71192   82.042
 4103.00    0.78833   0.76163   85.000
 4104.00    0.85736   0.82723   81.013
 4105.00    0.92129   0.88334   74.257
 4106.00    0.95734   0.91901   69.147
 4107.00    0.96738   0.93464   66.050
 4108.00    0.95989   0.93652   64.675
 4109.00    0.94919   0.93387   64.730
 4110.00    0.94266   0.93514   65.604
 4111.00    0.95544   0.94518   66.797
 4112.00    0.98402   0.96325   67.120
 4113.00    1.00384   0.98430   65.991
 4114.00    1.01301   1.00205   64.611
 4115.00    1.01947   1.01058   63.551
 4116.00    1.02134   1.00584   62.704
 4117.00    1.00891   0.99005   62.429
 4118.00    0.98390   0.97265   63.122
 4119.00    0.96887   0.96387   64.777
 4120.00    0.97734   0.96562   66.492
 4121.00    0.98224   0.97158   66.658
 4122.00    0.98030   0.97794   65.835
 4123.00    0.98983   0.98575   65.423
 4124.00    1.00809   0.99395   65.233
 4125.00    1.01615   0.99706   64.347
 4126.00    1.00488   0.99103   63.519
 4127.00    0.98798   0.97933   63.703
 4128.00    0.96936   0.96924   64.772
 4129.00    0.96358   0.96080   65.888
 4130.00    0.95897   0.94780   66.337
 4131.00    0.94320   0.93023   66.841
 4132.00    0.92889   0.91862   68.139
 4133.00    0.92088   0.92482   70.332
 4134.00    0.93726   0.94970   71.847
 4135.00    0.97679   0.98263   71.073
 4136.00    1.00439   1.01252   68.215
 4137.00    1.02680   1.03478   65.167
 4138.00    1.04994   1.04812   63.450
 4139.00    1.05496   1.04836   62.461
 4140.00    1.03778   1.02834   61.739
 4141.00    1.00029   0.98698   62.032
 4142.00    0.95286   0.94078   64.023
 4143.00    0.91839   0.91675   68.142
 4144.00    0.92246   0.92768   73.270
 4145.00    0.96237   0.96145   74.769
 4146.00    1.00081   0.99300   71.240
 4147.00    1.00944   1.00586   67.477
 4148.00    0.99526   1.00205   65.625
 4149.00    0.97546   0.99348   65.644
 4150.00    0.97046   0.98836   67.149
 4151.00    0.97407   0.98577   68.697
 4152.00    0.96775   0.98060   69.058
 4153.00    0.95748   0.97193   68.557
 4154.00    0.94475   0.96486   68.518
 4155.00    0.94385   0.96525   69.355
 4156.00    0.95610   0.97499   69.513
 4157.00    0.96703   0.99170   68.093
 4158.00    0.99449   1.01055   68.042
 4159.00    1.03646   1.02668   67.615
 4160.00    1.03481   1.03782   65.786
 4161.00    1.01601   1.04490   66.154
 4162.00    1.01454   1.04954   65.154
 4163.00    1.02666   1.05084   63.544
 4164.00    1.02546   1.04662   63.238
 4165.00    1.01436   1.03591   63.869
 4166.00    1.00554   1.02284   64.912
 4167.00    0.99104   1.01560   66.043
 4168.00    0.98803   1.01529   67.393
 4169.00    0.99656   1.01115   67.892
 4170.00    0.98257   0.99002   67.107
 4171.00    0.94289   0.95419   66.542
 4172.00    0.90314   0.92377   68.352
 4173.00    0.89051   0.91645   72.580
 4174.00    0.90904   0.93129   75.612
 4175.00    0.93383   0.95147   74.711
 4176.00    0.94829   0.96341   71.937
 4177.00    0.94716   0.96873   70.180
 4178.00    0.94830   0.97503   70.346
 4179.00    0.95885   0.98371   70.537
 4180.00    0.96717   0.98929   69.940
 4181.00    0.96978   0.98965   68.959
 4182.00    0.96509   0.99236   68.545
 4183.00    0.97313   1.00193   68.355
 4184.00    0.99729   1.01029   67.382
 4185.00    0.99845   1.00697   66.061
 4186.00    0.97382   0.99290   65.313
 4187.00    0.95822   0.98186   66.130
 4188.00    0.96088   0.98314   68.333
 4189.00    0.96905   0.99164   69.434
 4190.00    0.98177   1.00108   68.425
 4191.00    0.99510   1.01157   67.216
 4192.00    1.01134   1.02196   66.679
 4193.00    1.01894   1.02458   65.587
 4194.00    0.99850   1.01025   64.328
 4195.00    0.96460   0.98126   64.369
 4196.00    0.93463   0.95116   66.820
 4197.00    0.91739   0.93108   69.989
 4198.00    0.91753   0.92299   71.914
 4199.00    0.92892   0.92297   72.788
 4200.00    0.93634   0.92669   72.599
 4201.00    0.93449   0.93192   71.652
 4202.00    0.93621   0.94100   70.798
 4203.00    0.94959   0.95723   70.550
 4204.00    0.96242   0.97825   69.869
 4205.00    0.97137   0.99942   68.940
 4206.00    0.99099   1.01881   68.188
 4207.00    1.01469   1.03308   66.705
 4208.00    1.02545   1.03827   65.144
 4209.00    1.02424   1.03694   64.192
 4210.00    1.01641   1.03592   64.091
 4211.00    1.01100   1.03760   64.248
 4212.00    1.01394   1.03404   63.995
 4213.00    0.99732   1.01623   63.795
 4214.00    0.95590   0.99065   64.737
 4215.00    0.92780   0.97561   -1.000
 4216.00    0.93691   0.98597   -1.000
 4217.00    0.98246   1.01789   70.422
 4218.00    1.02750   1.05252   67.202
 4219.00    1.05135   1.07547   63.275
 4220.00    1.06646   1.08108   60.847
 4221.00    1.06040   1.06593   59.514
 4222.00    1.02028   1.02764   59.275
 4223.00    0.96678   0.96743   60.439
 4224.00    0.90641   0.89504   63.540
 4225.00    0.82925   0.83346   68.624
 4226.00    0.77749   0.81269   76.226
 4227.00    0.80252   0.84835   -1.000
 4228.00    0.89203   0.92418   -1.000
 4229.00    0.98564   0.99960   80.125
 4230.00    1.03194   1.04056   70.028
 4231.00    1.03696   1.04396   64.061
 4232.00    1.01849   1.02667   61.705
 4233.00    0.99629   1.00421   61.886
 4234.00    0.98740   0.98569   63.422
 4235.00    0.97477   0.97457   64.778
 4236.00    0.95734   0.97097   65.653
 4237.00    0.94994   0.97619   67.127
 4238.00    0.96232   0.99037   67.797
 4239.00    0.97820   1.00961   66.890
 4240.00    0.99377   1.02885   65.478
 4241.00    1.00878   1.04510   64.466
 4242.00    1.01429   1.05826   63.325
 4243.00    1.01975   1.06911   -1.000
 4244.00    1.02705   1.07333   -1.000
 4245.00    1.03452   1.06125   60.982
 4246.00    1.01256   1.03162   60.273
 4247.00    0.96612   0.99673   61.621
 4248.00    0.93657   0.97084   64.417
 4249.00    0.93105   0.96162   66.606
 4250.00    0.94225   0.96954   67.944
 4251.00    0.97228   0.98602   68.312
 4252.00    0.99671   0.99665   67.619
 4253.00    0.99452   0.99647   65.612
 4254.00    0.97530   0.99546   64.437
 4255.00    0.97940   1.00507   65.306
 4256.00    1.01100   1.01939   66.346
 4257.00    1.01515   1.01796   64.845
 4258.00    0.97680   0.99342   62.849
 4259.00    0.93875   0.96385   63.274
 4260.00    0.91759   0.95604   66.146
 4261.00    0.94033   0.98111   69.296
 4262.00    0.99424   1.02656   69.676
 4263.00    1.04092   1.06883   66.358
 4264.00    1.05829   1.09071   62.459
 4265.00    1.05846   1.09091   59.990
 4266.00    1.04209   1.07631   59.015
 4267.00    1.01189   1.05026   59.245
 4268.00    0.98843   1.01314   60.555
 4269.00    0.95999   0.96715   62.562
 4270.00    0.91203   0.92071   64.605
 4271.00    0.86269   0.88811   67.630
 4272.00    0.85807   0.87988   72.106
 4273.00    0.87006   0.89516   75.465
 4274.00    0.88629   0.92642   -1.000
 4275.00    0.92475   0.96800   -1.000
 4276.00    0.97382   1.01190   71.232
 4277.00    1.00482   1.04168   67.536
 4278.00    1.00406   1.04501   63.468
 4279.00    0.97923   1.02778   -1.000
 4280.00    0.95175   1.00935   -1.000
 4281.00    0.94840   1.00430   -1.000
 4282.00    0.95755   1.00796   -1.000
 4283.00    0.97159   1.00727   66.406
 4284.00    0.96711   0.99714   65.522
 4285.00    0.93625   0.98098   -1.000
 4286.00    0.91646   0.96279   -1.000
 4287.00    0.89684   0.94053   -1.000
 4288.00    0.87303   0.91283   70.006
 4289.00    0.84548   0.89072   -1.000
 4290.00    0.83851   0.89047   -1.000
 4291.00    0.87345   0.91421   -1.000
 4292.00    0.92094   0.94363   76.070
 4293.00    0.94305   0.95744   71.786
 4294.00    0.93202   0.95168   68.101
 4295.00    0.91659   0.93364   67.475
 4296.00    0.88252   0.90498   68.313
 4297.00    0.83775   0.86443   69.586
 4298.00    0.78460   0.81871   71.734
 4299.00    0.73507   0.78144   -1.000
 4300.00    0.71906   0.76317   -1.000
 4301.00    0.72524   0.76370   -1.000
 4302.00    0.73350   0.77470   -1.000
 4303.00    0.74278   0.78736   -1.000
 4304.00    0.75384   0.79416   -1.000
 4305.00    0.76299   0.78827   82.370
 4306.00    0.74787   0.76954   81.765
 4307.00    0.71987   0.74861   82.863
 4308.00    0.69570   0.74090   -1.000
 4309.00    0.70446   0.75465   -1.000
 4310.00    0.73267   0.78574   -1.000
 4311.00    0.74874   0.82413   -1.000
 4312.00    0.78273   0.86469   -1.000
 4313.00    0.83173   0.91342   -1.000
 4314.00    0.89869   0.97636   -1.000
 4315.00    0.98599   1.04751   -1.000
 4316.00    1.07196   1.10972   66.320
 4317.00    1.12165   1.14544   60.679
 4318.00    1.11341   1.15086   56.832
 4319.00    1.09912   1.13471   55.475
 4320.00    1.08274   1.10487   55.790
 4321.00    1.04136   1.06184   56.811
 4322.00    0.98478   1.00465   58.293
 4323.00    0.91503   0.94060   60.546
 4324.00    0.84609   0.89219   63.978
 4325.00    0.82573   0.88725   -1.000
 4326.00    0.87816   0.93216   -1.000
 4327.00    0.96578   1.00166   75.035
 4328.00    1.02315   1.05943   68.971
 4329.00    1.03906   1.08675   -1.000
 4330.00    1.05032   1.09175   58.745
 4331.00    1.04530   1.09231   58.124
 4332.00    1.05290   1.09713   58.274
 4333.00    1.06228   1.10108   57.727
 4334.00    1.05169   1.09202   56.797
 4335.00    1.03108   1.05754   56.363
 4336.00    0.98151   0.99297   56.555
 4337.00    0.91038   0.90778   58.278
 4338.00    0.83158   0.82611   62.674
 4339.00    0.76123   0.77565   68.822
 4340.00    0.75709   0.77271   75.024
 4341.00    0.78701   0.81615   80.037
 4342.00    0.84999   0.88593   79.541
 4343.00    0.91553   0.95429   72.780
 4344.00    0.97125   1.00530   66.276
 4345.00    1.02155   1.04047   62.853
 4346.00    1.03800   1.06763   61.024
 4347.00    1.04840   1.08928   59.544
 4348.00    1.06637   1.09678   58.666
 4349.00    1.06450   1.07800   57.971
 4350.00    1.01671   1.03643   57.294
 4351.00    0.94850   0.99688   58.288
 4352.00    0.92524   0.98682   -1.000
 4353.00    0.95846   1.01117   -1.000
 4354.00    1.00136   1.05006   -1.000
 4355.00    1.03180   1.08203   -1.000
 4356.00    1.04486   1.09791   -1.000
 4357.00    1.05390   1.09834   58.298
 4358.00    1.04848   1.09162   57.438
 4359.00    1.04176   1.09165   57.843
 4360.00    1.05704   1.10538   59.029
 4361.00    1.07929   1.12687   59.228
 4362.00    1.09215   1.14689   -1.000
 4363.00    1.09707   1.16046   -1.000
 4364.00    1.10735   1.16448   -1.000
 4365.00    1.10307   1.15432   -1.000
 4366.00    1.08146   1.12997   55.035
 4367.00    1.05475   1.10308   55.466
 4368.00    1.04101   1.08684   57.363
 4369.00    1.04484   1.08181   59.106
 4370.00    1.04561   1.07886   59.360
 4371.00    1.04220   1.06835   58.772
 4372.00    1.03410   1.04573   58.504
 4373.00    1.00561   1.01608   58.631
 4374.00    0.97500   0.99626   59.707
 4375.00    0.97381   1.00268   62.243
 4376.00    1.00429   1.03422   64.088
 4377.00    1.04923   1.07099   63.291
 4378.00    1.07185   1.09080   60.398
 4379.00    1.06716   1.08428   57.844
 4380.00    1.06400   1.04998   57.264
 4381.00    1.03014   0.98862   57.844
 4382.00    0.94261   0.91600   59.337
 4383.00    0.86458   0.86668   63.136
 4384.00    0.84871   0.86745   70.438
 4385.00    0.90186   0.91353   76.621
 4386.00    0.97259   0.97116   74.910
 4387.00    1.01399   1.00856   67.618
 4388.00    1.02621   1.02036   62.306
 4389.00    1.01087   1.02052   60.987
 4390.00    0.99953   1.02339   61.279
 4391.00    1.01711   1.03224   61.861
 4392.00    1.04310   1.04030   61.675
 4393.00    1.04289   1.04134   60.358
 4394.00    1.02915   1.04159   59.428
 4395.00    1.02908   1.05364   60.153
 4396.00    1.05728   1.07573   61.155
 4397.00    1.08727   1.08992   60.175
 4398.00    1.08152   1.08281   57.542
 4399.00    1.05181   1.06260   56.533
 4400.00    1.02569   1.04858   57.773
 4401.00    1.03361   1.04402   59.891
 4402.00    1.05758   1.03479   61.026
 4403.00    1.03848   1.01211   60.082
 4404.00    0.99748   0.98774   59.745
 4405.00    0.98597   0.98155   62.366
 4406.00    1.00658   0.99571   65.349
 4407.00    1.02772   1.01763   65.018
 4408.00    1.02659   1.04310   63.000
 4409.00    1.05570   1.07631   62.242
 4410.00    1.09750   1.11332   61.244
 4411.00    1.13128   1.13753   58.727
 4412.00    1.13879   1.13343   56.328
 4413.00    1.12383   1.10242   54.747
 4414.00    1.07301   1.06276   54.671
 4415.00    1.02886   1.03972   56.663
 4416.00    1.02792   1.04794   59.760
 4417.00    1.06282   1.08015   61.238
 4418.00    1.10469   1.11665   60.312
 4419.00    1.13309   1.13920   58.012
 4420.00    1.13849   1.13976   55.770
 4421.00    1.11313   1.12521   54.688
 4422.00    1.09457   1.11191   55.375
 4423.00    1.08913   1.10909   56.800
 4424.00    1.09534   1.11320   57.476
 4425.00    1.08975   1.11738   57.089
 4426.00    1.07916   1.11993   56.931
 4427.00    1.08508   1.12185   57.187
 4428.00    1.09994   1.12221   57.299
 4429.00    1.10667   1.12054   56.904
 4430.00    1.09089   1.11925   56.872
 4431.00    1.09191   1.11843   57.405
 4432.00    1.09267   1.11035   57.368
 4433.00    1.07747   1.09065   56.696
 4434.00    1.04578   1.07112   56.795
 4435.00    1.03156   1.07214   59.030
 4436.00    1.06008   1.10208   61.469
 4437.00    1.12191   1.14575   61.271
 4438.00    1.16215   1.17660   58.336
 4439.00    1.16711   1.17691   54.946
 4440.00    1.14084   1.14907   53.192
 4441.00    1.10073   1.11238   53.570
 4442.00    1.06416   1.08949   55.576
 4443.00    1.05608   1.09392   58.238
 4444.00    1.07998   1.12243   60.162
 4445.00    1.12130   1.15778   59.661
 4446.00    1.14005   1.18163   57.225
 4447.00    1.14378   1.18941   55.084
 4448.00    1.14278   1.18822   54.352
 4449.00    1.13323   1.18381   54.450
 4450.00    1.12379   1.17713   -1.000
 4451.00    1.13395   1.16691   55.293
 4452.00    1.13437   1.14905   55.615
 4453.00    1.11004   1.12045   55.316
 4454.00    1.05953   1.08883   56.106
 4455.00    1.03252   1.06966   58.400
 4456.00    1.04598   1.06804   60.806
 4457.00    1.06748   1.07427   61.458
 4458.00    1.06632   1.07716   60.283
 4459.00    1.05716   1.07433   59.457
 4460.00    1.05671   1.07195   59.618
 4461.00    1.06367   1.07826   60.010
 4462.00    1.07336   1.09651   60.638
 4463.00    1.09725   1.12045   60.784
 4464.00    1.12596   1.13892   59.213
 4465.00    1.13334   1.14556   57.023
 4466.00    1.12640   1.14131   56.010
 4467.00    1.11411   1.13109   56.022
 4468.00    1.09887   1.12235   56.194
 4469.00    1.09171   1.12364   56.969
 4470.00    1.10232   1.14027   57.935
 4471.00    1.13343   1.16869   57.985
 4472.00    1.16924   1.19837   56.885
 4473.00    1.19341   1.22101   55.000
 4474.00    1.20522   1.23521   53.178
 4475.00    1.21359   1.24512   51.971
 4476.00    1.21805   1.25220   51.699
 4477.00    1.22314   1.24820   51.705
 4478.00    1.21454   1.22364   51.251
 4479.00    1.17750   1.18270   51.123
 4480.00    1.13274   1.14518   51.926
 4481.00    1.09999   1.13226   54.035
 4482.00    1.10790   1.15121   56.330
 4483.00    1.14723   1.19128   57.390
 4484.00    1.18693   1.23100   56.235
 4485.00    1.21035   1.25219   53.819
 4486.00    1.21267   1.24786   51.990
 4487.00    1.19582   1.22280   51.173
 4488.00    1.16006   1.19210   51.539
 4489.00    1.13235   1.17434   52.946
 4490.00    1.13883   1.17794   54.867
 4491.00    1.17085   1.19273   55.691
 4492.00    1.19359   1.19887   54.795
 4493.00    1.17884   1.18742   53.403
 4494.00    1.14110   1.16980   52.926
 4495.00    1.12352   1.16388   53.982
 4496.00    1.13146   1.17639   55.594
 4497.00    1.15993   1.19894   56.387
 4498.00    1.19822   1.21691   55.392
 4499.00    1.20452   1.22207   53.480
 4500.00    1.19531   1.21987   52.194
 4501.00    1.18905   1.22441   51.950
 4502.00    1.20364   1.24272   52.562
 4503.00    1.22659   1.26784   52.485
 4504.00    1.24961   1.28714   50.944
 4505.00    1.25548   1.29269   49.340
 4506.00    1.24885   1.28607   48.758
 4507.00    1.24667   1.27600   49.288
 4508.00    1.24459   1.27078   50.235
 4509.00    1.23660   1.27144   50.604
 4510.00    1.24214   1.27176   50.534
 4511.00    1.23918   1.26473   50.129
 4512.00    1.21810   1.24989   49.936
 4513.00    1.20426   1.23356   50.517
 4514.00    1.19496   1.22182   51.534
 4515.00    1.19229   1.21613   52.330
 4516.00    1.19059   1.21375   52.505
 4517.00    1.18414   1.21232   52.257
 4518.00    1.18119   1.21445   52.365
 4519.00    1.19085   1.22208   52.980
 4520.00    1.20981   1.22956   53.029
 4521.00    1.20934   1.22868   52.033
 4522.00    1.18809   1.21757   51.227
 4523.00    1.16460   1.20107   51.653
 4524.00    1.14960   1.18294   52.907
 4525.00    1.13387   1.16172   53.849
 4526.00    1.11639   1.13589   54.359
 4527.00    1.10339   1.10966   55.444
 4528.00    1.08610   1.09302   57.167
 4529.00    1.08400   1.09332   58.596
 4530.00    1.09870   1.10710   59.029
 4531.00    1.11952   1.12169   58.422
 4532.00    1.12599   1.12434   57.354
 4533.00    1.11055   1.11440   56.450
 4534.00    1.08427   1.10652   56.560
 4535.00    1.08063   1.11879   58.320
 4536.00    1.12764   1.15401   59.801
 4537.00    1.19069   1.19412   58.350
 4538.00    1.22218   1.21842   54.870
 4539.00    1.22141   1.22147   51.963
 4540.00    1.20101   1.21368   51.005
 4541.00    1.19171   1.20811   51.734
 4542.00    1.19748   1.20783   52.786
 4543.00    1.19596   1.20731   52.595
 4544.00    1.18107   1.20218   52.230
 4545.00    1.16548   1.19437   55.164
 4546.00    1.16963   1.18643   55.316
 4547.00    1.11737   1.17597   26.501
 4548.00    0.47060   1.16230   -1.000
 4549.00   -0.06305   1.15275    0.000
 4550.00    0.05250   1.15459   -1.000
 4551.00    0.59990   1.16368   -1.000
 4552.00    0.61092   1.16782   -1.000
 4553.00    0.53702   1.16282   -1.000
 4554.00    1.18322   1.15824   54.782
 4555.00    1.13280   1.16643   55.605
 4556.00    1.16453   1.19030   55.854
 4557.00    1.20051   1.22003   54.721
 4558.00    1.22199   1.24337   52.624
 4559.00    1.22919   1.25638   50.708
 4560.00    1.23124   1.26019   50.085
 4561.00    1.23520   1.25382   50.369
 4562.00    1.22134   1.23623   50.328
 4563.00    1.19242   1.21301   50.550
 4564.00    1.17398   1.19709   51.808
 4565.00    1.16910   1.19880   53.035
 4566.00    1.19906   1.21674   53.658
 4567.00    1.21969   1.23873   52.853
 4568.00    1.23963   1.25053   51.463
 4569.00    1.22751   1.24589   50.246
 4570.00    1.19561   1.22993   49.966
 4571.00    1.18285   1.21547   50.693
 4572.00    1.19098   1.21449   52.030
 4573.00    1.21519   1.22744   53.101
 4574.00    1.23361   1.24279   52.410
 4575.00    1.23085   1.24994   50.909
 4576.00    1.22013   1.24694   50.355
 4577.00    1.21648   1.23534   50.455
 4578.00    1.20528   1.21612   50.708
 4579.00    1.18613   1.19280   51.102
 4580.00    1.16061   1.17324   52.118
 4581.00    1.14595   1.16414   53.640
 4582.00    1.15669   1.16461   54.510
 4583.00    1.16649   1.16869   54.190
 4584.00    1.16828   1.17303   53.455
 4585.00    1.16445   1.17949   53.172
 4586.00    1.18030   1.19223   53.388
 4587.00    1.20355   1.21146   53.554
 4588.00    1.22109   1.22938   52.645
 4589.00    1.21918   1.23692   51.273
 4590.00    1.21284   1.23175   50.364
 4591.00    1.19588   1.21801   50.471
 4592.00    1.18062   1.20343   51.285
 4593.00    1.18513   1.19466   52.245
 4594.00    1.18713   1.19230   53.018
 4595.00    1.19428   1.19337   52.942
 4596.00    1.20841   1.19692   52.472
 4597.00    1.20894   1.20192   52.106
 4598.00    1.20516   1.20526   51.985
 4599.00    1.19731   1.20498   51.876
 4600.00    1.19438   1.20263   51.850
 4601.00    1.18499   1.20156   52.339
 4602.00    1.18552   1.20329   52.758
 4603.00    1.19495   1.20613   52.776
 4604.00    1.20419   1.20922   52.175
 4605.00    1.21458   1.21581   51.693
 4606.00    1.22171   1.22976   51.787
 4607.00    1.23278   1.24999   51.615
 4608.00    1.24405   1.26962   50.955
 4609.00    1.26194   1.28059   49.911
 4610.00    1.26456   1.27934   48.913
 4611.00    1.25130   1.26933   48.483
 4612.00    1.23715   1.25830   48.809
 4613.00    1.22253   1.25301   49.487
 4614.00    1.22700   1.25511   49.994
 4615.00    1.23532   1.26014   50.218
 4616.00    1.23683   1.26245   49.910
 4617.00    1.23427   1.26063   49.492
 4618.00    1.22477   1.25756   49.387
 4619.00    1.22782   1.25774   49.752
 4620.00    1.23751   1.26314   50.060
 4621.00    1.25043   1.27078   49.925
 4622.00    1.26597   1.27528   49.377
 4623.00    1.26249   1.27421   48.690
 4624.00    1.25389   1.26999   48.736
 4625.00    1.25011   1.26611   48.861
 4626.00    1.24135   1.26378   49.008
 4627.00    1.24521   1.26248   49.431
 4628.00    1.24435   1.26178   49.511
 4629.00    1.23022   1.26254   49.529
 4630.00    1.23440   1.26505   49.838
 4631.00    1.25487   1.26663   49.879
 4632.00    1.25240   1.26367   49.562
 4633.00    1.23217   1.25608   49.086
 4634.00    1.22753   1.24708   49.421
 4635.00    1.22836   1.23885   50.147
 4636.00    1.22280   1.23062   50.603
 4637.00    1.21121   1.22262   50.591
 4638.00    1.20601   1.21769   51.065
 4639.00    1.21055   1.21937   51.691
 4640.00    1.22857   1.22906   51.836
 4641.00    1.25501   1.24273   51.632
 4642.00    1.26610   1.25183   50.655
 4643.00    1.25341   1.24911   49.471
 4644.00    1.24609   1.23315   48.945
 4645.00    1.22883   1.20870   49.290
 4646.00    1.20122   1.18585   50.315
 4647.00    1.18723   1.17632   51.761
 4648.00    1.19573   1.18472   53.024
 4649.00    1.22168   1.20590   53.019
 4650.00    1.23574   1.22934   51.977
 4651.00    1.23149   1.24445   50.815
 4652.00    1.22773   1.24565   50.229
 4653.00    1.22895   1.23495   50.171
 4654.00    1.21576   1.22032   50.160
 4655.00    1.19005   1.21273   50.873
 4656.00    1.19898   1.22062   52.010
 4657.00    1.21739   1.24445   52.431
 4658.00    1.25635   1.27478   51.756
 4659.00    1.28760   1.29695   49.995
 4660.00    1.28866   1.30096   48.169
 4661.00    1.26690   1.28807   47.268
 4662.00    1.24414   1.26732   47.358
 4663.00    1.23762   1.24578   48.058
 4664.00    1.23485   1.22268   49.244
 4665.00    1.21579   1.19360   50.087
 4666.00    1.17286   1.16186   50.248
 4667.00    1.13452   1.14077   51.287
 4668.00    1.12965   1.14265   53.571
 4669.00    1.16628   1.16628   55.514
 4670.00    1.21091   1.19699   55.213
 4671.00    1.23616   1.22053   53.343
 4672.00    1.23873   1.23269   51.180
 4673.00    1.23816   1.23838   49.978
 4674.00    1.24471   1.24485   49.781
 4675.00    1.25685   1.25352   49.825
 4676.00    1.26423   1.25802   49.690
 4677.00    1.25669   1.25138   48.996
 4678.00    1.24013   1.23420   48.376
 4679.00    1.22510   1.21399   48.776
 4680.00    1.21252   1.19947   49.873
 4681.00    1.20713   1.19649   50.833
 4682.00    1.21531   1.20494   51.621
 4683.00    1.22705   1.21880   51.957
 4684.00    1.25063   1.23019   51.162
 4685.00    1.25854   1.23503   49.910
 4686.00    1.24230   1.23416   49.392
 4687.00    1.24155   1.23072   49.588
 4688.00    1.25014   1.22729   49.629
 4689.00    1.25050   1.22455   49.895
 4690.00    1.23695   1.22242   49.881
 4691.00    1.22863   1.22234   49.930
 4692.00    1.24184   1.22732   50.281
 4693.00    1.26533   1.23788   50.284
 4694.00    1.27387   1.24970   49.629
 4695.00    1.28672   1.25592   48.837
 4696.00    1.27895   1.25081   47.782
 4697.00    1.26166   1.23395   47.299
 4698.00    1.23548   1.21254   47.712
 4699.00    1.22272   1.19545   49.166
 4700.00    1.22205   1.18442   50.550
 4701.00    1.21010   1.17605   50.968
 4702.00    1.19132   1.17109   50.594
 4703.00    1.18280   1.17363   51.081
 4704.00    1.20033   1.18271   51.944
 4705.00    1.22607   1.19074   52.028
 4706.00    1.22210   1.19065   50.996
 4707.00    1.19996   1.18369   50.424
 4708.00    1.18748   1.17849   51.247
 4709.00    1.18551   1.18298   52.235
 4710.00    1.21742   1.19713   52.619
 4711.00    1.24833   1.21238   52.153
 4712.00    1.25846   1.21886   50.556
 4713.00    1.24308   1.21534   49.277
 4714.00    1.23121   1.21183   48.945
 4715.00    1.23591   1.21859   49.519
 4716.00    1.24817   1.23591   50.382
 4717.00    1.26732   1.25681   50.215
 4718.00    1.27760   1.27411   49.166
 4719.00    1.28570   1.28406   48.294
 4720.00    1.28777   1.28596   48.045
 4721.00    1.27351   1.28196   47.882
 4722.00    1.27081   1.27742   47.779
 4723.00    1.27039   1.27713   48.214
 4724.00    1.27853   1.27799   48.484
 4725.00    1.28059   1.27042   48.138
 4726.00    1.25897   1.24894   47.665
 4727.00    1.23204   1.21900   47.887
 4728.00    1.22207   1.19394   49.184
 4729.00    1.20793   1.18383   51.023
 4730.00    1.20657   1.18840   51.978
 4731.00    1.22015   1.20147   51.675
 4732.00    1.22513   1.21720   51.141
 4733.00    1.23832   1.23086   50.725
 4734.00    1.25445   1.23815   50.117
 4735.00    1.25690   1.23809   49.709
 4736.00    1.24536   1.23528   49.435
 4737.00    1.24038   1.23603   49.241
 4738.00    1.25267   1.24168   49.773
 4739.00    1.25895   1.24763   49.734
 4740.00    1.25513   1.24990   49.116
 4741.00    1.25534   1.25043   49.204
 4742.00    1.26839   1.25264   49.484
 4743.00    1.27699   1.25634   49.489
 4744.00    1.27254   1.26094   49.051
 4745.00    1.26759   1.26749   48.569
 4746.00    1.27522   1.27575   48.699
 4747.00    1.28136   1.28396   48.698
 4748.00    1.27725   1.29053   48.297
 4749.00    1.27775   1.29440   47.838
 4750.00    1.27840   1.29487   47.777
 4751.00    1.27267   1.29089   47.856
 4752.00    1.27008   1.28215   47.914
 4753.00    1.25958   1.27079   48.301
 4754.00    1.24259   1.26070   48.849
 4755.00    1.24184   1.25544   49.242
 4756.00    1.24295   1.25672   49.536
 4757.00    1.24718   1.26319   49.450
 4758.00    1.25646   1.27131   49.677
 4759.00    1.25598   1.27630   50.027
 4760.00    1.25530   1.27277   50.020
 4761.00    1.24005   1.25833   49.606
 4762.00    1.21748   1.23732   49.614
 4763.00    1.20356   1.21775   50.483
 4764.00    1.20289   1.20535   51.723
 4765.00    1.20900   1.20147   52.299
 4766.00    1.21779   1.20677   52.327
 4767.00    1.22914   1.22227   52.186
 4768.00    1.25430   1.24516   51.772
 4769.00    1.26857   1.26694   50.994
 4770.00    1.26589   1.27881   49.848
 4771.00    1.25642   1.28044   49.250
 4772.00    1.25057   1.28067   49.405
 4773.00    1.25478   1.28746   49.845
 4774.00    1.27992   1.29988   50.199
 4775.00    1.28903   1.31102   49.516
 4776.00    1.29737   1.31654   48.490
 4777.00    1.29308   1.31688   48.231
 4778.00    1.27893   1.31297   48.298
 4779.00    1.27156   1.30538   48.460
 4780.00    1.25804   1.29635   48.806
 4781.00    1.25861   1.28814   49.348
 4782.00    1.25510   1.28095   49.610
 4783.00    1.25031   1.27440   49.735
 4784.00    1.24898   1.26835   49.998
 4785.00    1.23848   1.26164   50.378
 4786.00    1.23308   1.25369   50.347
 4787.00    1.23297   1.24734   50.555
 4788.00    1.23342   1.24587   51.063
 4789.00    1.23496   1.24924   51.317
 4790.00    1.24549   1.25698   51.230
 4791.00    1.25700   1.27015   50.962
 4792.00    1.26534   1.28919   50.627
 4793.00    1.28223   1.31153   50.062
 4794.00    1.29608   1.33077   49.201
 4795.00    1.30551   1.33946   48.105
 4796.00    1.29853   1.33383   47.344
 4797.00    1.27783   1.31565   47.255
 4798.00    1.25924   1.29308   47.803
 4799.00    1.24528   1.27836   48.793
 4800.00    1.25001   1.27959   49.678
 4801.00    1.27796   1.29415   50.173
 4802.00    1.28581   1.31069   49.633
 4803.00    1.28995   1.31703   48.618
 4804.00    1.26257   1.30948   47.993
 4805.00    1.25258   1.29506   48.147
 4806.00    1.25262   1.28303   48.823
 4807.00    1.25689   1.27792   49.433
 4808.00    1.25910   1.27942   49.839
 4809.00    1.26401   1.28538   49.793
 4810.00    1.26486   1.29285   49.655
 4811.00    1.27511   1.29909   49.410
 4812.00    1.27736   1.30313   48.955
 4813.00    1.26829   1.30611   48.618
 4814.00    1.27611   1.31047   48.388
 4815.00    1.28334   1.31794   48.347
 4816.00    1.29493   1.32792   48.220
 4817.00    1.30417   1.33769   48.035
 4818.00    1.30682   1.34429   47.725
 4819.00    1.29904   1.34608   47.436
 4820.00    1.29773   1.34149   47.261
 4821.00    1.28452   1.32773   47.255
 4822.00    1.26100   1.30570   47.284
 4823.00    1.23934   1.28442   47.777
 4824.00    1.23846   1.27494   49.070
 4825.00    1.26284   1.27986   49.919
 4826.00    1.27935   1.29093   49.718
 4827.00    1.28440   1.29708   48.803
 4828.00    1.27924   1.29459   48.114
 4829.00    1.27152   1.28679   48.390
 4830.00    1.26744   1.27763   48.967
 4831.00    1.25988   1.26983   49.236
 4832.00    1.25453   1.26675   49.234
 4833.00    1.26467   1.27106   49.696
 4834.00    1.26916   1.28074   49.705
 4835.00    1.26368   1.28964   48.870
 4836.00    1.27248   1.29268   48.257
 4837.00    1.27938   1.28898   48.118
 4838.00    1.26288   1.27990   48.220
 4839.00    1.24139   1.26837   48.483
 4840.00    1.23847   1.25914   49.183
 4841.00    1.23917   1.25507   50.029
 4842.00    1.23646   1.25543   50.004
 4843.00    1.24259   1.25975   49.884
 4844.00    1.25388   1.26877   49.619
 4845.00    1.26541   1.27919   49.235
 4846.00    1.26589   1.28315   48.720
 4847.00    1.25854   1.27656   47.967
 4848.00    1.24193   1.26541   47.812
 4849.00    1.24283   1.25992   48.837
 4850.00    1.25447   1.26239   49.513
 4851.00    1.26186   1.26574   49.433
 4852.00    1.25742   1.26148   48.733
 4853.00    1.23800   1.24456   48.670
 4854.00    1.20441   1.21710   48.975
 4855.00    1.17688   1.18920   49.451
 4856.00    1.16733   1.16959   50.987
 4857.00    1.16564   1.15240   52.352
 4858.00    1.13341   1.11828   52.134
 4859.00    1.05698   1.05482   51.676
 4860.00    0.94451   0.97774   53.333
 4861.00    0.87460   0.92691   58.187
 4862.00    0.93053   0.93218   64.988
 4863.00    1.02484   0.98787   67.550
 4864.00    1.10457   1.06065   63.005
 4865.00    1.15153   1.12173   57.407
 4866.00    1.18279   1.16351   54.162
 4867.00    1.18788   1.18886   52.338
 4868.00    1.20425   1.19906   51.292
 4869.00    1.20403   1.19279   50.864
 4870.00    1.17437   1.17267   50.686
 4871.00    1.13970   1.15152   51.200
 4872.00    1.14165   1.14624   52.692
 4873.00    1.17599   1.16226   53.900
 4874.00    1.20425   1.18827   53.311
 4875.00    1.21060   1.21017   51.763
 4876.00    1.21204   1.22550   50.914
 4877.00    1.21629   1.23998   50.546
 4878.00    1.22917   1.25660   50.280
 4879.00    1.24426   1.27066   50.094
 4880.00    1.24639   1.27511   49.343
 4881.00    1.23184   1.26878   48.864
 4882.00    1.22591   1.25713   49.358
 4883.00    1.22023   1.24554   50.175
 4884.00    1.21469   1.23406   50.432
 4885.00    1.20932   1.22197   50.256
 4886.00    1.19798   1.21281   50.566
 4887.00    1.19724   1.20879   51.357
 4888.00    1.20064   1.20452   51.588
 4889.00    1.19367   1.19367   51.294
 4890.00    1.17312   1.18057   51.262
 4891.00    1.16666   1.18099   52.073
 4892.00    1.20113   1.20741   53.200
 4893.00    1.25218   1.25424   52.720
 4894.00    1.29506   1.30303   50.517
 4895.00    1.31389   1.33814   48.176
 4896.00    1.31242   1.35395   46.806
 4897.00    1.30531   1.35278   45.968
 4898.00    1.29979   1.34021   45.783
 4899.00    1.27871   1.32315   45.923
 4900.00    1.26577   1.30837   46.963
 4901.00    1.26869   1.29843   48.065
 4902.00    1.26389   1.29156   48.548
 4903.00    1.25221   1.28843   48.288
 4904.00    1.25853   1.29367   48.385
 4905.00    1.28158   1.30704   48.976
 4906.00    1.29426   1.31799   48.381
 4907.00    1.29329   1.31422   47.338
 4908.00    1.26993   1.29395   47.018
 4909.00    1.23944   1.26684   47.505
 4910.00    1.21298   1.24654   48.691
 4911.00    1.22104   1.24253   50.097
 4912.00    1.24397   1.25449   50.668
 4913.00    1.26392   1.27458   49.943
 4914.00    1.28044   1.29344   49.032
 4915.00    1.29293   1.30253   48.370
 4916.00    1.28686   1.29292   47.746
 4917.00    1.26225   1.25930   47.346
 4918.00    1.19808   1.20794   47.628
 4919.00    1.13995   1.15835   49.380
 4920.00    1.13008   1.13241   52.131
 4921.00    1.16479   1.13818   54.569
 4922.00    1.20290   1.16337   55.074
 4923.00    1.21828   1.18939   53.189
 4924.00    1.21566   1.20969   51.270
 4925.00    1.24048   1.23035   50.564
 4926.00    1.27058   1.25611   50.529
 4927.00    1.28087   1.28301   49.850
 4928.00    1.28611   1.30522   48.524
 4929.00    1.29703   1.32027   47.680
 4930.00    1.30055   1.32510   47.249
 4931.00    1.29738   1.31572   46.930
 4932.00    1.26853   1.29301   46.660
 4933.00    1.23138   1.26673   47.163
 4934.00    1.22210   1.24981   48.490
 4935.00    1.23826   1.24442   50.255
 4936.00    1.25346   1.23870   50.303
 4937.00    1.22792   1.22369   49.373
 4938.00    1.19577   1.20745   49.393
 4939.00    1.19891   1.20741   50.910
 4940.00    1.22911   1.23117   52.290
 4941.00    1.26814   1.26839   51.752
 4942.00    1.28620   1.30130   49.938
 4943.00    1.30206   1.31874   48.346
 4944.00    1.29958   1.32117   47.482
 4945.00    1.28925   1.31647   47.068
 4946.00    1.28306   1.31390   47.122
 4947.00    1.29610   1.31858   47.468
 4948.00    1.30895   1.32867   47.557
 4949.00    1.30553   1.33827   47.107
 4950.00    1.30668   1.34257   46.546
 4951.00    1.31458   1.34072   46.421
 4952.00    1.30142   1.33455   46.226
 4953.00    1.29920   1.32468   46.484
 4954.00    1.29143   1.30664   46.808
 4955.00    1.28301   1.27339   47.360
 4956.00    1.22079   1.22782   47.957
 4957.00    1.17380   1.19136   49.275
 4958.00    1.19080   1.18936   51.874
 4959.00    1.24538   1.22399   53.933
 4960.00    1.29515   1.27152   52.729
 4961.00    1.31126   1.30664   49.641
 4962.00    1.31007   1.31942   47.974
 4963.00    1.31367   1.31366   47.648
 4964.00    1.28874   1.29692   47.891
 4965.00    1.26670   1.27658   48.281
 4966.00    1.25406   1.26053   48.861
 4967.00    1.25596   1.25341   49.918
 4968.00    1.26003   1.25363   50.551
 4969.00    1.26323   1.25860   50.542
 4970.00    1.26701   1.26820   50.388
 4971.00    1.27429   1.28228   50.008
 4972.00    1.28381   1.29829   49.467
 4973.00    1.29774   1.31157   48.936
 4974.00    1.30137   1.31772   48.348
 4975.00    1.29997   1.31500   47.896
 4976.00    1.29781   1.30411   47.709
 4977.00    1.28419   1.28774   48.059
 4978.00    1.26839   1.27005   48.572
 4979.00    1.25087   1.25274   49.238
 4980.00    1.23699   1.23233   50.047
 4981.00    1.20802   1.20514   50.658
 4982.00    1.16776   1.17538   51.378
 4983.00    1.15171   1.15598   53.108
 4984.00    1.16141   1.15822   54.834
 4985.00    1.19369   1.18133   54.787
 4986.00    1.23640   1.21479   53.728
 4987.00    1.26922   1.24544   52.203
 4988.00    1.26730   1.26267   50.538
 4989.00    1.26062   1.26390   49.294
 4990.00    1.24378   1.25663   49.369
 4991.00    1.24207   1.25140   50.118
 4992.00    1.25740   1.25262   50.629
 4993.00    1.25802   1.25807   50.639
 4994.00    1.25873   1.26458   50.175
 4995.00    1.26772   1.27098   49.968
 4996.00    1.27166   1.27482   49.950
 4997.00    1.26577   1.27089   49.686
 4998.00    1.25002   1.25600   49.439
 4999.00    1.23065   1.23382   49.751
 5000.00    1.21675   1.21377   50.428
 5001.00    1.21418   1.20333   51.458
 5002.00    1.22945   1.20074   52.096
 5003.00    1.23908   1.19749   52.120
 5004.00    1.23161   1.18730   51.614
 5005.00    1.19456   1.17326   51.276
 5006.00    1.17658   1.16725   52.033
 5007.00    1.20254   1.17881   53.379
 5008.00    1.24700   1.20324   53.660
 5009.00    1.26451   1.22323   52.316
 5010.00    1.25606   1.22393   50.711
 5011.00    1.21978   1.20422   50.187
 5012.00    1.18693   1.17540   50.865
 5013.00    1.16212   1.15246   52.412
 5014.00    1.16134   1.14481   54.393
 5015.00    1.18505   1.15113   55.651
 5016.00    1.20347   1.16165   55.361
 5017.00    1.20386   1.16830   54.118
 5018.00    1.20110   1.17216   52.985
 5019.00    1.21947   1.17877   52.773
 5020.00    1.23595   1.18849   52.789
 5021.00    1.22997   1.19703   52.179
 5022.00    1.22330   1.20415   51.754
 5023.00    1.23465   1.21354   51.992
 5024.00    1.24535   1.22477   52.106
 5025.00    1.24677   1.23198   51.803
 5026.00    1.23742   1.23181   51.250
 5027.00    1.22857   1.22904   50.908
 5028.00    1.23391   1.23181   51.158
 5029.00    1.25164   1.24309   51.405
 5030.00    1.27087   1.25984   50.927
 5031.00    1.28333   1.27757   49.960
 5032.00    1.30566   1.29092   49.250
 5033.00    1.30502   1.29289   48.447
 5034.00    1.27555   1.27893   47.890
 5035.00    1.23804   1.25387   47.975
 5036.00    1.21537   1.22976   49.531
 5037.00    1.21367   1.21190   51.511
 5038.00    1.21059   1.19241   52.358
 5039.00    1.17830   1.16364   52.537
 5040.00    1.13624   1.13359   53.190
 5041.00    1.12712   1.12300   55.300
 5042.00    1.16717   1.14557   57.560
 5043.00    1.22865   1.19360   57.575
 5044.00    1.26727   1.24596   54.770
 5045.00    1.29749   1.28397   51.370
 5046.00    1.29874   1.29809   49.280
 5047.00    1.27817   1.28796   48.250
 5048.00    1.26908   1.26167   46.391
 5049.00    1.20311   1.23297   47.846
 5050.00    0.62214   1.21412   -1.000
 5051.00    0.10375   1.21075   -1.000
 5052.00    0.02232   1.22297   -1.000
 5053.00    0.98430   1.24695   -1.000
 5054.00    1.33688   1.27412   -1.000
 5055.00    1.30945   1.29492   49.266
 5056.00    1.31016   1.30578   48.370
 5057.00    1.31106   1.31004   47.911
 5058.00    1.31249   1.31295   47.757
 5059.00    1.30548   1.31796   47.846
 5060.00    1.30635   1.32446   47.935
 5061.00    1.30715   1.32669   47.916
 5062.00    1.30050   1.31679   47.588
 5063.00    1.27496   1.29229   47.615
 5064.00    1.23951   1.26137   48.259
 5065.00    1.23044   1.23818   49.672
 5066.00    1.25014   1.23020   51.449
 5067.00    1.25704   1.23329   52.044
 5068.00    1.25310   1.24034   51.410
 5069.00    1.26181   1.24774   50.628
 5070.00    1.26915   1.25267   50.467
 5071.00    1.26399   1.25248   50.228
 5072.00    1.25926   1.24856   49.896
 5073.00    1.25779   1.24604   50.300
 5074.00    1.26703   1.24785   50.700
 5075.00    1.27956   1.25139   50.075
 5076.00    1.27814   1.25043   49.683
 5077.00    1.27248   1.23816   49.616
 5078.00    1.23097   1.21232   49.577
 5079.00    1.18348   1.18171   50.059
 5080.00    1.16929   1.16328   51.809
 5081.00    1.18716   1.16601   54.286
 5082.00    1.21428   1.18296   54.923
 5083.00    1.23073   1.20356   53.769
 5084.00    1.25234   1.22378   52.618
 5085.00    1.27171   1.24209   51.909
 5086.00    1.28519   1.25585   50.929
 5087.00    1.28253   1.26423   50.055
 5088.00    1.27919   1.26971   49.695
 5089.00    1.28844   1.27553   49.626
 5090.00    1.29352   1.28317   49.377
 5091.00    1.30053   1.29241   49.020
 5092.00    1.30887   1.30178   48.749
 5093.00    1.30575   1.30768   48.496
 5094.00    1.31318   1.30458   47.937
 5095.00    1.29935   1.28837   47.505
 5096.00    1.26698   1.26048   47.934
 5097.00    1.25099   1.22897   48.936
 5098.00    1.22020   1.20564   49.994
 5099.00    1.21142   1.20096   51.207
 5100.00    1.24437   1.21665   52.283
 5101.00    1.27583   1.24185   52.457
 5102.00    1.29765   1.26098   51.178
 5103.00    1.29423   1.26614   49.693
 5104.00    1.27479   1.25983   49.247
 5105.00    1.25817   1.24749   49.532
 5106.00    1.24657   1.23240   50.185
 5107.00    1.22666   1.21769   50.821
 5108.00    1.23003   1.20758   51.443
 5109.00    1.23531   1.20588   52.089
 5110.00    1.24104   1.21457   52.018
 5111.00    1.25650   1.23218   51.686
 5112.00    1.27349   1.25302   51.315
 5113.00    1.28557   1.27065   50.579
 5114.00    1.29091   1.28302   49.958
 5115.00    1.29175   1.29262   49.349
 5116.00    1.30120   1.30162   48.902
 5117.00    1.32249   1.30872   48.639
 5118.00    1.32377   1.30989   48.127
 5119.00    1.31305   1.30184   47.723
 5120.00    1.29139   1.28454   47.857
 5121.00    1.27174   1.26067   48.480
 5122.00    1.24589   1.23409   49.210
 5123.00    1.22036   1.21031   50.023
 5124.00    1.20959   1.19541   51.307
 5125.00    1.21559   1.19129   52.855
 5126.00    1.22316   1.19364   53.243
 5127.00    1.22572   1.19680   52.780
 5128.00    1.22969   1.19944   52.517
 5129.00    1.23818   1.20412   52.204
 5130.00    1.23866   1.21316   52.274
 5131.00    1.24633   1.22593   52.229
 5132.00    1.25119   1.23963   51.558
 5133.00    1.25807   1.25164   50.678
 5134.00    1.27413   1.25987   50.259
 5135.00    1.27921   1.26098   49.782
 5136.00    1.25841   1.25143   49.342
 5137.00    1.24105   1.23242   49.210
 5138.00    1.21684   1.21263   50.080
 5139.00    1.20635   1.20139   51.298
 5140.00    1.22003   1.19934   52.127
 5141.00    1.22281   1.19995   52.212
 5142.00    1.21257   1.19977   51.751
 5143.00    1.21204   1.20185   52.119
 5144.00    1.23126   1.20748   52.964
 5145.00    1.24112   1.21104   52.680
 5146.00    1.23212   1.20883   51.799
 5147.00    1.23289   1.20558   51.604
 5148.00    1.24087   1.20649   52.077
 5149.00    1.24325   1.20919   52.214
 5150.00    1.23363   1.20761   51.587
 5151.00    1.22434   1.20078   51.288
 5152.00    1.22049   1.19456   51.905
 5153.00    1.22463   1.19533   52.852
 5154.00    1.23543   1.20574   53.214
 5155.00    1.25147   1.22476   52.957
 5156.00    1.27852   1.24785   51.959
 5157.00    1.29447   1.26826   50.643
 5158.00    1.29973   1.28104   49.354
 5159.00    1.30460   1.28498   48.423
 5160.00    1.30083   1.28101   48.053
 5161.00    1.29389   1.27044   48.038
 5162.00    1.27922   1.25378   48.196
 5163.00    1.26726   1.22784   48.471
 5164.00    1.24119   1.18549   -1.000
 5165.00    1.16669   1.12288   49.769
 5166.00    1.07706   1.05103   51.641
 5167.00    1.01771   0.99749   55.856
 5168.00    1.01414   0.98463   61.682
 5169.00    1.08338   1.00358   -1.000
 5170.00    1.10361   1.01912   -1.000
 5171.00    1.04361   1.00828   61.050
 5172.00    0.98362   0.98941   60.149
 5173.00    1.01416   1.00116   63.898
 5174.00    1.12085   1.05675   -1.000
 5175.00    1.21595   1.13182   -1.000
 5176.00    1.25896   1.19322   -1.000
 5177.00    1.28318   1.22715   -1.000
 5178.00    1.29137   1.23797   -1.000
 5179.00    1.27886   1.22940   51.041
 5180.00    1.25092   1.19631   -1.000
 5181.00    1.18213   1.13458   51.414
 5182.00    1.05695   1.05762   53.178
 5183.00    0.97834   0.99995   56.971
 5184.00    1.00403   0.99619   63.540
 5185.00    1.10260   1.04949   -1.000
 5186.00    1.20510   1.12575   -1.000
 5187.00    1.24363   1.18607   -1.000
 5188.00    1.25062   1.21667   53.331
 5189.00    1.25596   1.22286   51.561
 5190.00    1.25285   1.21099   51.078
 5191.00    1.21910   1.18745   50.862
 5192.00    1.19112   1.16539   51.386
 5193.00    1.20273   1.15823   52.990
 5194.00    1.22212   1.16638   -1.000
 5195.00    1.23046   1.18082   -1.000
 5196.00    1.23930   1.19676   53.196
 5197.00    1.25798   1.21502   52.404
 5198.00    1.26823   1.23463   51.640
 5199.00    1.27918   1.25115   50.608
 5200.00    1.29528   1.25954   49.743
 5201.00    1.28723   1.25634   49.320
 5202.00    1.26789   1.24021   49.261
 5203.00    1.24547   1.21263   49.645
 5204.00    1.21467   1.17920   50.531
 5205.00    1.19844   1.14873   51.681
 5206.00    1.19699   1.12850   -1.000
 5207.00    1.19528   1.12018   -1.000
 5208.00    1.20199   1.12277   -1.000
 5209.00    1.20980   1.13791   -1.000
 5210.00    1.23086   1.16750   -1.000
 5211.00    1.27975   1.20600   -1.000
 5212.00    1.30802   1.24015   -1.000
 5213.00    1.31432   1.25724   -1.000
 5214.00    1.30290   1.25372   49.140
 5215.00    1.27090   1.23829   48.088
 5216.00    1.25760   1.22664   48.565
 5217.00    1.26414   1.22994   49.699
 5218.00    1.28774   1.24744   50.331
 5219.00    1.30761   1.26952   49.952
 5220.00    1.32130   1.28592   48.891
 5221.00    1.32717   1.28993   48.135
 5222.00    1.32478   1.27814   47.753
 5223.00    1.29998   1.24960   47.555
 5224.00    1.26063   1.20702   -1.000
 5225.00    1.20608   1.16091   49.580
 5226.00    1.16052   1.12976   51.613
 5227.00    1.16991   1.12982   54.025
 5228.00    1.21891   1.16152   -1.000
 5229.00    1.27038   1.20688   -1.000
 5230.00    1.30209   1.24108   -1.000
 5231.00    1.30675   1.24951   -1.000
 5232.00    1.27938   1.23634   48.454
 5233.00    1.25494   1.21965   48.349
 5234.00    1.25849   1.21721   49.287
 5235.00    1.28365   1.23394   50.177
 5236.00    1.30542   1.26099   50.111
 5237.00    1.31683   1.28533   49.001
 5238.00    1.32206   1.29947   47.827
 5239.00    1.32714   1.30422   47.263
 5240.00    1.33367   1.30423   47.200
 5241.00    1.33586   1.30307   47.344
 5242.00    1.32617   1.30290   47.271
 5243.00    1.32732   1.30400   46.999
 5244.00    1.33983   1.30260   47.054
 5245.00    1.33179   1.29233   46.967
 5246.00    1.30465   1.27202   46.890
 5247.00    1.27667   1.24946   47.785
 5248.00    1.26588   1.23313   49.267
 5249.00    1.26615   1.22447   50.436
 5250.00    1.26381   1.22200   50.613
 5251.00    1.26554   1.22577   50.704
 5252.00    1.27548   1.23337   51.020
 5253.00    1.28632   1.23958   50.806
 5254.00    1.28376   1.24391   50.119
 5255.00    1.29458   1.25344   49.611
 5256.00    1.31241   1.27390   49.596
 5257.00    1.33844   1.29964   49.259
 5258.00    1.35324   1.31642   48.144
 5259.00    1.33309   1.31307   46.846
 5260.00    1.31185   1.28752   46.389
 5261.00    1.26537   1.24510   46.784
 5262.00    1.21970   1.19544   48.030
 5263.00    1.18060   1.14924   50.035
 5264.00    1.16008   1.11627   52.412
 5265.00    1.15856   1.10225   -1.000
 5266.00    1.17925   1.10358   -1.000
 5267.00    1.19727   1.10596   -1.000
 5268.00    1.18153   1.09708   -1.000
 5269.00    1.13617   1.08380   -1.000
 5270.00    1.14809   1.08779   -1.000
 5271.00    1.19781   1.11943   -1.000
 5272.00    1.24143   1.16365   -1.000
 5273.00    1.26403   1.19625   -1.000
 5274.00    1.26038   1.21040   -1.000
 5275.00    1.25859   1.22031   50.001
 5276.00    1.28270   1.24085   50.005
 5277.00    1.31677   1.27055   49.899
 5278.00    1.34378   1.29409   48.986
 5279.00    1.33692   1.29795   47.343
 5280.00    1.30472   1.28211   46.416
 5281.00    1.29002   1.25733   46.634
 5282.00    1.27068   1.23657   47.716
 5283.00    1.25750   1.23067   48.960
 5284.00    1.27913   1.24534   49.879
 5285.00    1.31541   1.27632   50.163
 5286.00    1.35066   1.30950   49.218
 5287.00    1.36216   1.33221   47.734
 5288.00    1.36045   1.34312   46.230
 5289.00    1.36364   1.34805   45.813
 5290.00    1.36058   1.35015   46.027
 5291.00    1.35667   1.34837   46.039
 5292.00    1.35032   1.34195   45.783
 5293.00    1.35389   1.33136   45.674
 5294.00    1.34238   1.31469   45.920
 5295.00    1.31481   1.28827   46.348
 5296.00    1.28185   1.25449   46.954
 5297.00    1.24954   1.22578   48.188
 5298.00    1.24430   1.21584   50.014
 5299.00    1.27174   1.22616   51.399
 5300.00    1.29964   1.24545   -1.000
 5301.00    1.30339   1.26405   49.936
 5302.00    1.30368   1.28273   48.980
 5303.00    1.32944   1.30486   48.630
 5304.00    1.35038   1.32665   48.054
 5305.00    1.36040   1.33964   46.800
 5306.00    1.34967   1.34103   45.909
 5307.00    1.33971   1.33765   45.744
 5308.00    1.34463   1.33826   46.158
 5309.00    1.35029   1.34460   46.566
 5310.00    1.36926   1.35112   46.309
 5311.00    1.36887   1.35212   45.830
 5312.00    1.36254   1.34684   45.524
 5313.00    1.35690   1.33752   45.547
 5314.00    1.34627   1.32573   45.791
 5315.00    1.33365   1.31288   45.995
 5316.00    1.32138   1.30256   46.319
 5317.00    1.31267   1.29924   46.771
 5318.00    1.33356   1.30310   47.191
 5319.00    1.34515   1.30865   47.234
 5320.00    1.33298   1.30961   46.906
 5321.00    1.32724   1.30277   46.694
 5322.00    1.32076   1.28842   46.840
 5323.00    1.30292   1.27037   47.161
 5324.00    1.29100   1.25251   47.702
 5325.00    1.28316   1.23172   48.521
 5326.00    1.25751   1.20051   -1.000
 5327.00    1.19917   1.16237   49.015
 5328.00    1.16569   1.13847   50.257
 5329.00    1.20269   1.14993   -1.000
 5330.00    1.26623   1.19283   -1.000
 5331.00    1.30656   1.24078   -1.000
 5332.00    1.31338   1.27354   50.225
 5333.00    1.32106   1.29161   48.501
 5334.00    1.33179   1.30348   47.920
 5335.00    1.33753   1.31186   47.464
 5336.00    1.33730   1.31363   46.919
 5337.00    1.33176   1.30566   46.690
 5338.00    1.31464   1.28787   46.954
 5339.00    1.28695   1.26494   47.261
 5340.00    1.26224   1.24753   47.763
 5341.00    1.26855   1.24674   48.921
 5342.00    1.30073   1.26215   49.816
 5343.00    1.32348   1.28075   49.503
 5344.00    1.33018   1.29041   48.225
 5345.00    1.32439   1.28934   47.320
 5346.00    1.31620   1.28231   47.252
 5347.00    1.31205   1.27385   47.543
 5348.00    1.30155   1.26763   47.851
 5349.00    1.30437   1.26875   48.091
 5350.00    1.31311   1.28040   48.510
 5351.00    1.33564   1.29883   48.654
 5352.00    1.34733   1.31696   47.968
 5353.00    1.34496   1.33182   46.875
 5354.00    1.35272   1.34498   46.248
 5355.00    1.37247   1.35737   46.069
 5356.00    1.37015   1.36671   45.726
 5357.00    1.37158   1.37039   45.157
 5358.00    1.38035   1.36812   44.797
 5359.00    1.37879   1.36049   44.808
 5360.00    1.36523   1.34790   44.877
 5361.00    1.34886   1.33218   45.033
 5362.00    1.33648   1.31645   45.532
 5363.00    1.31735   1.30319   46.281
 5364.00    1.30596   1.29333   46.971
 5365.00    1.30268   1.28693   47.330
 5366.00    1.30129   1.28286   47.607
 5367.00    1.30573   1.27680   47.893
 5368.00    1.29578   1.26226   47.782
 5369.00    1.27125   1.23798   47.764
 5370.00    1.24737   1.21445   48.210
 5371.00    1.24479   1.20885   49.356
 5372.00    1.27815   1.23021   50.841
 5373.00    1.32224   1.26976   -1.000
 5374.00    1.35352   1.30837   49.410
 5375.00    1.37146   1.33219   47.153
 5376.00    1.37433   1.33994   45.908
 5377.00    1.36426   1.33847   45.507
 5378.00    1.35797   1.33400   45.607
 5379.00    1.34837   1.32803   45.639
 5380.00    1.34049   1.31975   45.721
 5381.00    1.33024   1.31007   45.972
 5382.00    1.31831   1.30283   46.413
 5383.00    1.31808   1.30191   46.872
 5384.00    1.33607   1.30752   47.122
 5385.00    1.35280   1.31533   47.112
 5386.00    1.35657   1.31951   46.904
 5387.00    1.35291   1.31653   46.423
 5388.00    1.33493   1.30643   46.292
 5389.00    1.32095   1.29207   46.478
 5390.00    1.32092   1.27782   46.910
 5391.00    1.31048   1.26705   47.608
 5392.00    1.30498   1.26037   48.162
 5393.00    1.29898   1.25570   48.405
 5394.00    1.29942   1.24893   -1.000
 5395.00    1.28620   1.23690   48.579
 5396.00    1.26307   1.22320   48.922
 5397.00    1.25463   1.21817   49.545
 5398.00    1.28056   1.22853   -1.000
 5399.00    1.30648   1.24936   -1.000
 5400.00    1.31837   1.26908   49.276
 5401.00    1.31957   1.27787   47.841
 5402.00    1.30983   1.27011   47.454
 5403.00    1.28232   1.24565   47.518
 5404.00    1.24814   1.21351   47.871
 5405.00    1.23640   1.19025   49.229
 5406.00    1.24663   1.18772   -1.000
 5407.00    1.27702   1.20137   -1.000
 5408.00    1.29423   1.21650   -1.000
 5409.00    1.27640   1.22577   -1.000
 5410.00    1.27321   1.23534   49.702
 5411.00    1.30338   1.25295   -1.000
 5412.00    1.33086   1.27508   -1.000
 5413.00    1.33896   1.29183   48.665
 5414.00    1.32575   1.30060   47.508
 5415.00    1.32152   1.30727   46.956
 5416.00    1.33593   1.31575   46.940
 5417.00    1.33762   1.32230   46.967
 5418.00    1.33628   1.32168   46.650
 5419.00    1.33040   1.31485   46.345
 5420.00    1.32935   1.30736   46.489
 5421.00    1.33194   1.30203   46.930
 5422.00    1.32972   1.29687   47.232
 5423.00    1.31520   1.29095   47.086
 5424.00    1.29984   1.28969   46.893
 5425.00    1.31755   1.29803   47.466
 5426.00    1.34150   1.30909   47.933
 5427.00    1.33692   1.30789   47.514
 5428.00    1.30623   1.28868   46.727
 5429.00    1.26883   1.26384   46.778
 5430.00    1.27314   1.25027   47.966
 5431.00    1.29800   1.25004   49.500
 5432.00    1.30035   1.25125   -1.000
 5433.00    1.28231   1.24532   48.932
 5434.00    1.27413   1.23728   48.812
 5435.00    1.28001   1.23943   49.448
 5436.00    1.29937   1.25818   50.041
 5437.00    1.32361   1.28891   49.933
 5438.00    1.35118   1.32065   49.013
 5439.00    1.36513   1.34426   47.689
 5440.00    1.36652   1.35693   46.656
 5441.00    1.36630   1.36039   45.973
 5442.00    1.36121   1.35563   45.568
 5443.00    1.34764   1.33994   45.461
 5444.00    1.31562   1.31106   45.454
 5445.00    1.28164   1.27485   45.884
 5446.00    1.25748   1.24671   47.037
 5447.00    1.26765   1.24151   48.918
 5448.00    1.31196   1.26066   -1.000
 5449.00    1.34669   1.29082   -1.000
 5450.00    1.35393   1.31457   48.915
 5451.00    1.35831   1.32170   47.513
 5452.00    1.35715   1.31133   46.969
 5453.00    1.33170   1.28764   46.937
 5454.00    1.29300   1.25968   47.301
 5455.00    1.26774   1.24238   48.332
 5456.00    1.28211   1.24816   49.707
 5457.00    1.32893   1.27467   -1.000
 5458.00    1.35960   1.30445   -1.000
 5459.00    1.36353   1.31949   48.629
 5460.00    1.35705   1.31455   47.254
 5461.00    1.33366   1.29684   46.878
 5462.00    1.31210   1.27893   47.350
 5463.00    1.31040   1.27145   48.217
 5464.00    1.32100   1.27708   48.902
 5465.00    1.32454   1.28974   49.212
 5466.00    1.33714   1.30146   48.692
 5467.00    1.34830   1.30867   48.110
 5468.00    1.34937   1.31101   47.847
 5469.00    1.34370   1.30861   47.351
 5470.00    1.34826   1.30247   47.112
 5471.00    1.34264   1.29439   47.487
 5472.00    1.32823   1.28515   47.986
 5473.00    1.31997   1.27343   48.195
 5474.00    1.30529   1.25710   48.429
 5475.00    1.28087   1.23717   48.898
 5476.00    1.25468   1.22175   49.575
 5477.00    1.26662   1.22198   50.598
 5478.00    1.29489   1.23855   -1.000
 5479.00    1.31487   1.25707   -1.000
 5480.00    1.31472   1.26395   -1.000
 5481.00    1.30361   1.26148   48.622
 5482.00    1.30515   1.26289   48.848
 5483.00    1.32291   1.27590   49.446
 5484.00    1.34533   1.29431   -1.000
 5485.00    1.35049   1.30549   48.652
 5486.00    1.34031   1.30342   47.661
 5487.00    1.32365   1.29344   47.179
 5488.00    1.31677   1.28580   47.541
 5489.00    1.32081   1.28609   48.211
 5490.00    1.32304   1.29232   48.545
 5491.00    1.32953   1.29892   48.581
 5492.00    1.32913   1.30202   48.276
 5493.00    1.33166   1.30179   47.921
 5494.00    1.33799   1.30040   47.723
 5495.00    1.33974   1.29842   47.798
 5496.00    1.33184   1.29554   47.830
 5497.00    1.32100   1.29419   47.825
 5498.00    1.32362   1.29689   48.131
 5499.00    1.33482   1.29977   48.478
 5500.00    1.33477   1.29596   48.290
 5501.00    1.32213   1.28550   47.768
 5502.00    1.31607   1.27570   48.031
 5503.00    1.32651   1.27140   -1.000
 5504.00    1.33307   1.26941   -1.000
 5505.00    1.31964   1.26511   -1.000
 5506.00    1.30418   1.26071   48.450
 5507.00    1.30680   1.26220   49.018
 5508.00    1.32707   1.27002   -1.000
 5509.00    1.33117   1.27669   -1.000
 5510.00    1.32111   1.27408   48.434
 5511.00    1.30806   1.26179   48.149
 5512.00    1.28942   1.24751   48.410
 5513.00    1.29064   1.24062   -1.000
 5514.00    1.30369   1.24532   -1.000
 5515.00    1.31624   1.25904   -1.000
 5516.00    1.33342   1.27673   -1.000
 5517.00    1.34925   1.29463   -1.000
 5518.00    1.36029   1.31011   -1.000
 5519.00    1.36564   1.32045   47.642
 5520.00    1.36243   1.32423   46.835
 5521.00    1.35971   1.32314   46.633
 5522.00    1.36040   1.32037   46.691
 5523.00    1.35242   1.31650   46.783
 5524.00    1.34057   1.30842   46.937
 5525.00    1.32453   1.29273   47.030
 5526.00    1.29810   1.27072   47.284
 5527.00    1.27376   1.25068   47.883
 5528.00    1.26270   1.24353   48.934
 5529.00    1.28130   1.25369   50.191
 5530.00    1.31599   1.27387   50.617
 5531.00    1.34043   1.29102   -1.000
 5532.00    1.34262   1.29705   48.383
 5533.00    1.33343   1.29329   47.663
 5534.00    1.32337   1.28659   47.673
 5535.00    1.32074   1.28302   48.085
 5536.00    1.32951   1.28468   48.356
 5537.00    1.34043   1.29051   -1.000
 5538.00    1.35008   1.29902   -1.000
 5539.00    1.35428   1.30900   47.711
 5540.00    1.35542   1.31742   47.520
 5541.00    1.35584   1.31991   47.089
 5542.00    1.34511   1.31519   46.699
 5543.00    1.33400   1.30716   46.667
 5544.00    1.33002   1.30146   47.092
 5545.00    1.33721   1.30095   47.579
 5546.00    1.34714   1.30568   47.752
 5547.00    1.35187   1.31494   47.649
 5548.00    1.35934   1.32660   47.534
 5549.00    1.36223   1.33648   47.262
 5550.00    1.36704   1.34075   46.813
 5551.00    1.36294   1.33827   46.407
 5552.00    1.35529   1.33047   46.261
 5553.00    1.34502   1.32100   46.462
 5554.00    1.33832   1.31444   46.852
 5555.00    1.34105   1.31295   47.376
 5556.00    1.35608   1.31474   47.653
 5557.00    1.35371   1.31674   47.619
 5558.00    1.34590   1.31768   47.475
 5559.00    1.34953   1.31774   47.383
 5560.00    1.35233   1.31607   47.322
 5561.00    1.34404   1.31111   47.270
 5562.00    1.33516   1.30331   47.349
 5563.00    1.32696   1.29550   47.575
 5564.00    1.32022   1.29006   48.028
 5565.00    1.32014   1.28708   48.391
 5566.00    1.32192   1.28532   48.555
 5567.00    1.32422   1.28422   48.657
 5568.00    1.32354   1.28420   48.714
 5569.00    1.32177   1.28528   48.634
 5570.00    1.32129   1.28615   48.528
 5571.00    1.31392   1.28559   48.633
 5572.00    1.29965   1.28478   48.629
 5573.00    1.30663   1.28679   48.624
 5574.00    1.32380   1.29292   48.748
 5575.00    1.33394   1.30092   48.595
 5576.00    1.34663   1.30755   48.114
 5577.00    1.35040   1.31210   47.687
 5578.00    1.32367   1.31572   47.036
 5579.00    1.25446   1.31855   46.261
 5580.00    1.21747   1.31939   -1.000
 5581.00    1.29278   1.31742   48.340
 5582.00    1.36667   1.31291   -1.000
 5583.00    1.36110   1.30573   -1.000
 5584.00    1.33335   1.29319   48.082
 5585.00    1.31089   1.27228   47.913
 5586.00    1.27925   1.24547   48.139
 5587.00    1.25090   1.22180   49.096
 5588.00    1.24646   1.21093   50.336
 5589.00    1.25873   1.21597   51.492
 5590.00    1.28094   1.23141   -1.000
 5591.00    1.30191   1.24755   -1.000
 5592.00    1.30798   1.25802   -1.000
 5593.00    1.30060   1.26430   49.882
 5594.00    1.29814   1.27236   49.648
 5595.00    1.31286   1.28398   49.804
 5596.00    1.32236   1.29270   49.592
 5597.00    1.31305   1.29108   48.929
 5598.00    1.29423   1.27960   48.467
 5599.00    1.29243   1.26456   48.793
 5600.00    1.29511   1.25098   49.605
 5601.00    1.28010   1.24240   50.196
 5602.00    1.27745   1.24394   50.247
 5603.00    1.29519   1.26001   50.470
 5604.00    1.32817   1.28810   50.730
 5605.00    1.35238   1.31789   50.070
 5606.00    1.36548   1.33914   48.759
 5607.00    1.36849   1.34901   47.597
 5608.00    1.36624   1.35124   46.951
 5609.00    1.36425   1.35120   46.784
 5610.00    1.36933   1.35162   46.836
 5611.00    1.36934   1.34993   46.932
 5612.00    1.35950   1.33916   46.909
 5613.00    1.33520   1.31446   46.774
 5614.00    1.30071   1.28127   46.933
 5615.00    1.27768   1.25567   47.788
 5616.00    1.29045   1.25099   49.361
 5617.00    1.32034   1.26500   -1.000
 5618.00    1.33716   1.28433   -1.000
 5619.00    1.34002   1.29891   49.341
 5620.00    1.33720   1.30758   48.563
 5621.00    1.34631   1.31091   48.368
 5622.00    1.34188   1.30605   48.178
 5623.00    1.31640   1.29244   47.937
 5624.00    1.30129   1.27754   48.068
 5625.00    1.31120   1.27214   48.906
 5626.00    1.33181   1.28050   -1.000
 5627.00    1.34566   1.29727   -1.000
 5628.00    1.35546   1.31463   49.054
 5629.00    1.36531   1.32856   48.312
 5630.00    1.36612   1.33749   47.733
 5631.00    1.36369   1.34020   47.350
 5632.00    1.36417   1.33662   47.185
 5633.00    1.35629   1.32832   47.008
 5634.00    1.34576   1.31751   47.015
 5635.00    1.34099   1.30606   47.336
 5636.00    1.33173   1.29602   47.689
 5637.00    1.32816   1.28986   47.995
 5638.00    1.33761   1.28825   -1.000
 5639.00    1.33706   1.28852   -1.000
 5640.00    1.33238   1.28764   48.734
 5641.00    1.33099   1.28611   48.684
 5642.00    1.32765   1.28694   48.812
 5643.00    1.33538   1.29145   48.868
 5644.00    1.34296   1.29775   48.707
 5645.00    1.34406   1.30333   48.480
 5646.00    1.34819   1.30682   48.377
 5647.00    1.34876   1.30745   48.087
 5648.00    1.35010   1.30540   47.910
 5649.00    1.34552   1.30304   47.789
 5650.00    1.34386   1.30346   47.709
 5651.00    1.34747   1.30680   47.794
 5652.00    1.35038   1.30939   47.818
 5653.00    1.33433   1.30731   47.499
 5654.00    1.33494   1.29968   47.318
 5655.00    1.32835   1.28701   47.453
 5656.00    1.31297   1.26924   47.808
 5657.00    1.27927   1.24917   48.259
 5658.00    1.25464   1.23492   49.107
 5659.00    1.27015   1.23383   50.535
 5660.00    1.29762   1.24395   -1.000
 5661.00    1.30902   1.25614   -1.000
 5662.00    1.30545   1.26586   49.936
 5663.00    1.31167   1.27613   49.575
 5664.00    1.32985   1.28774   49.632
 5665.00    1.33415   1.29522   49.196
 5666.00    1.32884   1.29456   48.505
 5667.00    1.32638   1.28876   48.219
 5668.00    1.32342   1.28457   48.408
 5669.00    1.32836   1.28630   48.704
 5670.00    1.33730   1.29396   48.806
 5671.00    1.34433   1.30541   48.709
 5672.00    1.35596   1.31766   48.423
 5673.00    1.36142   1.32722   48.016
 5674.00    1.35100   1.33213   47.542
 5675.00    1.34534   1.33334   47.079
 5676.00    1.35324   1.33264   47.006
 5677.00    1.35790   1.33031   47.150
 5678.00    1.35560   1.32542   47.060
 5679.00    1.35051   1.31774   46.963
 5680.00    1.34360   1.30783   47.148
 5681.00    1.33115   1.29635   47.357
 5682.00    1.31326   1.28523   47.619
 5683.00    1.30527   1.27824   48.129
 5684.00    1.30804   1.27710   48.709
 5685.00    1.31435   1.27850   48.905
 5686.00    1.31250   1.27839   48.680
 5687.00    1.30099   1.27737   48.441
 5688.00    1.30533   1.27968   48.589
 5689.00    1.31542   1.28785   49.114
 5690.00    1.32577   1.29978   49.364
 5691.00    1.34072   1.31100   48.931
 5692.00    1.34970   1.31833   48.071
 5693.00    1.34841   1.32113   47.528
 5694.00    1.34138   1.32058   47.210
 5695.00    1.34427   1.31797   47.087
 5696.00    1.35220   1.31336   47.124
 5697.00    1.34200   1.30611   47.168
 5698.00    1.33241   1.29674   47.283
 5699.00    1.32279   1.28705   47.691
 5700.00    1.31880   1.27874   48.240
 5701.00    1.31294   1.27372   48.693
 5702.00    1.30780   1.27394   49.195
 5703.00    1.31742   1.27798   49.482
 5704.00    1.32584   1.28006   49.217
 5705.00    1.31629   1.27493   48.713
 5706.00    1.29788   1.26233   48.516
 5707.00    1.27248   1.24656   48.769
 5708.00    1.25884   1.23283   49.403
 5709.00    1.24427   1.22482   50.295
 5710.00    1.24381   1.22481   51.116
 5711.00    1.26393   1.23405   51.504
 5712.00    1.28864   1.25208   51.449
 5713.00    1.30977   1.27494   50.988
 5714.00    1.32525   1.29569   50.025
 5715.00    1.33301   1.30968   48.810
 5716.00    1.33739   1.31780   47.969
 5717.00    1.33937   1.32329   47.702
 5718.00    1.34262   1.32840   47.600
 5719.00    1.34661   1.33412   47.460
 5720.00    1.35174   1.34034   47.241
 5721.00    1.35607   1.34621   46.947
 5722.00    1.35992   1.35069   46.709
 5723.00    1.35612   1.35238   46.579
 5724.00    1.35184   1.34947   46.503
 5725.00    1.34648   1.34155   46.444
 5726.00    1.33947   1.33178   46.523
 5727.00    1.34069   1.32547   46.865
 5728.00    1.34527   1.32486   47.351
 5729.00    1.34862   1.32664   47.755
 5730.00    1.34439   1.32675   47.620
 5731.00    1.34033   1.32615   47.321
 5732.00    1.34476   1.32897   47.369
 5733.00    1.34969   1.33622   47.602
 5734.00    1.35443   1.34368   47.510
 5735.00    1.35297   1.34647   47.089
 5736.00    1.34961   1.34416   46.751
 5737.00    1.35230   1.34000   46.731
 5738.00    1.35735   1.33696   46.793
 5739.00    1.35201   1.33550   46.917
 5740.00    1.34194   1.33449   46.977
 5741.00    1.34382   1.33341   47.062
 5742.00    1.34254   1.33355   47.141
 5743.00    1.34469   1.33639   47.239
 5744.00    1.34845   1.34080   47.173
 5745.00    1.35415   1.34270   47.108
 5746.00    1.34750   1.33927   46.824
 5747.00    1.33485   1.33325   46.543
 5748.00    1.33149   1.33054   46.697
 5749.00    1.33408   1.33246   47.136
 5750.00    1.33444   1.33276   47.382
 5751.00    1.32777   1.32446   47.187
 5752.00    1.31044   1.30870   47.001
 5753.00    1.30395   1.29570   47.270
 5754.00    1.30417   1.29560   47.821
 5755.00    1.32450   1.30933   48.327
 5756.00    1.34103   1.32827   48.417
 5757.00    1.34497   1.34160   47.910
 5758.00    1.35084   1.34333   47.059
 5759.00    1.34653   1.33420   46.429
 5760.00    1.33591   1.31958   46.435
 5761.00    1.32341   1.30665   46.897
 5762.00    1.31313   1.30223   47.505
 5763.00    1.31904   1.30996   48.151
 5764.00    1.33795   1.32693   48.483
 5765.00    1.35147   1.34455   48.109
 5766.00    1.35495   1.35563   47.298
 5767.00    1.35572   1.35927   46.654
 5768.00    1.35550   1.35817   46.426
 5769.00    1.35520   1.35455   46.370
 5770.00    1.34725   1.34959   46.300
 5771.00    1.34505   1.34404   46.355
 5772.00    1.34675   1.33857   46.502
 5773.00    1.33531   1.33412   46.740
 5774.00    1.32346   1.33183   47.027
 5775.00    1.33043   1.33221   47.184
 5776.00    1.34221   1.33355   47.249
 5777.00    1.34333   1.33158   47.184
 5778.00    1.33472   1.32190   46.972
 5779.00    1.31556   1.30390   46.880
 5780.00    1.28639   1.28251   46.992
 5781.00    1.26319   1.26526   47.561
 5782.00    1.26277   1.25674   48.571
 5783.00    1.27165   1.25584   49.322
 5784.00    1.28122   1.25942   49.384
 5785.00    1.29750   1.26753   49.193
 5786.00    1.31460   1.28145   49.013
 5787.00    1.32606   1.29782   48.835
 5788.00    1.32856   1.31002   48.373
 5789.00    1.32745   1.31483   47.740
 5790.00    1.32136   1.31490   47.311
 5791.00    1.31952   1.31597   47.275
 5792.00    1.32251   1.32193   47.465
 5793.00    1.32697   1.33168   47.464
 5794.00    1.33546   1.34020   47.136
 5795.00    1.34194   1.34279   46.789
 5796.00    1.33891   1.33915   46.501
 5797.00    1.32888   1.33466   46.411
 5798.00    1.32756   1.33606   46.624
 5799.00    1.33583   1.34484   46.928
 5800.00    1.34551   1.35582   46.829
 5801.00    1.35384   1.36187   46.301
 5802.00    1.34806   1.35918   45.665
 5803.00    1.33925   1.34952   45.433
 5804.00    1.33297   1.33880   45.714
 5805.00    1.32895   1.33277   46.092
 5806.00    1.33632   1.33313   46.462
 5807.00    1.34008   1.33776   46.712
 5808.00    1.34022   1.34371   46.675
 5809.00    1.34304   1.34927   46.506
 5810.00    1.34445   1.35362   46.357
 5811.00    1.35219   1.35564   46.323
 5812.00    1.35253   1.35391   46.293
 5813.00    1.35356   1.34788   46.148
 5814.00    1.35164   1.33927   45.999
 5815.00    1.34675   1.33234   46.036
 5816.00    1.34494   1.33206   46.356
 5817.00    1.34940   1.33987   46.622
 5818.00    1.35518   1.35174   46.488
 5819.00    1.35759   1.36166   46.173
 5820.00    1.35753   1.36628   45.904
 5821.00    1.36441   1.36601   45.674
 5822.00    1.36998   1.36338   45.504
 5823.00    1.36716   1.36097   45.524
 5824.00    1.36091   1.36005   45.671
 5825.00    1.36026   1.36051   45.652
 5826.00    1.36017   1.36175   45.573
 5827.00    1.36404   1.36355   45.494
 5828.00    1.36450   1.36572   45.439
 5829.00    1.35845   1.36742   45.439
 5830.00    1.35574   1.36759   45.513
 5831.00    1.35602   1.36584   45.471
 5832.00    1.35513   1.36245   45.450
 5833.00    1.35557   1.35807   45.411
 5834.00    1.35329   1.35419   45.460
 5835.00    1.35126   1.35251   45.718
 5836.00    1.35699   1.35298   45.858
 5837.00    1.35795   1.35432   45.753
 5838.00    1.35897   1.35658   45.641
 5839.00    1.36331   1.36078   45.732
 5840.00    1.36638   1.36623   45.856
 5841.00    1.36547   1.37040   45.771
 5842.00    1.36029   1.37114   45.472
 5843.00    1.35890   1.36779   45.204
 5844.00    1.36093   1.36089   45.155
 5845.00    1.35256   1.35186   45.279
 5846.00    1.34540   1.34312   45.452
 5847.00    1.34378   1.33738   45.725
 5848.00    1.33990   1.33555   45.978
 5849.00    1.34329   1.33516   46.202
 5850.00    1.34596   1.33182   46.223
 5851.00    1.34322   1.32345   46.255
 5852.00    1.33173   1.31282   46.477
 5853.00    1.32347   1.30456   46.768
 5854.00    1.31945   1.29954   47.187
 5855.00    1.31286   1.29382   47.482
 5856.00    1.30410   1.28473   47.592
 5857.00    1.29921   1.27641   47.646
 5858.00    1.30106   1.27600   48.022
 5859.00    1.31546   1.28520   48.497
 5860.00    1.32927   1.29859   48.364
 5861.00    1.33069   1.30977   47.798
 5862.00    1.33265   1.31664   47.342
 5863.00    1.33788   1.32019   47.134
 5864.00    1.34122   1.32096   46.952
 5865.00    1.33117   1.31902   46.849
 5866.00    1.32470   1.31664   46.933
 5867.00    1.33176   1.31798   47.094
 5868.00    1.34360   1.32460   47.309
 5869.00    1.35066   1.33317   47.338
 5870.00    1.35486   1.33896   46.983
 5871.00    1.35296   1.34020   46.560
 5872.00    1.35219   1.33858   46.311
 5873.00    1.35450   1.33662   46.257
 5874.00    1.35332   1.33534   46.353
 5875.00    1.35177   1.33383   46.395
 5876.00    1.35529   1.33037   46.340
 5877.00    1.35431   1.32395   46.419
 5878.00    1.34345   1.31537   46.611
 5879.00    1.33365   1.30701   46.716
 5880.00    1.33316   1.30128   46.997
 5881.00    1.33826   1.29871   47.331
 5882.00    1.33444   1.29754   47.413
 5883.00    1.32351   1.29595   47.303
 5884.00    1.32236   1.29324   47.265
 5885.00    1.32292   1.28570   47.420
 5886.00    1.30969   1.26336   47.515
 5887.00    1.27381   1.21750   -1.000
 5888.00    1.20609   1.15466   -1.000
 5889.00    1.12573   1.10017   49.532
 5890.00    1.06898   1.08031   52.418
 5891.00    1.06180   1.09818   55.844
 5892.00    1.10349   1.13018   57.589
 5893.00    1.15557   1.14742   56.666
 5894.00    1.17452   1.14048   54.478
 5895.00    1.15403   1.12542   53.088
 5896.00    1.13170   1.12712   53.297
 5897.00    1.14263   1.15484   54.640
 5898.00    1.18632   1.19582   54.971
 5899.00    1.23383   1.23293   53.691
 5900.00    1.28209   1.25965   51.810
 5901.00    1.30858   1.27718   50.225
 5902.00    1.31670   1.28766   49.043
 5903.00    1.31992   1.29294   48.113
 5904.00    1.31797   1.29522   47.697
 5905.00    1.31863   1.29685   47.614
 5906.00    1.31965   1.29971   47.599
 5907.00    1.32497   1.30404   47.652
 5908.00    1.33448   1.30840   47.659
 5909.00    1.33467   1.31121   47.582
 5910.00    1.33186   1.31148   47.472
 5911.00    1.32743   1.30783   47.559
 5912.00    1.31486   1.29916   47.668
 5913.00    1.30357   1.28720   47.717
 5914.00    1.29828   1.27686   47.861
 5915.00    1.29692   1.27301   48.419
 5916.00    1.30074   1.27680   48.900
 5917.00    1.31062   1.28557   48.916
 5918.00    1.31822   1.29518   48.663
 5919.00    1.32459   1.30221   48.451
 5920.00    1.32141   1.30537   48.262
 5921.00    1.31629   1.30587   48.121
 5922.00    1.31467   1.30623   47.963
 5923.00    1.32481   1.30817   47.922
 5924.00    1.33079   1.31144   47.969
 5925.00    1.32729   1.31435   47.842
 5926.00    1.32651   1.31475   47.669
 5927.00    1.31885   1.31113   47.568
 5928.00    1.31014   1.30436   47.521
 5929.00    1.30559   1.29852   47.578
 5930.00    1.30867   1.29784   47.859
 5931.00    1.31698   1.30164   48.238
 5932.00    1.32464   1.30453   48.312
 5933.00    1.32271   1.30305   47.936
 5934.00    1.31633   1.29986   47.627
 5935.00    1.31970   1.30016   47.831
 5936.00    1.32423   1.30551   48.196
 5937.00    1.32598   1.31222   48.339
 5938.00    1.32524   1.31514   48.128
 5939.00    1.32677   1.31195   47.732
 5940.00    1.32447   1.30448   47.486
 5941.00    1.31647   1.29746   47.570
 5942.00    1.31362   1.29536   47.989
 5943.00    1.31704   1.29913   48.333
 5944.00    1.32299   1.30549   48.371
 5945.00    1.32838   1.30944   48.146
 5946.00    1.32607   1.30760   47.853
 5947.00    1.31090   1.30091   47.640
 5948.00    1.29811   1.29434   47.687
 5949.00    1.30117   1.29217   48.047
 5950.00    1.30359   1.29347   48.547
 5951.00    1.29946   1.29436   48.774
 5952.00    1.29805   1.29392   48.607
 5953.00    1.29796   1.29411   48.393
 5954.00    1.30302   1.29515   48.436
 5955.00    1.30952   1.29507   48.458
 5956.00    1.31487   1.29374   48.371
 5957.00    1.31528   1.29427   48.352
 5958.00    1.31105   1.29941   48.502
 5959.00    1.31868   1.30818   48.618
 5960.00    1.32856   1.31706   48.496
 5961.00    1.32788   1.32306   48.031
 5962.00    1.32942   1.32498   47.527
 5963.00    1.32917   1.32318   47.269
 5964.00    1.32644   1.31919   47.189
 5965.00    1.32242   1.31551   47.257
 5966.00    1.32427   1.31462   47.482
 5967.00    1.32838   1.31702   47.679
 5968.00    1.32135   1.32109   47.842
 5969.00    1.31620   1.32519   47.816
 5970.00    1.32053   1.32851   47.510
 5971.00    1.32383   1.33015   47.311
 5972.00    1.32893   1.32882   47.283
 5973.00    1.32514   1.32342   47.209
 5974.00    1.30962   1.31398   47.136
 5975.00    1.30264   1.30271   47.305
 5976.00    1.30076   1.29390   47.662
 5977.00    1.29598   1.29137   48.034
 5978.00    1.29815   1.29568   48.383
 5979.00    1.30864   1.30342   48.637
 5980.00    1.31527   1.30883   48.543
 5981.00    1.30942   1.30716   48.164
 5982.00    1.29960   1.29818   47.906
 5983.00    1.29181   1.28704   47.945
 5984.00    1.28689   1.28078   48.267
 5985.00    1.29017   1.28290   48.696
 5986.00    1.30180   1.29103   48.993
 5987.00    1.30537   1.30013   48.934
 5988.00    1.30793   1.30667   48.502
 5989.00    1.31185   1.30956   48.131
 5990.00    1.31281   1.30989   47.945
 5991.00    1.31125   1.31078   47.738
 5992.00    1.31152   1.31474   47.713
 5993.00    1.31455   1.32014   47.830
 5994.00    1.31317   1.32236   47.699
 5995.00    1.31310   1.31879   47.331
 5996.00    1.30961   1.31159   47.112
 5997.00    1.30325   1.30557   47.313
 5998.00    1.30273   1.30397   47.665
 5999.00    1.30518   1.30593   47.908
 6000.00    1.30689   1.30775   48.036
 6001.00    1.30388   1.30676   48.003
 6002.00    1.29947   1.30371   47.999
 6003.00    1.29710   1.30107   48.220
 6004.00    1.29915   1.29901   48.431
 6005.00    1.29844   1.29471   48.461
 6006.00    1.28680   1.28704   48.356
 6007.00    1.27853   1.28027   48.332
 6008.00    1.27723   1.28057   48.592
 6009.00    1.28168   1.28858   49.055
 6010.00    1.29134   1.29752   49.213
 6011.00    1.29026   1.30049   48.794
 6012.00    1.28348   1.29746   48.246
 6013.00    1.28668   1.29336   48.110
 6014.00    1.29230   1.29147   48.398
 6015.00    1.29033   1.29120   48.705
 6016.00    1.28918   1.29078   48.611
 6017.00    1.29115   1.28945   48.504
 6018.00    1.28469   1.28676   48.665
 6019.00    1.27378   1.28281   48.807
 6020.00    1.26757   1.27961   48.743
 6021.00    1.26911   1.27971   48.793
 6022.00    1.27410   1.28357   49.071
 6023.00    1.27940   1.28990   49.050
 6024.00    1.28570   1.29738   48.734
 6025.00    1.29067   1.30484   48.553
 6026.00    1.29332   1.31132   48.490
 6027.00    1.29357   1.31687   48.272
 6028.00    1.29684   1.32192   48.069
 6029.00    1.30128   1.32612   47.826
 6030.00    1.30324   1.32922   47.577
 6031.00    1.30952   1.33192   47.473
 6032.00    1.31109   1.33473   47.466
 6033.00    1.30929   1.33723   47.549
 6034.00    1.31077   1.33896   47.532
 6035.00    1.31545   1.33971   47.349
 6036.00    1.31403   1.33907   47.194
 6037.00    1.31174   1.33668   47.147
 6038.00    1.30714   1.33288   47.085
 6039.00    1.29948   1.32878   47.086
 6040.00    1.29992   1.32560   47.293
 6041.00    1.29587   1.32404   47.458
 6042.00    1.29220   1.32490   47.579
 6043.00    1.29836   1.32891   47.566
 6044.00    1.30592   1.33508   47.474
 6045.00    1.30907   1.34080   47.294
 6046.00    1.30429   1.34444   46.949
 6047.00    1.30322   1.34621   46.837
 6048.00    1.30964   1.34679   46.877
 6049.00    1.30570   1.34647   46.824
 6050.00    1.30111   1.34501   46.825
 6051.00    1.30099   1.34183   46.958
 6052.00    1.30113   1.33671   47.089
 6053.00    1.29662   1.33035   47.148
 6054.00    1.29010   1.32400   47.220
 6055.00    1.29201   1.31923   47.382
 6056.00    1.29229   1.31770   47.549
 6057.00    1.29332   1.32002   47.769
 6058.00    1.29983   1.32476   47.963
 6059.00    1.30226   1.32898   47.950
 6060.00    1.29923   1.32966   47.742
 6061.00    1.29614   1.32478   47.486
 6062.00    1.28745   1.31449   47.442
 6063.00    1.28341   1.30213   47.549
 6064.00    1.28263   1.29387   48.033
 6065.00    1.04058   1.29530   -1.000
 6066.00    0.97723   1.30691   -1.000
 6067.00    1.21252   1.32320   -1.000
 6068.00    1.15133   1.33726   -1.000
 6069.00    0.67507   1.34578   -1.000
 6070.00    0.67051   1.34930   -1.000
 6071.00    1.13433   1.34906   -1.000
 6072.00    1.30110   1.34664   46.753
 6073.00    1.31441   1.34446   45.844
 6074.00    0.87430   1.34301   -1.000
 6075.00    0.64931   1.33955   -1.000
 6076.00    1.09257   1.33218   -1.000
 6077.00    1.30045   1.32278   47.163
 6078.00    1.26659   1.31487   47.386
 6079.00    1.27100   1.30972   47.652
 6080.00    1.27150   1.30599   47.989
 6081.00    1.27422   1.30275   48.317
 6082.00    1.27248   1.30080   48.433
 6083.00    1.26812   1.30080   48.457
 6084.00    1.26792   1.30230   48.566
 6085.00    1.26673   1.30473   48.619
 6086.00    1.26911   1.30754   48.586
 6087.00    1.27646   1.30924   48.539
 6088.00    1.27677   1.30797   48.429
 6089.00    1.27073   1.30382   48.248
 6090.00    1.26365   1.29953   48.236
 6091.00    1.26386   1.29825   48.475
 6092.00    1.27065   1.30116   48.722
 6093.00    1.28038   1.30715   48.775
 6094.00    1.28460   1.31375   48.553
 6095.00    1.28278   1.31879   48.271
 6096.00    1.28363   1.32192   48.016
 6097.00    1.28009   1.32398   47.782
 6098.00    1.27635   1.32387   47.721
 6099.00    1.27402   1.31740   47.815
 6100.00    1.26194   1.30136   47.883
 6101.00    1.23939   1.28007   47.890
 6102.00    1.22360   1.26516   48.252
 6103.00    1.22947   1.26562   49.244
 6104.00    1.25239   1.27907   50.226
 6105.00    1.26432   1.29547   50.266
 6106.00    1.26737   1.30717   49.464
 6107.00    1.27022   1.31356   48.620
 6108.00    1.26667   1.31733   48.256
 6109.00    1.26107   1.31973   48.339
 6110.00    1.26258   1.32071   48.498
 6111.00    1.26887   1.32127   48.524
 6112.00    1.27339   1.32293   48.444
 6113.00    1.27035   1.32524   48.267
 6114.00    1.26730   1.32614   48.175
 6115.00    1.26587   1.32487   48.024
 6116.00    1.26481   1.32227   47.839
 6117.00    1.26304   1.31770   47.921
 6118.00    1.25659   1.30854   48.205
 6119.00    1.24687   1.29384   48.374
 6120.00    1.23343   1.27731   48.529
 6121.00    1.22039   1.26621   49.068
 6122.00    1.21718   1.26640   49.760
 6123.00    1.23054   1.27667   50.292
 6124.00    1.24707   1.28921   50.491
 6125.00    1.25181   1.29670   49.973
 6126.00    1.25203   1.29790   49.222
 6127.00    1.25144   1.29678   48.985
 6128.00    1.24994   1.29838   49.189
 6129.00    1.25163   1.30494   49.273
 6130.00    1.25767   1.31422   49.161
 6131.00    1.26257   1.32103   48.872
 6132.00    1.25843   1.31975   48.417
 6133.00    1.25132   1.30595   48.178
 6134.00    1.24057   1.27915   48.217
 6135.00    1.21278   1.24722   48.541
 6136.00    1.18613   1.22516   49.412
 6137.00    1.18491   1.22410   50.780
 6138.00    1.20274   1.24082   52.166
 6139.00    1.22162   1.26094   52.754
 6140.00    1.22758   1.27357   51.933
 6141.00    1.22378   1.28020   50.453
 6142.00    1.22165   1.28800   49.558
 6143.00    1.23535   1.29892   49.445
 6144.00    1.25218   1.30858   49.559
 6145.00    1.25284   1.31256   49.279
 6146.00    1.24734   1.31030   48.691
 6147.00    1.24176   1.30418   48.416
 6148.00    1.23765   1.29747   48.554
 6149.00    1.23959   1.29304   48.843
 6150.00    1.24108   1.29243   49.184
 6151.00    1.23916   1.29475   49.500
 6152.00    1.23804   1.29681   49.612
 6153.00    1.23263   1.29572   49.486
 6154.00    1.23119   1.29169   49.195
 6155.00    1.23354   1.28730   49.014
 6156.00    1.23444   1.28390   49.261
 6157.00    1.23390   1.27915   49.607
 6158.00    1.22934   1.26775   49.715
 6159.00    1.21513   1.24572   49.843
 6160.00    1.18814   1.21627   50.257
 6161.00    1.16381   1.19087   51.065
 6162.00    1.15781   1.18151   52.411
 6163.00    1.16679   1.19101   53.997
 6164.00    1.18483   1.21141   54.927
 6165.00    1.20243   1.23071   54.581
 6166.00    1.20496   1.24029   53.275
 6167.00    1.20054   1.23819   52.167
 6168.00    1.19390   1.22978   51.758
 6169.00    1.18332   1.22489   51.779
 6170.00    1.18620   1.23028   52.257
 6171.00    1.19968   1.24390   52.879
 6172.00    1.20897   1.25814   52.844
 6173.00    1.21350   1.26773   52.015
 6174.00    1.21329   1.27251   51.145
 6175.00    1.21507   1.27472   50.910
 6176.00    1.21784   1.27672   50.998
 6177.00    1.22111   1.27976   50.931
 6178.00    1.22684   1.28363   50.814
 6179.00    1.22765   1.28765   50.696
 6180.00    1.22696   1.29191   50.487
 6181.00    1.22860   1.29628   50.270
 6182.00    1.23331   1.29925   50.107
 6183.00    1.23781   1.29888   49.903
 6184.00    1.23377   1.29425   49.729
 6185.00    1.22795   1.28602   49.746
 6186.00    1.22475   1.27605   49.905
 6187.00    1.21766   1.26564   50.217
 6188.00    1.20845   1.25422   50.722
 6189.00    1.20353   1.24155   51.267
 6190.00    1.19796   1.23159   51.768
 6191.00    1.18772   1.23103   52.188
 6192.00    1.19169   1.24239   52.741
 6193.00    1.21067   1.26077   53.245
 6194.00    1.22408   1.27800   53.000
 6195.00    1.23033   1.28848   51.915
 6196.00    1.23265   1.29043   50.851
 6197.00    1.22669   1.28477   50.364
 6198.00    1.21981   1.27541   50.222
 6199.00    1.21568   1.26897   50.397
 6200.00    1.21188   1.27041   50.905
 6201.00    1.21474   1.27895   51.407
 6202.00    1.22421   1.28944   51.534
 6203.00    1.22599   1.29720   51.175
 6204.00    1.22455   1.30116   50.554
 6205.00    1.22543   1.30294   50.207
 6206.00    1.22096   1.30404   -1.000
 6207.00    1.22305   1.30423   -1.000
 6208.00    1.23214   1.30213   50.099
 6209.00    1.23086   1.29639   50.221
 6210.00    1.22109   1.28615   50.310
 6211.00    1.21385   1.27129   50.423
 6212.00    1.20400   1.25394   50.807
 6213.00    1.19100   1.23899   51.246
 6214.00    1.18667   1.23118   51.699
 6215.00    1.19385   1.23136   52.381
 6216.00    1.19987   1.23561   53.042
 6217.00    1.19802   1.23855   53.321
 6218.00    1.19099   1.23791   52.943
 6219.00    1.19092   1.23633   52.452
 6220.00    1.19478   1.23795   52.621
 6221.00    1.19703   1.24363   52.713
 6222.00    1.20550   1.25071   52.354
 6223.00    1.21183   1.25641   52.376
 6224.00    1.21282   1.25983   54.786
 6225.00    1.21123   1.26067   55.668
 6226.00    1.20802   1.25732   52.949
 6227.00    1.20311   1.24740   51.850
 6228.00    1.19327   1.23094   51.973
 6229.00    1.17748   1.21316   52.141
 6230.00    1.16155   1.20283   52.698
 6231.00    1.15959   1.20574   53.536
 6232.00    1.17518   1.22062   54.314
 6233.00    1.19313   1.24048   54.458
 6234.00    1.20786   1.25709   53.846
 6235.00    1.21476   1.26456   52.901
 6236.00    1.20732   1.26181   51.968
 6237.00    1.19669   1.25213   51.483
 6238.00    1.19220   1.24054   51.618
 6239.00    1.18818   1.23094   52.101
 6240.00    1.18277   1.22435   52.637
 6241.00    1.17968   1.21899   53.186
 6242.00    1.17124   1.21316   53.558
 6243.00    1.16513   1.20785   53.617
 6244.00    1.16500   1.20596   53.819
 6245.00    1.16064   1.21013   54.223
 6246.00    1.16073   1.22078   54.350
 6247.00    1.17096   1.23453   54.112
 6248.00    1.18420   1.24517   53.640
 6249.00    1.18758   1.24702   53.011
 6250.00    1.17925   1.23847   52.396
 6251.00    1.16615   1.22346   52.138
 6252.00    1.14931   1.20907   52.419
 6253.00    1.13891   1.19990   53.212
 6254.00    1.14015   1.19536   54.043
 6255.00    1.13718   1.19211   54.515
 6256.00    1.13526   1.18897   54.747
 6257.00    1.13982   1.18866   54.789
 6258.00    1.14693   1.19475   55.047
 6259.00    1.15818   1.20778   55.581
 6260.00    1.16655   1.22462   55.660
 6261.00    1.17400   1.24052   55.038
 6262.00    1.17554   1.25129   -1.000
 6263.00    1.17236   1.25529   -1.000
 6264.00    1.17192   1.25488   -1.000
 6265.00    1.17256   1.25437   -1.000
 6266.00    1.17336   1.25580   -1.000
 6267.00    1.17816   1.25734   -1.000
 6268.00    1.18231   1.25697   52.703
 6269.00    1.17837   1.25571   -1.000
 6270.00    1.17542   1.25593   -1.000
 6271.00    1.18144   1.25809   -1.000
 6272.00    1.18462   1.25997   52.623
 6273.00    1.18123   1.25874   -1.000
 6274.00    1.18282   1.25320   52.315
 6275.00    1.18128   1.24385   52.340
 6276.00    1.17458   1.23161   52.628
 6277.00    1.16229   1.21806   53.048
 6278.00    1.13821   1.20564   53.707
 6279.00    1.11251   1.19812   -1.000
 6280.00    1.09466   1.19868   -1.000
 6281.00    1.09356   1.20758   -1.000
 6282.00    1.09987   1.22187   -1.000
 6283.00    1.10378   1.23727   -1.000
 6284.00    1.11027   1.25089   -1.000
 6285.00    1.11800   1.26184   -1.000
 6286.00    1.12874   1.26993   -1.000
 6287.00    1.14466   1.27428   -1.000
 6288.00    1.15666   1.27358   -1.000
 6289.00    1.16290   1.26817   -1.000
 6290.00    1.16198   1.26060   -1.000
 6291.00    1.15540   1.25412   -1.000
 6292.00    1.15553   1.25020   -1.000
 6293.00    1.16043   1.24748   -1.000
 6294.00    1.16181   1.24319   -1.000
 6295.00    1.15482   1.23634   -1.000
 6296.00    1.14477   1.22920   -1.000
 6297.00    1.14173   1.22462   -1.000
 6298.00    1.13484   1.22249   -1.000
 6299.00    1.12297   1.22041   -1.000
 6300.00    1.10915   1.21769   -1.000
 6301.00    1.08855   1.21726   -1.000
 6302.00    1.07500   1.22229   -1.000
 6303.00    1.08331   1.23245   -1.000
 6304.00    1.11732   1.24480   -1.000
 6305.00    1.15095   1.25660   -1.000
 6306.00    1.16135   1.26620   -1.000
 6307.00    1.16479   1.27192   -1.000
 6308.00    1.16419   1.27264   -1.000
 6309.00    1.15843   1.26909   -1.000
 6310.00    1.15642   1.26356   -1.000
 6311.00    1.15333   1.25778   -1.000
 6312.00    1.14830   1.25170   -1.000
 6313.00    1.14295   1.24447   -1.000
 6314.00    1.13495   1.23658   -1.000
 6315.00    1.13325   1.22996   -1.000
 6316.00    1.13469   1.22587   -1.000
 6317.00    1.12880   1.22531   -1.000
 6318.00    1.12820   1.22956   -1.000
 6319.00    1.13452   1.23835   -1.000
 6320.00    1.14217   1.24886   -1.000
 6321.00    1.14895   1.25867   -1.000
 6322.00    1.15326   1.26734   -1.000
 6323.00    1.16233   1.27487   -1.000
 6324.00    1.16878   1.28042   -1.000
 6325.00    1.16914   1.28317   -1.000
 6326.00    1.16854   1.28360   -1.000
 6327.00    1.16732   1.28317   -1.000
 6328.00    1.17042   1.28283   -1.000
 6329.00    1.17183   1.28309   -1.000
 6330.00    1.16741   1.28437   -1.000
 6331.00    1.16847   1.28538   -1.000
 6332.00    1.16981   1.28258   -1.000
 6333.00    1.16337   1.27332   -1.000
 6334.00    1.15087   1.25994   -1.000
 6335.00    1.14015   1.24913   -1.000
 6336.00    1.14352   1.24655   -1.000
 6337.00    1.14436   1.25246   -1.000
 6338.00    1.13081   1.26295   -1.000
 6339.00    1.14466   1.27317   -1.000
 6340.00    1.17078   1.27923   -1.000
 6341.00    1.16919   1.27935   -1.000
 6342.00    1.17083   1.27529   -1.000
 6343.00    1.17010   1.27150   -1.000
 6344.00    1.16932   1.27184   -1.000
 6345.00    1.17279   1.27694   -1.000
 6346.00    1.17217   1.28470   -1.000
 6347.00    1.17276   1.29273   -1.000
 6348.00    1.17913   1.29941   -1.000
 6349.00    1.18360   1.30365   -1.000
 6350.00    1.18485   1.30460   -1.000
 6351.00    1.18734   1.30149   -1.000
 6352.00    1.18571   1.29444   -1.000
 6353.00    1.17650   1.28518   -1.000
 6354.00    1.17031   1.27661   -1.000
 6355.00    1.16584   1.26997   -1.000
 6356.00    1.15937   1.26374   -1.000
 6357.00    1.15705   1.25639   -1.000
 6358.00    1.15749   1.24875   -1.000
 6359.00    1.15397   1.24246   -1.000
 6360.00    1.14966   1.23821   -1.000
 6361.00    1.15001   1.23647   -1.000
 6362.00    1.15110   1.23810   -1.000
 6363.00    1.14921   1.24368   -1.000
 6364.00    1.15055   1.25254   -1.000
 6365.00    1.15133   1.26306   -1.000
 6366.00    1.14946   1.27311   -1.000
 6367.00    1.15187   1.28086   -1.000
 6368.00    1.16212   1.28546   -1.000
 6369.00    1.17033   1.28815   -1.000
 6370.00    1.17127   1.29106   -1.000
 6371.00    1.17439   1.29523   -1.000
 6372.00    1.17863   1.29982   -1.000
 6373.00    1.17784   1.30297   -1.000
 6374.00    1.17144   1.30348   -1.000
 6375.00    1.16723   1.30135   -1.000
 6376.00    1.17015   1.29722   -1.000
 6377.00    1.16801   1.29205   -1.000
 6378.00    1.16417   1.28724   -1.000
 6379.00    1.16382   1.28406   -1.000
 6380.00    1.15806   1.28315   -1.000
 6381.00    1.15146   1.28420   -1.000
 6382.00    1.15031   1.28608   -1.000
 6383.00    1.15227   1.28798   -1.000
 6384.00    1.15341   1.29002   -1.000
 6385.00    1.15294   1.29257   -1.000
 6386.00    1.15684   1.29517   -1.000
 6387.00    1.15856   1.29667   -1.000
 6388.00    1.15146   1.29583   -1.000
 6389.00    1.14184   1.29117   -1.000
 6390.00    1.13482   1.28163   -1.000
 6391.00    1.12260   1.26883   -1.000
 6392.00    1.10784   1.25842   -1.000
 6393.00    1.09937   1.25681   -1.000
 6394.00    1.10667   1.26524   -1.000
 6395.00    1.11296   1.27691   -1.000
 6396.00    1.11110   1.28270   -1.000
 6397.00    1.10605   1.27775   -1.000
 6398.00    1.08985   1.26569   -1.000
 6399.00    1.07250   1.25666   -1.000
 6400.00    1.06514   1.25909   -1.000
 6401.00    1.07566   1.27282   -1.000
 6402.00    1.09051   1.28952   -1.000
 6403.00    1.09203   1.30063   -1.000
 6404.00    1.08922   1.30222   -1.000
 6405.00    1.08588   1.29577   -1.000
 6406.00    1.07555   1.28599   -1.000
 6407.00    1.06156   1.27826   -1.000
 6408.00    1.05346   1.27495   -1.000
 6409.00    1.04500   1.27438   -1.000
 6410.00    1.03633   1.27431   -1.000
 6411.00    1.03185   1.27501   -1.000
 6412.00    1.02952   1.27716   -1.000
 6413.00    1.02882   1.28044   -1.000
 6414.00    1.02265   1.28365   -1.000
 6415.00    1.01630   1.28556   -1.000
 6416.00    1.01575   1.28464   -1.000
 6417.00    1.00616   1.27942   -1.000
 6418.00    0.99096   1.27042   -1.000
 6419.00    0.97821   1.26189   -1.000
 6420.00    0.96634   1.25962   -1.000
 6421.00    0.96148   1.26667   -1.000
 6422.00    0.96287   1.28004   -1.000
 6423.00    0.96702   1.29361   -1.000
 6424.00    0.96401   1.30351   -1.000
 6425.00    0.95478   1.30893   -1.000
 6426.00    0.94977   1.30934   -1.000
 6427.00    0.94502   1.30326   -1.000
 6428.00    0.93431   1.29063   -1.000
